'Start Wavelength	183.907
'End Wavelength	1046.922
'Gate Delay	5.000
'Gate Width (ms)	1.050
'Laser Output Level	0.000
'X Position	0.000
'Y Position	0.000
'Z Position	0.000
'Grid Point Number	1.000
'Shot Number	100.000
183.907	568.000
183.977	72.000
184.047	626
184.116	126
184.186	460
184.256	-187
184.325	127
184.395	-208
184.465	-77
184.534	-324
184.604	737
184.674	261
184.743	367
184.813	88
184.883	477
184.952	183
185.022	254
185.092	163
185.161	599
185.231	-224
185.301	281
185.370	333
185.440	-16
185.509	170
185.579	389
185.649	-123
185.718	-206
185.788	598
185.857	293
185.927	27
185.996	46
186.066	50
186.136	277
186.205	403
186.275	3
186.344	-44
186.414	780
186.483	-175
186.553	920
186.622	677
186.692	92
186.761	687
186.831	352
186.900	151
186.970	630
187.039	726
187.109	596
187.178	434
187.248	276
187.317	608
187.387	582
187.456	-312
187.526	832
187.595	872
187.664	196
187.734	176
187.803	423
187.873	318
187.942	577
188.012	511
188.081	300
188.150	42
188.220	395
188.289	738
188.358	-29
188.428	-166
188.497	77
188.567	293
188.636	163
188.705	127
188.775	-54
188.844	321
188.913	932
188.983	429
189.052	-166
189.121	-503
189.191	318
189.260	1115
189.329	229
189.399	285
189.468	575
189.537	-153
189.606	-162
189.676	538
189.745	686
189.814	515
189.883	251
189.953	292
190.022	731
190.091	339
190.161	249
190.230	89
190.299	225
190.368	25
190.437	385
190.507	-328
190.576	-397
190.645	62
190.714	87
190.783	370
190.853	28
190.922	-28
190.991	700
191.060	-21
191.129	987
191.198	192
191.268	233
191.337	274
191.406	1071
191.475	267
191.544	386
191.613	587
191.682	157
191.752	639
191.821	242
191.890	-37
191.959	318
192.028	972
192.097	780
192.166	454
192.235	557
192.304	366
192.373	794
192.442	34
192.511	642
192.580	584
192.650	865
192.719	481
192.788	342
192.857	1008
192.926	-283
192.995	-123
193.064	990
193.133	889
193.202	720
193.271	972
193.340	1983
193.409	95
193.478	1091
193.547	1115
193.615	1427
193.684	1865
193.753	645
193.822	259
193.891	426
193.960	704
194.029	936
194.098	571
194.167	781
194.236	740
194.305	266
194.374	696
194.443	780
194.512	836
194.580	420
194.649	429
194.718	187
194.787	503
194.856	552
194.925	750
194.994	39
195.062	63
195.131	478
195.200	513
195.269	456
195.338	-89
195.407	209
195.475	190
195.544	1157
195.613	474
195.682	1169
195.751	793
195.819	873
195.888	484
195.957	1154
196.026	695
196.094	258
196.163	412
196.232	787
196.301	1358
196.369	767
196.438	926
196.507	744
196.576	796
196.644	1124
196.713	237
196.782	597
196.850	508
196.919	764
196.988	789
197.056	504
197.125	32
197.194	797
197.262	529
197.331	465
197.400	-44
197.468	719
197.537	-451
197.606	896
197.674	1067
197.743	1402
197.812	775
197.880	1311
197.949	1138
198.017	1342
198.086	492
198.155	612
198.223	532
198.292	803
198.360	307
198.429	743
198.497	617
198.566	1440
198.635	771
198.703	700
198.772	922
198.840	1675
198.909	186
198.977	114
199.046	679
199.114	950
199.183	513
199.251	831
199.320	488
199.388	654
199.457	969
199.525	717
199.594	536
199.662	482
199.731	-669
199.799	809
199.867	118
199.936	693
200.004	659
200.073	1167
200.141	189
200.210	597
200.278	579
200.346	1094
200.415	467
200.483	466
200.552	231
200.620	372
200.688	372
200.757	882
200.825	739
200.893	1241
200.962	553
201.030	933
201.098	-213
201.167	1343
201.235	319
201.303	137
201.372	291
201.440	540
201.508	1187
201.577	487
201.645	1297
201.713	706
201.781	783
201.850	717
201.918	1531
201.986	361
202.055	720
202.123	725
202.191	1207
202.259	639
202.327	512
202.396	963
202.464	312
202.532	1074
202.600	955
202.669	1150
202.737	529
202.805	906
202.873	1009
202.941	1569
203.009	593
203.078	682
203.146	1260
203.214	981
203.282	393
203.350	698
203.418	144
203.487	992
203.555	330
203.623	616
203.691	1021
203.759	781
203.827	494
203.895	1522
203.963	822
204.031	516
204.099	195
204.168	668
204.236	516
204.304	1433
204.372	572
204.440	618
204.508	594
204.576	925
204.644	1144
204.712	1004
204.780	474
204.848	536
204.916	1176
204.984	1185
205.052	1047
205.120	1146
205.188	802
205.256	1099
205.324	541
205.392	635
205.460	1634
205.528	1536
205.596	1330
205.664	1174
205.732	865
205.799	2112
205.867	1871
205.935	746
206.003	840
206.071	1063
206.139	1035
206.207	732
206.275	700
206.343	406
206.411	703
206.478	825
206.546	660
206.614	824
206.682	838
206.750	502
206.818	1062
206.885	1111
206.953	368
207.021	859
207.089	1334
207.157	538
207.225	560
207.292	1138
207.360	1266
207.428	1201
207.496	1021
207.563	732
207.631	820
207.699	890
207.767	750
207.834	855
207.902	1038
207.970	457
208.038	903
208.105	983
208.173	960
208.241	1360
208.309	1977
208.376	975
208.444	1581
208.512	1459
208.579	998
208.647	1776
208.715	1182
208.782	1008
208.850	831
208.918	2357
208.985	1996
209.053	988
209.120	1090
209.188	887
209.256	1183
209.323	1011
209.391	1241
209.459	1119
209.526	881
209.594	899
209.661	628
209.729	863
209.796	863
209.864	1439
209.932	1600
209.999	1520
210.067	1366
210.134	1683
210.202	1486
210.269	2078
210.337	1702
210.404	1655
210.472	927
210.539	1305
210.607	1478
210.674	2053
210.742	1028
210.809	2009
210.877	2117
210.944	2314
211.012	1217
211.079	1574
211.146	1408
211.214	1730
211.281	2095
211.349	1493
211.416	1454
211.484	1961
211.551	1520
211.618	1467
211.686	707
211.753	2040
211.821	1290
211.888	1807
211.955	958
212.023	1029
212.090	2166
212.157	1330
212.225	2102
212.292	3283
212.359	2489
212.427	5422
212.494	2195
212.561	1755
212.629	1319
212.696	1977
212.763	2068
212.831	2287
212.898	2133
212.965	1424
213.032	1824
213.100	1819
213.167	1943
213.234	1856
213.301	1488
213.369	1682
213.436	1145
213.503	1191
213.570	1488
213.638	2114
213.705	1538
213.772	2153
213.839	1406
213.906	1498
213.973	1303
214.041	1334
214.108	1972
214.175	1386
214.242	954
214.309	1924
214.376	1269
214.444	1638
214.511	1770
214.578	1738
214.645	2114
214.712	1662
214.779	1516
214.846	1871
214.913	2156
214.980	2183
215.048	2009
215.115	1973
215.182	1924
215.249	2195
215.316	1257
215.383	1682
215.450	1559
215.517	1382
215.584	1409
215.651	1387
215.718	1321
215.785	1440
215.852	1386
215.919	1816
215.986	1671
216.053	1815
216.120	1025
216.187	2050
216.254	1875
216.321	1313
216.388	1511
216.455	1203
216.522	2219
216.589	2247
216.656	2632
216.722	2680
216.789	2785
216.856	3644
216.923	2293
216.990	2475
217.057	2458
217.124	2572
217.191	3370
217.258	3349
217.324	3236
217.391	3825
217.458	3008
217.525	3099
217.592	2868
217.659	1979
217.725	2697
217.792	1256
217.859	2514
217.926	2038
217.993	1655
218.059	1468
218.126	1534
218.193	1695
218.260	1203
218.327	1316
218.393	580
218.460	1706
218.527	851
218.594	1947
218.660	1604
218.727	1581
218.794	955
218.860	1395
218.927	1296
218.994	1109
219.061	1564
219.127	1381
219.194	1577
219.261	922
219.327	1024
219.394	2141
219.461	584
219.527	1258
219.594	1535
219.661	1370
219.727	858
219.794	1904
219.860	832
219.927	1683
219.994	1966
220.060	2219
220.127	1375
220.193	2238
220.260	2089
220.326	3837
220.393	5504
220.460	6260
220.526	4030
220.593	3557
220.659	3669
220.726	3178
220.792	5006
220.859	6040
220.925	8039
220.992	8582
221.058	6849
221.125	5554
221.191	3797
221.258	2685
221.324	2771
221.391	1949
221.457	1339
221.524	1943
221.590	2595
221.657	4210
221.723	2257
221.789	3444
221.856	2529
221.922	1963
221.989	1736
222.055	991
222.121	712
222.188	2068
222.254	1862
222.321	1539
222.387	1080
222.453	1490
222.520	912
222.586	1233
222.652	1094
222.719	1034
222.785	874
222.851	942
222.918	809
222.984	1290
223.050	1571
223.116	851
223.183	985
223.249	1211
223.315	1088
223.382	826
223.448	865
223.514	1420
223.580	954
223.647	1320
223.713	974
223.779	1547
223.845	895
223.911	1304
223.978	646
224.044	1553
224.110	525
224.176	1458
224.242	1250
224.309	678
224.375	382
224.441	1042
224.507	1544
224.573	966
224.639	1042
224.705	256
224.772	858
224.838	1355
224.904	627
224.970	1104
225.036	1481
225.102	825
225.168	701
225.234	1851
225.300	644
225.366	1170
225.432	818
225.499	1022
225.565	720
225.631	1244
225.697	1402
225.763	2077
225.829	2071
225.895	2122
225.961	2425
226.027	1884
226.093	2359
226.159	3304
226.225	5459
226.291	9711
226.357	10168
226.423	7124
226.489	4509
226.554	3338
226.620	2946
226.686	4504
226.752	6484
226.818	8597
226.884	10750
226.950	10324
227.016	5729
227.082	4064
227.148	2595
227.214	3029
227.279	2534
227.345	2426
227.411	2163
227.477	1451
227.543	2280
227.609	2417
227.674	1550
227.740	2042
227.806	1369
227.872	1649
227.938	1719
228.003	2158
228.069	1883
228.135	1259
228.201	1115
228.267	1413
228.332	2257
228.398	1256
228.464	1401
228.530	858
228.595	1662
228.661	1906
228.727	1935
228.792	1321
228.858	1569
228.924	1267
228.990	2123
229.055	1288
229.121	744
229.187	1506
229.252	1197
229.318	927
229.384	958
229.449	1081
229.515	485
229.581	316
229.646	1618
229.712	800
229.777	2321
229.843	1819
229.909	2379
229.974	2643
230.040	2159
230.105	2197
230.171	1354
230.236	2417
230.302	2502
230.368	2028
230.433	2755
230.499	2157
230.564	2002
230.630	1375
230.695	1414
230.761	2153
230.826	1529
230.892	1832
230.957	1147
231.023	1434
231.088	1220
231.154	1761
231.219	2148
231.284	2601
231.350	1418
231.415	1124
231.481	355
231.546	1592
231.612	1304
231.677	1950
231.742	160
231.808	1090
231.873	1817
231.939	229
232.004	2599
232.069	1178
232.135	1200
232.200	1463
232.265	1043
232.331	684
232.396	1143
232.461	1651
232.527	1269
232.592	1242
232.657	1401
232.723	1367
232.788	570
232.853	876
232.918	1147
232.984	1384
233.049	1771
233.114	1855
233.179	1377
233.245	2676
233.310	1538
233.375	1341
233.440	658
233.506	2003
233.571	630
233.636	1156
233.701	814
233.766	1804
233.832	1121
233.897	2026
233.962	1040
234.027	2027
234.092	1201
234.157	1242
234.222	1873
234.288	2795
234.353	4393
234.418	3108
234.483	2990
234.548	2706
234.613	2598
234.678	1983
234.743	2068
234.808	5104
234.873	3389
234.938	2867
235.004	2238
235.069	2166
235.134	1132
235.199	2530
235.264	1380
235.329	1226
235.394	1819
235.459	2094
235.524	2084
235.589	1662
235.654	1349
235.719	1670
235.784	1002
235.849	2279
235.913	2256
235.978	3257
236.043	2667
236.108	1569
236.173	1599
236.238	1764
236.303	1939
236.368	1781
236.433	3009
236.498	3581
236.563	3824
236.627	8756
236.692	16163
236.757	12096
236.822	6668
236.887	5358
236.952	3879
237.017	4273
237.081	4642
237.146	7342
237.211	13433
237.276	16800
237.341	17317
237.405	12279
237.470	7603
237.535	4977
237.600	3521
237.664	3441
237.729	2789
237.794	5158
237.859	7878
237.923	4410
237.988	2742
238.053	3491
238.118	2347
238.182	5648
238.247	3769
238.312	2333
238.376	2304
238.441	1663
238.506	2377
238.570	1027
238.635	2745
238.700	1534
238.764	1280
238.829	3308
238.893	2954
238.958	3066
239.023	1983
239.087	1846
239.152	2043
239.216	1565
239.281	1488
239.346	1849
239.410	1697
239.475	2015
239.539	6028
239.604	2768
239.668	2239
239.733	1476
239.797	1747
239.862	4132
239.926	4187
239.991	1955
240.055	1543
240.120	1829
240.184	1716
240.249	1385
240.313	1623
240.378	1526
240.442	3778
240.507	4182
240.571	1630
240.635	2222
240.700	2417
240.764	1930
240.829	2095
240.893	863
240.957	1158
241.022	3431
241.086	4109
241.151	1602
241.215	758
241.279	2611
241.344	2584
241.408	2252
241.472	2642
241.537	2098
241.601	1972
241.665	1638
241.730	1857
241.794	2064
241.858	1624
241.922	2639
241.987	2585
242.051	2408
242.115	1888
242.179	2564
242.244	1720
242.308	2338
242.372	2205
242.436	1688
242.501	1631
242.565	1520
242.629	1490
242.693	2772
242.757	1201
242.822	1318
242.886	1816
242.950	2342
243.014	1427
243.078	2536
243.142	2216
243.206	1202
243.271	2615
243.335	1584
243.399	2328
243.463	10768
243.527	16808
243.591	4979
243.655	4165
243.719	2432
243.783	3762
243.847	5152
243.911	4116
243.975	5907
244.040	2971
244.104	3469
244.168	2024
244.232	3378
244.296	4035
244.360	4669
244.424	1678
244.488	1694
244.552	1765
244.615	1383
244.679	1632
244.743	2638
244.807	2079
244.871	1915
244.935	1549
244.999	1175
245.063	1584
245.127	2450
245.191	3980
245.255	2769
245.319	3637
245.383	1383
245.446	2590
245.510	1663
245.574	2164
245.638	1763
245.702	2765
245.766	4511
245.829	2339
245.893	2411
245.957	2187
246.021	2443
246.085	2147
246.149	2849
246.212	4925
246.276	5889
246.340	3822
246.404	2500
246.467	3148
246.531	3049
246.595	2976
246.659	2861
246.722	2978
246.786	3155
246.850	3866
246.913	3454
246.977	1542
247.041	2395
247.104	2341
247.168	2875
247.232	5833
247.295	6628
247.359	3813
247.423	3344
247.486	4647
247.550	3348
247.614	3009
247.677	3472
247.741	2200
247.804	2137
247.868	2360
247.932	5829
247.995	7421
248.059	3385
248.122	2328
248.186	4461
248.249	6650
248.313	12316
248.376	11384
248.440	7863
248.503	3826
248.567	4961
248.630	6455
248.694	6971
248.757	9495
248.821	12585
248.884	9424
248.948	9573
249.011	11252
249.075	14585
249.138	10907
249.202	7490
249.265	5203
249.328	5325
249.392	5103
249.455	4257
249.519	4246
249.582	4630
249.645	6650
249.709	5852
249.772	5778
249.835	4533
249.899	3681
249.962	3919
250.025	2871
250.089	7815
250.152	8975
250.215	5198
250.279	3968
250.342	4312
250.405	3822
250.468	3671
250.532	5147
250.595	8748
250.658	22819
250.721	24630
250.785	10414
250.848	7118
250.911	4500
250.974	5379
251.038	6636
251.101	8364
251.164	5287
251.227	6047
251.290	6234
251.354	10751
251.417	28543
251.480	22364
251.543	23589
251.606	43079
251.669	28180
251.732	15285
251.795	14911
251.859	16813
251.922	29178
251.985	14658
252.048	7367
252.111	6397
252.174	6355
252.237	12463
252.300	16195
252.363	24321
252.426	30959
252.489	13396
252.552	7879
252.615	7319
252.678	8289
252.741	14464
252.804	22221
252.867	35132
252.930	20507
252.993	11156
253.056	8309
253.119	6362
253.182	5095
253.245	8767
253.308	6428
253.371	6205
253.434	5531
253.497	6597
253.559	8908
253.622	6326
253.685	11223
253.748	8752
253.811	4017
253.874	6341
253.937	4711
254.000	4668
254.062	6974
254.125	8635
254.188	10995
254.251	6499
254.314	4564
254.376	8441
254.439	9084
254.502	7169
254.565	7634
254.628	11972
254.690	8191
254.753	4048
254.816	3861
254.878	4681
254.941	7332
255.004	5729
255.067	3885
255.129	3618
255.192	2094
255.255	2454
255.317	3050
255.380	2045
255.443	1374
255.505	1488
255.568	1374
255.631	2283
255.693	2064
255.756	1428
255.819	1862
255.881	1431
255.944	1856
256.006	1410
256.069	2125
256.132	2232
256.194	2926
256.257	5216
256.319	3405
256.382	3520
256.444	2579
256.507	2926
256.569	2204
256.632	3883
256.694	6059
256.757	18903
256.819	29959
256.882	11280
256.944	6424
257.007	6371
257.069	4741
257.132	3854
257.194	3054
257.257	3617
257.319	3227
257.381	4560
257.444	14937
257.506	37828
257.569	32791
257.631	15177
257.693	9702
257.756	4900
257.818	4140
257.880	3211
257.943	3267
258.005	3008
258.067	1834
258.130	2809
258.192	3749
258.254	5417
258.317	2572
258.379	3436
258.441	6178
258.503	4450
258.566	6906
258.628	6120
258.690	1694
258.753	3448
258.815	5853
258.877	3095
258.939	3274
259.001	3302
259.064	2367
259.126	2627
259.188	3416
259.250	3701
259.312	2658
259.375	6302
259.437	3702
259.499	3348
259.561	2646
259.623	2759
259.685	2524
259.747	3561
259.809	7340
259.872	8840
259.934	16781
259.996	12068
260.058	4133
260.120	2778
260.182	1950
260.244	1477
260.306	1425
260.368	2633
260.430	1831
260.492	5731
260.554	7203
260.616	3728
260.678	9198
260.740	8810
260.802	2464
260.864	2832
260.926	1493
260.988	2957
261.050	2953
261.112	7557
261.174	12868
261.236	6454
261.298	3271
261.359	6114
261.421	6650
261.483	2595
261.545	2977
261.607	1618
261.669	1860
261.731	4185
261.793	7377
261.854	3482
261.916	2377
261.978	2497
262.040	2186
262.102	2111
262.164	2951
262.225	2010
262.287	1956
262.349	5317
262.411	2224
262.472	2226
262.534	3684
262.596	4211
262.658	2177
262.719	1562
262.781	2497
262.843	4894
262.904	2100
262.966	2958
263.028	3340
263.090	17556
263.151	26896
263.213	8836
263.275	5849
263.336	2660
263.398	2313
263.459	1352
263.521	2215
263.583	5086
263.644	2246
263.706	1108
263.767	479
263.829	1256
263.891	90
263.952	1171
264.014	670
264.075	3848
264.137	6507
264.198	3255
264.260	545
264.321	1325
264.383	6191
264.444	10406
264.506	2239
264.567	2248
264.629	6460
264.690	7938
264.752	3234
264.813	2485
264.875	1416
264.936	1777
264.998	1631
265.059	763
265.120	2024
265.182	6186
265.243	26007
265.305	17032
265.366	4287
265.427	3676
265.489	2787
265.550	1011
265.611	1866
265.673	1764
265.734	2273
265.795	1343
265.857	1539
265.918	2765
265.979	9477
266.040	34747
266.102	19053
266.163	7869
266.224	5859
266.286	3153
266.347	2117
266.408	2255
266.469	2074
266.530	1131
266.592	1725
266.653	4110
266.714	4186
266.775	2185
266.836	1186
266.898	1874
266.959	3077
267.020	1713
267.081	2163
267.142	2029
267.203	1116
267.264	872
267.326	1389
267.387	1750
267.448	473
267.509	1592
267.570	1071
267.631	1526
267.692	481
267.753	1598
267.814	730
267.875	4970
267.936	5253
267.997	4778
268.058	3498
268.119	2862
268.180	1781
268.241	1566
268.302	1353
268.363	1439
268.424	2026
268.485	1714
268.546	372
268.607	673
268.668	813
268.729	1042
268.790	842
268.851	1665
268.912	5402
268.972	5177
269.033	2584
269.094	1133
269.155	989
269.216	877
269.277	1452
269.338	1144
269.398	1663
269.459	2433
269.520	3512
269.581	4070
269.642	4326
269.702	3120
269.763	2357
269.824	2131
269.885	2470
269.945	4013
270.006	2278
270.067	704
270.128	820
270.188	1430
270.249	1467
270.310	547
270.370	1838
270.431	857
270.492	1415
270.553	2035
270.613	4758
270.674	6583
270.734	2201
270.795	1409
270.856	3247
270.916	1335
270.977	1662
271.038	2652
271.098	2348
271.159	4781
271.219	2585
271.280	1658
271.340	930
271.401	2352
271.462	2904
271.522	2516
271.583	1538
271.643	1707
271.704	1501
271.764	2910
271.825	6753
271.885	18659
271.946	15964
272.006	7020
272.066	11761
272.127	12369
272.187	4079
272.248	2280
272.308	3932
272.369	10139
272.429	5064
272.489	6787
272.550	4718
272.610	6124
272.671	4060
272.731	3827
272.791	5149
272.852	3596
272.912	3673
272.972	1603
273.033	1898
273.093	2974
273.153	3029
273.214	1680
273.274	2337
273.334	10777
273.394	12689
273.455	6253
273.515	8032
273.575	11887
273.635	5304
273.696	9070
273.756	12143
273.816	5289
273.876	2910
273.936	7390
273.997	7764
274.057	1857
274.117	3312
274.177	5740
274.237	19631
274.297	11282
274.358	9913
274.418	11789
274.478	8935
274.538	3486
274.598	2312
274.658	9218
274.718	8954
274.778	3592
274.838	2380
274.898	6174
274.958	11744
275.018	13286
275.078	8169
275.138	4221
275.198	1873
275.258	1261
275.318	3112
275.378	6225
275.438	6419
275.498	3990
275.558	8295
275.618	13090
275.678	7422
275.738	8006
275.798	5400
275.858	3127
275.918	1162
275.978	3303
276.038	2291
276.098	1828
276.157	6259
276.217	12820
276.277	4435
276.337	4112
276.397	2146
276.457	3379
276.517	1912
276.576	1210
276.636	2048
276.696	3762
276.756	8259
276.815	3876
276.875	1799
276.935	2823
276.995	2889
277.055	1921
277.114	1623
277.174	4291
277.234	8583
277.293	2763
277.353	2075
277.413	2084
277.472	1975
277.532	1411
277.592	1958
277.651	9241
277.711	10219
277.771	4700
277.830	17703
277.890	9116
277.950	10928
278.009	21474
278.069	6834
278.128	11552
278.188	11262
278.248	6208
278.307	14734
278.367	6228
278.426	2993
278.486	2586
278.545	1681
278.605	852
278.664	1569
278.724	1949
278.783	8323
278.843	11838
278.902	3485
278.962	2330
279.021	4073
279.081	3042
279.140	3019
279.199	3857
279.259	2781
279.318	3223
279.378	4519
279.437	8122
279.496	22991
279.556	58110
279.615	29049
279.675	8792
279.734	7184
279.793	12314
279.853	13034
279.912	5635
279.971	4350
280.031	3164
280.090	7790
280.149	9621
280.208	10395
280.268	44825
280.327	26456
280.386	7603
280.445	9112
280.505	6382
280.564	3464
280.623	3286
280.682	5757
280.742	6561
280.801	2527
280.860	2085
280.919	1544
280.978	1373
281.037	1471
281.097	815
281.156	1267
281.215	2039
281.274	2079
281.333	9260
281.392	4226
281.451	1949
281.510	1848
281.569	1655
281.628	1262
281.688	1308
281.747	2820
281.806	1810
281.865	1326
281.924	344
281.983	574
282.042	1277
282.101	960
282.160	1774
282.219	616
282.278	2370
282.337	7007
282.396	3045
282.454	2009
282.513	2764
282.572	10273
282.631	4207
282.690	1346
282.749	1526
282.808	2267
282.867	2345
282.926	2008
282.985	1540
283.043	834
283.102	892
283.161	1273
283.220	5064
283.279	8201
283.338	2249
283.396	2023
283.455	1968
283.514	2250
283.573	4436
283.631	2456
283.690	1503
283.749	1824
283.808	5111
283.866	3457
283.925	1482
283.984	1729
284.043	3375
284.101	2471
284.160	1907
284.219	2355
284.277	3113
284.336	5222
284.395	14922
284.453	7992
284.512	3764
284.570	6650
284.629	4924
284.688	4246
284.746	4551
284.805	5000
284.863	8257
284.922	8819
284.981	11189
285.039	16191
285.098	27493
285.156	50459
285.215	47876
285.273	52947
285.332	42456
285.390	26954
285.449	17434
285.507	11479
285.566	10022
285.624	6836
285.683	4923
285.741	4198
285.799	4878
285.858	3803
285.916	3738
285.975	2981
286.033	2023
286.091	2057
286.150	1917
286.208	2215
286.267	2887
286.325	2179
286.383	5952
286.442	2951
286.500	2089
286.558	2051
286.616	1017
286.675	3035
286.733	2545
286.791	1738
286.850	2494
286.908	3819
286.966	4628
287.024	1713
287.083	1136
287.141	1403
287.199	1790
287.257	4384
287.315	2982
287.374	2338
287.432	7036
287.490	3095
287.548	3096
287.606	1277
287.664	2261
287.723	3559
287.781	3480
287.839	2028
287.897	3346
287.955	3361
288.013	5934
288.071	14914
288.129	56923
288.187	94463
288.245	38294
288.303	13276
288.361	8015
288.419	6240
288.477	4049
288.535	3003
288.593	2723
288.651	2485
288.709	1334
288.767	2150
288.825	1792
288.883	1270
288.941	1198
288.999	1868
289.057	1605
289.115	742
289.173	997
289.231	2228
289.289	1222
289.346	1075
289.404	1960
289.462	4340
289.520	3564
289.578	1260
289.636	944
289.694	715
289.751	1105
289.809	983
289.867	1433
289.925	2501
289.983	3271
290.040	962
290.098	985
290.156	1751
290.214	2594
290.271	1397
290.329	1311
290.387	565
290.444	2307
290.502	822
290.560	1086
290.617	645
290.675	1250
290.733	1157
290.790	1781
290.848	1065
290.906	1676
290.963	1744
291.021	975
291.078	1404
291.136	1192
291.194	6939
291.251	9606
291.309	1914
291.366	1124
291.424	1185
291.481	1134
291.539	1137
291.596	1068
291.654	472
291.711	626
291.769	2004
291.826	3627
291.884	1713
291.941	1006
291.999	1444
292.056	1852
292.114	856
292.171	1157
292.228	722
292.286	2152
292.343	4829
292.401	4822
292.458	2469
292.515	1752
292.573	2569
292.630	2293
292.687	1836
292.745	1750
292.802	3542
292.859	8479
292.917	11205
292.974	5229
293.031	2425
293.089	1553
293.146	1072
293.203	1322
293.260	1266
293.318	1963
293.375	2671
293.432	1497
293.489	325
293.546	882
293.604	2861
293.661	8278
293.718	15144
293.775	7857
293.832	3772
293.889	2438
293.947	2237
294.004	2581
294.061	3032
294.118	6381
294.175	12840
294.232	14157
294.289	4199
294.346	4010
294.403	3930
294.460	2715
294.517	1958
294.574	1065
294.631	1588
294.688	2253
294.745	7813
294.802	23365
294.859	19975
294.916	7651
294.973	3785
295.030	4852
295.087	3789
295.144	2768
295.201	2439
295.258	2073
295.315	2863
295.372	10162
295.429	11944
295.486	6029
295.542	4445
295.599	13866
295.656	16028
295.713	12348
295.770	10573
295.827	4375
295.883	3002
295.940	3911
295.997	6073
296.054	4461
296.111	2197
296.167	2598
296.224	1229
296.281	1771
296.338	1619
296.394	1799
296.451	2682
296.508	7214
296.564	10540
296.621	9443
296.678	18102
296.734	18970
296.791	7284
296.848	5122
296.904	6974
296.961	13801
297.018	15704
297.074	9909
297.131	4585
297.187	4064
297.244	5373
297.301	16153
297.357	19053
297.414	7397
297.470	3599
297.527	2992
297.583	2882
297.640	2774
297.696	1994
297.753	1421
297.809	1228
297.866	2023
297.922	1173
297.979	1894
298.035	1606
298.092	4622
298.148	10291
298.204	7799
298.261	4467
298.317	9615
298.374	17469
298.430	9146
298.486	4809
298.543	3736
298.599	4186
298.656	5526
298.712	10477
298.768	19521
298.824	10124
298.881	3971
298.937	1965
298.993	3221
299.050	4563
299.106	3605
299.162	2963
299.218	2954
299.275	1868
299.331	3033
299.387	6432
299.443	18045
299.500	13644
299.556	6162
299.612	3377
299.668	3203
299.724	3109
299.780	3281
299.837	2063
299.893	5621
299.949	16172
300.005	15497
300.061	16063
300.117	20686
300.173	8939
300.229	6291
300.285	7975
300.341	8586
300.397	3979
300.453	2853
300.510	2262
300.566	2392
300.622	2361
300.678	8159
300.734	14378
300.790	13490
300.845	14319
300.901	10725
300.957	15306
301.013	9370
301.069	3349
301.125	4314
301.181	3734
301.237	2738
301.293	2119
301.349	2352
301.405	1883
301.461	2564
301.516	2872
301.572	4715
301.628	5391
301.684	4788
301.740	8293
301.796	10181
301.851	8575
301.907	13039
301.963	11885
302.019	20243
302.074	38915
302.130	36329
302.186	17491
302.242	8411
302.297	5983
302.353	6836
302.409	10729
302.464	8759
302.520	9166
302.576	20316
302.631	19564
302.687	11441
302.743	5573
302.798	3928
302.854	3092
302.910	4126
302.965	5673
303.021	8464
303.076	8222
303.132	11358
303.187	10435
303.243	5748
303.299	3805
303.354	3438
303.410	2785
303.465	2874
303.521	2849
303.576	3055
303.632	3463
303.687	7668
303.743	15489
303.798	11513
303.853	4808
303.909	3875
303.964	3828
304.020	6836
304.075	8824
304.130	9499
304.186	15436
304.241	14396
304.297	10777
304.352	6045
304.358	5766
304.407	3497
304.449	4468
304.463	4798
304.518	3612
304.539	3597
304.573	3572
304.629	3347
304.630	3400
304.684	5833
304.720	11107
304.739	13836
304.794	15275
304.811	13299
304.850	8190
304.902	4060
304.905	3812
304.960	3237
304.992	3816
305.015	4243
305.071	3991
305.083	3878
305.126	3403
305.173	2470
305.181	2328
305.236	1969
305.264	2271
305.292	2612
305.347	3732
305.354	3710
305.402	3566
305.445	4709
305.457	5037
305.512	5398
305.535	5476
305.567	5471
305.622	5273
305.626	5456
305.678	9568
305.716	17251
305.733	20254
305.788	18996
305.807	17484
305.843	14108
305.897	17197
305.898	17244
305.953	14648
305.988	11142
306.008	8938
306.063	6449
306.078	5883
306.118	4715
306.168	3063
306.173	2947
306.228	2918
306.259	2763
306.283	2613
306.338	2272
306.349	2428
306.393	3373
306.440	4473
306.448	4600
306.503	3919
306.530	3837
306.558	4486
306.613	9760
306.620	10387
306.668	14896
306.711	19306
306.723	19765
306.778	14660
306.801	12057
306.833	8465
306.888	4243
306.892	4071
306.943	3458
306.982	3129
306.997	3016
307.052	2443
307.072	2623
307.107	3343
307.162	4024
307.163	4036
307.217	5446
307.253	6227
307.272	6475
307.327	7090
307.343	6687
307.381	5472
307.434	5599
307.436	5741
307.491	10084
307.524	14054
307.546	16145
307.600	17617
307.614	16844
307.655	10920
307.704	6079
307.710	5938
307.765	6391
307.795	7324
307.819	9166
307.874	14246
307.885	14414
307.929	12141
307.975	11649
307.984	12231
308.038	18015
308.065	22925
308.093	34675
308.148	67025
308.156	72762
308.202	112010
308.246	134170
308.257	129223
308.312	83350
308.336	64414
308.366	50940
308.421	31016
308.426	29257
308.475	19432
308.517	13640
308.530	12903
308.585	10948
308.607	10131
308.639	9355
308.694	8864
308.697	8890
308.748	12480
308.787	16307
308.803	16838
308.857	15170
308.877	14560
308.912	13500
308.967	13776
308.967	13783
309.021	18789
309.058	23442
309.076	28927
309.130	49140
309.148	57398
309.185	90800
309.238	142135
309.239	142812
309.293	159290
309.328	162140
309.348	145204
309.402	87858
309.418	72556
309.457	52654
309.508	30384
309.511	29868
309.566	23755
309.598	21047
309.620	21799
309.674	24878
309.688	25615
309.729	25541
309.778	23583
309.783	23072
309.837	17228
309.868	14514
309.892	16322
309.946	22192
309.959	24111
310.001	35421
310.049	45259
310.055	43805
310.109	27525
310.139	18939
310.163	15364
310.218	8618
310.229	7422
310.272	6313
310.319	5188
310.326	5118
310.381	4853
310.409	4688
310.435	4242
310.489	3367
310.499	3252
310.543	3965
310.589	4572
310.598	4538
310.652	4342
310.679	4184
310.706	3878
310.760	3291
310.769	3200
310.814	3136
310.859	3049
310.868	3062
310.923	3166
310.948	3234
310.977	3406
311.031	3686
311.038	3715
311.085	3416
311.128	3120
311.139	3266
311.193	3989
311.218	4326
311.247	4069
311.301	3503
311.308	3430
311.356	3264
311.398	3109
311.410	3146
311.464	3360
311.488	3392
311.518	3477
311.572	3690
311.578	3716
311.626	4926
311.668	5941
311.680	5873
311.734	5365
311.758	5198
311.788	5156
311.842	4972
311.847	4949
311.896	5658
311.937	6261
311.950	6478
312.004	7366
312.027	7724
312.058	6513
312.112	4346
312.117	4123
312.165	4201
312.207	4258
312.297	5403
312.386	5172
312.476	5461
312.566	8287
312.656	5449
312.745	3076
312.835	3791
312.925	5004
313.015	4315
313.104	4342
313.194	3626
313.284	4129
313.374	4429
313.463	5698
313.553	3724
313.643	3630
313.732	3633
313.822	3531
313.912	3930
314.001	4211
314.091	4490
314.180	5945
314.270	5634
314.360	6319
314.449	5261
314.539	4042
314.628	4175
314.718	4263
314.808	4666
314.897	3295
314.987	4181
315.076	5005
315.166	6234
315.255	5238
315.345	5035
315.434	5504
315.524	4401
315.613	4953
315.703	6275
315.792	6549
315.881	5694
315.971	5068
316.060	6883
316.150	9049
316.239	10187
316.328	5777
316.418	4002
316.507	4382
316.597	4366
316.686	4854
316.775	4794
316.865	9476
316.954	3970
317.043	3365
317.133	4083
317.222	3467
317.311	3084
317.400	4124
317.490	4865
317.579	5892
317.668	3959
317.757	4582
317.847	6415
317.936	8425
318.025	12280
318.114	8331
318.203	5819
318.293	9174
318.382	22609
318.471	17589
318.560	20677
318.649	36116
318.738	12676
318.828	5730
318.917	6730
319.006	6493
319.095	12671
319.184	40761
319.273	30961
319.362	17377
319.451	6398
319.540	5486
319.629	8897
319.718	20915
319.807	9285
319.896	12956
319.985	49670
320.074	29398
320.163	6622
320.252	7368
320.341	6634
320.430	8682
320.519	8919
320.608	7437
320.697	5063
320.786	5473
320.875	5310
320.964	7985
321.053	11863
321.142	16107
321.230	20180
321.319	12056
321.408	29523
321.497	16609
321.586	12400
321.675	11559
321.764	13729
321.852	9103
321.941	15813
322.030	15111
322.119	10926
322.207	29198
322.296	18722
322.385	9528
322.474	10241
322.562	32931
322.651	24731
322.740	11628
322.829	17123
322.917	14358
323.006	11278
323.095	10679
323.183	7323
323.272	9799
323.361	14448
323.449	35319
323.538	17724
323.626	23550
323.715	20894
323.804	7051
323.892	20346
323.981	20780
324.069	6345
324.158	10127
324.246	14623
324.335	6910
324.424	12951
324.512	6453
324.601	6953
324.689	12543
324.778	29108
324.866	12517
324.954	5870
325.043	4312
325.131	6193
325.220	10085
325.308	11567
325.397	9004
325.485	8417
325.574	4062
325.662	3973
325.750	3923
325.839	4460
325.927	4002
326.015	4090
326.104	4281
326.192	7443
326.280	4683
326.369	3140
326.457	5292
326.545	10215
326.634	6382
326.722	2861
326.810	3926
326.898	3029
326.987	3946
327.075	7692
327.163	9827
327.251	4949
327.340	9069
327.428	19278
327.516	4383
327.604	2945
327.692	3684
327.781	3318
327.869	5539
327.957	4259
328.045	5493
328.133	3669
328.221	2639
328.309	4089
328.397	3567
328.485	5080
328.574	6054
328.662	17745
328.750	13069
328.838	4203
328.926	3537
329.014	4162
329.102	4534
329.190	10703
329.278	11035
329.366	4013
329.454	3726
329.542	4082
329.630	3150
329.718	3993
329.806	5524
329.893	6119
329.981	7255
330.069	12088
330.157	38640
330.245	110428
330.333	84704
330.421	18843
330.509	10037
330.597	22582
330.684	21827
330.772	6577
330.860	7098
330.948	9577
331.036	6633
331.123	3654
331.211	3513
331.299	3661
331.387	6771
331.475	15693
331.562	6215
331.650	3159
331.738	3210
331.825	3817
331.913	3262
332.001	2594
332.089	3457
332.176	5647
332.264	10312
332.352	11617
332.439	5587
332.527	4020
332.614	3374
332.702	3522
332.790	2814
332.877	5242
332.965	11934
333.052	5358
333.140	3686
333.228	8266
333.315	4097
333.403	3436
333.490	6596
333.578	7320
333.665	10541
333.753	7924
333.840	3237
333.928	3614
334.015	7834
334.103	12715
334.190	45508
334.278	20194
334.365	4934
334.452	3090
334.540	3095
334.627	2953
334.715	4996
334.802	6934
334.889	28618
334.977	47378
335.064	7022
335.151	3690
335.239	3683
335.326	5610
335.413	18476
335.501	44081
335.588	6975
335.675	4388
335.762	3853
335.850	8863
335.937	5970
336.024	8902
336.111	40518
336.199	26254
336.286	5835
336.373	3484
336.460	2837
336.547	2689
336.635	3318
336.722	3941
336.809	3825
336.896	5048
336.983	14012
337.070	37386
337.157	57067
337.245	28072
337.332	25434
337.419	4556
337.506	3709
337.593	4004
337.680	8616
337.767	40588
337.854	15092
337.941	13069
338.028	12721
338.115	6206
338.202	4949
338.289	7920
338.376	25581
338.463	14150
338.550	17690
338.637	30688
338.724	6424
338.811	9808
338.898	3375
338.984	2593
339.071	4293
339.158	4414
339.245	11802
339.332	9889
339.419	6531
339.506	8018
339.593	2932
339.679	2933
339.766	3256
339.853	3425
339.940	9753
340.027	5232
340.113	3642
340.200	5283
340.287	4585
340.374	4871
340.460	9252
340.547	4307
340.634	5268
340.720	20498
340.807	19515
340.894	3227
340.980	3447
341.067	3059
341.154	3591
341.240	4008
341.327	13111
341.414	5602
341.500	6935
341.587	4112
341.674	2830
341.760	7281
341.847	11592
341.933	5228
342.020	2075
342.106	1392
342.193	2951
342.279	7613
342.366	4355
342.452	9414
342.539	5501
342.625	8702
342.712	26560
342.798	13557
342.885	6643
342.971	2584
343.058	2244
343.144	2617
343.230	3026
343.317	3017
343.403	3477
343.490	2235
343.576	1390
343.662	2602
343.749	3864
343.835	3388
343.921	6882
344.008	26172
344.094	86921
344.180	29510
344.267	8713
344.353	18505
344.439	29276
344.525	13997
344.612	12702
344.698	14922
344.784	9285
344.870	3496
344.957	3645
345.043	5792
345.129	3942
345.215	8537
345.301	5822
345.387	4061
345.474	2383
345.560	2579
345.646	2913
345.732	2210
345.818	3978
345.904	4236
345.990	3271
346.076	3082
346.162	5923
346.249	4046
346.335	1904
346.421	2522
346.507	6807
346.593	32130
346.679	12712
346.765	3610
346.851	2587
346.937	3009
347.023	2808
347.108	3424
347.194	3610
347.280	3527
347.366	3202
347.452	7233
347.538	35514
347.624	33347
347.710	29779
347.796	6037
347.882	3273
347.967	1974
348.053	3893
348.139	3425
348.225	2306
348.311	2895
348.397	2833
348.482	3570
348.568	4604
348.654	2277
348.740	2209
348.825	2123
348.911	3820
348.997	12113
349.083	39639
349.168	10067
349.254	3548
349.340	4323
349.425	2131
349.511	3361
349.597	4872
349.682	6709
349.768	23196
349.854	17985
349.939	3590
350.025	2560
350.110	3506
350.196	2448
350.282	1596
350.367	1314
350.453	2813
350.538	3848
350.624	3579
350.709	4727
350.795	2389
350.880	2624
350.966	2550
351.051	3619
351.137	3767
351.222	3186
351.308	6670
351.393	26883
351.479	11069
351.564	4636
351.649	3311
351.735	2779
351.820	1533
351.906	2518
351.991	3283
352.076	11122
352.162	29738
352.247	7012
352.332	3311
352.418	7326
352.503	10067
352.588	30508
352.673	39383
352.759	8105
352.844	4831
352.929	4216
353.014	6115
353.100	4074
353.185	4647
353.270	8526
353.355	11477
353.441	3462
353.526	3434
353.611	6684
353.696	11463
353.781	6061
353.866	3718
353.952	3581
354.037	7160
354.122	18415
354.207	17695
354.292	9904
354.377	4385
354.462	2871
354.547	4429
354.632	4136
354.717	4783
354.802	6389
354.887	4498
354.972	2753
355.057	2435
355.142	2381
355.227	4043
355.312	5357
355.397	11308
355.482	27791
355.567	19841
355.652	9701
355.737	11480
355.822	24804
355.907	34009
355.991	6163
356.076	2972
356.161	3430
356.246	3460
356.331	3762
356.416	5575
356.501	31759
356.585	58392
356.670	12304
356.755	6472
356.840	6678
356.924	21602
357.009	98995
357.094	61948
357.179	12518
357.263	8379
357.348	7254
357.433	7554
357.517	6853
357.602	5923
357.687	4377
357.771	6982
357.856	23433
357.941	20644
358.025	18573
358.110	92829
358.195	70458
358.279	13309
358.364	7241
358.448	17226
358.533	57739
358.617	52691
358.702	44606
358.787	22528
358.871	9883
358.956	11636
359.040	4360
359.125	2684
359.209	3842
359.294	8432
359.378	23848
359.462	10897
359.547	5749
359.631	3215
359.716	2174
359.800	3565
359.885	5109
359.969	3822
360.053	3280
360.138	2976
360.222	4746
360.306	9234
360.391	8446
360.475	9976
360.559	33630
360.644	24131
360.728	21086
360.812	17108
360.896	66574
360.981	35607
361.065	22908
361.149	6078
361.233	5536
361.318	3833
361.402	4323
361.486	5133
361.570	3325
361.654	3188
361.739	8606
361.823	33118
361.907	74261
361.991	19181
362.075	7016
362.159	16506
362.243	14556
362.327	8640
362.411	8182
362.495	5737
362.580	4880
362.664	2698
362.748	3287
362.832	3043
362.916	3852
363.000	8760
363.084	29871
363.168	79725
363.252	28037
363.336	7983
363.420	8302
363.503	28305
363.587	54093
363.671	11389
363.755	5865
363.839	9985
363.923	5506
364.007	7585
364.091	11665
364.175	9026
364.258	49868
364.342	41797
364.426	15490
364.510	11292
364.594	10522
364.677	10555
364.761	46944
364.845	54837
364.929	16966
365.013	15719
365.096	9569
365.180	14518
365.264	11351
365.347	55192
365.431	36766
365.515	9043
365.598	4924
365.682	4078
365.766	6083
365.849	10842
365.933	4784
366.017	5542
366.100	5871
366.184	2340
366.267	3130
366.351	3568
366.435	2503
366.518	2619
366.602	2356
366.685	3161
366.769	3713
366.852	5891
366.936	10998
367.019	8476
367.103	3964
367.186	10389
367.270	4450
367.353	2594
367.436	3184
367.520	2412
367.603	2750
367.687	4684
367.770	10990
367.853	7197
367.937	12997
368.020	34258
368.104	10152
368.187	7187
368.270	12117
368.353	13929
368.437	10004
368.520	17270
368.603	15724
368.687	17239
368.770	48027
368.853	15931
368.936	9223
369.020	12463
369.103	5448
369.186	3406
369.269	4645
369.352	6498
369.436	11080
369.519	7596
369.602	4544
369.685	4741
369.768	4677
369.851	3558
369.934	3191
370.018	3696
370.101	8293
370.184	8853
370.267	5473
370.350	8889
370.433	14413
370.516	26337
370.599	40575
370.682	11673
370.765	22392
370.848	29408
370.931	50335
371.014	27693
371.097	5652
371.180	5130
371.263	2912
371.346	2369
371.429	2998
371.511	3039
371.594	5419
371.677	10404
371.760	11370
371.843	9605
371.926	28095
372.009	94130
372.091	45491
372.174	16962
372.257	42792
372.340	24264
372.423	13440
372.505	19300
372.588	8977
372.671	11159
372.754	46132
372.836	35227
372.919	13746
373.002	39669
373.085	16947
373.167	8943
373.250	18980
373.332	44707
373.415	49290
373.498	117856
373.580	62669
373.663	40038
373.746	82259
373.828	27634
373.911	10276
373.993	8485
374.076	27458
374.159	39827
374.241	13602
374.324	38460
374.406	37987
374.489	23679
374.571	91702
374.654	57802
374.736	17387
374.819	50833
374.901	75280
374.983	101295
375.066	25553
375.148	7064
375.231	17561
375.313	57944
375.395	28250
375.478	6966
375.560	4633
375.643	5343
375.725	12180
375.807	60924
375.890	66846
375.972	23253
376.054	13133
376.136	14966
376.219	9380
376.301	13873
376.383	60076
376.465	35331
376.548	16242
376.630	16567
376.712	49316
376.794	36962
376.877	5416
376.959	3272
377.041	3910
377.123	6503
377.205	10888
377.287	3647
377.369	2515
377.452	2271
377.534	2862
377.616	3339
377.698	2887
377.780	2901
377.862	2985
377.944	3026
378.026	2549
378.108	3006
378.190	2416
378.272	2371
378.354	1809
378.436	1835
378.518	2873
378.600	15194
378.682	16295
378.764	26166
378.846	33472
378.928	7635
379.010	11538
379.091	8289
379.173	3232
379.255	2441
379.337	3207
379.419	10492
379.501	41836
379.583	25333
379.664	5624
379.746	8923
379.828	28200
379.910	43299
379.991	44558
380.073	10252
380.155	4599
380.237	3983
380.318	2802
380.400	3425
380.482	4760
380.564	11817
380.645	9494
380.727	10644
380.809	6616
380.890	4887
380.972	3599
381.053	3309
381.135	3968
381.217	7200
381.298	32861
381.380	22358
381.461	10100
381.543	39461
381.624	78909
381.706	20635
381.787	8587
381.869	8334
381.951	15072
382.032	77435
382.113	76168
382.195	19324
382.276	9929
382.358	13079
382.439	45021
382.521	50014
382.602	84393
382.684	45121
382.765	59341
382.846	76837
382.928	81471
383.009	59045
383.090	28394
383.172	88526
383.253	192866
383.334	81400
383.416	70691
383.497	51961
383.578	17494
383.659	25303
383.741	72475
383.822	247368
383.903	180782
383.984	52696
384.066	91136
384.147	80955
384.228	18177
384.309	10317
384.390	8938
384.471	6154
384.553	6605
384.634	7898
384.715	9716
384.796	5660
384.877	5315
384.958	21123
385.039	41147
385.120	18340
385.201	6567
385.282	7309
385.363	7556
385.444	5736
385.525	9110
385.606	33348
385.687	42749
385.768	11025
385.849	10328
385.930	31009
386.011	82525
386.092	33371
386.173	7469
386.254	4933
386.335	4114
386.416	5184
386.496	14382
386.577	36965
386.658	15221
386.739	7455
386.820	6559
386.901	5055
386.981	6150
387.062	3386
387.143	5226
387.224	24683
387.304	36299
387.385	10964
387.466	6419
387.547	8517
387.627	6148
387.708	6900
387.789	38422
387.869	70185
387.950	24828
388.031	4568
388.111	2387
388.192	8151
388.273	12949
388.353	9151
388.434	5625
388.514	6851
388.595	34158
388.676	66538
388.756	40601
388.837	28915
388.917	25663
388.998	6071
389.078	4311
389.159	3640
389.239	2876
389.320	6222
389.400	5684
389.480	8047
389.561	30277
389.641	23785
389.722	5636
389.802	10236
389.883	11502
389.963	32233
390.043	28919
390.124	8330
390.204	8532
390.284	33588
390.365	31245
390.445	18557
390.525	50050
390.605	60617
390.686	27407
390.766	8986
390.846	4518
390.927	2945
391.007	3935
391.087	4037
391.167	4620
391.247	3373
391.328	4545
391.408	7131
391.488	7579
391.568	2819
391.648	4555
391.728	8305
391.808	6359
391.888	7120
391.969	12173
392.049	32339
392.129	16357
392.209	9591
392.289	33496
392.369	25110
392.449	15238
392.529	11582
392.609	6915
392.689	7234
392.769	25395
392.849	34747
392.929	14289
393.009	39354
393.089	38446
393.169	12371
393.248	19056
393.328	113778
393.408	206682
393.488	53302
393.568	12158
393.648	7759
393.728	5884
393.807	5640
393.887	6905
393.967	5642
394.047	7881
394.127	12301
394.206	18515
394.286	49258
394.366	205121
394.446	325710
394.525	125755
394.605	32270
394.685	17301
394.764	21703
394.844	37557
394.924	35570
395.003	12290
395.083	8232
395.163	8213
395.242	6486
395.322	7820
395.402	5833
395.481	7614
395.561	11376
395.640	41538
395.720	36284
395.799	41353
395.879	52694
395.958	33083
396.038	78081
396.117	272852
396.197	400861
396.276	190565
396.356	62989
396.435	34453
396.515	21546
396.594	15281
396.673	16361
396.753	28295
396.832	129885
396.912	158155
396.991	53186
397.070	12710
397.150	6996
397.229	5300
397.308	5260
397.388	7365
397.467	5412
397.546	3375
397.625	3110
397.705	4985
397.784	6208
397.863	4076
397.942	2618
398.022	2534
398.101	6923
398.180	36404
398.259	29115
398.338	7198
398.417	4722
398.497	2649
398.576	3292
398.655	2950
398.734	3109
398.813	2377
398.892	7031
398.971	37290
399.050	30600
399.129	3579
399.208	1994
399.287	3519
399.366	3359
399.445	2827
399.524	2575
399.603	1728
399.682	3815
399.761	10592
399.840	36791
399.919	45726
399.998	8521
400.077	1889
400.156	744
400.235	3482
400.313	2398
400.392	2838
400.471	11214
400.550	32295
400.629	12509
400.708	3391
400.786	2969
400.865	7752
400.944	11290
401.023	7557
401.102	2274
401.180	1355
401.259	1564
401.338	3081
401.416	3616
401.495	4019
401.574	2887
401.652	2087
401.731	3111
401.810	3376
401.888	2590
401.967	1951
402.046	1931
402.124	2924
402.203	5140
402.281	3279
402.360	3303
402.438	9683
402.517	10586
402.596	3797
402.674	2665
402.753	2352
402.831	1984
402.910	1655
402.988	5941
403.066	29667
403.145	27489
403.223	8905
403.302	26768
403.380	25477
403.459	21620
403.537	11655
403.615	4239
403.694	1556
403.772	1701
403.850	1242
403.929	2023
404.007	1182
404.085	4975
404.164	5923
404.242	4447
404.320	12084
404.398	46954
404.477	62312
404.555	66487
404.633	84690
404.711	46637
404.789	39871
404.868	10524
404.946	3930
405.024	2395
405.102	1922
405.180	2315
405.258	1711
405.336	2666
405.415	1916
405.493	3902
405.571	4685
405.649	1405
405.727	1651
405.805	4083
405.883	3364
405.961	2669
406.039	2865
406.117	3621
406.195	3453
406.273	9485
406.351	52270
406.429	53657
406.507	9018
406.585	3874
406.663	1965
406.740	4096
406.818	3994
406.896	1885
406.974	2342
407.052	3392
407.130	23021
407.208	60419
407.285	18257
407.363	2713
407.441	2249
407.519	2742
407.596	1923
407.674	4396
407.752	11054
407.830	16319
407.907	8552
407.985	3488
408.063	2533
408.141	1950
408.218	2087
408.296	3762
408.373	2532
408.451	2902
408.529	3202
408.606	2456
408.684	1252
408.762	518
408.839	984
408.917	1267
408.994	1711
409.072	1050
409.149	1120
409.227	1371
409.304	2046
409.382	2453
409.459	1030
409.537	1848
409.614	2116
409.692	1622
409.769	1272
409.846	2336
409.924	2979
410.001	3379
410.079	3322
410.156	2583
410.233	2478
410.311	834
410.388	1314
410.465	1772
410.543	3790
410.620	2077
410.697	2073
410.775	3024
410.852	1089
410.929	2334
411.006	3734
411.083	2131
411.161	4581
411.238	8306
411.315	4159
411.392	1812
411.469	2460
411.547	4336
411.624	2927
411.701	2237
411.778	1858
411.855	4782
411.932	3435
412.009	2250
412.086	1835
412.163	1926
412.240	2132
412.317	2825
412.394	3341
412.471	1786
412.548	1532
412.625	679
412.702	1832
412.779	4400
412.856	4325
412.933	1260
413.010	1418
413.087	2661
413.164	9642
413.241	28739
413.318	9699
413.395	4429
413.471	5788
413.548	3883
413.625	2526
413.702	2394
413.779	2891
413.855	1535
413.932	1148
414.009	518
414.086	989
414.162	1920
414.239	1549
414.316	8878
414.393	34986
414.469	21696
414.546	2570
414.623	854
414.699	1696
414.776	2068
414.853	1154
414.929	1847
415.006	1672
415.082	2263
415.159	2105
415.236	1610
415.312	1475
415.389	2690
415.465	4582
415.542	3001
415.618	1646
415.695	3193
415.771	2636
415.848	1918
415.924	2885
416.000	1423
416.077	2206
416.153	53
416.230	908
416.306	796
416.383	556
416.459	2256
416.535	460
416.612	1389
416.688	1304
416.764	1101
416.841	696
416.917	1422
416.993	1914
417.069	1515
417.146	2008
417.222	8140
417.298	5394
417.374	1395
417.451	1927
417.527	2286
417.603	2504
417.679	1887
417.755	2722
417.831	1400
417.908	1027
417.984	1022
418.060	413
418.136	2598
418.212	6830
418.288	3649
418.364	1228
418.440	617
418.516	2597
418.592	2480
418.668	6181
418.744	11325
418.820	10392
418.896	3406
418.972	735
419.048	1315
419.124	3911
419.200	5072
419.276	2185
419.352	276
419.428	980
419.504	1768
419.579	2930
419.655	2394
419.731	1311
419.807	5201
419.883	11380
419.959	11524
420.034	2860
420.110	2997
420.186	17548
420.262	25970
420.337	5028
420.413	2326
420.489	2530
420.565	1493
420.640	1268
420.716	1399
420.792	677
420.867	1537
420.943	1234
421.019	2987
421.094	2944
421.170	1751
421.245	742
421.321	1060
421.397	1375
421.472	2315
421.548	5104
421.623	8255
421.699	3715
421.774	3031
421.850	1032
421.925	3670
422.001	3555
422.076	2484
422.152	2550
422.227	3843
422.302	4808
422.378	4669
422.453	7978
422.529	16405
422.604	55939
422.679	171392
422.755	140423
422.830	40373
422.905	12129
422.981	6126
423.056	4194
423.131	3163
423.207	1790
423.282	2084
423.357	6590
423.432	6389
423.508	3613
423.583	8597
423.658	11644
423.733	3352
423.808	2650
423.883	3214
423.959	2996
424.034	1955
424.109	1895
424.184	1135
424.259	844
424.334	760
424.409	400
424.484	714
424.559	1225
424.634	1415
424.709	2071
424.784	3286
424.859	1682
424.934	2036
425.009	9881
425.084	26515
425.159	16425
425.234	2261
425.309	1535
425.384	4351
425.459	14431
425.534	6408
425.609	1436
425.683	1341
425.758	891
425.833	1511
425.908	2191
425.983	4825
426.058	24139
426.132	18734
426.207	2917
426.282	3779
426.357	3397
426.431	2281
426.506	1077
426.581	1199
426.655	1201
426.730	1553
426.805	939
426.879	2288
426.954	976
427.029	2438
427.103	12284
427.178	51339
427.253	39443
427.327	5428
427.402	3167
427.476	12287
427.551	10622
427.625	3154
427.700	2748
427.774	811
427.849	1786
427.923	1166
427.998	395
428.072	1518
428.147	2594
428.221	6826
428.296	22258
428.370	16480
428.444	2858
428.519	3299
428.593	6313
428.667	8063
428.742	7342
428.816	7199
428.890	11255
428.965	28952
429.039	16884
429.113	10616
429.188	5786
429.262	1635
429.336	2485
429.410	11537
429.485	11808
429.559	5786
429.633	7744
429.707	1670
429.781	2532
429.855	13937
429.930	34244
430.004	21962
430.078	31796
430.152	35325
430.226	25013
430.300	40547
430.374	9423
430.448	3424
430.522	6264
430.596	32082
430.670	29083
430.744	22389
430.818	68192
430.892	26611
430.966	3839
431.040	1817
431.114	467
431.188	883
431.262	-69
431.336	976
431.410	3212
431.484	8655
431.557	10926
431.631	1854
431.705	1223
431.779	2127
431.853	13629
431.927	16727
432.000	2908
432.074	627
432.148	1035
432.222	1865
432.295	1493
432.369	1151
432.443	1272
432.516	10568
432.590	51468
432.664	34389
432.737	4636
432.811	1414
432.885	-62
432.958	1321
433.032	789
433.106	510
433.179	1126
433.253	820
433.326	768
433.400	1039
433.473	463
433.547	818
433.620	785
433.694	2126
433.767	4444
433.841	1117
433.914	586
433.988	1728
434.061	1309
434.134	839
434.208	505
434.281	-463
434.355	378
434.428	888
434.501	719
434.575	699
434.648	925
434.721	212
434.795	439
434.868	433
434.941	-148
435.014	-103
435.088	1031
435.161	1346
435.234	1822
435.307	4333
435.381	2906
435.454	346
435.527	908
435.600	496
435.673	734
435.746	789
435.819	253
435.892	1140
435.966	509
436.039	515
436.112	1348
436.185	581
436.258	497
436.331	423
436.404	942
436.477	228
436.550	512
436.623	60
436.696	524
436.769	1510
436.842	921
436.915	1248
436.987	1250
437.060	1360
437.133	561
437.206	484
437.279	654
437.352	1055
437.425	641
437.498	1448
437.570	2456
437.643	6046
437.716	1548
437.789	348
437.861	1942
437.934	8749
438.007	8005
438.080	1675
438.152	1021
438.225	2818
438.298	11724
438.370	65302
438.443	50445
438.516	13100
438.588	3636
438.661	861
438.734	1781
438.806	684
438.879	2128
438.951	2092
439.024	5283
439.096	2464
439.169	1369
439.241	1575
439.314	210
439.386	938
439.459	2554
439.531	4047
439.604	3283
439.676	1707
439.749	826
439.821	483
439.893	1355
439.966	753
440.038	1213
440.110	1970
440.183	1906
440.255	614
440.327	1881
440.400	4456
440.472	35331
440.544	48467
440.617	8351
440.689	4268
440.761	4131
440.833	7732
440.905	6500
440.978	1901
441.050	547
441.122	1125
441.194	639
441.266	159
441.338	749
441.411	1326
441.483	8316
441.555	29839
441.627	10356
441.699	3213
441.771	2769
441.843	1217
441.915	699
441.987	1284
442.059	609
442.131	888
442.203	2453
442.275	2025
442.347	2858
442.419	1299
442.491	3090
442.563	13026
442.635	11717
442.706	7851
442.778	12522
442.850	3110
442.922	1364
442.994	1155
443.066	2251
443.137	2100
443.209	1502
443.281	1307
443.353	2148
443.425	5941
443.496	21248
443.568	31433
443.640	13156
443.711	4689
443.783	1991
443.855	1516
443.926	946
443.998	1138
444.070	2013
444.141	1286
444.213	2264
444.285	3473
444.356	2348
444.428	2115
444.499	365
444.571	461
444.642	571
444.714	478
444.785	2861
444.857	3410
444.928	5128
445.000	5609
445.071	4029
445.143	5259
445.214	3659
445.285	2379
445.357	9276
445.428	16028
445.500	45769
445.571	41883
445.642	18837
445.714	8306
445.785	12590
445.856	5506
445.928	3226
445.999	4097
446.070	3262
446.141	2679
446.213	4434
446.284	2239
446.355	1748
446.426	1781
446.497	586
446.569	1458
446.640	3459
446.711	4869
446.782	1040
446.853	1522
446.924	1627
446.995	1569
447.066	1518
447.138	2539
447.209	2733
447.280	697
447.351	735
447.422	589
447.493	1542
447.564	1865
447.635	2418
447.706	2033
447.777	951
447.847	999
447.918	219
447.989	1573
448.060	1389
448.131	3430
448.202	5220
448.273	4337
448.344	2498
448.414	1007
448.485	1586
448.556	649
448.627	678
448.698	754
448.768	1038
448.839	869
448.910	1530
448.981	4074
449.051	1841
449.122	802
449.193	1075
449.263	1067
449.334	748
449.405	1781
449.475	5136
449.546	4860
449.616	2902
449.687	3795
449.758	2273
449.828	858
449.899	1170
449.969	1839
450.040	1775
450.110	1149
450.181	1765
450.251	640
450.322	1403
450.392	1265
450.463	1454
450.533	1110
450.604	1554
450.674	1194
450.744	915
450.815	818
450.885	998
450.955	1018
451.026	765
451.096	564
451.166	975
451.237	2241
451.307	8341
451.377	5338
451.447	1353
451.518	696
451.588	1451
451.658	1109
451.728	2370
451.799	5907
451.869	11466
451.939	4362
452.009	374
452.079	891
452.149	989
452.219	2274
452.289	7047
452.360	9802
452.430	3416
452.500	2173
452.570	2021
452.640	2126
452.710	3053
452.780	9530
452.850	7141
452.920	8639
452.990	4408
453.060	1193
453.129	1899
453.199	3446
453.269	5166
453.339	25284
453.409	45445
453.479	26358
453.549	46429
453.619	53413
453.688	32829
453.758	6246
453.828	2454
453.898	1937
453.968	1540
454.037	1228
454.087	1351
454.107	1394
454.168	894
454.177	811
454.247	1001
454.249	1035
454.316	1672
454.330	1805
454.386	2315
454.411	2498
454.456	2613
454.492	5703
454.525	8441
454.574	5818
454.595	4682
454.655	1880
454.665	1424
454.734	2251
454.736	2258
454.804	1828
454.817	2581
454.873	5355
454.898	7739
454.943	11884
454.979	8091
455.013	4701
455.060	2657
455.082	1845
455.141	1920
455.152	1941
455.221	5535
455.222	5673
455.291	14071
455.303	14290
455.360	14781
455.384	21563
455.430	31467
455.465	29723
455.499	28448
455.546	15897
455.569	10089
455.627	8102
455.638	7820
455.707	2687
455.708	2690
455.777	1417
455.789	1464
455.846	1657
455.869	1565
455.916	1447
455.950	1618
455.985	1760
456.031	1570
456.054	1386
456.112	1851
456.124	1989
456.193	1582
456.193	1570
456.262	1109
456.274	1208
456.332	1711
456.355	1906
456.401	2104
456.436	2000
456.470	1948
456.516	1522
456.540	1294
456.597	1228
456.609	1212
456.678	1096
456.678	1088
456.747	1187
456.759	1212
456.817	1142
456.840	1069
456.886	1042
456.920	1274
456.955	1455
457.001	1398
457.024	1364
457.082	1855
457.093	1980
457.162	1920
457.163	1933
457.232	2233
457.243	2240
457.301	2300
457.324	2001
457.370	1507
457.405	1752
457.439	1984
457.485	1477
457.508	1260
457.566	1480
457.577	1523
457.646	2614
457.647	2626
457.715	2634
457.727	2681
457.784	3156
457.808	3141
457.853	3025
457.889	3845
457.922	4268
457.969	3554
457.991	3446
458.050	4315
458.060	4487
458.129	5145
458.130	5185
458.198	4836
458.211	4574
458.267	3201
458.292	2753
458.336	2434
458.372	1995
458.405	2176
458.453	2746
458.474	3081
458.533	4787
458.543	5028
458.611	7061
458.614	7182
458.680	6409
458.694	5646
458.749	3951
458.775	3149
458.818	2141
458.855	2162
458.887	2145
458.936	1503
458.955	1422
459.016	1808
459.024	1825
459.093	2497
459.097	2500
459.162	2238
459.177	2177
459.230	2470
459.257	2842
459.299	3040
459.338	3009
459.368	3317
459.418	4183
459.437	4044
459.499	2947
459.505	2919
459.574	2699
459.579	2694
459.643	2138
459.659	2042
459.711	2230
459.740	2221
459.780	2094
459.820	2422
459.849	2674
459.900	2622
459.917	2516
459.981	2649
459.986	2718
460.054	3200
460.061	3318
460.123	3459
460.141	3302
460.191	3779
460.222	4229
460.260	4528
460.302	4965
460.328	4730
460.382	4112
460.397	4043
460.462	3283
460.465	3315
460.534	4799
460.543	4889
460.602	10588
460.623	13074
460.671	21856
460.703	29257
460.739	28143
460.783	28670
460.808	26130
460.864	8092
460.876	6555
460.944	2741
460.945	2705
461.013	3175
461.024	3197
461.081	3019
461.104	3029
461.150	2934
461.184	2944
461.218	2906
461.264	2776
461.286	2886
461.345	3002
461.355	3013
461.423	2949
461.425	2964
461.491	3106
461.505	3086
461.559	4005
461.585	4357
461.628	6370
461.665	8660
461.696	9892
461.745	12585
461.764	11292
461.825	5852
461.832	5861
461.901	3324
461.905	3296
461.969	2918
461.985	2922
462.037	3300
462.065	3339
462.105	3075
462.145	2897
462.173	3720
462.225	5256
462.241	5761
462.305	8507
462.310	8351
462.378	6368
462.385	5898
462.446	4348
462.465	3980
462.514	3582
462.545	3616
462.582	3813
462.625	4074
462.650	3695
462.705	2664
462.718	2696
462.785	2966
462.786	2978
462.854	3505
462.865	3602
462.922	4541
462.945	5158
462.990	4308
463.025	3318
463.058	3199
463.104	2739
463.126	2695
463.184	2877
463.194	2913
463.262	2868
463.264	2891
463.330	3656
463.344	3716
463.398	3825
463.424	3799
463.466	3360
463.504	3295
463.533	3701
463.583	3967
463.601	3872
463.663	3806
463.669	3878
463.737	4426
463.743	4509
463.805	5795
463.823	6141
463.873	9173
463.903	10978
463.940	11865
463.982	13341
464.008	11314
464.062	6409
464.076	6160
464.142	3729
464.144	3707
464.211	3734
464.221	3749
464.279	3567
464.301	3524
464.347	3842
464.381	4138
464.414	4233
464.461	4171
464.482	4291
464.540	4985
464.550	5008
464.617	4718
464.620	4707
464.685	5836
464.699	6082
464.753	7871
464.779	8687
464.820	9921
464.859	11398
464.888	10877
464.938	9660
464.956	9573
465.018	8893
465.023	8799
465.091	7554
465.098	7425
465.158	7942
465.177	8126
465.226	7953
465.257	7803
465.293	7866
465.336	7921
465.361	8310
465.416	9108
465.428	9394
465.495	10918
465.496	10949
465.563	13588
465.575	14016
465.631	17597
465.654	19380
465.698	14433
465.734	9806
465.765	9184
465.813	7991
465.833	7810
465.893	7607
465.900	7611
465.968	7658
465.972	7656
466.035	7743
466.052	7710
466.102	7810
466.131	7898
466.170	7976
466.210	8015
466.237	8140
466.290	8398
466.304	8332
466.369	7907
466.372	7941
466.439	8658
466.449	8750
466.506	9271
466.528	9437
466.573	10993
466.607	12165
466.641	15633
466.687	20411
466.708	22415
466.766	27933
466.775	26312
466.842	13950
466.845	13334
466.909	11055
466.925	10515
466.977	9485
467.004	9016
467.044	10015
467.083	10959
467.111	12129
467.163	14298
467.178	14996
467.242	17782
467.245	17669
467.312	14729
467.321	14316
467.379	13442
467.400	13093
467.446	13744
467.480	14178
467.559	13231
467.638	11962
467.717	11889
467.796	11991
467.875	12974
467.955	12049
468.034	13834
468.113	22538
468.192	33240
468.271	15259
468.350	10340
468.429	10467
468.508	10168
468.588	9617
468.667	10065
468.746	10494
468.825	10516
468.904	9324
468.983	11240
469.062	12564
469.141	15014
469.220	9741
469.299	9333
469.378	11724
469.456	14704
469.535	13868
469.614	11773
469.693	10162
469.772	13220
469.851	14272
469.930	12730
470.009	11397
470.088	10081
470.166	10573
470.245	12422
470.324	13101
470.403	11439
470.482	9930
470.560	9946
470.639	9853
470.718	11821
470.797	9532
470.875	10243
470.954	12787
471.033	12844
471.111	8882
471.190	8750
471.269	7441
471.347	9148
471.426	9304
471.505	11061
471.583	12779
471.662	12721
471.740	10265
471.819	10694
471.898	9065
471.976	10322
472.055	9266
472.133	10037
472.212	11980
472.290	11394
472.369	9110
472.447	9496
472.526	9226
472.604	9771
472.683	9296
472.761	9919
472.839	8329
472.918	9148
472.996	7249
473.075	9497
473.153	8606
473.231	7713
473.310	9735
473.388	9242
473.466	7878
473.545	9868
473.623	12824
473.701	11802
473.780	9734
473.858	8469
473.936	9424
474.014	8961
474.093	8215
474.171	10423
474.249	12558
474.327	10444
474.405	7798
474.484	7902
474.562	8008
474.640	8131
474.718	8114
474.796	9487
474.874	7960
474.952	8205
475.030	7472
475.108	7527
475.187	9059
475.265	8650
475.343	11186
475.421	12779
475.499	8644
475.577	8574
475.655	9012
475.733	12722
475.811	19526
475.889	18944
475.966	15039
476.044	8734
476.122	7291
476.200	9113
476.278	9012
476.356	7630
476.434	7404
476.512	7460
476.590	9727
476.667	9732
476.745	6351
476.823	7278
476.901	6602
476.979	7415
477.056	6813
477.134	7683
477.212	7974
477.290	7689
477.367	6345
477.445	6485
477.523	6252
477.601	6745
477.678	6435
477.756	8295
477.834	8003
477.911	6745
477.989	6796
478.066	6234
478.144	6555
478.222	7561
478.299	8599
478.377	9317
478.454	5731
478.532	6940
478.609	5586
478.687	7373
478.764	6273
478.842	6534
478.919	6099
478.997	6053
479.074	5592
479.152	6578
479.229	6987
479.307	5965
479.384	4856
479.461	6342
479.539	5520
479.616	6809
479.694	5391
479.771	4732
479.848	5564
479.926	6864
480.003	8409
480.080	5601
480.157	5286
480.235	4994
480.312	5595
480.389	5527
480.467	6747
480.544	8921
480.621	6180
480.698	5835
480.775	6462
480.853	6278
480.930	5596
481.007	6234
481.084	7122
481.161	7496
481.238	6639
481.315	5628
481.392	5101
481.470	4681
481.547	5283
481.624	4996
481.701	5091
481.778	4796
481.855	5308
481.932	7660
482.009	10678
482.086	9218
482.163	5189
482.240	6665
482.317	8877
482.393	9511
482.470	5673
482.547	5583
482.624	4515
482.701	5161
482.778	5206
482.855	4149
482.932	4599
483.009	4571
483.085	5519
483.162	6805
483.239	6167
483.316	5062
483.393	5286
483.469	5322
483.546	5414
483.623	5470
483.699	4664
483.776	5897
483.853	5775
483.930	7898
484.006	15191
484.083	29637
484.160	28992
484.236	52735
484.313	44764
484.389	31367
484.466	26123
484.543	23863
484.619	23034
484.696	24684
484.772	24234
484.849	25143
484.925	22886
485.002	22496
485.078	23035
485.155	23858
485.231	21876
485.308	21931
485.384	20566
485.461	22798
485.537	27111
485.614	30793
485.690	22424
485.766	19543
485.843	20546
485.919	23649
485.995	24705
486.072	19402
486.148	18486
486.224	18680
486.301	18199
486.377	19920
486.453	20685
486.530	20618
486.606	28122
486.682	34331
486.758	31108
486.835	32203
486.911	25472
486.987	34233
487.063	37522
487.139	46215
487.215	37118
487.292	24972
487.368	22368
487.444	21617
487.520	24121
487.596	22832
487.672	22726
487.748	29597
487.824	41239
487.900	26944
487.976	19689
488.052	19643
488.128	22587
488.204	20792
488.280	18880
488.356	19819
488.432	24610
488.508	38186
488.584	22081
488.660	16522
488.736	17331
488.812	17568
488.888	21253
488.964	25101
489.039	36927
489.115	56800
489.191	43003
489.267	18333
489.343	16695
489.418	15743
489.494	16569
489.570	14623
489.646	15648
489.722	14525
489.797	15903
489.873	16902
489.949	26101
490.024	27847
490.100	14910
490.176	15451
490.251	14916
490.327	18459
490.403	14565
490.478	13472
490.554	12261
490.629	12701
490.705	11965
490.781	13090
490.856	11888
490.932	13887
491.007	13155
491.083	13833
491.158	12380
491.234	14383
491.309	20579
491.385	23869
491.460	13320
491.536	12195
491.611	13076
491.686	11387
491.762	15876
491.837	22331
491.913	38587
491.988	45948
492.063	69588
492.139	24371
492.214	14122
492.289	10367
492.365	9939
492.440	11902
492.515	10539
492.590	11751
492.666	9691
492.741	11022
492.816	14711
492.891	10477
492.967	10730
493.042	9186
493.117	11337
493.192	12023
493.267	18013
493.342	55698
493.418	100653
493.493	23948
493.568	8858
493.643	8977
493.718	9605
493.793	12577
493.868	15302
493.943	11826
494.018	9698
494.093	8809
494.168	8224
494.243	8557
494.318	8369
494.393	6758
494.468	7798
494.543	7711
494.618	8338
494.693	8174
494.768	7064
494.842	8522
494.917	7199
494.992	8484
495.067	8376
495.142	6630
495.217	8840
495.292	7641
495.366	8043
495.441	9818
495.516	11443
495.591	14654
495.665	36353
495.740	102404
495.815	60052
495.890	11308
495.964	9242
496.039	10113
496.114	9321
496.188	9285
496.263	10876
496.338	8483
496.412	8983
496.487	10923
496.561	11467
496.636	12889
496.710	10568
496.785	9804
496.860	12404
496.934	10608
497.009	9213
497.083	10951
497.158	11080
497.232	12102
497.307	13271
497.381	13414
497.455	13418
497.530	15368
497.604	13932
497.679	13580
497.753	18717
497.827	24368
497.902	24713
497.976	28283
498.050	41010
498.125	133114
498.199	192274
498.273	44255
498.348	31133
498.422	26654
498.496	24851
498.570	22331
498.645	16715
498.719	16598
498.793	17426
498.867	20144
498.941	24302
499.016	48435
499.090	158676
499.164	87302
499.238	12512
499.312	9687
499.386	12273
499.460	12323
499.534	9413
499.609	10395
499.683	14668
499.757	14384
499.831	20533
499.905	87656
499.979	122547
500.053	20261
500.127	17118
500.201	14179
500.275	10197
500.349	8690
500.422	9671
500.496	12574
500.570	24428
500.644	48094
500.718	111150
500.792	39753
500.866	8663
500.940	10038
501.013	9573
501.087	7936
501.161	14822
501.235	20161
501.309	26301
501.382	79174
501.456	99106
501.530	20831
501.603	29117
501.677	17453
501.751	6136
501.825	8083
501.898	11322
501.972	32821
502.046	29886
502.119	8638
502.193	13968
502.266	38178
502.340	25734
502.413	15652
502.487	32631
502.561	22405
502.634	9048
502.708	7018
502.781	6462
502.855	6337
502.928	5269
503.002	6057
503.075	4547
503.149	4971
503.222	5875
503.295	6734
503.369	6785
503.442	7861
503.516	19725
503.589	60642
503.662	50311
503.736	15437
503.809	26107
503.882	28007
503.956	31450
504.029	39753
504.102	17971
504.175	20868
504.249	10318
504.322	7080
504.395	6737
504.468	6256
504.542	3893
504.615	4908
504.688	4964
504.761	3793
504.834	5950
504.907	7224
504.980	11638
505.053	7197
505.127	7177
505.200	10052
505.273	7240
505.346	6169
505.419	4939
505.492	4865
505.565	3423
505.638	3635
505.711	3398
505.784	4063
505.857	4041
505.930	4526
506.003	3173
506.076	5339
506.149	4837
506.221	6756
506.294	5332
506.367	11169
506.440	43646
506.513	37401
506.586	7307
506.659	5698
506.731	5005
506.804	4865
506.877	7457
506.950	5883
507.022	3849
507.095	4228
507.168	5906
507.241	4873
507.313	3707
507.386	3851
507.459	6664
507.531	4953
507.604	3628
507.677	4375
507.749	3847
507.822	6278
507.894	11795
507.967	22541
508.040	15172
508.112	11172
508.185	10036
508.257	9165
508.330	11000
508.402	10617
508.475	9041
508.547	9253
508.620	8002
508.692	10736
508.765	9625
508.837	7121
508.909	7737
508.982	8112
509.054	7899
509.127	7367
509.199	6885
509.271	7178
509.344	6608
509.416	7511
509.488	6516
509.560	7535
509.633	7210
509.705	8768
509.777	7925
509.849	10454
509.922	9428
509.994	9332
510.066	8870
510.138	9206
510.210	18837
510.283	21574
510.355	15898
510.427	12734
510.499	12351
510.571	11656
510.643	11860
510.715	14041
510.787	14869
510.859	12346
510.931	12327
511.003	14055
511.076	15720
511.148	10782
511.219	10487
511.291	13029
511.363	15192
511.435	10603
511.507	9498
511.579	9284
511.651	9618
511.723	9433
511.795	8219
511.867	9313
511.939	9282
512.010	12684
512.082	13697
512.154	9261
512.226	9326
512.298	14223
512.369	23189
512.441	18525
512.513	15380
512.585	12869
512.656	13056
512.728	13318
512.800	11536
512.871	9946
512.943	11200
513.015	9863
513.086	10215
513.158	10995
513.230	10205
513.301	12756
513.373	14743
513.444	10918
513.516	9567
513.588	10148
513.659	9352
513.731	11886
513.802	10118
513.874	14793
513.945	25968
514.016	15088
514.088	9841
514.159	10903
514.231	11419
514.302	18939
514.374	16377
514.445	13611
514.516	16738
514.588	16736
514.659	11127
514.730	15688
514.802	16628
514.873	13372
514.944	15320
515.016	14106
515.087	13683
515.158	13174
515.229	18444
515.301	13466
515.372	19104
515.443	15686
515.514	11664
515.585	9505
515.656	10120
515.728	9550
515.799	9431
515.870	9859
515.941	10050
516.012	10431
516.083	12873
516.154	15522
516.225	15962
516.296	14319
516.367	12462
516.438	12442
516.509	14684
516.580	18913
516.651	34937
516.722	127891
516.793	105000
516.864	21198
516.935	18890
517.006	18269
517.077	23080
517.148	43446
517.219	107986
517.289	247865
517.360	87852
517.431	37084
517.502	12408
517.573	11337
517.643	11478
517.714	13641
517.785	14977
517.856	12687
517.926	15422
517.997	14775
518.068	17529
518.138	22126
518.209	27871
518.280	68808
518.350	302579
518.421	202214
518.492	26031
518.562	14452
518.633	12502
518.703	10535
518.774	13509
518.845	18992
518.915	21690
518.986	13447
519.056	12345
519.127	20478
519.197	29228
519.268	55072
519.338	51602
519.408	13828
519.479	15593
519.549	14183
519.620	10240
519.690	8067
519.760	8774
519.831	8398
519.901	9253
519.971	9010
520.042	8281
520.112	8862
520.182	9814
520.253	11193
520.323	9485
520.393	11051
520.463	16711
520.534	11461
520.604	20049
520.674	14049
520.744	10129
520.814	18954
520.885	24804
520.955	17487
521.025	58043
521.095	41874
521.165	9512
521.235	8037
521.305	6981
521.375	7335
521.445	8280
521.515	9021
521.585	10745
521.655	11678
521.725	9780
521.795	10065
521.865	6705
521.935	9294
522.005	9480
522.075	6843
522.145	7134
522.215	6863
522.285	8458
522.355	10668
522.424	16649
522.494	18385
522.564	11931
522.634	16415
522.704	51297
522.774	34075
522.843	8071
522.913	6902
522.983	8719
523.053	7753
523.122	6306
523.192	8867
523.262	22097
523.331	33145
523.401	10167
523.471	6117
523.540	6199
523.610	5517
523.680	5696
523.749	5328
523.819	5975
523.888	7643
523.958	5536
524.027	5818
524.097	6057
524.166	5833
524.236	5946
524.305	7023
524.375	5196
524.444	5012
524.514	7112
524.583	6165
524.653	6402
524.722	7903
524.791	5952
524.861	5838
524.930	5272
524.999	5777
525.069	6960
525.138	7043
525.207	6661
525.277	6618
525.346	6088
525.415	5764
525.484	4644
525.554	6050
525.623	5690
525.692	6114
525.761	5522
525.830	6109
525.900	5985
525.969	7011
526.038	8389
526.107	10794
526.176	27132
526.245	29206
526.314	14983
526.383	17233
526.452	24105
526.522	31860
526.591	48988
526.660	29014
526.729	17134
526.797	16063
526.867	26401
526.935	121788
527.004	168666
527.073	86393
527.142	12894
527.211	7265
527.280	6568
527.349	7478
527.418	5393
527.487	4506
527.555	3804
527.624	4736
527.693	3089
527.762	5036
527.831	3643
527.899	4620
527.968	3349
528.037	4002
528.106	5051
528.174	8616
528.243	8332
528.312	8192
528.380	14095
528.449	5837
528.518	5249
528.586	3595
528.655	4736
528.723	4314
528.792	3599
528.861	5143
528.929	3008
528.998	5335
529.066	3708
529.135	4430
529.203	3925
529.272	3937
529.340	4895
529.409	5028
529.477	4375
529.545	4768
529.614	5967
529.682	5410
529.751	7210
529.819	7768
529.887	6633
529.956	4544
530.024	4851
530.092	4981
530.161	6175
530.229	8438
530.297	6456
530.365	6168
530.434	4884
530.502	4445
530.570	3903
530.638	1925
530.707	5192
530.775	5356
530.843	4271
530.911	4696
530.979	4472
531.047	3528
531.115	5443
531.183	4838
531.252	4450
531.320	5078
531.388	4795
531.456	5145
531.524	3695
531.592	4787
531.660	5887
531.728	4984
531.796	4579
531.864	5206
531.932	4340
532.000	4784
532.067	5891
532.135	5628
532.203	6423
532.271	7140
532.339	10232
532.407	22991
532.475	19864
532.542	10176
532.610	10483
532.678	11853
532.746	30002
532.814	118396
532.881	50239
532.949	8484
533.017	6815
533.084	5951
533.152	4682
533.220	5678
533.287	5484
533.355	5730
533.423	4560
533.490	5132
533.558	4819
533.625	5891
533.693	6697
533.761	6628
533.828	7368
533.896	6537
533.963	11552
534.031	16901
534.098	18134
534.166	14020
534.233	7282
534.300	7872
534.368	7808
534.435	7241
534.503	6905
534.570	7875
534.637	6762
534.705	5290
534.772	6685
534.840	6425
534.907	13610
534.974	22393
535.041	7313
535.109	6832
535.176	5397
535.243	5096
535.310	5033
535.378	5143
535.445	4658
535.512	5330
535.579	4823
535.646	5515
535.714	6069
535.781	8267
535.848	8478
535.915	8636
535.982	10111
536.049	10282
536.116	9257
536.183	7888
536.250	6570
536.317	6976
536.384	7540
536.451	8545
536.518	9138
536.585	7963
536.652	8220
536.719	10452
536.786	9469
536.853	7971
536.920	9836
536.987	15124
537.053	15414
537.120	44778
537.187	71183
537.254	10283
537.321	6321
537.388	6718
537.454	4102
537.521	4717
537.588	5497
537.654	6838
537.721	8056
537.788	8288
537.855	5522
537.921	5522
537.988	6176
538.055	6300
538.121	5607
538.188	6625
538.254	6854
538.321	13704
538.388	11530
538.454	7216
538.521	6733
538.587	6359
538.654	5773
538.720	6182
538.787	5705
538.853	5784
538.920	6583
538.986	6867
539.053	6307
539.119	6739
539.185	7055
539.252	7486
539.318	9716
539.385	10061
539.451	9378
539.517	10293
539.583	9065
539.650	14184
539.716	44724
539.782	23636
539.849	7715
539.915	7609
539.981	6549
540.047	8028
540.114	7815
540.180	8084
540.246	7716
540.312	7806
540.378	12795
540.444	18105
540.510	14291
540.576	47743
540.643	29210
540.709	6294
540.775	6663
540.841	6989
540.907	9226
540.973	12266
541.039	12110
541.105	12513
541.171	7975
541.237	7684
541.303	7897
541.369	9592
541.435	8187
541.500	12948
541.566	11050
541.632	6418
541.698	5404
541.764	5866
541.830	6365
541.896	5820
541.961	6079
542.027	6539
542.093	6563
542.159	7724
542.224	7344
542.290	10876
542.356	12070
542.421	17346
542.487	9429
542.553	7732
542.618	8835
542.684	7227
542.750	6986
542.815	9262
542.881	11919
542.947	34582
543.012	47666
543.078	9138
543.143	6504
543.209	8753
543.274	7937
543.340	9637
543.405	14291
543.471	31937
543.536	12441
543.602	7518
543.667	6771
543.732	7848
543.798	6568
543.863	6635
543.928	6731
543.994	6705
544.059	6199
544.124	7493
544.190	7180
544.255	7574
544.320	7186
544.386	7079
544.451	9254
544.516	10892
544.581	10600
544.646	20450
544.712	51247
544.777	17902
544.842	8702
544.907	8563
544.972	7668
545.037	7794
545.102	8264
545.168	8140
545.233	9446
545.298	9803
545.363	10561
545.428	11806
545.493	14066
545.558	33913
545.623	24877
545.688	8858
545.753	9047
545.818	8460
545.883	9574
545.947	8893
546.012	9031
546.077	9117
546.142	8903
546.207	9025
546.272	10212
546.337	10777
546.401	10538
546.466	9561
546.531	9165
546.596	9765
546.661	8792
546.725	9402
546.790	8281
546.855	9331
546.919	7715
546.984	9425
547.049	8617
547.113	10447
547.178	8784
547.243	10398
547.307	11248
547.372	11665
547.436	12403
547.501	11386
547.565	11664
547.630	12225
547.695	12231
547.759	12113
547.823	11903
547.888	11154
547.952	11010
548.017	11568
548.081	11471
548.146	13902
548.210	13452
548.274	10700
548.339	11157
548.403	11703
548.468	9876
548.532	10831
548.596	10525
548.660	10126
548.725	11489
548.789	12470
548.853	13891
548.917	12069
548.982	12155
549.046	14487
549.110	10251
549.174	10650
549.238	10062
549.303	10182
549.367	11491
549.431	11298
549.495	10793
549.559	11143
549.623	11212
549.687	12366
549.751	16083
549.815	14694
549.879	13646
549.943	12007
550.007	14350
550.071	13187
550.135	15474
550.199	14912
550.263	12657
550.327	12969
550.391	13079
550.455	13821
550.519	12332
550.582	13304
550.646	16333
550.710	19606
550.774	15785
550.838	14665
550.901	13887
550.965	14973
551.029	14528
551.093	16134
551.156	17392
551.220	23931
551.284	29416
551.347	20127
551.411	23974
551.475	31428
551.538	18411
551.602	14003
551.666	13326
551.729	12452
551.793	12865
551.856	13023
551.920	13721
551.983	13638
552.047	13186
552.110	11855
552.174	12351
552.237	12889
552.301	12883
552.364	12045
552.428	12085
552.491	12150
552.554	13135
552.618	12694
552.681	12624
552.745	12868
552.808	14889
552.871	18711
552.934	16034
552.998	13338
553.061	13928
553.124	13932
553.187	14830
553.251	15148
553.314	17275
553.377	19022
553.440	23915
553.503	53785
553.567	141589
553.630	50336
553.693	15574
553.756	13363
553.819	13448
553.882	12516
553.945	12600
554.008	12236
554.071	11848
554.134	12420
554.197	11585
554.260	11650
554.323	12546
554.386	12952
554.449	11013
554.512	13327
554.575	11734
554.638	12161
554.701	11925
554.764	11383
554.827	11741
554.889	12305
554.952	10937
555.015	10212
555.078	11579
555.141	12225
555.203	9894
555.266	11247
555.329	11333
555.391	10881
555.454	11096
555.517	10601
555.580	10201
555.642	9493
555.705	10048
555.768	9852
555.830	10423
555.893	9556
555.955	9942
556.018	9239
556.080	10318
556.143	9646
556.206	8890
556.268	9903
556.330	9454
556.393	9860
556.455	8872
556.518	10969
556.580	12594
556.643	9635
556.705	9512
556.767	8918
556.830	10061
556.892	10113
556.955	10998
557.017	11510
557.079	8855
557.142	8840
557.204	9468
557.266	14105
557.328	15984
557.391	8635
557.453	8284
557.515	8557
557.577	9083
557.639	10696
557.701	9314
557.764	7035
557.826	7989
557.888	8958
557.950	8408
558.012	8938
558.074	8595
558.136	10939
558.198	22430
558.260	16890
558.322	8594
558.384	9592
558.446	10684
558.508	10867
558.570	13034
558.632	17395
558.694	26940
558.756	23710
558.818	35709
558.880	113024
558.942	61544
559.003	24797
559.065	20457
559.127	11839
559.189	10587
559.251	11659
559.312	12557
559.374	20142
559.436	58631
559.498	54606
559.559	11638
559.621	11688
559.683	10861
559.744	14937
559.806	28434
559.868	54278
559.929	20524
559.991	13210
560.052	12781
560.114	22133
560.176	23274
560.237	15557
560.299	25768
560.360	14855
560.422	8901
560.483	8098
560.545	8882
560.606	7507
560.667	7618
560.729	8056
560.790	7108
560.852	8428
560.913	8788
560.974	8230
561.036	7471
561.097	7968
561.158	7974
561.220	8750
561.281	8691
561.342	9299
561.403	10391
561.465	11206
561.526	16406
561.587	28545
561.648	13681
561.709	9738
561.771	9236
561.832	9147
561.893	8523
561.954	8815
562.015	8926
562.076	9657
562.137	9135
562.198	9051
562.259	9586
562.320	9223
562.381	8865
562.442	11411
562.503	11328
562.564	10214
562.625	9579
562.686	8894
562.747	8557
562.808	10216
562.869	8417
562.930	10939
562.991	10113
563.051	10255
563.112	8365
563.173	9383
563.234	8587
563.294	9362
563.355	9097
563.416	10373
563.477	8024
563.537	9066
563.598	9189
563.659	9361
563.720	10168
563.780	9990
563.841	9823
563.901	9890
563.962	9122
564.023	9321
564.083	9149
564.144	9158
564.204	9257
564.265	9711
564.325	10159
564.386	12437
564.446	14512
564.507	10063
564.567	9324
564.628	10184
564.688	9882
564.749	9753
564.809	10730
564.869	11308
564.930	9690
564.990	9736
565.050	9534
565.111	11242
565.171	9330
565.231	9587
565.292	9752
565.352	9681
565.412	9661
565.472	10143
565.532	10490
565.593	10489
565.653	10165
565.713	10933
565.773	10471
565.833	10887
565.893	13285
565.953	11181
566.013	10709
566.074	11276
566.134	11266
566.194	14425
566.254	15923
566.314	13801
566.374	12124
566.434	11839
566.494	13094
566.554	11662
566.614	12744
566.673	13672
566.733	12830
566.793	14390
566.853	14615
566.913	14747
566.973	15068
567.033	15658
567.092	15112
567.152	14189
567.212	14912
567.272	15097
567.331	15062
567.391	15856
567.451	16611
567.511	18557
567.570	18823
567.630	17092
567.690	15571
567.749	16099
567.809	16197
567.868	18557
567.928	20065
567.988	22737
568.047	26560
568.107	30873
568.166	39089
568.226	55990
568.285	82824
568.345	84662
568.404	69379
568.464	58964
568.523	53156
568.582	52766
568.642	55869
568.701	65811
568.761	86270
568.820	128364
568.879	154757
568.939	127078
568.998	94984
569.057	72807
569.116	55681
569.176	45307
569.235	37448
569.294	32001
569.353	27539
569.413	24063
569.472	22550
569.531	21097
569.590	17903
569.649	17928
569.708	16579
569.767	16177
569.827	16048
569.886	15474
569.945	13041
570.004	11826
570.063	12730
570.122	13260
570.181	13430
570.240	12801
570.299	12622
570.358	13945
570.417	11801
570.475	10952
570.534	11033
570.593	11133
570.652	11742
570.711	11960
570.770	10823
570.829	11561
570.887	10652
570.946	11695
571.005	10124
571.064	9887
571.122	10054
571.181	9748
571.240	8996
571.299	9181
571.357	9118
571.416	10622
571.475	9522
571.533	11242
571.592	9796
571.650	9540
571.709	8350
571.768	9347
571.826	9348
571.885	9191
571.943	8636
572.002	9258
572.060	9456
572.119	8614
572.177	9320
572.236	8385
572.294	8167
572.352	9192
572.411	8505
572.469	9011
572.528	8749
572.586	8718
572.644	9856
572.703	11573
572.761	9345
572.819	8335
572.877	8958
572.936	8715
572.994	8204
573.052	8204
573.110	7994
573.169	8670
573.227	7677
573.285	8205
573.343	7979
573.401	8917
573.459	8630
573.517	7312
573.576	8037
573.634	8791
573.692	8222
573.750	7929
573.808	7901
573.866	8572
573.924	9199
573.982	9157
574.040	7969
574.098	7784
574.155	7827
574.213	8067
574.271	7319
574.329	7403
574.387	7757
574.445	6955
574.503	8009
574.560	7532
574.618	7299
574.676	7593
574.734	6821
574.792	7994
574.849	7484
574.907	7918
574.965	6844
575.022	7187
575.080	7052
575.138	7731
575.195	7892
575.253	7361
575.311	7675
575.368	7622
575.426	7074
575.483	8207
575.541	7505
575.598	7497
575.656	6924
575.713	7035
575.771	7180
575.828	7960
575.886	6770
575.943	8041
576.001	7811
576.058	8000
576.115	7803
576.173	8290
576.230	9184
576.287	9348
576.345	9264
576.402	7840
576.459	8387
576.517	7284
576.574	8900
576.631	8547
576.688	9535
576.746	8099
576.803	8127
576.860	8290
576.917	7585
576.974	8621
577.031	7749
577.089	7797
577.146	8043
577.203	8198
577.260	8945
577.317	9153
577.374	8518
577.431	9574
577.488	7764
577.545	8884
577.602	8430
577.659	8587
577.716	8791
577.773	10919
577.830	10140
577.886	8953
577.943	7533
578.000	9022
578.057	9168
578.114	10678
578.171	11776
578.227	15441
578.284	16653
578.341	13435
578.398	11044
578.454	10360
578.511	10080
578.568	10261
578.625	8724
578.681	9484
578.738	7831
578.794	8707
578.851	8886
578.908	9114
578.964	9631
579.021	10494
579.077	9413
579.134	10403
579.190	9646
579.247	7961
579.303	8939
579.360	9376
579.416	8580
579.473	9040
579.529	9007
579.586	8426
579.642	9583
579.698	9910
579.755	8985
579.811	10380
579.867	9962
579.924	11097
579.980	11032
580.036	12228
580.093	15080
580.149	20208
580.205	26648
580.261	22475
580.317	16429
580.374	13145
580.430	12080
580.486	12319
580.542	11062
580.598	10459
580.619	10588
580.654	10817
580.692	10802
580.710	10805
580.765	9912
580.767	9886
580.823	11531
580.838	11483
580.879	11380
580.911	10511
580.935	9863
580.984	10401
580.991	10486
581.047	11854
581.057	11661
581.103	10815
581.130	11270
581.159	11767
581.203	12466
581.215	12632
581.270	13857
581.276	13723
581.326	12441
581.349	11931
581.382	11190
581.422	11145
581.438	11143
581.494	11439
581.494	11438
581.550	11070
581.567	11160
581.606	11395
581.640	11198
581.661	11082
581.713	11418
581.717	11443
581.773	11372
581.786	11412
581.829	11504
581.859	11547
581.885	11621
581.932	12401
581.940	12532
581.996	12225
582.004	12321
582.052	12848
582.077	12132
582.107	11271
582.150	11486
582.163	11578
582.219	12205
582.223	12232
582.274	12441
582.296	12368
582.330	12292
582.368	13425
582.386	13920
582.441	12107
582.441	12102
582.497	13284
582.514	13306
582.552	13411
582.587	14170
582.608	14609
582.659	15166
582.663	15193
582.719	14412
582.732	14181
582.774	13461
582.805	13515
582.830	13624
582.877	14410
582.885	14567
582.941	15034
582.950	15110
582.996	15313
583.023	15979
583.052	16883
583.095	17388
583.107	17595
583.162	19351
583.168	19688
583.218	22360
583.240	22396
583.273	22021
583.313	20090
583.328	19361
583.384	18290
583.385	18251
583.439	17177
583.458	16822
583.494	16302
583.531	16052
583.549	15970
583.603	16004
583.605	16002
583.660	17052
583.676	16910
583.715	16593
583.748	16780
583.770	17007
583.820	17591
583.825	17630
583.881	17495
583.893	17453
583.936	17567
583.965	18018
583.991	18177
584.038	17737
584.046	17740
584.101	17908
584.110	17939
584.156	18139
584.183	18319
584.211	18376
584.255	18680
584.266	18790
584.321	19404
584.328	19397
584.376	19477
584.400	19680
584.431	19997
584.472	20142
584.486	20177
584.541	20638
584.545	20651
584.596	21019
584.617	20799
584.651	20533
584.689	21334
584.706	21749
584.761	22387
584.762	22381
584.816	22997
584.834	22949
584.871	23046
584.906	23666
584.926	23992
584.978	23985
584.980	23996
585.035	24919
585.051	25045
585.090	25870
585.123	26431
585.145	26636
585.195	26297
585.200	26346
585.254	28239
585.267	28471
585.309	29702
585.340	31440
585.364	32506
585.412	32991
585.419	32864
585.473	30553
585.484	30452
585.528	31961
585.556	33048
585.583	34393
585.628	36463
585.637	37382
585.692	45121
585.700	47030
585.747	58681
585.772	59148
585.801	53344
585.845	42251
585.856	40229
585.910	36743
585.917	36315
585.965	36538
585.989	36720
586.019	37111
586.061	37525
586.074	37684
586.128	38642
586.133	38690
586.183	40200
586.205	40504
586.237	40941
586.277	41205
586.292	41410
586.346	43251
586.349	43258
586.401	44461
586.421	44711
586.455	45202
586.493	46162
586.509	47201
586.564	50531
586.565	50567
586.618	57479
586.637	59603
586.672	60587
586.709	58295
586.727	56498
586.781	54442
586.781	54534
586.835	57749
586.853	58243
586.889	58645
586.925	59183
586.944	59772
586.996	62353
586.998	62543
587.052	64738
587.068	65580
587.106	67937
587.140	69520
587.161	70751
587.212	73518
587.215	73827
587.269	77474
587.284	78538
587.323	81293
587.356	83490
587.377	85512
587.427	89646
587.431	90141
587.485	94540
587.499	95742
587.539	100172
587.571	103017
587.593	105399
587.643	111111
587.648	111978
587.702	119591
587.715	121311
587.755	128759
587.786	133809
587.810	138474
587.858	148009
587.864	149552
587.917	163273
587.930	165902
587.971	178006
588.001	187396
588.025	196044
588.073	212009
588.079	214954
588.133	239769
588.145	244779
588.187	266812
588.217	282127
588.241	298853
588.288	332497
588.295	338379
588.348	382390
588.360	391873
588.402	440369
588.431	473537
588.456	508851
588.503	577187
588.510	590992
588.564	699299
588.575	721340
588.617	841327
588.646	924446
588.671	1024376
588.718	1214104
588.725	1251915
588.778	1533690
588.789	1588108
588.832	1783697
588.861	1898959
588.886	1841745
588.932	1672536
588.939	1626005
588.993	1193018
589.004	1126645
589.047	1465226
589.075	1703811
589.100	1840897
589.147	2015736
589.154	1992010
589.207	1741553
589.218	1687256
589.261	1533874
589.290	1431823
589.314	1423922
589.361	1411880
589.368	1433332
589.421	1599577
589.433	1632556
589.475	1776631
589.504	1862110
589.528	1765116
589.576	1502457
589.582	1503895
589.635	1539450
589.647	1550713
589.689	1737136
589.718	1824124
589.742	1666281
589.790	1324897
589.795	1296004
589.849	1000735
589.861	931705
589.902	798297
589.932	698285
589.955	647600
590.004	539124
590.009	533379
590.062	457792
590.075	438732
590.115	399297
590.146	367166
590.168	352011
590.218	315970
590.222	314545
590.275	285723
590.289	277600
590.328	259961
590.360	244347
590.381	237990
590.431	221321
590.435	220918
590.488	203670
590.503	198435
590.541	190287
590.574	182120
590.594	178423
590.645	167401
590.647	167497
590.700	157634
590.716	154156
590.753	149483
590.787	144570
590.806	142983
590.859	137268
590.859	137560
590.912	130415
590.930	127877
590.965	125400
591.001	122067
591.018	121012
591.071	116845
591.072	116451
591.124	112968
591.143	111225
591.177	109341
591.214	106832
591.230	106474
591.283	104051
591.285	103630
591.336	100910
591.356	99509
591.389	98838
591.427	97144
591.442	96062
591.495	91030
591.498	90377
591.547	89289
591.569	88429
591.600	87765
591.640	86216
591.653	86162
591.706	84804
591.711	84375
591.759	82930
591.782	81848
591.811	81803
591.853	81148
591.864	81094
591.917	79424
591.924	78929
591.969	76892
591.995	75304
592.022	75124
592.066	74200
592.075	74596
592.127	75554
592.137	75492
592.180	75258
592.208	74686
592.233	74312
592.279	72776
592.285	72487
592.338	68075
592.350	66852
592.390	67095
592.421	66877
592.443	66589
592.491	65245
592.495	65465
592.548	65469
592.562	65251
592.600	64455
592.633	63360
592.653	63473
592.704	62866
592.705	63203
592.775	61857
592.846	60158
592.916	60916
592.987	61220
593.058	59004
593.128	58083
593.199	55808
593.270	55057
593.341	53635
593.411	53797
593.482	53116
593.553	52407
593.623	51444
593.694	50792
593.764	50440
593.835	50382
593.906	50136
593.976	47672
594.047	48427
594.117	49570
594.188	49811
594.258	47556
594.329	45808
594.399	46836
594.470	44314
594.540	44256
594.611	43253
594.681	43374
594.751	42669
594.822	43692
594.892	43249
594.963	44014
595.033	43020
595.103	43047
595.174	42582
595.244	46353
595.314	52424
595.384	44393
595.455	39427
595.525	40837
595.595	40854
595.665	41551
595.736	40438
595.806	40044
595.876	39671
595.946	39864
596.016	37915
596.087	38561
596.157	38866
596.227	38753
596.297	38828
596.367	40050
596.437	39854
596.507	41984
596.577	47605
596.647	42685
596.717	39099
596.787	38812
596.857	39002
596.927	38676
596.997	38513
597.067	39262
597.137	41766
597.207	43057
597.277	39252
597.347	39083
597.417	38677
597.487	37847
597.557	39264
597.626	38979
597.696	40057
597.766	40689
597.836	44788
597.906	42275
597.975	37100
598.045	36171
598.115	35554
598.185	35590
598.254	36558
598.324	38454
598.394	38120
598.464	39110
598.533	37502
598.603	36711
598.672	35731
598.742	36799
598.812	35983
598.881	35944
598.951	35579
599.020	34912
599.090	34446
599.159	35675
599.229	35151
599.299	35080
599.368	35310
599.437	35053
599.507	34924
599.576	35172
599.646	36786
599.715	39437
599.785	35242
599.854	34825
599.924	35455
599.993	35877
600.062	34111
600.132	34366
600.201	33766
600.270	35596
600.340	36577
600.409	36722
600.478	35387
600.547	34502
600.617	36185
600.686	34817
600.755	34052
600.824	33723
600.894	32900
600.963	32579
601.032	31993
601.101	32093
601.170	32100
601.239	33284
601.308	33305
601.378	33042
601.447	33077
601.516	32444
601.585	32713
601.654	34192
601.723	34028
601.792	34052
601.861	35320
601.930	39551
601.999	38834
602.068	35550
602.137	35316
602.206	35709
602.275	34913
602.343	36295
602.412	38866
602.481	35566
602.550	34037
602.619	34750
602.688	34248
602.756	35704
602.825	34335
602.894	34403
602.963	34676
603.032	34142
603.100	34466
603.169	34064
603.238	33919
603.307	34384
603.375	32959
603.444	33738
603.513	34063
603.581	33653
603.650	34422
603.719	33252
603.787	30744
603.856	32782
603.924	32330
603.993	33964
604.061	32815
604.130	33771
604.198	33783
604.267	34290
604.335	33546
604.404	33700
604.472	33783
604.541	33870
604.609	34376
604.678	34679
604.746	34644
604.815	35885
604.883	35874
604.951	35040
605.020	34644
605.088	34337
605.156	33735
605.225	33328
605.293	33260
605.361	33423
605.429	33573
605.498	33003
605.566	34672
605.634	33940
605.702	34828
605.771	34458
605.839	35884
605.907	33538
605.975	33750
606.043	34653
606.111	33339
606.180	34937
606.248	38493
606.316	43514
606.384	36034
606.452	35317
606.520	34784
606.588	35284
606.656	29540
606.724	30211
606.792	29320
606.860	27663
606.928	25890
606.996	25326
607.064	26354
607.132	25836
607.200	25664
607.267	27141
607.335	26273
607.403	27405
607.471	26619
607.539	25702
607.607	26174
607.674	25116
607.742	24505
607.810	26688
607.878	25408
607.946	26203
608.013	25365
608.081	25955
608.149	28522
608.216	26362
608.284	26081
608.352	26178
608.419	27274
608.487	29565
608.555	29536
608.622	26311
608.690	26393
608.757	26892
608.825	27176
608.893	29180
608.960	28863
609.028	32968
609.095	31456
609.163	29686
609.230	25992
609.298	26881
609.365	24803
609.432	27159
609.500	26950
609.567	28932
609.635	30962
609.702	31796
609.769	32979
609.837	31345
609.904	29451
609.971	28585
610.039	31663
610.106	39588
610.173	59149
610.241	118289
610.308	201774
610.375	193254
610.442	70200
610.509	37581
610.577	29775
610.644	29298
610.711	27727
610.778	29176
610.845	29288
610.912	29350
610.980	32024
611.047	41256
611.114	41626
611.181	30089
611.248	26554
611.315	27458
611.382	27068
611.449	28353
611.516	28289
611.583	28868
611.650	28167
611.717	27959
611.784	27781
611.851	28112
611.918	31628
611.984	34274
612.051	36850
612.118	56663
612.185	118343
612.252	159450
612.319	50349
612.386	34140
612.452	31195
612.519	31157
612.586	33409
612.653	33588
612.719	29673
612.786	29163
612.853	28212
612.919	27244
612.986	27264
613.053	27147
613.120	26717
613.186	25507
613.253	25732
613.319	26292
613.386	26012
613.453	27262
613.519	28397
613.586	30942
613.652	40006
613.719	36347
613.785	36139
613.852	28564
613.918	27164
613.985	28889
614.051	33808
614.118	54580
614.184	85021
614.250	37189
614.317	27251
614.383	26570
614.449	25896
614.516	26418
614.582	25896
614.648	25894
614.715	25546
614.781	25856
614.847	26362
614.914	26475
614.980	27530
615.046	27451
615.112	26449
615.179	28811
615.245	31410
615.311	38241
615.377	57792
615.443	88385
615.509	62497
615.575	38705
615.642	32363
615.708	32790
615.774	33920
615.840	36596
615.906	44342
615.972	61448
616.038	112333
616.104	191199
616.170	208983
616.236	270585
616.302	91185
616.368	45656
616.434	38177
616.500	34292
616.565	33525
616.631	35028
616.697	34262
616.763	31477
616.829	34064
616.895	46818
616.961	55105
617.026	42318
617.092	29561
617.158	29544
617.224	27466
617.289	27522
617.355	27439
617.421	27437
617.487	28178
617.552	26954
617.618	25868
617.684	26419
617.749	26935
617.815	26644
617.880	24787
617.946	24936
618.012	26484
618.077	27510
618.143	26607
618.208	27609
618.274	27861
618.339	27879
618.405	26973
618.470	26011
618.536	26638
618.601	27000
618.667	27669
618.732	26544
618.798	26812
618.863	26232
618.928	26085
618.994	25910
619.059	27252
619.124	32576
619.190	33796
619.255	25313
619.320	24669
619.386	24916
619.451	24075
619.516	24540
619.581	25106
619.647	26058
619.712	25732
619.777	24979
619.842	25737
619.907	27361
619.972	25692
620.038	26554
620.103	24389
620.168	24855
620.233	24693
620.298	25058
620.363	24542
620.428	25945
620.493	25397
620.558	25814
620.623	25377
620.688	26302
620.753	23774
620.818	24697
620.883	25473
620.948	25154
621.013	24521
621.078	25692
621.143	23987
621.207	26682
621.272	26178
621.337	27878
621.402	27058
621.467	29318
621.532	32581
621.596	30302
621.661	29082
621.726	26532
621.791	26612
621.855	27575
621.920	29716
621.985	29245
622.049	29947
622.114	29690
622.179	29301
622.243	29123
622.308	29574
622.373	29715
622.437	29639
622.502	29272
622.566	28856
622.631	30026
622.695	29863
622.760	30260
622.824	29255
622.889	30151
622.953	31954
623.018	36579
623.082	45901
623.147	32222
623.211	29651
623.276	30136
623.340	28785
623.404	28178
623.469	28777
623.533	28465
623.597	27655
623.662	27961
623.726	27141
623.790	27165
623.854	27375
623.919	28139
623.983	27134
624.047	28052
624.111	26088
624.176	28503
624.240	27810
624.304	32385
624.368	28031
624.432	27233
624.496	27169
624.560	28145
624.625	29885
624.689	28844
624.753	26238
624.817	26416
624.881	26688
624.945	26065
625.009	26790
625.073	26139
625.137	26793
625.201	30007
625.265	33813
625.329	27785
625.393	27062
625.456	27596
625.520	25556
625.584	28102
625.648	29663
625.712	33736
625.776	53509
625.839	75274
625.903	53427
625.967	27421
626.031	30391
626.095	45460
626.158	34918
626.222	24808
626.286	22041
626.349	23128
626.413	22543
626.477	23400
626.540	23007
626.604	22446
626.668	22095
626.731	21431
626.795	21814
626.858	22740
626.922	21844
626.986	22765
627.049	20300
627.113	21715
627.176	21388
627.240	21378
627.303	20426
627.366	21009
627.430	21124
627.493	21136
627.557	21484
627.620	20794
627.684	20560
627.747	20233
627.810	19784
627.874	19620
627.937	19544
628.000	20672
628.064	19994
628.127	19355
628.190	18689
628.253	18432
628.317	19358
628.380	18224
628.443	18189
628.506	20694
628.569	19026
628.632	17965
628.696	17614
628.759	17662
628.822	17297
628.885	17483
628.948	17582
629.011	17663
629.074	17345
629.137	17766
629.200	17023
629.263	18757
629.326	17018
629.389	16699
629.452	16257
629.515	17556
629.578	16690
629.641	16837
629.704	17254
629.767	19058
629.830	16932
629.892	16155
629.955	15581
630.018	17243
630.081	16837
630.144	20973
630.207	18085
630.269	18486
630.332	17171
630.395	17969
630.458	15167
630.520	15929
630.583	16373
630.646	15333
630.708	14751
630.771	15889
630.834	14757
630.896	15037
630.959	15394
631.021	15043
631.084	15955
631.146	16049
631.209	16466
631.272	15850
631.334	14226
631.397	14908
631.459	13599
631.522	15661
631.584	15005
631.646	16380
631.709	15357
631.771	17553
631.834	16598
631.896	14925
631.958	13915
632.021	15221
632.083	13733
632.145	15173
632.208	14671
632.270	15623
632.332	13892
632.395	13833
632.457	14589
632.519	14386
632.581	14214
632.643	14902
632.706	15386
632.768	13419
632.830	13148
632.892	13890
632.954	13926
633.016	14524
633.078	13345
633.141	13981
633.203	13679
633.265	13885
633.327	13775
633.389	13670
633.451	14107
633.513	16393
633.575	16503
633.637	15311
633.698	16210
633.760	14495
633.822	13809
633.884	13529
633.946	13772
634.008	13828
634.070	13695
634.132	15900
634.193	17415
634.255	14135
634.317	12906
634.379	14343
634.441	13528
634.502	12842
634.564	12994
634.626	12975
634.687	13109
634.749	12978
634.811	13369
634.873	12237
634.934	11924
634.996	12335
635.057	12002
635.119	11801
635.181	12283
635.242	12408
635.304	11874
635.365	12826
635.427	12271
635.488	13175
635.550	11542
635.611	12677
635.673	11557
635.734	13553
635.796	13250
635.857	14043
635.918	13982
635.980	12246
636.041	11844
636.102	11659
636.164	12239
636.225	12751
636.286	12343
636.348	12767
636.409	12050
636.470	11554
636.531	12161
636.593	12399
636.654	12388
636.715	11638
636.776	11034
636.838	10774
636.899	11363
636.960	12037
637.021	11083
637.082	11078
637.143	11574
637.204	11241
637.265	9868
637.326	10845
637.387	10798
637.448	10168
637.509	11466
637.570	11050
637.631	11253
637.692	11099
637.753	9898
637.814	10660
637.875	10317
637.936	11064
637.997	10919
638.058	10528
638.119	11214
638.179	11043
638.240	10502
638.301	10582
638.362	9452
638.423	10642
638.483	10380
638.544	10527
638.605	10045
638.666	10454
638.726	11132
638.787	11017
638.848	10684
638.908	10059
638.969	9968
639.030	9596
639.090	9827
639.151	10910
639.211	10111
639.272	12365
639.332	16306
639.393	16256
639.453	9563
639.514	9985
639.574	10369
639.635	9615
639.695	10168
639.756	10325
639.816	9785
639.877	10550
639.937	13022
639.997	19437
640.058	13714
640.118	8527
640.178	9669
640.239	9944
640.299	9792
640.359	9785
640.420	8853
640.480	9435
640.540	9240
640.600	9729
640.661	10021
640.721	8898
640.781	11283
640.841	10698
640.901	10116
640.961	9813
641.021	10328
641.082	10689
641.142	11719
641.202	13647
641.262	7574
641.322	9779
641.382	9277
641.442	9398
641.502	9139
641.562	9921
641.622	9180
641.682	9213
641.742	9284
641.802	9456
641.861	8686
641.921	9779
641.981	9295
642.041	10279
642.101	11131
642.161	11330
642.221	9147
642.280	8269
642.340	7693
642.400	8990
642.460	8919
642.519	8378
642.579	8526
642.639	9529
642.698	7523
642.758	9387
642.818	8711
642.877	9617
642.937	8911
642.997	10373
643.056	11470
643.116	12331
643.175	9298
643.235	8960
643.294	9684
643.354	8892
643.414	8351
643.473	9606
643.532	9841
643.592	9987
643.651	12148
643.711	15820
643.770	24211
643.830	42998
643.889	116987
643.948	87291
644.008	14020
644.067	10226
644.126	9337
644.186	8869
644.245	8677
644.304	8187
644.363	8666
644.423	7175
644.482	7268
644.541	8485
644.600	7362
644.659	8913
644.719	7398
644.778	9157
644.837	10550
644.896	13301
644.955	22631
645.014	22636
645.073	12623
645.132	9823
645.191	8752
645.250	7967
645.309	8095
645.368	7688
645.427	7901
645.486	7922
645.545	10248
645.604	8799
645.663	7446
645.722	7621
645.781	7618
645.840	8324
645.898	7670
645.957	8684
646.016	9358
646.075	13948
646.134	19138
646.192	37352
646.251	93849
646.310	42499
646.369	9917
646.427	8833
646.486	7469
646.545	7833
646.603	8145
646.662	7999
646.721	6931
646.779	6672
646.838	5899
646.896	7585
646.955	7847
647.014	8726
647.072	8286
647.131	14839
647.189	17128
647.248	8119
647.306	6781
647.365	6867
647.423	5995
647.481	7613
647.540	5686
647.598	8074
647.657	6024
647.715	6857
647.773	6011
647.832	6279
647.890	6295
647.948	6595
648.007	6753
648.065	6000
648.123	7183
648.181	8507
648.240	9160
648.298	11024
648.356	7156
648.414	7375
648.472	6927
648.531	6946
648.589	5925
648.647	6440
648.705	5997
648.763	7161
648.821	6680
648.879	6964
648.937	6618
648.995	6998
649.053	6476
649.111	7864
649.169	8879
649.227	11899
649.285	15679
649.343	33906
649.401	46243
649.459	20047
649.516	20919
649.574	12466
649.632	18432
649.690	35676
649.748	19690
649.806	13493
649.863	25259
649.921	19494
649.979	15740
650.037	7407
650.094	5629
650.152	6716
650.210	5660
650.268	6919
650.325	5613
650.383	6837
650.440	5940
650.498	6742
650.556	5824
650.613	5844
650.671	5905
650.728	5507
650.786	6124
650.843	5996
650.901	5848
650.958	5292
651.016	5797
651.073	6394
651.131	5166
651.188	4959
651.246	5460
651.303	5475
651.360	5228
651.418	4475
651.475	5262
651.532	4815
651.590	5128
651.647	5334
651.704	5272
651.762	5308
651.819	5596
651.876	5153
651.933	5756
651.990	5238
652.048	4305
652.105	5600
652.162	5186
652.219	4851
652.276	5428
652.333	5635
652.390	5035
652.448	5555
652.505	5275
652.562	6056
652.619	6722
652.676	9770
652.733	14216
652.790	8054
652.847	4736
652.904	6141
652.961	4540
653.017	5265
653.074	5657
653.131	6074
653.188	4155
653.245	4907
653.302	5115
653.359	4207
653.415	4523
653.472	5003
653.529	5565
653.586	4732
653.642	4569
653.699	6122
653.756	4873
653.813	4722
653.869	5060
653.926	4980
653.983	4225
654.039	5951
654.096	5271
654.152	5456
654.209	4257
654.266	5656
654.322	3847
654.379	5737
654.435	5655
654.492	5435
654.548	5456
654.605	8931
654.661	8927
654.717	5193
654.774	5323
654.830	5078
654.887	4867
654.943	4812
655.000	5734
655.056	5734
655.112	5069
655.168	4740
655.225	5526
655.281	5504
655.337	5236
655.394	7674
655.450	7117
655.506	6550
655.562	6846
655.618	9037
655.675	4920
655.731	4377
655.787	4260
655.843	5643
655.899	3911
655.955	5840
656.011	4501
656.067	4406
656.123	5195
656.179	4930
656.235	5011
656.291	4660
656.347	5318
656.403	4771
656.459	5095
656.515	5546
656.571	4965
656.627	5225
656.683	4540
656.739	5775
656.795	4799
656.850	5745
656.906	5565
656.962	5704
657.018	4246
657.074	4878
657.129	5131
657.185	4683
657.241	4719
657.297	5872
657.352	5424
657.408	4388
657.464	5354
657.519	5474
657.575	3997
657.630	5041
657.686	4266
657.742	4527
657.797	4697
657.853	4155
657.908	5465
657.964	4579
658.019	4411
658.075	4578
658.130	5187
658.186	4036
658.241	3778
658.297	4898
658.352	3986
658.407	5576
658.463	4958
658.518	4852
658.573	4240
658.629	4062
658.684	4209
658.739	5013
658.795	3480
658.850	4962
658.905	3659
658.960	4793
659.016	4265
659.071	4710
659.126	4999
659.181	4443
659.236	5759
659.291	7964
659.346	5957
659.401	5468
659.457	6539
659.512	9578
659.567	8367
659.622	5325
659.677	4457
659.732	4573
659.787	3931
659.842	3999
659.897	5192
659.952	5504
660.007	4405
660.061	4752
660.116	4317
660.171	4056
660.226	4020
660.281	5506
660.336	3703
660.391	4089
660.445	3754
660.500	4586
660.555	4589
660.610	3716
660.664	4682
660.719	3720
660.774	4168
660.828	4627
660.883	4426
660.938	4287
660.992	3949
661.047	4951
661.101	4064
661.156	4100
661.211	3885
661.265	3891
661.320	4510
661.374	5138
661.429	4339
661.483	4586
661.538	4174
661.592	3378
661.647	4867
661.701	4620
661.755	4999
661.810	4293
661.864	4785
661.919	4534
661.973	4029
662.027	3580
662.081	3857
662.136	3882
662.190	3747
662.244	5026
662.299	4262
662.353	4464
662.407	4015
662.461	3786
662.515	4829
662.569	5154
662.624	4465
662.678	3777
662.732	4189
662.786	3152
662.840	4174
662.894	4693
662.948	3988
663.002	4113
663.056	2992
663.110	4754
663.164	3625
663.218	4428
663.272	4084
663.326	3884
663.380	4454
663.434	4640
663.488	3373
663.542	4798
663.595	4030
663.649	3479
663.703	4900
663.757	3876
663.811	3560
663.864	4623
663.918	4920
663.972	3808
664.026	4256
664.079	4129
664.133	4641
664.187	4670
664.240	3556
664.294	3585
664.348	4141
664.401	4455
664.455	3825
664.508	3170
664.562	4393
664.615	4327
664.669	2524
664.722	4573
664.776	3541
664.829	3769
664.883	3865
664.936	4353
664.990	4034
665.043	4678
665.097	4277
665.150	5411
665.203	3320
665.257	3862
665.310	4006
665.363	4097
665.417	3814
665.470	4755
665.523	3914
665.576	4582
665.630	4499
665.683	3474
665.736	4475
665.789	4843
665.842	3531
665.895	4735
665.949	4129
666.002	4036
666.055	3759
666.108	4895
666.161	3544
666.214	4602
666.267	4571
666.320	5044
666.373	4591
666.426	4690
666.479	3392
666.532	4356
666.585	3519
666.638	4208
666.691	4430
666.744	5669
666.796	4121
666.849	4337
666.902	4432
666.955	4589
667.008	3570
667.060	3719
667.113	3035
667.166	3670
667.219	4223
667.271	3819
667.324	3597
667.377	3672
667.430	4371
667.482	5113
667.535	6156
667.587	4690
667.640	4393
667.693	4816
667.745	5854
667.798	8191
667.850	5323
667.903	4285
667.955	3904
668.008	3830
668.060	4592
668.113	4517
668.165	4166
668.218	4312
668.270	3981
668.322	4193
668.375	4267
668.427	4501
668.479	3816
668.532	4658
668.584	3781
668.636	4521
668.689	3685
668.741	3762
668.793	3961
668.845	4179
668.898	4073
668.950	4611
669.002	4222
669.054	4244
669.106	3874
669.158	4906
669.211	4988
669.263	4672
669.315	4947
669.367	6667
669.419	6325
669.471	5772
669.523	5122
669.575	6357
669.627	6448
669.679	5616
669.731	4587
669.783	5986
669.835	5546
669.886	6138
669.938	5475
669.990	6011
670.042	5036
670.094	6069
670.146	6512
670.197	6600
670.249	8362
670.301	10209
670.353	13581
670.404	18479
670.456	26260
670.508	39624
670.560	62130
670.611	104532
670.663	173970
670.715	321373
670.766	631683
670.818	548063
670.869	151401
670.921	47151
670.972	27835
671.024	20038
671.075	14576
671.127	12742
671.178	9305
671.230	8833
671.281	8346
671.333	7187
671.384	6676
671.436	6448
671.487	5944
671.538	5932
671.590	5984
671.641	7308
671.692	6438
671.744	7975
671.795	9819
671.846	6578
671.897	4610
671.949	4500
672.000	5063
672.051	5463
672.102	4573
672.153	3938
672.204	4640
672.256	4132
672.307	3614
672.358	4364
672.409	4035
672.460	4167
672.511	3498
672.562	3495
672.613	3658
672.664	4047
672.715	3961
672.766	3513
672.817	3429
672.868	3830
672.919	3112
672.970	3279
673.021	4036
673.071	3662
673.122	4474
673.173	4088
673.224	3586
673.275	3374
673.326	3948
673.376	3628
673.427	2925
673.478	3631
673.528	3824
673.579	3686
673.630	3055
673.680	3251
673.731	3112
673.782	3454
673.832	3709
673.883	3614
673.934	4185
673.984	3490
674.035	3190
674.085	3503
674.136	3023
674.186	3733
674.237	3770
674.287	3735
674.338	4617
674.388	3017
674.438	2155
674.489	3579
674.539	2792
674.589	3154
674.640	3491
674.690	3074
674.740	3127
674.791	3468
674.841	2467
674.891	4364
674.942	2393
674.992	3333
675.042	2114
675.092	2762
675.142	3507
675.193	3127
675.243	2520
675.293	2972
675.343	3118
675.393	2499
675.443	3183
675.493	2940
675.543	2879
675.593	2907
675.643	2480
675.693	3352
675.743	2933
675.793	3537
675.843	2578
675.893	3244
675.943	2454
675.993	2894
676.043	2562
676.093	4327
676.142	2477
676.192	4232
676.242	2167
676.292	2604
676.341	2491
676.391	3080
676.441	2182
676.491	2584
676.540	2230
676.590	2441
676.640	3069
676.689	2753
676.739	2157
676.789	3222
676.838	2433
676.888	3372
676.937	1479
676.987	2714
677.037	2728
677.086	2105
677.136	1659
677.185	2208
677.235	2034
677.284	2487
677.333	2263
677.383	2594
677.432	2284
677.482	2006
677.531	2613
677.580	2238
677.630	2013
677.679	2428
677.728	2256
677.778	2690
677.827	2411
677.876	2494
677.925	2225
677.975	2284
678.024	2074
678.073	2502
678.122	1817
678.171	2953
678.220	2468
678.269	3033
678.319	2308
678.368	2827
678.417	1606
678.466	2955
678.515	3062
678.564	2480
678.613	2222
678.662	2281
678.711	1820
678.760	2496
678.809	2557
678.857	2114
678.906	2550
678.955	2223
679.004	2096
679.053	3474
679.102	1959
679.151	2226
679.199	2256
679.248	2904
679.297	1735
679.346	1935
679.394	2500
679.443	2424
679.492	1924
679.540	1936
679.589	1840
679.638	2433
679.686	2478
679.735	2258
679.784	1589
679.832	2179
679.881	2169
679.929	2745
679.978	1229
680.026	2245
680.075	1587
680.123	2373
680.172	1567
680.220	2139
680.268	1829
680.317	2552
680.365	1096
680.414	2700
680.462	1829
680.510	2046
680.559	2270
680.607	2413
680.655	1865
680.703	2276
680.752	1805
680.800	2129
680.848	947
680.896	1856
680.945	1742
680.993	1681
681.041	1267
681.089	1843
681.137	2191
681.185	1685
681.233	1901
681.258	1805
681.281	1690
681.329	1465
681.377	1747
681.380	1802
681.425	2371
681.473	2517
681.502	2333
681.521	2161
681.569	2134
681.617	2444
681.624	2436
681.665	2235
681.713	2254
681.745	2749
681.761	2940
681.809	2163
681.857	3125
681.867	3072
681.904	2816
681.952	2257
681.989	2022
682.000	1918
682.048	2660
682.096	2215
682.111	2366
682.143	2624
682.191	2705
682.233	3179
682.239	3223
682.286	2701
682.334	2661
682.354	2842
682.382	3046
682.430	2326
682.476	3414
682.477	3416
682.525	3059
682.572	3177
682.598	2877
682.620	2609
682.667	3107
682.715	3836
682.720	3820
682.763	3391
682.810	3449
682.841	3432
682.857	3407
682.905	4065
682.952	3212
682.963	3290
683.000	3443
683.047	3566
683.085	4307
683.095	4491
683.142	3834
683.190	3739
683.206	3420
683.237	2765
683.284	4263
683.328	3899
683.332	3856
683.379	4002
683.426	3523
683.449	3584
683.473	3611
683.521	3711
683.568	3847
683.571	3896
683.615	4298
683.662	4202
683.693	4240
683.709	4209
683.757	4439
683.804	4244
683.814	4283
683.851	4344
683.898	4443
683.936	4107
683.945	4022
683.992	4069
684.039	5071
684.057	4468
684.086	3481
684.133	4996
684.179	4246
684.180	4206
684.227	5176
684.274	4434
684.300	5157
684.321	5691
684.368	4978
684.415	4790
684.422	4849
684.462	5171
684.509	5184
684.543	4951
684.556	4832
684.603	5290
684.649	5157
684.665	5345
684.696	5737
684.743	5354
684.786	5857
684.790	5888
684.837	5594
684.883	6088
684.908	5757
684.930	5432
684.977	6522
685.023	5673
685.029	5720
685.070	5897
685.117	5574
685.150	5770
685.164	5854
685.210	5740
685.257	6248
685.272	6350
685.303	6543
685.350	7102
685.393	6705
685.396	6653
685.443	6632
685.490	6341
685.514	6212
685.536	6164
685.583	6558
685.629	6986
685.636	6877
685.675	6096
685.722	7169
685.757	7050
685.768	7002
685.815	6739
685.861	6787
685.878	6749
685.908	6759
685.954	7022
686.000	6963
686.000	6953
686.047	7116
686.093	7494
686.121	7295
686.139	7197
686.185	7648
686.232	7579
686.242	7485
686.278	7032
686.324	6943
686.363	7065
686.370	7075
686.416	6860
686.463	7535
686.484	7318
686.509	7195
686.555	7516
686.601	6968
686.606	7117
686.647	8119
686.693	7170
686.727	7381
686.739	7509
686.785	7264
686.831	7126
686.848	7152
686.877	7140
686.923	7465
686.969	7186
686.969	7184
687.015	7120
687.061	7283
687.090	7688
687.107	7938
687.153	7721
687.199	7559
687.211	7437
687.245	7116
687.291	7472
687.332	7622
687.336	7639
687.382	7823
687.428	7873
687.453	7850
687.474	7779
687.520	7691
687.565	8496
687.574	8322
687.611	7637
687.657	7767
687.695	7318
687.702	7263
687.748	8576
687.794	8377
687.816	8553
687.839	8666
687.885	8382
687.931	8184
687.937	8137
687.976	7884
688.022	8016
688.058	8233
688.067	8304
688.113	8274
688.158	8243
688.179	8450
688.204	8640
688.249	8223
688.295	8393
688.300	8348
688.340	8263
688.386	8810
688.421	8800
688.431	8758
688.477	8935
688.522	8599
688.542	8713
688.567	8942
688.613	8739
688.658	8807
688.663	8786
688.703	8454
688.749	8893
688.784	8744
688.794	8764
688.839	9522
688.884	8743
688.905	8978
688.930	9282
688.975	8575
689.020	9276
689.026	9251
689.065	9054
689.110	9370
689.146	9086
689.155	9062
689.201	9595
689.246	9221
689.267	9678
689.291	10166
689.336	9722
689.381	9918
689.388	9883
689.426	9579
689.471	9876
689.509	9651
689.516	9655
689.561	9816
689.606	9603
689.630	9985
689.651	10234
689.696	9683
689.741	10379
689.750	10254
689.785	9857
689.830	9370
689.871	9296
689.875	9317
689.920	9618
689.965	9615
689.992	9818
690.010	9986
690.054	9989
690.099	10132
690.112	10080
690.144	10059
690.189	10179
690.233	10364
690.233	10377
690.278	10403
690.323	10665
690.354	10456
690.367	10457
690.412	10819
690.457	11536
690.474	11513
690.501	11492
690.546	11850
690.590	11723
690.595	11773
690.635	12573
690.680	12541
690.716	13084
690.724	13385
690.769	15017
690.813	16672
690.836	17146
690.857	18324
690.902	22088
690.946	25027
690.957	25982
690.991	35100
691.035	47199
691.077	61222
691.080	62320
691.124	78218
691.168	90285
691.198	98605
691.213	91677
691.257	72362
691.301	53302
691.318	45996
691.346	40556
691.390	30989
691.434	21608
691.439	20611
691.478	19223
691.522	17314
691.559	15452
691.567	15338
691.611	14741
691.655	13735
691.680	13395
691.699	13401
691.743	13325
691.787	13364
691.800	13263
691.831	12984
691.875	12874
691.919	12479
691.921	12445
691.964	12331
692.008	12239
692.041	12210
692.052	12291
692.096	12444
692.139	12983
692.162	12837
692.183	12551
692.227	12674
692.271	12540
692.282	12459
692.315	12553
692.359	12648
692.402	13205
692.403	13230
692.447	12715
692.490	12778
692.523	12246
692.534	12191
692.578	12682
692.622	12988
692.643	13105
692.666	13169
692.709	13089
692.753	12953
692.763	12905
692.797	12898
692.840	13100
692.884	12889
692.884	12915
692.928	13242
692.971	13600
693.004	13825
693.015	13989
693.059	14162
693.102	14916
693.124	15062
693.146	14934
693.189	14942
693.233	14347
693.245	14301
693.276	15134
693.320	16325
693.363	17059
693.365	17060
693.407	18319
693.450	19749
693.485	20736
693.493	21335
693.537	24395
693.580	27683
693.605	29557
693.624	32834
693.667	40149
693.710	48370
693.725	51133
693.753	68516
693.797	96324
693.840	126781
693.845	130038
693.883	161144
693.926	190894
693.966	218543
693.970	214539
694.013	169446
694.056	124992
694.086	94653
694.099	88418
694.142	67697
694.185	47136
694.206	37220
694.229	34700
694.272	29778
694.315	25041
694.326	23747
694.358	22791
694.401	21386
694.444	19911
694.446	19795
694.487	19277
694.530	18866
694.566	18369
694.573	18263
694.616	17396
694.659	16724
694.686	15844
694.702	15626
694.745	15693
694.787	15075
694.806	14961
694.830	14848
694.873	14591
694.916	14334
694.926	14189
694.959	14134
695.002	14166
695.044	14109
695.046	14074
695.087	14195
695.130	14396
695.166	14512
695.172	14540
695.215	14277
695.258	14374
695.286	14254
695.301	14294
695.343	14235
695.386	14457
695.406	14456
695.428	14463
695.471	14340
695.514	14283
695.526	14230
695.556	14114
695.599	14000
695.641	13913
695.646	13851
695.684	14134
695.726	14336
695.766	14631
695.769	14666
695.811	14752
695.854	14707
695.886	14639
695.896	14617
695.938	14308
695.981	14109
696.005	13934
696.023	13946
696.065	13921
696.108	13865
696.125	13797
696.150	13972
696.192	14325
696.235	14590
696.245	14610
696.277	14697
696.319	14674
696.361	15002
696.365	14977
696.404	15401
696.446	15771
696.485	16090
696.488	16130
696.530	16161
696.572	16156
696.604	16192
696.614	16143
696.656	15629
696.698	15185
696.724	14923
696.740	14889
696.783	14532
696.825	14339
696.844	14221
696.867	14401
696.909	14480
696.951	14613
696.964	14659
696.992	14694
697.034	14646
697.076	14495
697.083	14448
697.118	14553
697.160	14622
697.202	14684
697.203	14647
697.244	14310
697.286	14007
697.323	13618
697.327	13722
697.369	14421
697.411	15069
697.442	15549
697.453	15568
697.494	15397
697.536	15324
697.562	15215
697.578	15188
697.620	15016
697.661	14785
697.682	14669
697.703	14862
697.744	15090
697.786	15503
697.801	15544
697.828	15620
697.869	15799
697.911	15852
697.921	15836
697.952	15569
697.994	15155
698.035	14765
698.040	14677
698.077	14751
698.118	14789
698.160	14817
698.160	14778
698.201	14900
698.243	14919
698.279	14940
698.284	14983
698.325	14943
698.367	15019
698.399	14968
698.408	14964
698.449	14796
698.491	14617
698.518	14461
698.532	14524
698.573	14593
698.614	14662
698.638	14664
698.656	14753
698.697	14873
698.738	14979
698.757	14997
698.779	15120
698.820	15257
698.862	15409
698.877	15421
698.903	15440
698.944	15415
698.985	15383
698.996	15335
699.026	15391
699.067	15411
699.116	15395
699.235	15162
699.354	14967
699.474	14702
699.593	15315
699.713	15983
699.832	15014
699.951	16150
700.070	15460
700.190	15305
700.309	14893
700.428	14929
700.547	14645
700.667	15826
700.786	14878
700.905	15606
701.024	13974
701.143	15429
701.262	14606
701.381	14402
701.500	14429
701.619	15453
701.738	14180
701.857	14346
701.976	14515
702.095	14256
702.214	14108
702.333	15041
702.452	14375
702.571	14074
702.690	14138
702.809	13088
702.928	13972
703.047	13496
703.165	14103
703.284	13232
703.403	12832
703.522	13160
703.640	14547
703.759	13838
703.878	15453
703.997	15545
704.115	13361
704.234	13568
704.353	12805
704.471	13092
704.590	13019
704.708	12273
704.827	12841
704.946	13193
705.064	13376
705.183	13285
705.301	13260
705.420	16330
705.538	17189
705.656	15577
705.775	15956
705.893	19405
706.012	36785
706.130	20526
706.249	16438
706.367	14841
706.485	14520
706.604	14545
706.722	14736
706.840	15536
706.958	17085
707.077	15586
707.195	14426
707.313	14947
707.431	14298
707.549	14091
707.668	14450
707.786	14225
707.904	14690
708.022	14199
708.140	14515
708.258	13116
708.376	14313
708.494	14355
708.612	13531
708.730	16485
708.848	18254
708.966	15861
709.084	16013
709.202	15688
709.320	15528
709.438	15487
709.556	15991
709.674	15313
709.791	15927
709.909	15161
710.027	14725
710.145	16102
710.263	14918
710.380	14532
710.498	14396
710.616	15334
710.733	14397
710.851	15021
710.969	15469
711.086	14763
711.204	14264
711.322	13705
711.439	14780
711.557	14799
711.674	14331
711.792	14177
711.909	14200
712.027	17271
712.144	15274
712.262	13674
712.379	13757
712.497	15643
712.614	19263
712.732	17526
712.849	16002
712.966	14916
713.084	15705
713.201	16301
713.318	16586
713.436	16200
713.553	16032
713.670	15647
713.787	15676
713.905	16567
714.022	15814
714.139	15430
714.256	15455
714.373	15642
714.490	16176
714.608	17603
714.725	26716
714.842	60571
714.959	24103
715.076	14666
715.193	15262
715.310	14708
715.427	14232
715.544	14242
715.661	14082
715.778	13870
715.895	14915
716.011	14374
716.128	14702
716.245	13550
716.362	14535
716.479	15326
716.596	14782
716.713	14147
716.829	14531
716.946	14475
717.063	13135
717.180	12739
717.296	13349
717.413	13072
717.530	13217
717.646	13165
717.763	13608
717.880	12366
717.996	13399
718.113	13571
718.229	12193
718.346	12805
718.462	12256
718.579	13327
718.695	14771
718.812	16892
718.928	12560
719.045	13795
719.161	12449
719.277	11057
719.394	12216
719.510	12504
719.626	12577
719.743	12925
719.859	12831
719.975	12370
720.092	14941
720.208	24749
720.324	20809
720.440	12408
720.557	12327
720.673	12522
720.789	16526
720.905	17873
721.021	20216
721.137	12545
721.253	12285
721.369	11891
721.486	12542
721.602	11943
721.718	12690
721.834	10852
721.950	10876
722.066	11058
722.181	11699
722.297	11394
722.413	12464
722.529	11546
722.645	11819
722.761	11077
722.877	10662
722.993	10628
723.108	10807
723.224	10576
723.340	10853
723.456	11201
723.571	10077
723.687	11404
723.803	10837
723.918	10292
724.034	10342
724.150	10449
724.265	10068
724.381	11579
724.497	15658
724.612	10525
724.728	9826
724.843	9941
724.959	11069
725.074	11338
725.190	14476
725.305	11322
725.421	9925
725.536	9550
725.651	9729
725.767	10011
725.882	9332
725.997	9471
726.113	10024
726.228	9918
726.343	8905
726.459	9904
726.574	9471
726.689	9691
726.804	9183
726.920	9712
727.035	8918
727.150	10094
727.265	9686
727.380	9680
727.495	9505
727.610	9449
727.725	9150
727.841	10500
727.956	12852
728.071	19929
728.186	11184
728.301	9197
728.416	9415
728.531	8619
728.645	9522
728.760	9121
728.875	8473
728.990	10013
729.105	8158
729.220	8631
729.335	9610
729.449	9020
729.564	8210
729.679	8812
729.794	9313
729.908	8359
730.023	9212
730.138	8678
730.253	8387
730.367	8880
730.482	8052
730.596	8302
730.711	8963
730.826	8116
730.940	9077
731.055	8514
731.169	8458
731.284	7613
731.398	7999
731.513	8594
731.627	8854
731.742	8165
731.856	8664
731.970	8643
732.085	8960
732.199	8949
732.313	8804
732.428	8970
732.542	12537
732.656	15622
732.771	8887
732.885	8007
732.999	8425
733.113	8034
733.227	8390
733.342	8601
733.456	7868
733.570	7974
733.684	7817
733.798	7833
733.912	8364
734.026	7833
734.140	8072
734.254	7817
734.368	9279
734.482	11132
734.596	8872
734.710	8080
734.824	8248
734.938	7841
735.052	8183
735.166	7823
735.280	8438
735.393	8269
735.507	7738
735.621	8232
735.735	9166
735.849	9263
735.962	8113
736.076	8179
736.190	7667
736.303	8236
736.417	9153
736.531	7779
736.644	7294
736.758	7532
736.872	7263
736.985	6709
737.099	7634
737.212	7294
737.326	8369
737.439	7482
737.553	8302
737.666	7626
737.780	7496
737.893	7059
738.007	7926
738.120	7159
738.233	7402
738.347	8116
738.460	7446
738.573	7284
738.687	6767
738.800	7928
738.913	8227
739.026	8063
739.140	7925
739.253	8192
739.366	8229
739.479	7024
739.592	7477
739.705	7138
739.818	7109
739.932	7649
740.045	7327
740.158	7172
740.271	7567
740.384	7852
740.497	7385
740.610	7322
740.723	7058
740.836	7505
740.949	7826
741.062	7437
741.174	7936
741.287	7161
741.400	7214
741.513	7621
741.626	7286
741.739	7546
741.851	7143
741.964	7590
742.077	7562
742.189	7282
742.302	7706
742.415	6665
742.527	7384
742.640	7238
742.753	7795
742.865	8016
742.978	7214
743.090	7344
743.203	7193
743.316	7563
743.428	6801
743.541	7268
743.653	7172
743.766	6522
743.878	7082
743.990	7528
744.103	8102
744.215	7457
744.327	7287
744.440	7969
744.552	8557
744.664	8788
744.777	7511
744.889	7586
745.001	7545
745.113	7325
745.226	7425
745.338	7339
745.450	6963
745.562	8100
745.674	7466
745.786	7116
745.898	7534
746.010	7336
746.122	8068
746.234	7492
746.347	6669
746.459	7481
746.570	7287
746.682	7310
746.794	6966
746.906	7562
747.018	7357
747.130	6938
747.242	7557
747.354	7228
747.466	6648
747.577	6999
747.689	7008
747.801	7805
747.913	7211
748.024	7350
748.136	6636
748.248	6680
748.359	7363
748.471	6321
748.583	7609
748.694	7169
748.806	8724
748.918	7554
749.029	7532
749.141	6832
749.252	7978
749.364	7650
749.475	7836
749.587	9453
749.698	7134
749.809	7422
749.921	7459
750.032	7721
750.144	7449
750.255	7812
750.366	7381
750.478	7475
750.589	7190
750.700	7366
750.811	7570
750.923	7930
751.034	8926
751.145	10207
751.256	8196
751.367	7570
751.479	6796
751.590	7499
751.701	7681
751.812	7131
751.923	7631
752.034	7540
752.145	7143
752.256	6557
752.367	6971
752.478	7222
752.589	7654
752.700	7300
752.811	7375
752.922	6407
753.032	6959
753.143	8638
753.254	8584
753.365	7505
753.476	7409
753.586	7822
753.697	8157
753.808	7053
753.919	7172
754.029	7296
754.140	8198
754.251	7702
754.361	7105
754.472	8864
754.582	7907
754.693	8009
754.804	8138
754.914	6948
755.025	8808
755.135	7634
755.246	8538
755.356	8376
755.466	7514
755.577	8212
755.687	8234
755.798	8091
755.908	7880
756.018	8195
756.129	8631
756.239	8079
756.349	8893
756.460	7960
756.570	9242
756.680	8901
756.790	9198
756.900	9379
757.011	9014
757.121	8601
757.231	8969
757.341	9580
757.451	8800
757.561	8837
757.671	8083
757.781	9497
757.891	9641
758.001	9519
758.111	9579
758.221	10658
758.331	9225
758.441	10672
758.551	10243
758.661	11394
758.771	10443
758.880	11080
758.990	10738
759.100	11009
759.210	11497
759.320	10478
759.429	10644
759.539	10868
759.649	11255
759.758	11915
759.868	12262
759.978	11497
760.087	13026
760.197	12680
760.307	13217
760.416	12621
760.526	12021
760.635	13070
760.745	14185
760.854	13516
760.964	14958
761.073	14442
761.182	15010
761.292	14850
761.401	15683
761.511	15581
761.620	15964
761.729	16777
761.839	16010
761.948	18350
762.057	17494
762.166	18450
762.276	18489
762.385	19369
762.494	20634
762.603	20239
762.712	20861
762.822	21816
762.931	22902
763.040	23246
763.149	24041
763.258	25862
763.367	26695
763.476	28286
763.585	30127
763.694	31079
763.803	32006
763.912	33922
764.021	37297
764.130	37915
764.238	40636
764.347	43091
764.456	46076
764.565	51129
764.674	55716
764.783	60034
764.891	66339
765.000	73977
765.109	83195
765.217	94907
765.326	108670
765.435	129372
765.543	153228
765.652	187129
765.761	232006
765.869	301990
765.978	399764
766.086	550719
766.195	768265
766.303	1034838
766.412	1048959
766.520	726596
766.629	988223
766.737	957597
766.846	726902
766.954	523332
767.062	388250
767.171	297175
767.279	233097
767.387	186496
767.496	155360
767.604	131055
767.712	112542
767.820	98092
767.928	90042
768.037	81876
768.145	77341
768.253	72651
768.361	69870
768.469	69048
768.577	70226
768.685	71735
768.793	74355
768.901	81234
769.009	91658
769.117	108965
769.225	133631
769.333	173492
769.441	241308
769.549	364008
769.657	578762
769.765	899467
769.873	909642
769.981	817959
770.088	829293
770.196	563875
770.304	370970
770.412	260801
770.519	194220
770.627	152100
770.735	123633
770.842	102662
770.950	87168
771.058	76070
771.165	67372
771.273	59547
771.380	54128
771.488	48613
771.595	43992
771.703	40679
771.810	38236
771.918	36054
772.025	33535
772.133	30626
772.240	30093
772.348	28388
772.455	27069
772.562	24902
772.670	24614
772.777	23187
772.884	21940
772.991	21569
773.099	20623
773.206	20077
773.313	18667
773.420	19120
773.528	17311
773.635	16872
773.742	16937
773.849	15850
773.956	15376
774.063	15424
774.170	15728
774.277	14813
774.384	14337
774.491	13957
774.598	14368
774.705	12480
774.812	14328
774.919	13230
775.026	13341
775.133	12027
775.239	11765
775.346	12224
775.453	12123
775.560	11094
775.667	11669
775.773	11336
775.880	11409
775.987	11606
776.093	10814
776.200	9910
776.307	10229
776.413	9862
776.520	9971
776.627	9680
776.733	9590
776.840	8936
776.946	9736
777.053	8834
777.159	9324
777.266	8777
777.372	9714
777.478	8942
777.585	8078
777.691	8988
777.798	8637
777.904	9232
778.010	9568
778.117	9422
778.223	8812
778.329	8112
778.435	8029
778.542	7488
778.648	7692
778.754	7765
778.860	7464
778.966	7886
779.072	7513
779.178	7590
779.284	7311
779.391	7727
779.497	9151
779.603	11624
779.708	15535
779.815	27387
779.920	78724
780.026	265875
780.132	166510
780.238	24327
780.344	12337
780.450	10228
780.556	7991
780.661	7429
780.767	6898
780.873	7387
780.979	6119
781.085	6815
781.190	7047
781.296	6185
781.402	6165
781.507	6129
781.613	6330
781.719	5771
781.824	6230
781.930	5666
782.035	5661
782.141	5561
782.246	5539
782.352	5275
782.457	5132
782.563	5722
782.668	4775
782.773	5481
782.879	5157
782.984	5923
783.090	6315
783.195	5379
783.300	5957
783.405	4550
783.511	4829
783.616	5533
783.721	5383
783.826	4833
783.932	4854
784.037	4687
784.142	4752
784.247	4609
784.352	5089
784.457	4830
784.562	4992
784.667	4135
784.772	4364
784.877	4724
784.982	4399
785.087	4880
785.192	5228
785.297	4655
785.402	4517
785.507	4403
785.611	4309
785.716	3660
785.821	4387
785.926	4199
786.031	3708
786.135	3973
786.240	3856
786.345	4061
786.450	4512
786.554	4118
786.659	3747
786.763	3717
786.868	4586
786.973	4025
787.077	3999
787.182	4095
787.286	4083
787.391	3685
787.495	3869
787.600	4083
787.704	3380
787.809	4496
787.913	4131
788.017	3490
788.122	4493
788.226	3841
788.330	3349
788.435	3525
788.539	3666
788.643	3020
788.747	3498
788.852	3421
788.956	2551
789.060	3340
789.164	3553
789.268	3239
789.372	3413
789.476	4116
789.580	3781
789.684	3841
789.788	3567
789.892	3945
789.996	3660
790.100	3220
790.204	2967
790.308	3427
790.412	3832
790.516	3807
790.620	4186
790.724	4059
790.828	3306
790.931	3400
791.035	3198
791.139	3452
791.242	3426
791.346	3479
791.450	2947
791.554	3981
791.657	2772
791.761	3452
791.864	4081
791.968	4037
792.072	3810
792.175	3653
792.279	3236
792.382	3172
792.486	3807
792.589	3378
792.693	2513
792.796	2611
792.899	4146
793.003	3198
793.106	2824
793.209	3149
793.313	4086
793.416	2575
793.519	3647
793.623	3080
793.726	4608
793.829	4728
793.932	3256
794.035	2992
794.138	4015
794.242	3906
794.345	5569
794.448	8307
794.551	16030
794.654	46361
794.757	151609
794.860	111661
794.963	13892
795.066	5995
795.169	4731
795.272	4010
795.375	3320
795.477	3146
795.580	2937
795.683	2280
795.786	3391
795.889	2595
795.991	3474
796.094	3116
796.197	3415
796.300	2789
796.402	3052
796.505	2223
796.608	1766
796.710	2925
796.813	2347
796.915	2951
797.018	3191
797.120	2944
797.223	2246
797.326	2189
797.428	2643
797.530	2059
797.633	2844
797.735	2834
797.838	2646
797.940	3415
798.042	2126
798.145	2173
798.247	2007
798.349	2440
798.452	2821
798.554	1764
798.656	2659
798.758	2513
798.860	2484
798.962	1846
799.065	2935
799.167	2682
799.269	3111
799.371	2344
799.473	1940
799.575	2781
799.677	2500
799.779	3224
799.881	2488
799.983	2740
800.085	2768
800.187	2022
800.289	1831
800.390	1532
800.492	1721
800.594	2799
800.696	1929
800.798	2116
800.899	1372
801.001	2435
801.103	2581
801.205	1764
801.306	1723
801.408	1989
801.509	2152
801.611	2500
801.713	2133
801.814	2625
801.916	2061
802.017	2251
802.119	1826
802.220	2121
802.322	1247
802.423	2563
802.525	2532
802.626	1665
802.727	2302
802.829	2225
802.930	1312
803.031	2780
803.133	2328
803.234	1613
803.335	2056
803.436	2129
803.538	2239
803.639	1065
803.740	2327
803.841	1844
803.942	1963
804.043	1844
804.144	1794
804.245	2535
804.346	1870
804.447	2093
804.548	1635
804.649	3318
804.750	2546
804.851	2059
804.952	1762
805.053	2164
805.154	1410
805.255	2173
805.355	2420
805.456	1874
805.557	1997
805.658	1434
805.758	2047
805.859	1068
805.960	2153
806.061	1922
806.161	1849
806.262	2202
806.362	1253
806.463	2307
806.564	1463
806.664	2224
806.765	1697
806.865	1945
806.966	1620
807.066	2591
807.166	2111
807.267	1611
807.367	2076
807.468	1938
807.568	1253
807.668	1497
807.769	2175
807.869	1869
807.969	1982
808.069	1988
808.170	1642
808.270	962
808.370	1538
808.470	2070
808.570	1716
808.670	1783
808.770	2118
808.870	754
808.970	2035
809.070	431
809.170	2159
809.271	1489
809.370	1991
809.470	1682
809.570	1832
809.670	1678
809.770	1877
809.870	1804
809.970	1714
810.070	1969
810.169	1536
810.269	1120
810.369	1784
810.469	1441
810.568	1311
810.668	755
810.768	1173
810.867	1414
810.967	2081
811.066	1339
811.166	2047
811.265	1896
811.365	730
811.464	1463
811.564	1467
811.663	2094
811.763	1384
811.862	1850
811.962	1040
812.061	1469
812.160	1831
812.260	1827
812.359	1919
812.458	1953
812.557	3422
812.657	8070
812.756	7984
812.855	2370
812.954	2235
813.053	2088
813.153	1385
813.252	1057
813.351	1620
813.450	1488
813.549	1658
813.648	2011
813.747	1666
813.846	1505
813.945	2332
814.044	2016
814.143	1687
814.242	2290
814.341	1118
814.439	1940
814.538	2311
814.637	1327
814.736	1524
814.835	1706
814.933	1928
815.032	1825
815.131	1608
815.229	2091
815.328	2352
815.427	2227
815.525	2213
815.624	2376
815.722	2750
815.821	3102
815.919	2823
816.018	2172
816.116	2470
816.215	3455
816.313	2423
816.412	2331
816.510	2623
816.609	3162
816.707	2990
816.805	2358
816.904	4005
817.002	3052
817.100	4474
817.198	4488
817.296	4529
817.395	5456
817.493	7570
817.591	7162
817.689	9915
817.787	12241
817.885	17702
817.983	30106
818.081	53122
818.179	110907
818.277	249609
818.375	414977
818.473	251476
818.571	93560
818.669	47253
818.767	33278
818.865	29738
818.963	30448
819.061	37846
819.158	57645
819.256	98129
819.354	193004
819.452	395848
819.549	492135
819.647	287871
819.745	126494
819.842	65240
819.940	40340
820.038	28301
820.135	21274
820.233	16948
820.330	13504
820.428	11308
820.525	8766
820.623	8548
820.720	7016
820.818	7437
820.915	5491
821.012	5511
821.110	4952
821.207	4807
821.304	3862
821.402	3280
821.499	4451
821.596	3814
821.693	2755
821.791	2740
821.888	2451
821.985	3624
822.082	3548
822.179	3694
822.276	2307
822.373	2167
822.470	2486
822.567	3619
822.664	2209
822.761	1781
822.858	1249
822.955	1758
823.052	1416
823.149	2202
823.246	1686
823.343	2089
823.440	2254
823.536	1805
823.633	1135
823.730	1319
823.827	1694
823.923	1354
824.020	2242
824.117	1118
824.213	1645
824.310	2432
824.407	1512
824.503	2124
824.600	1529
824.696	803
824.793	1727
824.889	1196
824.986	1337
825.082	1236
825.179	1878
825.275	1032
825.371	1111
825.468	2004
825.564	197
825.660	794
825.757	1433
825.853	1608
825.949	1206
826.045	906
826.142	1402
826.238	1579
826.334	1940
826.430	287
826.526	867
826.622	978
826.718	388
826.814	860
826.910	684
827.006	1372
827.102	537
827.198	880
827.294	571
827.390	858
827.486	1170
827.582	693
827.678	366
827.774	1456
827.869	816
827.965	1804
828.061	211
828.157	794
828.252	1275
828.348	888
828.444	1555
828.539	1060
828.635	1161
828.731	647
828.826	542
828.922	448
829.017	663
829.113	457
829.208	1078
829.304	1077
829.399	1490
829.495	672
829.590	491
829.685	697
829.781	1185
829.876	737
829.971	626
830.066	529
830.162	186
830.257	333
830.352	586
830.447	1402
830.543	1144
830.638	198
830.733	742
830.828	733
830.923	1195
831.018	472
831.113	1115
831.208	324
831.303	901
831.398	467
831.493	828
831.588	449
831.683	479
831.778	552
831.873	416
831.967	501
832.062	20
832.157	297
832.252	1490
832.346	410
832.441	376
832.536	653
832.631	2446
832.725	2861
832.820	1035
832.914	1042
833.009	146
833.104	387
833.198	541
833.293	676
833.387	752
833.482	861
833.576	243
833.670	617
833.765	481
833.859	631
833.954	818
834.048	901
834.142	619
834.237	330
834.331	302
834.425	1093
834.519	650
834.613	1120
834.708	295
834.802	68
834.896	801
834.990	3
835.084	312
835.178	15
835.272	-172
835.366	1005
835.460	-42
835.554	315
835.648	794
835.742	376
835.836	431
835.930	-307
836.024	1062
836.117	817
836.211	725
836.305	807
836.399	1324
836.493	39
836.586	227
836.680	241
836.774	-13
836.867	823
836.961	118
837.055	1299
837.148	663
837.242	499
837.335	416
837.429	-40
837.522	240
837.616	-306
837.709	138
837.803	1467
837.896	1207
837.989	-64
838.083	787
838.176	773
838.269	741
838.363	1338
838.456	124
838.549	827
838.642	1267
838.735	2588
838.829	2245
838.922	43
839.015	396
839.108	1233
839.201	-159
839.294	554
839.387	724
839.480	346
839.573	800
839.666	319
839.759	951
839.852	432
839.945	-104
840.038	743
840.131	29
840.223	149
840.316	942
840.409	-398
840.502	-74
840.594	685
840.687	1040
840.780	327
840.873	-147
840.965	-23
841.058	595
841.150	237
841.243	-583
841.336	623
841.428	176
841.521	-100
841.613	-169
841.706	636
841.798	92
841.890	-13
841.983	-662
842.075	-193
842.167	42
842.260	1124
842.352	1058
842.444	528
842.537	484
842.629	2174
842.721	809
842.813	-186
842.905	-551
842.997	-56
843.090	-147
843.182	1031
843.274	181
843.366	2487
843.458	4030
843.550	4972
843.642	1677
843.734	317
843.826	95
843.918	833
844.009	437
844.101	-82
844.193	388
844.285	187
844.377	238
844.469	303
844.560	-151
844.652	251
844.744	538
844.835	209
844.927	-84
845.019	142
845.110	312
845.202	519
845.293	-504
845.385	421
845.476	770
845.568	1294
845.659	281
845.751	32
845.842	310
845.934	223
846.025	191
846.116	708
846.208	180
846.299	35
846.390	335
846.482	490
846.573	-271
846.664	614
846.755	572
846.846	1287
846.937	338
847.029	-165
847.120	362
847.211	-358
847.302	559
847.393	64
847.484	292
847.575	-273
847.666	-29
847.757	471
847.847	559
847.938	985
848.029	300
848.120	87
848.211	-116
848.302	-341
848.392	520
848.483	691
848.574	-205
848.664	178
848.755	315
848.846	209
848.936	93
849.027	194
849.118	230
849.208	705
849.299	107
849.389	837
849.480	779
849.570	689
849.661	272
849.751	996
849.841	317
849.932	19
850.022	904
850.112	77
850.203	176
850.293	482
850.383	-64
850.474	-424
850.564	125
850.654	-37
850.744	531
850.834	579
850.924	-20
851.014	26
851.104	190
851.194	-519
851.284	1066
851.374	1048
851.464	613
851.554	421
851.644	-260
851.734	1180
851.824	1117
851.914	2298
852.004	3975
852.094	7259
852.183	4492
852.273	1257
852.363	-288
852.452	-165
852.542	-48
852.632	-62
852.721	100
852.811	-117
852.901	-462
852.990	-386
853.080	32
853.169	84
853.259	497
853.348	137
853.438	-773
853.527	-176
853.617	-287
853.706	100
853.795	695
853.885	707
853.974	816
854.063	3135
854.152	5389
854.242	6533
854.331	1450
854.420	804
854.509	400
854.598	597
854.687	-394
854.777	266
854.866	-525
854.955	681
855.044	-434
855.133	485
855.222	146
855.311	-408
855.400	-658
855.488	194
855.577	75
855.666	-602
855.755	910
855.844	57
855.933	1173
856.021	1197
856.110	13
856.199	60
856.288	112
856.376	-354
856.465	-32
856.554	-252
856.642	169
856.731	-31
856.819	593
856.908	-554
856.996	-665
857.085	-517
857.173	-402
857.262	-1
857.350	714
857.438	-265
857.527	96
857.615	-351
857.703	-217
857.792	-645
857.880	4
857.968	-100
858.056	217
858.145	128
858.233	-240
858.321	-422
858.409	455
858.497	-707
858.585	-472
858.673	-218
858.761	-98
858.849	270
858.937	307
859.025	109
859.113	123
859.201	-337
859.289	934
859.377	452
859.465	564
859.552	-314
859.640	-787
859.728	274
859.816	-488
859.903	-192
859.991	-447
860.079	93
860.166	-775
860.254	122
860.342	160
860.429	250
860.517	-279
860.604	-256
860.692	-320
860.779	143
860.867	-94
860.954	-110
861.042	134
861.129	89
861.216	-92
861.304	10
861.391	546
861.478	-51
861.565	-328
861.653	283
861.740	-431
861.827	-730
861.914	48
862.001	380
862.089	910
862.176	-474
862.263	-352
862.350	308
862.437	-264
862.524	-23
862.611	-499
862.698	23
862.785	-423
862.871	-181
862.958	-694
863.045	-180
863.132	-615
863.219	-407
863.306	-578
863.392	710
863.479	-477
863.566	-248
863.652	703
863.739	-649
863.826	-308
863.912	318
863.999	-441
864.086	133
864.172	-905
864.259	-591
864.345	-279
864.432	-582
864.518	-840
864.604	356
864.691	-569
864.777	213
864.863	-324
864.950	244
865.036	-93
865.122	-378
865.209	351
865.295	-332
865.381	-229
865.467	7
865.553	6
865.639	-397
865.726	-255
865.812	244
865.898	889
865.984	1316
866.070	2440
866.156	4453
866.242	2171
866.328	260
866.414	-358
866.499	232
866.585	-882
866.671	-414
866.757	661
866.843	-298
866.928	-547
867.014	-669
867.100	-54
867.186	-102
867.271	328
867.357	-11
867.442	-331
867.528	369
867.614	-163
867.699	3
867.785	-381
867.870	-6
867.956	-853
868.041	-389
868.127	672
868.212	-23
868.297	158
868.383	224
868.468	-93
868.553	715
868.639	534
868.724	345
868.809	3482
868.894	1669
868.979	-221
869.065	554
869.150	-590
869.235	-288
869.320	52
869.405	-28
869.490	-571
869.575	-51
869.660	277
869.745	360
869.830	-179
869.915	-99
870.000	77
870.085	-393
870.169	-58
870.254	159
870.339	-321
870.424	-846
870.509	-147
870.593	-703
870.678	-190
870.763	-740
870.847	-43
870.932	-1041
871.016	-612
871.101	-476
871.186	-839
871.270	-53
871.355	-448
871.439	-552
871.523	-558
871.608	-92
871.692	-415
871.777	195
871.861	-314
871.945	-749
872.030	330
872.114	-133
872.198	-307
872.282	-505
872.367	25
872.451	-629
872.535	-413
872.619	-126
872.703	-859
872.787	-546
872.871	-67
872.955	-102
873.039	-1063
873.123	-900
873.207	-767
873.291	-186
873.375	-258
873.459	-575
873.543	-786
873.627	-534
873.711	-843
873.794	-305
873.878	-1206
873.962	-194
874.045	-819
874.129	-202
874.137	-234
874.213	-552
874.245	-586
874.296	-647
874.352	-603
874.380	-581
874.460	-1367
874.464	-1400
874.547	-436
874.568	-523
874.631	-777
874.676	-576
874.714	-402
874.784	-43
874.798	23
874.881	259
874.892	108
874.965	-958
874.999	-768
875.048	-485
875.107	-233
875.131	-130
875.215	17
875.215	17
875.298	-97
875.323	-263
875.381	-660
875.430	-581
875.465	-549
875.538	-807
875.548	-834
875.631	-470
875.646	-369
875.714	104
875.753	-392
875.798	-957
875.861	13
875.881	296
875.964	-723
875.968	-708
876.047	-382
876.076	-377
876.130	-300
876.183	-410
876.213	-553
876.291	-481
876.296	-461
876.379	-526
876.398	-476
876.462	-413
876.506	-349
876.545	-309
876.613	-169
876.628	-113
876.711	31
876.721	92
876.794	338
876.828	-24
876.877	-374
876.935	-500
876.960	-622
877.043	-69
877.043	-69
877.125	218
877.150	411
877.208	620
877.258	279
877.291	63
877.365	-261
877.374	-295
877.456	986
877.472	828
877.539	228
877.579	122
877.622	-43
877.687	125
877.704	191
877.787	9
877.794	-11
877.869	-315
877.901	-159
877.952	59
878.008	30
878.034	110
878.115	-195
878.117	-205
878.199	-146
878.222	-11
878.282	446
878.329	360
878.364	222
878.437	274
878.447	282
878.529	-622
878.544	-582
878.611	-183
878.651	-256
878.694	-442
878.758	-71
878.776	77
878.858	70
878.865	74
878.941	88
878.972	303
879.023	500
879.078	80
879.105	-97
879.185	-188
879.187	-183
879.269	-187
879.292	-213
879.351	-330
879.399	-155
879.433	-71
879.506	216
879.516	244
879.598	-201
879.613	-173
879.680	171
879.720	93
879.762	-93
879.827	-441
879.844	-482
879.926	453
879.933	472
880.007	457
880.040	349
880.089	175
880.147	13
880.171	6
880.253	73
880.254	74
880.335	293
880.360	240
880.417	415
880.467	695
880.499	991
880.574	2138
880.580	2182
880.662	1729
880.680	1370
880.744	624
880.787	828
880.825	531
880.893	39
880.907	44
880.989	-257
881.000	-229
881.070	-75
881.106	-105
881.152	-111
881.213	-287
881.233	-305
881.315	121
881.319	127
881.396	64
881.426	33
881.478	-61
881.532	10
881.559	48
881.639	-383
881.641	-374
881.722	643
881.745	688
881.803	296
881.852	247
881.885	267
881.958	377
881.966	359
882.047	268
882.064	130
882.129	-102
882.171	80
882.210	425
882.277	730
882.291	771
882.372	1230
882.383	1224
882.454	512
882.489	368
882.535	564
882.596	188
882.616	45
882.697	368
882.702	361
882.778	-54
882.808	-246
882.859	-92
882.914	111
882.940	80
883.020	259
883.021	263
883.102	417
883.127	298
883.183	183
883.233	153
883.264	131
883.339	254
883.345	258
883.426	238
883.445	207
883.507	169
883.551	147
883.587	364
883.657	880
883.668	871
883.749	558
883.763	525
883.830	605
883.869	575
883.910	503
883.975	624
883.991	585
884.072	2
884.081	-29
884.152	202
884.187	243
884.233	151
884.292	30
884.314	-16
884.394	-117
884.398	-142
884.475	262
884.504	636
884.555	791
884.610	717
884.636	648
884.716	145
884.716	149
884.797	707
884.821	703
884.877	423
884.927	180
884.958	2
885.033	-21
885.038	27
885.118	252
885.139	418
885.199	498
885.244	414
885.279	517
885.350	677
885.359	640
885.439	666
885.456	546
885.520	619
885.561	898
885.600	777
885.667	283
885.680	213
885.760	144
885.773	70
885.840	450
885.878	789
885.920	812
885.984	670
886.000	668
886.080	929
886.089	893
886.160	-19
886.195	-227
886.240	46
886.300	237
886.320	352
886.400	792
886.406	821
886.480	403
886.511	188
886.560	-23
886.616	-300
886.640	-225
886.720	251
886.722	254
886.800	44
886.827	34
886.879	491
886.932	867
886.959	814
887.038	769
887.039	774
887.119	681
887.143	702
887.198	869
887.248	956
887.278	742
887.354	222
887.358	248
887.437	600
887.459	778
887.517	840
887.564	665
887.596	833
887.669	1410
887.676	1354
887.755	487
887.774	271
887.835	864
887.880	1369
887.914	1099
887.985	348
887.994	356
888.073	552
888.090	571
888.153	854
888.195	1060
888.232	734
888.300	128
888.311	186
888.391	556
888.405	621
888.470	1067
888.510	1346
888.549	1013
888.615	478
888.628	448
888.708	167
888.720	127
888.787	823
888.825	1207
888.866	962
888.930	609
888.945	613
889.024	555
889.035	549
889.103	909
889.140	1091
889.182	820
889.245	406
889.261	472
889.340	766
889.349	801
889.419	561
889.454	423
889.498	973
889.559	1736
889.577	1591
889.656	941
889.664	875
889.735	684
889.768	593
889.814	569
889.873	535
889.978	999
890.083	853
890.187	293
890.292	51
890.397	659
890.501	1498
890.606	709
890.710	1216
890.815	539
890.919	615
891.024	1067
891.128	1156
891.233	915
891.337	829
891.442	261
891.546	469
891.650	-148
891.755	499
891.859	1412
891.963	611
892.068	1516
892.172	611
892.276	403
892.380	1109
892.484	535
892.589	1656
892.693	245
892.797	405
892.901	1011
893.005	515
893.109	758
893.213	610
893.317	834
893.421	1181
893.525	197
893.629	1160
893.733	938
893.837	378
893.941	1366
894.045	1068
894.148	1292
894.252	3969
894.356	3072
894.460	929
894.564	691
894.667	423
894.771	589
894.875	653
894.978	551
895.082	208
895.186	626
895.289	750
895.393	724
895.496	1315
895.600	208
895.703	749
895.807	532
895.910	284
896.014	400
896.117	485
896.221	1233
896.324	776
896.427	367
896.531	395
896.634	583
896.737	669
896.840	953
896.944	651
897.047	749
897.150	696
897.253	1043
897.356	1527
897.460	262
897.563	573
897.666	843
897.769	1179
897.872	997
897.975	511
898.078	1274
898.181	806
898.284	148
898.387	957
898.490	504
898.593	432
898.695	417
898.798	344
898.901	1562
899.004	650
899.107	1641
899.209	-128
899.312	817
899.415	729
899.518	13
899.620	780
899.723	305
899.826	816
899.928	1239
900.031	735
900.133	-165
900.236	676
900.338	-194
900.441	757
900.543	334
900.646	809
900.748	973
900.851	682
900.953	645
901.055	556
901.158	127
901.260	759
901.362	684
901.465	372
901.567	382
901.669	1080
901.771	788
901.873	187
901.976	703
902.078	687
902.180	420
902.282	-116
902.384	130
902.486	149
902.588	706
902.690	358
902.792	669
902.894	427
902.996	557
903.098	656
903.200	803
903.302	367
903.404	-274
903.505	908
903.607	485
903.709	847
903.811	896
903.913	606
904.014	443
904.116	461
904.218	-66
904.319	535
904.421	1054
904.523	269
904.624	746
904.726	613
904.827	963
904.929	436
905.030	157
905.132	1135
905.233	764
905.335	581
905.436	41
905.537	494
905.639	361
905.740	445
905.841	183
905.943	821
906.044	673
906.145	615
906.247	537
906.348	503
906.449	907
906.550	112
906.651	740
906.752	259
906.854	502
906.955	897
907.056	649
907.157	1334
907.258	67
907.359	208
907.460	193
907.561	590
907.662	415
907.762	168
907.863	663
907.964	762
908.065	-456
908.166	64
908.267	241
908.367	300
908.468	507
908.569	502
908.670	365
908.770	423
908.871	692
908.971	1026
909.072	899
909.173	707
909.273	785
909.374	554
909.474	-23
909.575	1097
909.675	1010
909.776	631
909.876	-10
909.977	277
910.077	1212
910.177	533
910.278	41
910.378	1061
910.478	868
910.579	456
910.679	202
910.779	219
910.879	636
910.980	592
911.080	815
911.180	257
911.280	587
911.380	861
911.480	622
911.580	1199
911.680	617
911.780	-114
911.880	403
911.980	908
912.080	662
912.180	455
912.280	702
912.380	927
912.480	453
912.580	-349
912.679	596
912.779	45
912.879	386
912.979	699
913.078	1065
913.178	276
913.278	377
913.377	955
913.477	384
913.577	254
913.676	440
913.776	172
913.875	423
913.975	1010
914.074	293
914.174	781
914.273	559
914.373	552
914.472	641
914.572	215
914.671	617
914.770	703
914.870	862
914.969	446
915.068	284
915.167	575
915.267	247
915.366	908
915.465	329
915.564	760
915.663	779
915.763	211
915.862	532
915.961	228
916.060	1102
916.159	170
916.258	-64
916.357	278
916.456	322
916.555	477
916.654	-355
916.752	106
916.851	418
916.950	1054
917.049	-28
917.148	725
917.247	590
917.345	-507
917.444	160
917.543	596
917.642	3
917.740	9
917.839	218
917.937	610
918.036	75
918.135	791
918.233	414
918.332	264
918.430	317
918.529	596
918.627	281
918.726	855
918.824	-190
918.923	-186
919.021	236
919.119	675
919.218	463
919.316	1037
919.414	-567
919.512	205
919.611	-38
919.709	-182
919.807	459
919.905	431
920.003	-335
920.102	-271
920.200	569
920.298	737
920.396	939
920.494	445
920.592	867
920.690	1076
920.788	788
920.886	474
920.984	147
921.082	327
921.180	1048
921.277	661
921.375	66
921.473	707
921.571	1153
921.669	802
921.766	238
921.864	629
921.962	323
922.060	241
922.157	100
922.255	284
922.352	1057
922.450	1442
922.548	1119
922.645	486
922.743	433
922.840	23
922.938	968
923.035	-233
923.133	638
923.230	233
923.327	611
923.425	414
923.522	918
923.619	459
923.717	669
923.814	868
923.911	932
924.008	1408
924.106	698
924.203	481
924.300	802
924.397	945
924.494	865
924.591	1388
924.688	970
924.786	261
924.883	1136
924.979	628
925.077	713
925.173	624
925.270	172
925.367	1251
925.464	95
925.561	-14
925.658	1306
925.755	-230
925.852	864
925.948	916
926.045	182
926.142	213
926.239	1155
926.335	-379
926.432	1235
926.529	451
926.625	495
926.722	318
926.818	548
926.915	-176
927.011	645
927.108	1118
927.204	171
927.301	400
927.397	727
927.494	548
927.590	742
927.687	916
927.783	496
927.879	807
927.976	-399
928.072	1146
928.168	781
928.264	631
928.361	378
928.457	105
928.553	273
928.649	454
928.745	1047
928.841	1133
928.937	754
929.033	433
929.129	1026
929.225	936
929.321	-58
929.417	459
929.513	-56
929.609	95
929.705	679
929.801	995
929.897	737
929.993	1347
930.089	984
930.184	510
930.280	1287
930.376	350
930.471	673
930.567	1296
930.663	253
930.758	1158
930.854	1067
930.950	314
931.045	513
931.141	866
931.236	198
931.332	970
931.427	988
931.523	337
931.618	833
931.714	-113
931.809	449
931.905	873
932.000	1201
932.095	228
932.191	242
932.286	541
932.381	377
932.476	458
932.572	1150
932.667	875
932.762	866
932.857	1267
932.952	586
933.047	419
933.142	594
933.237	-319
933.332	679
933.427	823
933.522	967
933.617	-577
933.712	598
933.807	669
933.902	1057
933.997	1286
934.092	269
934.187	1105
934.282	746
934.376	808
934.471	762
934.566	810
934.661	594
934.755	1114
934.850	1121
934.945	903
935.039	526
935.134	727
935.228	846
935.323	579
935.417	1051
935.512	873
935.606	687
935.701	674
935.795	624
935.890	126
935.984	739
936.079	344
936.173	231
936.267	776
936.362	243
936.456	567
936.550	748
936.644	916
936.738	1217
936.833	722
936.927	198
937.021	593
937.115	239
937.209	484
937.303	492
937.397	-367
937.491	747
937.585	1069
937.679	663
937.773	777
937.867	684
937.961	381
938.055	628
938.149	-158
938.243	1304
938.337	427
938.430	138
938.524	998
938.618	975
938.712	751
938.805	1045
938.899	776
938.993	1131
939.086	130
939.180	578
939.274	526
939.367	1220
939.461	564
939.554	1006
939.648	163
939.741	1005
939.835	722
939.928	468
940.022	634
940.115	774
940.208	906
940.302	638
940.395	1065
940.488	415
940.582	484
940.675	781
940.768	209
940.861	1344
940.954	183
941.048	439
941.141	267
941.234	-79
941.327	-19
941.420	755
941.513	1546
941.606	1137
941.699	669
941.792	-146
941.885	674
941.978	684
942.071	443
942.164	503
942.257	324
942.349	741
942.442	505
942.535	902
942.628	598
942.721	371
942.813	288
942.906	371
942.999	240
943.091	325
943.184	309
943.277	813
943.369	890
943.462	-131
943.554	969
943.647	9
943.739	1240
943.832	409
943.924	995
944.017	-150
944.109	931
944.201	824
944.294	230
944.386	685
944.478	328
944.571	239
944.663	-53
944.755	305
944.847	690
944.940	750
945.032	555
945.124	704
945.216	890
945.308	110
945.400	755
945.492	1111
945.584	704
945.676	360
945.768	747
945.860	829
945.952	548
946.044	415
946.136	796
946.228	1006
946.320	116
946.412	919
946.503	344
946.595	1470
946.687	386
946.779	486
946.870	871
946.962	650
947.054	836
947.145	473
947.237	490
947.329	112
947.420	915
947.512	438
947.603	-28
947.695	824
947.786	106
947.878	452
947.969	782
948.061	-201
948.152	847
948.243	-293
948.335	589
948.426	416
948.517	700
948.609	651
948.700	439
948.791	-123
948.882	615
948.973	207
949.065	612
949.156	919
949.247	274
949.338	219
949.429	674
949.520	-119
949.611	-8
949.702	-248
949.793	178
949.884	-505
949.975	666
950.066	310
950.157	-25
950.247	-34
950.338	1120
950.429	50
950.520	771
950.611	365
950.701	307
950.792	-18
950.883	304
950.973	443
951.064	365
951.155	661
951.245	-243
951.336	490
951.427	105
951.517	1022
951.608	775
951.698	-409
951.788	699
951.879	82
951.969	330
952.060	143
952.150	698
952.240	769
952.331	-446
952.421	490
952.511	227
952.602	752
952.692	825
952.782	402
952.872	853
952.962	351
953.052	351
953.143	580
953.233	360
953.323	162
953.413	878
953.503	112
953.593	-487
953.683	59
953.773	137
953.863	462
953.953	323
954.042	347
954.132	254
954.222	418
954.312	255
954.402	875
954.492	-214
954.581	921
954.671	591
954.761	476
954.850	513
954.940	319
955.030	1029
955.119	32
955.209	805
955.298	-638
955.388	744
955.477	743
955.567	619
955.656	524
955.746	799
955.835	-56
955.925	426
956.014	743
956.103	-34
956.193	656
956.282	944
956.371	640
956.461	458
956.550	123
956.639	634
956.728	141
956.817	84
956.906	1165
956.995	443
957.085	612
957.174	626
957.263	342
957.352	334
957.441	487
957.530	869
957.619	215
957.708	640
957.796	798
957.885	760
957.974	-109
958.063	-208
958.152	-819
958.241	41
958.329	-167
958.418	306
958.507	390
958.596	-348
958.684	-408
958.773	463
958.861	544
958.950	640
959.039	1513
959.127	501
959.216	740
959.304	1004
959.393	802
959.481	307
959.570	544
959.658	-199
959.746	774
959.835	349
959.923	856
960.011	728
960.100	436
960.188	790
960.276	-142
960.365	1111
960.453	-544
960.541	561
960.629	637
960.717	547
960.805	-103
960.893	-188
960.981	-267
961.069	385
961.158	349
961.245	623
961.333	200
961.421	-39
961.509	453
961.597	-21
961.685	-268
961.773	-823
961.861	-72
961.949	530
962.036	-118
962.124	902
962.212	-107
962.299	-141
962.387	273
962.475	761
962.562	-41
962.650	-35
962.738	-157
962.825	-179
962.913	573
963.000	-202
963.088	10
963.175	-636
963.263	-372
963.350	-658
963.438	-417
963.525	-133
963.612	776
963.700	944
963.787	2234
963.874	1928
963.962	190
964.049	94
964.136	-32
964.223	223
964.310	146
964.398	-66
964.485	-253
964.572	-1012
964.659	219
964.746	268
964.833	-449
964.920	-301
965.007	500
965.094	-511
965.181	157
965.268	110
965.355	-258
965.441	-3
965.528	-347
965.615	-149
965.702	-252
965.789	702
965.875	-3
965.962	-390
966.049	-93
966.136	165
966.222	-749
966.309	382
966.395	-563
966.482	202
966.569	-416
966.655	-337
966.742	-478
966.828	-384
966.915	493
967.001	386
967.087	-297
967.174	-412
967.260	-40
967.347	424
967.433	478
967.519	1943
967.605	1032
967.692	393
967.778	-421
967.864	322
967.950	-742
968.036	-176
968.123	382
968.209	-765
968.295	49
968.381	117
968.467	141
968.553	-18
968.639	423
968.725	-404
968.811	-45
968.897	-304
968.983	-336
969.069	-89
969.154	421
969.240	267
969.326	-97
969.412	-683
969.497	-137
969.583	441
969.669	643
969.755	54
969.840	-400
969.926	479
970.012	-19
970.097	-121
970.183	358
970.268	-689
970.354	279
970.439	-721
970.525	793
970.610	705
970.696	146
970.781	575
970.866	-1157
970.952	-500
971.037	-186
971.122	-107
971.208	31
971.293	-48
971.378	111
971.463	-896
971.549	-293
971.634	-93
971.719	-444
971.804	-414
971.889	-338
971.974	-117
972.059	-14
972.144	-194
972.229	-339
972.314	-157
972.399	-301
972.484	472
972.569	270
972.654	-36
972.739	531
972.824	668
972.908	462
972.993	-740
973.078	116
973.163	-840
973.247	-561
973.332	-553
973.417	200
973.501	-368
973.586	389
973.671	-609
973.755	364
973.840	-397
973.924	-293
974.009	-216
974.093	-359
974.178	-3
974.262	-276
974.346	213
974.431	-248
974.515	15
974.600	-274
974.684	990
974.768	-539
974.852	405
974.937	-911
975.021	664
975.105	-438
975.189	-3
975.273	-435
975.358	-195
975.442	-1041
975.526	-557
975.610	-447
975.694	-720
975.778	-163
975.862	-360
975.946	-1053
976.030	898
976.114	-517
976.198	124
976.281	-272
976.365	-71
976.449	-300
976.533	-654
976.617	-531
976.700	-233
976.784	534
976.868	207
976.951	-152
977.035	-436
977.119	-182
977.202	-49
977.286	171
977.369	86
977.453	-635
977.536	-651
977.620	-201
977.703	237
977.787	-552
977.870	213
977.953	-588
978.037	285
978.120	145
978.203	-332
978.287	463
978.370	652
978.453	-317
978.536	-199
978.620	215
978.703	-80
978.786	-334
978.869	-354
978.952	-868
979.035	693
979.118	-34
979.201	-58
979.284	-701
979.367	-612
979.450	162
979.533	-40
979.616	-234
979.699	-286
979.782	-310
979.865	-351
979.948	-337
980.030	-120
980.113	567
980.196	-355
980.279	-370
980.361	114
980.444	306
980.526	321
980.609	-896
980.692	399
980.774	-209
980.857	-547
980.939	-161
981.022	-1038
981.104	-407
981.187	10
981.269	75
981.352	451
981.434	-545
981.516	2
981.599	-737
981.681	-151
981.763	348
981.846	-208
981.928	101
982.010	-660
982.092	-1069
982.174	-217
982.256	-304
982.339	111
982.421	-375
982.503	-373
982.585	-7
982.667	-229
982.749	115
982.831	155
982.913	-903
982.995	-201
983.077	-186
983.158	-236
983.240	-246
983.322	321
983.404	-265
983.486	-340
983.568	285
983.649	-177
983.731	-409
983.813	-212
983.894	-170
983.976	18
984.058	-573
984.139	-530
984.221	621
984.302	-69
984.384	-185
984.465	-472
984.547	173
984.628	-78
984.710	447
984.791	264
984.872	-394
984.954	-35
985.035	-588
985.116	-1363
985.198	-256
985.279	-504
985.360	-215
985.441	-756
985.522	-204
985.604	-141
985.685	-706
985.766	563
985.847	676
985.928	-912
986.009	646
986.090	-1074
986.171	240
986.252	-289
986.333	-529
986.414	-337
986.495	60
986.576	-37
986.656	327
986.737	98
986.818	-257
986.899	-583
986.980	-844
987.060	-212
987.141	-509
987.222	72
987.302	-495
987.383	-202
987.464	-171
987.544	-267
987.625	-352
987.705	208
987.786	-562
987.866	118
987.947	-11
988.027	103
988.108	-248
988.188	-117
988.268	-444
988.349	-222
988.429	-177
988.509	-230
988.589	-1157
988.670	-916
988.750	-243
988.830	-685
988.910	-559
988.990	-592
989.070	-476
989.151	-71
989.231	-530
989.311	-1042
989.391	449
989.471	167
989.551	-436
989.631	242
989.711	-582
989.791	-801
989.870	-257
989.950	162
990.030	-694
990.110	-104
990.190	-493
990.269	-524
990.349	-318
990.429	-347
990.509	-108
990.588	-840
990.668	-238
990.747	-505
990.827	-204
990.907	470
990.986	-475
991.066	-288
991.145	-291
991.225	81
991.304	-243
991.383	-243
991.463	-984
991.542	319
991.622	-1346
991.701	-582
991.780	138
991.859	-753
991.939	-908
992.018	-894
992.097	-141
992.176	152
992.256	-775
992.335	-1070
992.414	-836
992.493	-743
992.572	-625
992.651	246
992.730	-219
992.809	-420
992.888	-304
992.967	-346
993.046	-786
993.125	-648
993.203	-264
993.282	-480
993.361	-704
993.440	-522
993.519	-436
993.597	-451
993.676	177
993.755	424
993.834	-233
993.912	-450
993.991	-438
994.069	-303
994.148	-579
994.226	-1156
994.305	300
994.384	-1454
994.462	-357
994.540	-335
994.619	-149
994.697	-577
994.776	-841
994.854	-400
994.932	-361
995.011	22
995.089	-495
995.167	22
995.245	153
995.324	-1117
995.402	244
995.480	-734
995.558	-217
995.636	-167
995.714	-367
995.792	-332
995.870	-1052
995.948	-746
996.026	-1144
996.104	-1205
996.182	-600
996.260	-565
996.338	-716
996.416	-348
996.494	-789
996.572	-435
996.649	-917
996.727	-1021
996.805	-484
996.883	-645
996.960	-1156
997.038	-414
997.116	-217
997.193	-2071
997.271	-275
997.348	-877
997.426	-1140
997.504	-943
997.581	-702
997.658	-165
997.736	-1177
997.813	-327
997.891	263
997.968	-689
998.046	-198
998.123	-94
998.200	-719
998.277	-1789
998.355	-246
998.432	-1094
998.509	-526
998.586	-376
998.663	-600
998.741	-708
998.818	-411
998.895	-543
998.972	-628
999.049	-854
999.126	-848
999.203	-322
999.280	-734
999.357	-755
999.434	-411
999.511	-839
999.587	11
999.664	-1076
999.741	-358
999.818	-667
999.895	-965
999.971	-319
1000.048	-763
1000.125	-117
1000.202	-1368
1000.278	-488
1000.355	-813
1000.431	-932
1000.508	-1314
1000.584	-1145
1000.661	-133
1000.738	-961
1000.814	-1640
1000.890	-488
1000.967	-355
1001.043	-997
1001.120	-1030
1001.196	-509
1001.272	-991
1001.349	-505
1001.425	-160
1001.501	-794
1001.577	-1010
1001.654	-573
1001.730	-1269
1001.806	-1218
1001.882	-378
1001.958	-769
1002.034	-617
1002.110	-1140
1002.186	-1195
1002.262	-916
1002.338	-1912
1002.414	-565
1002.490	132
1002.566	-681
1002.642	-451
1002.718	-529
1002.794	-397
1002.870	-208
1002.945	-475
1003.021	-839
1003.097	-1292
1003.173	-1185
1003.248	-518
1003.324	-1207
1003.400	-16
1003.475	-782
1003.551	-910
1003.626	-906
1003.702	-1548
1003.777	-658
1003.853	-1603
1003.928	-1045
1004.004	-285
1004.079	-778
1004.155	-1167
1004.230	-2083
1004.305	-241
1004.381	-563
1004.456	-439
1004.531	-737
1004.607	-845
1004.682	-796
1004.757	-1615
1004.832	-1322
1004.907	-1230
1004.982	-547
1005.057	-1076
1005.133	-840
1005.208	-868
1005.283	-894
1005.358	-833
1005.433	-1336
1005.508	-1142
1005.583	-1033
1005.657	-1628
1005.732	-1353
1005.807	-409
1005.882	-1540
1005.957	-1114
1006.032	-530
1006.106	-1363
1006.181	-1404
1006.256	3
1006.331	-1187
1006.405	-733
1006.480	-975
1006.554	-1173
1006.629	56
1006.704	-921
1006.778	-518
1006.853	-380
1006.927	-1486
1007.002	-1112
1007.076	-482
1007.150	-1213
1007.225	-1404
1007.299	-215
1007.373	-1825
1007.448	-607
1007.522	-1102
1007.596	-546
1007.671	-1125
1007.745	-228
1007.819	-1624
1007.893	-1158
1007.967	-710
1008.041	-1244
1008.115	-478
1008.190	-847
1008.264	-1019
1008.338	-1997
1008.412	-541
1008.486	-977
1008.560	-911
1008.633	-1495
1008.707	-1360
1008.781	-958
1008.855	-1296
1008.929	-838
1009.003	-970
1009.076	-1214
1009.150	-1383
1009.224	-1318
1009.298	-664
1009.371	-1217
1009.445	-316
1009.519	-1312
1009.592	-1354
1009.666	-1159
1009.739	-630
1009.813	-1540
1009.886	-673
1009.960	-980
1010.033	-786
1010.107	-1005
1010.180	-974
1010.253	-569
1010.327	-1551
1010.400	-498
1010.473	-1135
1010.547	-163
1010.620	-1628
1010.693	-1271
1010.766	-1297
1010.840	-815
1010.913	-1946
1010.986	-1271
1011.059	-1022
1011.132	-1791
1011.205	-935
1011.278	-808
1011.351	-1316
1011.424	-1699
1011.497	-1544
1011.570	-625
1011.643	-986
1011.716	-1163
1011.789	-1108
1011.862	-568
1011.934	-1058
1012.007	-1407
1012.080	-1084
1012.153	-1227
1012.225	-986
1012.298	-1095
1012.371	-1036
1012.443	-1352
1012.516	-1343
1012.588	-461
1012.661	-883
1012.733	-900
1012.806	36
1012.879	-1569
1012.951	-511
1013.023	-1131
1013.096	-764
1013.168	-1264
1013.241	-1127
1013.313	-1454
1013.385	-701
1013.458	-1199
1013.530	-657
1013.602	-1810
1013.674	-1694
1013.746	-1176
1013.819	-1905
1013.891	200
1013.963	-1471
1014.035	-849
1014.107	-868
1014.179	-760
1014.251	-751
1014.323	-532
1014.395	-1295
1014.467	-1305
1014.539	-1091
1014.611	-1306
1014.683	-875
1014.754	-994
1014.826	-1852
1014.898	-903
1014.970	-1031
1015.042	-505
1015.113	-527
1015.185	-796
1015.257	-1427
1015.328	-1000
1015.400	-1349
1015.471	-1091
1015.543	-957
1015.615	-825
1015.686	-1504
1015.757	-1118
1015.829	-1278
1015.901	-1525
1015.972	-671
1016.043	-1975
1016.115	-919
1016.186	-776
1016.257	-1854
1016.328	-578
1016.400	-352
1016.471	-1435
1016.542	-1671
1016.613	-1650
1016.685	-1114
1016.756	-1046
1016.827	-1080
1016.898	-986
1016.969	-861
1017.040	-921
1017.111	-1305
1017.182	-1395
1017.253	-1473
1017.324	-1648
1017.395	-1963
1017.466	-1968
1017.537	-1375
1017.608	-1558
1017.678	-1128
1017.749	-578
1017.820	-995
1017.891	-1994
1017.961	-1418
1018.032	-580
1018.103	-455
1018.173	-1415
1018.244	-1391
1018.315	-1116
1018.385	-878
1018.456	-1415
1018.526	-1755
1018.597	-1456
1018.667	-1849
1018.738	-1497
1018.808	-1618
1018.878	-1294
1018.949	-1426
1019.019	-1106
1019.089	-811
1019.160	-1460
1019.230	-1156
1019.300	-1064
1019.371	-2019
1019.441	-887
1019.511	-1478
1019.581	-1628
1019.651	-1287
1019.721	-1608
1019.791	-1449
1019.861	-1456
1019.931	-1099
1020.001	-2619
1020.071	-1863
1020.141	-637
1020.211	-1058
1020.281	-2209
1020.351	-1320
1020.421	-1322
1020.491	-1581
1020.560	-1449
1020.630	-585
1020.700	-1947
1020.770	-2260
1020.839	-1458
1020.909	-837
1020.979	-1056
1021.048	-924
1021.118	-2442
1021.187	-1500
1021.257	-1847
1021.326	-1153
1021.396	-1578
1021.465	-1217
1021.535	-1781
1021.604	-1613
1021.674	-1283
1021.743	-1111
1021.812	-1047
1021.882	-1019
1021.951	-1489
1022.020	-1798
1022.089	-972
1022.159	-1697
1022.228	-823
1022.297	-1861
1022.366	-1586
1022.435	-782
1022.504	-1329
1022.573	-1866
1022.642	-1358
1022.711	-1816
1022.781	-1850
1022.849	-1119
1022.918	-2299
1022.987	-1806
1023.056	-1587
1023.125	-1589
1023.194	-1421
1023.263	-956
1023.331	-1343
1023.400	-1026
1023.469	-1971
1023.538	-1913
1023.606	-2108
1023.675	-1418
1023.744	-2218
1023.812	-2287
1023.881	-1486
1023.949	-1783
1024.018	-2539
1024.086	-1380
1024.155	-1079
1024.223	-1947
1024.292	-1203
1024.360	-867
1024.429	-2020
1024.497	-1810
1024.565	-1231
1024.634	-1994
1024.702	-1616
1024.770	-645
1024.838	-1727
1024.907	-1229
1024.975	-2188
1025.043	-1256
1025.111	-1673
1025.179	-1431
1025.247	-2276
1025.315	-1587
1025.383	-1747
1025.451	-1337
1025.519	-2073
1025.587	-1848
1025.655	-1163
1025.723	-1724
1025.791	-1514
1025.859	-2382
1025.927	-1324
1025.995	-1951
1026.062	-1067
1026.130	-1718
1026.198	-1715
1026.266	-1214
1026.333	-2070
1026.401	-2193
1026.469	-1600
1026.536	-1489
1026.604	-1507
1026.671	-1811
1026.739	-1397
1026.806	-1506
1026.874	-1125
1026.941	-747
1027.009	-1353
1027.076	-1511
1027.144	-1461
1027.211	-1949
1027.278	-1437
1027.345	-1527
1027.413	-1303
1027.480	-1991
1027.547	-1388
1027.614	-1854
1027.682	-1925
1027.749	-1709
1027.816	-1755
1027.883	-2038
1027.950	-1173
1028.017	-2231
1028.084	-1367
1028.151	-1917
1028.218	-1537
1028.285	-1581
1028.352	-1499
1028.419	-2144
1028.486	-2486
1028.553	-1428
1028.619	-1745
1028.686	-1346
1028.753	-2405
1028.820	-2564
1028.886	-1377
1028.953	-1734
1029.020	-1622
1029.086	-1909
1029.153	-2073
1029.220	-1167
1029.286	-1592
1029.353	-1429
1029.419	-2105
1029.486	-2118
1029.552	-1538
1029.619	-2004
1029.685	-1769
1029.751	-1812
1029.818	-1821
1029.884	-1161
1029.951	-1048
1030.017	-1297
1030.083	-1760
1030.149	-1914
1030.216	-1934
1030.282	-1223
1030.348	-2136
1030.414	-2247
1030.480	-2547
1030.546	-1924
1030.612	-2292
1030.678	-1455
1030.744	-1484
1030.810	-916
1030.876	-825
1030.942	-1660
1031.008	-3016
1031.074	-2405
1031.140	-2558
1031.206	-1100
1031.272	-2190
1031.337	-1804
1031.403	-1405
1031.469	-2370
1031.534	-2130
1031.600	-864
1031.666	-1526
1031.731	-1339
1031.797	-1849
1031.863	-2409
1031.928	-3123
1031.994	-1920
1032.059	-1930
1032.125	-2332
1032.190	-1581
1032.256	-2546
1032.321	-2341
1032.386	-1848
1032.452	-1843
1032.517	-1746
1032.582	-841
1032.647	-2072
1032.713	-1126
1032.778	-1678
1032.843	-1720
1032.908	-2072
1032.974	-1589
1033.039	-2279
1033.104	-2117
1033.169	-1779
1033.234	-1648
1033.299	-1277
1033.364	-2119
1033.429	-1443
1033.494	-2112
1033.559	-2121
1033.624	-1736
1033.688	-1610
1033.753	-2624
1033.818	-1517
1033.883	-2478
1033.948	-1707
1034.013	-1646
1034.077	-2067
1034.142	-1359
1034.207	-1989
1034.271	-2611
1034.336	-1706
1034.400	-2184
1034.465	-1835
1034.530	-1492
1034.594	-2554
1034.658	-1832
1034.723	-1388
1034.787	-1109
1034.852	-1537
1034.916	-1252
1034.981	-1404
1035.045	-1522
1035.109	-2022
1035.173	-2062
1035.238	-1987
1035.302	-1839
1035.366	-2375
1035.430	-1930
1035.495	-2457
1035.559	-1737
1035.623	-1987
1035.687	-1371
1035.751	-1863
1035.815	-1538
1035.879	-1958
1035.943	-1959
1036.007	-1844
1036.071	-1574
1036.135	-1690
1036.198	-1848
1036.262	-2973
1036.326	-1751
1036.390	-1789
1036.454	-1700
1036.517	-1236
1036.581	-2137
1036.645	-1607
1036.709	-1214
1036.772	-1679
1036.836	-1616
1036.900	-2336
1036.963	-2167
1037.026	-1135
1037.090	-2053
1037.154	-2052
1037.217	-1788
1037.280	-1265
1037.344	-1987
1037.407	-1708
1037.471	-1359
1037.534	-1699
1037.597	-1673
1037.661	-1485
1037.724	-1558
1037.787	-1903
1037.850	-1590
1037.913	-1801
1037.977	-1613
1038.040	-2287
1038.103	-1381
1038.166	-1736
1038.229	-2060
1038.292	-1320
1038.355	-2079
1038.418	-2089
1038.481	-1132
1038.544	-1869
1038.607	-2168
1038.670	-2512
1038.732	-2016
1038.795	-2236
1038.858	-1953
1038.921	-1870
1038.984	-1756
1039.046	-2086
1039.109	-1336
1039.172	-2318
1039.234	-2544
1039.297	-1989
1039.360	-2009
1039.422	-2833
1039.485	-2089
1039.547	-1755
1039.610	-1550
1039.672	-1837
1039.734	-908
1039.797	-1751
1039.859	-2353
1039.922	-1974
1039.984	-2624
1040.046	-1416
1040.109	-2162
1040.171	-2340
1040.233	-2470
1040.295	-1788
1040.358	-2591
1040.420	-2447
1040.482	-2037
1040.544	-1824
1040.606	-1535
1040.668	-1311
1040.730	-1704
1040.792	-2299
1040.854	-1693
1040.916	-1920
1040.978	-1890
1041.040	-1392
1041.102	-1642
1041.164	-1875
1041.225	-2003
1041.287	-2190
1041.349	-1634
1041.411	-2291
1041.472	-1847
1041.534	-1264
1041.596	-2221
1041.657	-1158
1041.719	-1224
1041.781	-2081
1041.842	-1946
1041.904	-1407
1041.965	-1859
1042.027	-2280
1042.088	-2019
1042.150	-930
1042.211	-2119
1042.272	-1672
1042.334	-1454
1042.395	-2065
1042.456	-2703
1042.518	-2125
1042.579	-1746
1042.640	-1546
1042.701	-1230
1042.763	-1626
1042.824	-1624
1042.885	-1456
1042.946	-1269
1043.007	-2121
1043.068	-2063
1043.129	-2390
1043.190	-1659
1043.251	-1515
1043.312	-1845
1043.373	-1134
1043.434	-1463
1043.495	-1253
1043.556	-1726
1043.616	-1325
1043.677	-2197
1043.738	-1246
1043.799	-1714
1043.859	-931
1043.920	-1998
1043.981	-1315
1044.041	-2114
1044.102	-1922
1044.162	-2233
1044.223	-1836
1044.284	-2150
1044.344	-2387
1044.405	-1434
1044.465	-1513
1044.525	-1907
1044.586	-1718
1044.646	-1882
1044.707	-1367
1044.767	-1633
1044.827	-2130
1044.887	-1567
1044.948	-1836
1045.008	-1283
1045.068	-1456
1045.128	-1810
1045.188	-918
1045.249	-1569
1045.309	-1801
1045.369	-808
1045.429	-1394
1045.489	-1991
1045.549	-1644
1045.609	-2209
1045.669	-2004
1045.729	-1071
1045.789	-1443
1045.848	-2029
1045.908	-1210
1045.968	-668
1046.028	-1422
1046.088	-1710
1046.147	-1238
1046.207	-1021
1046.267	-1493
1046.326	-1078
1046.386	-697
1046.446	-939
1046.505	-1333
1046.565	-668
1046.624	-1237
1046.684	-699
1046.743	-995
1046.803	-365
1046.862	-690
1046.922	0
