'Start Wavelength	183.907
'End Wavelength	1046.922
'Gate Delay	5.000
'Gate Width (ms)	1.050
'Laser Output Level	0.000
'X Position	0.000
'Y Position	0.000
'Z Position	0.000
'Grid Point Number	1.000
'Shot Number	100.000
183.907	-814.000
183.977	-159.000
184.047	-247
184.116	575
184.186	-43
184.256	561
184.325	-1020
184.395	-678
184.465	-767
184.534	-558
184.604	-645
184.674	550
184.743	-435
184.813	246
184.883	-962
184.952	-66
185.022	-191
185.092	-196
185.161	-233
185.231	208
185.301	105
185.370	730
185.440	-829
185.509	-481
185.579	66
185.649	-8
185.718	353
185.788	851
185.857	-520
185.927	80
185.996	-839
186.066	-61
186.136	20
186.205	410
186.275	-192
186.344	68
186.414	127
186.483	-624
186.553	252
186.622	715
186.692	-790
186.761	160
186.831	-202
186.900	280
186.970	114
187.039	811
187.109	519
187.178	-244
187.248	85
187.317	504
187.387	-1533
187.456	458
187.526	355
187.595	802
187.664	-625
187.734	-240
187.803	-68
187.873	297
187.942	64
188.012	259
188.081	-955
188.150	-683
188.220	-293
188.289	735
188.358	412
188.428	717
188.497	-409
188.567	638
188.636	-704
188.705	-177
188.775	401
188.844	82
188.913	766
188.983	2
189.052	-284
189.121	-774
189.191	118
189.260	974
189.329	517
189.399	371
189.468	-139
189.537	552
189.606	-453
189.676	20
189.745	231
189.814	523
189.883	-540
189.953	595
190.022	257
190.091	1043
190.161	1128
190.230	333
190.299	-442
190.368	151
190.437	-674
190.507	666
190.576	-1031
190.645	455
190.714	269
190.783	15
190.853	478
190.922	344
190.991	-558
191.060	-222
191.129	-587
191.198	1264
191.268	-514
191.337	47
191.406	647
191.475	23
191.544	-347
191.613	-134
191.682	-364
191.752	-103
191.821	-146
191.890	-26
191.959	454
192.028	-23
192.097	391
192.166	496
192.235	170
192.304	309
192.373	-318
192.442	140
192.511	358
192.580	-531
192.650	-64
192.719	411
192.788	333
192.857	233
192.926	-842
192.995	414
193.064	-483
193.133	264
193.202	986
193.271	1575
193.340	321
193.409	865
193.478	996
193.547	1296
193.615	498
193.684	781
193.753	1684
193.822	817
193.891	-719
193.960	539
194.029	50
194.098	-106
194.167	-215
194.236	1320
194.305	-147
194.374	772
194.443	298
194.512	716
194.580	659
194.649	271
194.718	-171
194.787	-199
194.856	226
194.925	834
194.994	790
195.062	712
195.131	534
195.200	582
195.269	691
195.338	1212
195.407	147
195.475	728
195.544	306
195.613	824
195.682	701
195.751	599
195.819	104
195.888	390
195.957	1437
196.026	902
196.094	270
196.163	426
196.232	146
196.301	129
196.369	-62
196.438	204
196.507	-82
196.576	119
196.644	47
196.713	209
196.782	-276
196.850	665
196.919	404
196.988	472
197.056	361
197.125	674
197.194	-124
197.262	-18
197.331	395
197.400	-166
197.468	-9
197.537	885
197.606	651
197.674	1374
197.743	847
197.812	638
197.880	719
197.949	375
198.017	1716
198.086	314
198.155	522
198.223	1150
198.292	800
198.360	1063
198.429	-64
198.497	375
198.566	583
198.635	1529
198.703	377
198.772	398
198.840	1196
198.909	1171
198.977	-932
199.046	673
199.114	512
199.183	1326
199.251	139
199.320	682
199.388	290
199.457	959
199.525	295
199.594	1510
199.662	208
199.731	53
199.799	245
199.867	900
199.936	-199
200.004	676
200.073	379
200.141	212
200.210	-1047
200.278	478
200.346	460
200.415	1097
200.483	1179
200.552	752
200.620	-60
200.688	-249
200.757	-107
200.825	73
200.893	419
200.962	391
201.030	-776
201.098	113
201.167	-32
201.235	907
201.303	216
201.372	1041
201.440	-153
201.508	562
201.577	196
201.645	802
201.713	750
201.781	578
201.850	479
201.918	221
201.986	200
202.055	1047
202.123	-132
202.191	407
202.259	-242
202.327	876
202.396	365
202.464	345
202.532	2
202.600	2727
202.669	1314
202.737	-72
202.805	-208
202.873	454
202.941	-125
203.009	183
203.078	682
203.146	616
203.214	183
203.282	63
203.350	124
203.418	28
203.487	-9
203.555	-7
203.623	922
203.691	994
203.759	-38
203.827	1053
203.895	909
203.963	12
204.031	-13
204.099	945
204.168	-644
204.236	399
204.304	986
204.372	1153
204.440	38
204.508	-120
204.576	-179
204.644	882
204.712	-127
204.780	432
204.848	-83
204.916	666
204.984	-155
205.052	1204
205.120	-283
205.188	1652
205.256	-164
205.324	1220
205.392	740
205.460	1589
205.528	773
205.596	1319
205.664	359
205.732	639
205.799	1302
205.867	4226
205.935	982
206.003	1735
206.071	-19
206.139	505
206.207	746
206.275	608
206.343	-74
206.411	1060
206.478	336
206.546	1402
206.614	708
206.682	638
206.750	45
206.818	946
206.885	849
206.953	-516
207.021	878
207.089	1070
207.157	183
207.225	761
207.292	1096
207.360	494
207.428	618
207.496	446
207.563	610
207.631	774
207.699	166
207.767	968
207.834	730
207.902	955
207.970	789
208.038	677
208.105	973
208.173	1223
208.241	1188
208.309	1937
208.376	806
208.444	2280
208.512	925
208.579	454
208.647	1074
208.715	1106
208.782	-45
208.850	858
208.918	406
208.985	1051
209.053	815
209.120	1813
209.188	243
209.256	1879
209.323	855
209.391	1180
209.459	1644
209.526	894
209.594	121
209.661	767
209.729	1360
209.796	1193
209.864	1214
209.932	-469
209.999	1695
210.067	1561
210.134	639
210.202	1270
210.269	1418
210.337	1777
210.404	879
210.472	1657
210.539	1536
210.607	1828
210.674	1127
210.742	1351
210.809	713
210.877	2094
210.944	2090
211.012	844
211.079	2276
211.146	750
211.214	1241
211.281	1833
211.349	1124
211.416	1224
211.484	899
211.551	1144
211.618	391
211.686	2014
211.753	648
211.821	1775
211.888	814
211.955	1986
212.023	784
212.090	1278
212.157	1227
212.225	1384
212.292	2976
212.359	5808
212.427	9970
212.494	5438
212.561	2163
212.629	1959
212.696	1696
212.763	1606
212.831	611
212.898	1548
212.965	913
213.032	1193
213.100	1938
213.167	1744
213.234	1525
213.301	1179
213.369	1789
213.436	1747
213.503	832
213.570	1685
213.638	702
213.705	1309
213.772	411
213.839	1988
213.906	2193
213.973	1617
214.041	560
214.108	1832
214.175	1035
214.242	2088
214.309	779
214.376	1723
214.444	492
214.511	1461
214.578	1849
214.645	2706
214.712	1601
214.779	1038
214.846	848
214.913	1943
214.980	2040
215.048	3197
215.115	1866
215.182	2262
215.249	1853
215.316	1281
215.383	1505
215.450	1835
215.517	923
215.584	1374
215.651	1327
215.718	1179
215.785	1650
215.852	1421
215.919	2173
215.986	1219
216.053	829
216.120	1787
216.187	1773
216.254	2446
216.321	1401
216.388	1883
216.455	2219
216.522	2252
216.589	1602
216.656	3171
216.722	3205
216.789	3314
216.856	3038
216.923	2691
216.990	2029
217.057	2760
217.124	2229
217.191	2437
217.258	2861
217.324	4805
217.391	3851
217.458	3386
217.525	2449
217.592	2347
217.659	287
217.725	3132
217.792	3157
217.859	3189
217.926	1328
217.993	1298
218.059	1106
218.126	1815
218.193	826
218.260	1379
218.327	1372
218.393	1349
218.460	1104
218.527	1845
218.594	1003
218.660	3407
218.727	3100
218.794	1121
218.860	1629
218.927	1520
218.994	895
219.061	777
219.127	1062
219.194	2358
219.261	1777
219.327	799
219.394	1563
219.461	946
219.527	996
219.594	2066
219.661	917
219.727	662
219.794	1778
219.860	696
219.927	1608
219.994	2282
220.060	3525
220.127	3756
220.193	2188
220.260	1927
220.326	2935
220.393	4709
220.460	7021
220.526	4491
220.593	2539
220.659	4322
220.726	2361
220.792	6946
220.859	5408
220.925	7430
220.992	10518
221.058	10340
221.125	8138
221.191	6715
221.258	2175
221.324	3170
221.391	1955
221.457	2023
221.524	1262
221.590	3417
221.657	7961
221.723	5433
221.789	4044
221.856	5834
221.922	2263
221.989	2345
222.055	1177
222.121	1104
222.188	3115
222.254	2728
222.321	1355
222.387	1180
222.453	1217
222.520	859
222.586	875
222.652	1850
222.719	568
222.785	1665
222.851	1671
222.918	1449
222.984	821
223.050	1977
223.116	-461
223.183	1912
223.249	302
223.315	1226
223.382	937
223.448	1268
223.514	522
223.580	1060
223.647	-129
223.713	962
223.779	226
223.845	1058
223.911	1720
223.978	613
224.044	760
224.110	910
224.176	1042
224.242	1183
224.309	248
224.375	1946
224.441	1127
224.507	1003
224.573	529
224.639	1920
224.705	98
224.772	1120
224.838	280
224.904	1787
224.970	273
225.036	776
225.102	1116
225.168	2011
225.234	723
225.300	336
225.366	363
225.432	1212
225.499	633
225.565	1457
225.631	1124
225.697	1624
225.763	2517
225.829	2367
225.895	2241
225.961	3774
226.027	2844
226.093	2446
226.159	3624
226.225	4920
226.291	10525
226.357	16870
226.423	8064
226.489	5247
226.554	3304
226.620	3529
226.686	3388
226.752	6361
226.818	8967
226.884	20266
226.950	18306
227.016	6923
227.082	4477
227.148	3510
227.214	2987
227.279	2676
227.345	2124
227.411	2322
227.477	2486
227.543	4862
227.609	4561
227.674	3201
227.740	2116
227.806	1721
227.872	2889
227.938	1685
228.003	1647
228.069	1090
228.135	1224
228.201	2238
228.267	1587
228.332	1775
228.398	1166
228.464	2097
228.530	178
228.595	1805
228.661	391
228.727	2154
228.792	2927
228.858	958
228.924	109
228.990	3389
229.055	692
229.121	3250
229.187	1191
229.252	2035
229.318	1041
229.384	1360
229.449	1779
229.515	-48
229.581	-574
229.646	2194
229.712	832
229.777	3388
229.843	3255
229.909	2791
229.974	3752
230.040	2846
230.105	2473
230.171	2643
230.236	2755
230.302	5250
230.368	4114
230.433	2295
230.499	2461
230.564	3082
230.630	1403
230.695	1924
230.761	2144
230.826	1222
230.892	3565
230.957	1842
231.023	1547
231.088	1440
231.154	775
231.219	2311
231.284	2184
231.350	3388
231.415	423
231.481	2790
231.546	1069
231.612	1646
231.677	702
231.742	-14
231.808	1948
231.873	833
231.939	-786
232.004	3789
232.069	2751
232.135	1480
232.200	1169
232.265	3006
232.331	824
232.396	1327
232.461	676
232.527	574
232.592	946
232.657	1713
232.723	2393
232.788	1404
232.853	1281
232.918	1593
232.984	336
233.049	1434
233.114	1437
233.179	2636
233.245	3075
233.310	4080
233.375	869
233.440	1992
233.506	1359
233.571	957
233.636	791
233.701	1276
233.766	2139
233.832	2911
233.897	653
233.962	891
234.027	2652
234.092	2010
234.157	1884
234.222	1905
234.288	1819
234.353	5599
234.418	5461
234.483	4400
234.548	3213
234.613	2955
234.678	3412
234.743	2980
234.808	7094
234.873	4760
234.938	2748
235.004	2959
235.069	1808
235.134	1812
235.199	2625
235.264	1603
235.329	364
235.394	2691
235.459	3060
235.524	1664
235.589	2022
235.654	1904
235.719	940
235.784	1838
235.849	1927
235.913	3780
235.978	3471
236.043	4617
236.108	1243
236.173	2102
236.238	2668
236.303	1103
236.368	1499
236.433	3814
236.498	4591
236.563	4425
236.627	7335
236.692	25262
236.757	20189
236.822	8201
236.887	4752
236.952	5933
237.017	2548
237.081	5521
237.146	4607
237.211	11665
237.276	24248
237.341	40391
237.405	18034
237.470	7709
237.535	5132
237.600	3624
237.664	3160
237.729	2273
237.794	3954
237.859	8679
237.923	4583
237.988	3177
238.053	3350
238.118	4156
238.182	8587
238.247	8853
238.312	3031
238.376	3615
238.441	956
238.506	3298
238.570	225
238.635	3146
238.700	1640
238.764	1479
238.829	3724
238.893	4410
238.958	3480
239.023	3247
239.087	1982
239.152	2118
239.216	1567
239.281	2762
239.346	1091
239.410	2404
239.475	958
239.539	8384
239.604	4875
239.668	2918
239.733	1680
239.797	3665
239.862	7500
239.926	8356
239.991	3827
240.055	1433
240.120	1567
240.184	2097
240.249	63
240.313	1665
240.378	1432
240.442	4622
240.507	7565
240.571	3063
240.635	3385
240.700	4641
240.764	1220
240.829	2150
240.893	139
240.957	2108
241.022	5092
241.086	8455
241.151	3023
241.215	737
241.279	1681
241.344	3625
241.408	2801
241.472	2174
241.537	2662
241.601	3337
241.665	1063
241.730	2255
241.794	3748
241.858	1520
241.922	1631
241.987	3072
242.051	1860
242.115	1267
242.179	1984
242.244	1948
242.308	2687
242.372	2623
242.436	1795
242.501	2827
242.565	506
242.629	1876
242.693	2399
242.757	1569
242.822	1311
242.886	2046
242.950	2664
243.014	2147
243.078	2832
243.142	2682
243.206	1744
243.271	2728
243.335	2465
243.399	4877
243.463	14449
243.527	37693
243.591	12475
243.655	5323
243.719	2791
243.783	3968
243.847	5984
243.911	8269
243.975	6958
244.040	4342
244.104	3709
244.168	2354
244.232	3562
244.296	6428
244.360	7106
244.424	2525
244.488	2951
244.552	2605
244.615	-72
244.679	2555
244.743	2286
244.807	3672
244.871	1480
244.935	2099
244.999	985
245.063	1979
245.127	2149
245.191	5562
245.255	4554
245.319	3277
245.383	1871
245.446	3125
245.510	1017
245.574	2943
245.638	3165
245.702	1486
245.766	6669
245.829	4422
245.893	1298
245.957	1864
246.021	2660
246.085	2347
246.149	3260
246.212	8361
246.276	12470
246.340	5224
246.404	4196
246.467	4192
246.531	5293
246.595	4794
246.659	3326
246.722	2761
246.786	4486
246.850	4942
246.913	4919
246.977	2191
247.041	2131
247.104	3574
247.168	2353
247.232	7124
247.295	16809
247.359	8208
247.423	2715
247.486	6898
247.550	4753
247.614	3294
247.677	5364
247.741	2777
247.804	2364
247.868	3257
247.932	5446
247.995	15141
248.059	4985
248.122	2181
248.186	4185
248.249	6795
248.313	26173
248.376	27742
248.440	16398
248.503	6268
248.567	4591
248.630	7756
248.694	10882
248.757	14362
248.821	28938
248.884	17650
248.948	13650
249.011	21698
249.075	31213
249.138	28183
249.202	10525
249.265	6648
249.328	7978
249.392	6092
249.455	4999
249.519	4536
249.582	5327
249.645	8763
249.709	6521
249.772	5088
249.835	4074
249.899	4050
249.962	4192
250.025	3717
250.089	10715
250.152	15244
250.215	7263
250.279	4725
250.342	4747
250.405	5255
250.468	4302
250.532	6220
250.595	11048
250.658	37234
250.721	59004
250.785	22000
250.848	10546
250.911	6775
250.974	6472
251.038	7521
251.101	17262
251.164	9632
251.227	9308
251.290	9530
251.354	14167
251.417	51172
251.480	51328
251.543	36761
251.606	88233
251.669	69643
251.732	26992
251.795	25717
251.859	26162
251.922	55940
251.985	33694
252.048	13829
252.111	9593
252.174	8665
252.237	15735
252.300	34892
252.363	36197
252.426	72368
252.489	31034
252.552	14299
252.615	8232
252.678	10707
252.741	24550
252.804	34343
252.867	74205
252.930	44139
252.993	21462
253.056	13998
253.119	8766
253.182	7395
253.245	15392
253.308	11239
253.371	8104
253.434	7702
253.497	8068
253.559	15274
253.622	9679
253.685	12080
253.748	12311
253.811	5714
253.874	5999
253.937	5745
254.000	5613
254.062	10330
254.125	15424
254.188	13212
254.251	10761
254.314	5656
254.376	9668
254.439	12624
254.502	9652
254.565	9676
254.628	18063
254.690	10478
254.753	4896
254.816	4893
254.878	4302
254.941	10879
255.004	11066
255.067	5141
255.129	4478
255.192	2322
255.255	1742
255.317	3969
255.380	1974
255.443	1608
255.505	1284
255.568	1966
255.631	1374
255.693	2519
255.756	1085
255.819	2852
255.881	1543
255.944	2005
256.006	1010
256.069	2261
256.132	101
256.194	2137
256.257	5697
256.319	4970
256.382	3768
256.444	4172
256.507	2458
256.569	2907
256.632	2856
256.694	4680
256.757	13243
256.819	41263
256.882	15524
256.944	6485
257.007	4675
257.069	4740
257.132	3632
257.194	4445
257.257	3775
257.319	4555
257.381	3777
257.444	10545
257.506	47783
257.569	53922
257.631	32401
257.693	15246
257.756	6192
257.818	4838
257.880	3173
257.943	3568
258.005	2315
258.067	3363
258.130	1799
258.192	3460
258.254	7033
258.317	4223
258.379	3537
258.441	13121
258.503	9346
258.566	9579
258.628	13020
258.690	3264
258.753	5305
258.815	7893
258.877	3707
258.939	2782
259.001	2709
259.064	2408
259.126	3579
259.188	4144
259.250	3732
259.312	7297
259.375	19744
259.437	10423
259.499	4336
259.561	4792
259.623	4827
259.685	2801
259.747	2532
259.809	10373
259.872	14848
259.934	24033
259.996	21186
260.058	6227
260.120	2449
260.182	2604
260.244	2336
260.306	2084
260.368	2597
260.430	2304
260.492	4730
260.554	15354
260.616	13641
260.678	15169
260.740	18203
260.802	4912
260.864	4200
260.926	2783
260.988	3393
261.050	2944
261.112	4637
261.174	16087
261.236	13680
261.298	4782
261.359	6128
261.421	10692
261.483	3329
261.545	3113
261.607	890
261.669	2710
261.731	4284
261.793	12855
261.854	5795
261.916	4654
261.978	2338
262.040	2078
262.102	2086
262.164	4542
262.225	3226
262.287	3067
262.349	7894
262.411	6305
262.472	3547
262.534	4009
262.596	9847
262.658	4052
262.719	1742
262.781	3671
262.843	8442
262.904	4632
262.966	3787
263.028	4848
263.090	20990
263.151	57036
263.213	16206
263.275	7799
263.336	3196
263.398	3066
263.459	1077
263.521	2213
263.583	6843
263.644	4726
263.706	1373
263.767	724
263.829	1285
263.891	870
263.952	1039
264.014	938
264.075	608
264.137	4527
264.198	2843
264.260	471
264.321	895
264.383	4183
264.444	8663
264.506	2594
264.567	1559
264.629	2950
264.690	3937
264.752	2609
264.813	1817
264.875	912
264.936	1322
264.998	1082
265.059	1285
265.120	1782
265.182	2936
265.243	21108
265.305	20348
265.366	4800
265.427	1893
265.489	2673
265.550	354
265.611	1738
265.673	1155
265.734	2015
265.795	1629
265.857	1502
265.918	1721
265.979	5568
266.040	34392
266.102	28317
266.163	6916
266.224	4640
266.286	2940
266.347	854
266.408	2060
266.469	1907
266.530	1253
266.592	988
266.653	3341
266.714	7869
266.775	1906
266.836	1474
266.898	659
266.959	1820
267.020	1181
267.081	1926
267.142	612
267.203	802
267.264	439
267.326	2218
267.387	821
267.448	1355
267.509	1027
267.570	1443
267.631	750
267.692	583
267.753	709
267.814	988
267.875	3502
267.936	10745
267.997	2665
268.058	3025
268.119	1681
268.180	1944
268.241	635
268.302	847
268.363	764
268.424	1340
268.485	1921
268.546	1030
268.607	368
268.668	1425
268.729	412
268.790	1633
268.851	474
268.912	5565
268.972	6856
269.033	3139
269.094	1051
269.155	1743
269.216	430
269.277	1417
269.338	1252
269.398	2220
269.459	1515
269.520	3040
269.581	3971
269.642	5555
269.702	3175
269.763	2710
269.824	2083
269.885	2585
269.945	4529
270.006	1311
270.067	397
270.128	1212
270.188	610
270.249	1322
270.310	268
270.370	1560
270.431	1447
270.492	1084
270.553	1100
270.613	5229
270.674	9356
270.734	4325
270.795	1563
270.856	4045
270.916	2336
270.977	1559
271.038	2486
271.098	2402
271.159	4007
271.219	4079
271.280	2074
271.340	1941
271.401	1437
271.462	4406
271.522	2274
271.583	1500
271.643	1325
271.704	2093
271.764	2252
271.825	7001
271.885	23917
271.946	32991
272.006	9445
272.066	14258
272.127	25075
272.187	7346
272.248	3856
272.308	4595
272.369	18344
272.429	9593
272.489	6289
272.550	6144
272.610	7199
272.671	5071
272.731	3923
272.791	6007
272.852	3524
272.912	3832
272.972	1564
273.033	2288
273.093	2495
273.153	4067
273.214	1655
273.274	2372
273.334	9707
273.394	25504
273.455	8595
273.515	8460
273.575	21005
273.635	8139
273.696	9705
273.756	23302
273.816	8921
273.876	4543
273.936	8125
273.997	15287
274.057	3140
274.117	3555
274.177	5128
274.237	30692
274.297	23698
274.358	13885
274.418	19496
274.478	14452
274.538	4500
274.598	3934
274.658	12461
274.718	16158
274.778	6564
274.838	4004
274.898	6412
274.958	21847
275.018	23196
275.078	14496
275.138	5319
275.198	2873
275.258	1846
275.318	2947
275.378	5704
275.438	7485
275.498	3886
275.558	11399
275.618	23036
275.678	18016
275.738	9391
275.798	7027
275.858	2780
275.918	1555
275.978	2382
276.038	3429
276.098	2097
276.157	5306
276.217	16075
276.277	7716
276.337	4405
276.397	2109
276.457	2499
276.517	2562
276.576	1169
276.636	1591
276.696	2690
276.756	9780
276.815	5502
276.875	2208
276.935	2324
276.995	2441
277.055	1669
277.114	1864
277.174	2813
277.234	14957
277.293	5068
277.353	2620
277.413	1537
277.472	1777
277.532	1937
277.592	2958
277.651	7364
277.711	13909
277.771	5104
277.830	21358
277.890	15329
277.950	10077
278.009	31789
278.069	11314
278.128	9986
278.188	13931
278.248	5937
278.307	14924
278.367	9404
278.426	3291
278.486	2061
278.545	1433
278.605	1625
278.664	1686
278.724	2045
278.783	8784
278.843	24812
278.902	6650
278.962	3152
279.021	3863
279.081	3287
279.140	3765
279.199	3255
279.259	2758
279.318	3488
279.378	5026
279.437	10664
279.496	47043
279.556	85422
279.615	58389
279.675	14976
279.734	10697
279.793	18720
279.853	40960
279.912	15499
279.971	8080
280.031	8339
280.090	17034
280.149	30911
280.208	14330
280.268	50831
280.327	52210
280.386	10818
280.445	11802
280.505	10215
280.564	3926
280.623	3376
280.682	7502
280.742	11699
280.801	3238
280.860	2049
280.919	2808
280.978	1278
281.037	1676
281.097	24
281.156	2191
281.215	1677
281.274	2793
281.333	16084
281.392	11636
281.451	2030
281.510	1710
281.569	1568
281.628	1118
281.688	19
281.747	1400
281.806	2244
281.865	2191
281.924	1301
281.983	950
282.042	168
282.101	1513
282.160	1310
282.219	680
282.278	1647
282.337	8922
282.396	5993
282.454	2326
282.513	2766
282.572	13858
282.631	7434
282.690	1880
282.749	458
282.808	1601
282.867	1351
282.926	2509
282.985	850
283.043	801
283.102	1259
283.161	937
283.220	5044
283.279	14963
283.338	3812
283.396	1505
283.455	785
283.514	1927
283.573	3883
283.631	2271
283.690	598
283.749	1190
283.808	4581
283.866	6316
283.925	1399
283.984	1933
284.043	2407
284.101	1956
284.160	690
284.219	1826
284.277	1804
284.336	3585
284.395	17335
284.453	13942
284.512	3716
284.570	5829
284.629	3582
284.688	2396
284.746	2405
284.805	2994
284.863	4429
284.922	5975
284.981	6454
285.039	10478
285.098	17681
285.156	48697
285.215	134262
285.273	127379
285.332	51926
285.390	24170
285.449	14086
285.507	8762
285.566	6861
285.624	5442
285.683	4594
285.741	2281
285.799	3050
285.858	2265
285.916	2075
285.975	1641
286.033	1105
286.091	925
286.150	-112
286.208	1419
286.267	1645
286.325	1606
286.383	3509
286.442	3282
286.500	109
286.558	659
286.616	1656
286.675	2343
286.733	1194
286.791	1625
286.850	1158
286.908	3119
286.966	6075
287.024	1977
287.083	751
287.141	522
287.199	859
287.257	2486
287.315	1283
287.374	2479
287.432	7676
287.490	4685
287.548	1877
287.606	1199
287.664	641
287.723	3740
287.781	2944
287.839	3777
287.897	4035
287.955	5707
288.013	8344
288.071	17850
288.129	72208
288.187	184436
288.245	84529
288.303	27746
288.361	14131
288.419	8616
288.477	5675
288.535	4658
288.593	3294
288.651	2627
288.709	1593
288.767	2005
288.825	1509
288.883	794
288.941	811
288.999	1554
289.057	948
289.115	-13
289.173	48
289.231	1460
289.289	-22
289.346	942
289.404	1084
289.462	3371
289.520	3390
289.578	1137
289.636	78
289.694	698
289.751	-708
289.809	306
289.867	573
289.925	519
289.983	1346
290.040	492
290.098	-25
290.156	1834
290.214	987
290.271	976
290.329	383
290.387	789
290.444	133
290.502	-37
290.560	-158
290.617	347
290.675	-101
290.733	312
290.790	453
290.848	284
290.906	-550
290.963	1425
291.021	322
291.078	771
291.136	188
291.194	4500
291.251	13017
291.309	3396
291.366	923
291.424	1539
291.481	1520
291.539	1010
291.596	110
291.654	-315
291.711	176
291.769	1119
291.826	2650
291.884	2059
291.941	93
291.999	1347
292.056	367
292.114	1184
292.171	-715
292.228	837
292.286	921
292.343	3220
292.401	3364
292.458	2641
292.515	1285
292.573	2879
292.630	1452
292.687	1849
292.745	-47
292.802	1032
292.859	4304
292.917	15032
292.974	8827
293.031	2116
293.089	968
293.146	1504
293.203	241
293.260	846
293.318	3113
293.375	2586
293.432	577
293.489	341
293.546	1102
293.604	1896
293.661	7524
293.718	26473
293.775	10386
293.832	5646
293.889	3400
293.947	6823
294.004	4357
294.061	4983
294.118	7062
294.175	12934
294.232	8620
294.289	3019
294.346	1443
294.403	2122
294.460	1356
294.517	897
294.574	1094
294.631	1786
294.688	1050
294.745	6143
294.802	26869
294.859	22734
294.916	11480
294.973	9080
295.030	3675
295.087	3959
295.144	1318
295.201	1560
295.258	1010
295.315	1816
295.372	10966
295.429	22458
295.486	8038
295.542	3434
295.599	6266
295.656	10483
295.713	9130
295.770	20093
295.827	5847
295.883	3353
295.940	2848
295.997	4456
296.054	3478
296.111	1611
296.167	670
296.224	234
296.281	86
296.338	866
296.394	47
296.451	2238
296.508	8080
296.564	16283
296.621	8221
296.678	21727
296.734	32395
296.791	10171
296.848	4335
296.904	5468
296.961	13415
297.018	24692
297.074	16273
297.131	5936
297.187	3224
297.244	5716
297.301	23640
297.357	45342
297.414	13313
297.470	5485
297.527	2560
297.583	2029
297.640	1922
297.696	1611
297.753	713
297.809	891
297.866	12
297.922	138
297.979	327
298.035	1827
298.092	2887
298.148	13800
298.204	12689
298.261	4440
298.317	8026
298.374	27818
298.430	15199
298.486	4748
298.543	3041
298.599	2815
298.656	3128
298.712	8946
298.768	27271
298.824	19387
298.881	4698
298.937	2088
298.993	1435
299.050	3492
299.106	2450
299.162	2370
299.218	2131
299.275	974
299.331	2002
299.387	4622
299.443	25043
299.500	27064
299.556	9047
299.612	4112
299.668	3286
299.724	5621
299.780	5424
299.837	2951
299.893	4225
299.949	21762
300.005	23441
300.061	19962
300.117	34727
300.173	15596
300.229	5447
300.285	6873
300.341	8575
300.397	3674
300.453	1140
300.510	1839
300.566	2163
300.622	3298
300.678	11438
300.734	22641
300.790	20240
300.845	26622
300.901	14533
300.957	22601
301.013	15641
301.069	5814
301.125	3029
301.181	4259
301.237	2277
301.293	1764
301.349	1198
301.405	1126
301.461	504
301.516	1575
301.572	2150
301.628	5574
301.684	5064
301.740	8123
301.796	13766
301.851	9023
301.907	15386
301.963	14389
302.019	23549
302.074	73727
302.130	68441
302.186	27524
302.242	10978
302.297	7370
302.353	6227
302.409	14917
302.464	11106
302.520	8582
302.576	24764
302.631	29682
302.687	14075
302.743	5984
302.798	2689
302.854	1821
302.910	1684
302.965	3200
303.021	6351
303.076	5990
303.132	7708
303.187	10606
303.243	4173
303.299	3000
303.354	1245
303.410	1430
303.465	860
303.521	564
303.576	646
303.632	2340
303.687	5643
303.743	22150
303.798	18186
303.853	6049
303.909	2264
303.964	1915
304.020	4204
304.075	7541
304.130	6431
304.186	13514
304.241	13255
304.297	9817
304.352	5163
304.358	4950
304.407	3229
304.449	4320
304.463	4685
304.518	4307
304.539	4031
304.573	3570
304.629	2716
304.630	2758
304.684	5058
304.720	12848
304.739	16611
304.794	26553
304.811	22027
304.850	11383
304.902	4477
304.905	4038
304.960	2813
304.992	2048
305.015	1480
305.071	1661
305.083	1547
305.126	1128
305.173	686
305.181	633
305.236	139
305.264	816
305.292	1474
305.347	2202
305.354	2275
305.402	2963
305.445	3775
305.457	3872
305.512	4337
305.535	4246
305.567	4312
305.622	3480
305.626	3589
305.678	7343
305.716	19718
305.733	23986
305.788	25545
305.807	21400
305.843	15095
305.897	22583
305.898	22646
305.953	22169
305.988	13138
306.008	8465
306.063	3925
306.078	3343
306.118	2300
306.168	2009
306.173	1976
306.228	1810
306.259	1668
306.283	1609
306.338	1342
306.349	1346
306.393	1217
306.440	1576
306.448	1696
306.503	2125
306.530	2199
306.558	2830
306.613	6682
306.620	7297
306.668	12329
306.711	20738
306.723	21777
306.778	16236
306.801	11988
306.833	7787
306.888	3223
306.892	3113
306.943	2505
306.982	2219
306.997	2172
307.052	2103
307.072	2073
307.107	1736
307.162	1829
307.163	1824
307.217	2881
307.253	4045
307.272	4197
307.327	4335
307.343	4170
307.381	4015
307.434	3521
307.436	3670
307.491	8475
307.524	14034
307.546	15533
307.600	15824
307.614	13926
307.655	7964
307.704	4019
307.710	3896
307.765	4223
307.795	5101
307.819	5841
307.874	8353
307.885	8501
307.929	8295
307.975	8133
307.984	8536
308.038	12598
308.065	15339
308.093	29657
308.148	66815
308.156	75680
308.202	112392
308.246	127910
308.257	123640
308.312	62088
308.336	41113
308.366	30490
308.421	18774
308.426	17701
308.475	11087
308.517	7757
308.530	6901
308.585	5517
308.607	4787
308.639	4810
308.694	5565
308.697	5644
308.748	8783
308.787	11886
308.803	11645
308.857	8533
308.877	7272
308.912	6841
308.967	7420
308.967	7438
309.021	11853
309.058	15398
309.076	20318
309.130	38213
309.148	45121
309.185	91424
309.238	173332
309.239	173577
309.293	172176
309.328	143513
309.348	120466
309.402	52112
309.418	35863
309.457	23945
309.508	14459
309.511	14178
309.566	12065
309.598	11253
309.620	12170
309.674	16628
309.688	17638
309.729	15985
309.778	12516
309.783	12260
309.837	9155
309.868	7900
309.892	11997
309.946	23266
309.959	26609
310.001	33346
310.049	37972
310.055	36613
310.109	19920
310.139	11095
310.163	8480
310.218	4511
310.229	3840
310.272	3459
310.319	3533
310.326	3397
310.381	2271
310.409	1772
310.435	1903
310.489	1938
310.499	2012
310.543	1974
310.589	1707
310.598	1796
310.652	2633
310.679	2872
310.706	2368
310.760	1555
310.769	1381
310.814	1705
310.859	2283
310.868	2258
310.923	1806
310.948	1681
310.977	2072
311.031	2714
311.038	2814
311.085	2595
311.128	2142
311.139	2155
311.193	2367
311.218	2382
311.247	2227
311.301	2131
311.308	2092
311.356	2110
311.398	2164
311.410	2082
311.464	1622
311.488	1395
311.518	1418
311.572	1506
311.578	1517
311.626	2543
311.668	3344
311.680	3344
311.734	3308
311.758	3262
311.788	2759
311.842	1899
311.847	1799
311.896	3733
311.937	5421
311.950	5216
312.004	4221
312.027	3773
312.058	3417
312.112	2764
312.117	2694
312.165	2436
312.207	2210
312.297	3234
312.386	2701
312.476	3514
312.566	6437
312.656	3278
312.745	2067
312.835	2155
312.925	2691
313.015	2753
313.104	2313
313.194	2992
313.284	2303
313.374	3936
313.463	3373
313.553	3104
313.643	2246
313.732	3082
313.822	2248
313.912	3776
314.001	3163
314.091	4041
314.180	3369
314.270	5272
314.360	3952
314.449	3988
314.539	1539
314.628	3191
314.718	2645
314.808	4960
314.897	2825
314.987	4216
315.076	3846
315.166	5437
315.255	4086
315.345	4415
315.434	3355
315.524	4067
315.613	3946
315.703	5945
315.792	10042
315.881	31316
315.971	7607
316.060	8099
316.150	7755
316.239	8191
316.328	2723
316.418	3233
316.507	3107
316.597	4767
316.686	3275
316.775	5185
316.865	7258
316.954	3221
317.043	2328
317.133	2700
317.222	2502
317.311	3309
317.400	730
317.490	5879
317.579	3723
317.668	3818
317.757	5879
317.847	18590
317.936	52494
318.025	17545
318.114	11569
318.203	5844
318.293	5242
318.382	9406
318.471	8752
318.560	12346
318.649	24088
318.738	5044
318.828	3881
318.917	3970
319.006	3873
319.095	11420
319.184	33409
319.273	17899
319.362	9640
319.451	3755
319.540	2812
319.629	9138
319.718	12048
319.807	5275
319.896	11678
319.985	41008
320.074	12201
320.163	3966
320.252	4561
320.341	5077
320.430	3878
320.519	6756
320.608	3750
320.697	4378
320.786	3631
320.875	5854
320.964	7293
321.053	10769
321.142	15173
321.230	15720
321.319	14284
321.408	25942
321.497	10805
321.586	11276
321.675	11433
321.764	9929
321.852	7058
321.941	15408
322.030	7628
322.119	11076
322.207	25183
322.296	14612
322.385	9402
322.474	16837
322.562	37049
322.651	16784
322.740	21227
322.829	32224
322.917	12209
323.006	11522
323.095	12053
323.183	6117
323.272	7537
323.361	15351
323.449	31671
323.538	12578
323.626	32809
323.715	20972
323.804	6556
323.892	20773
323.981	10951
324.069	6782
324.158	10043
324.246	9406
324.335	9616
324.424	12538
324.512	3439
324.601	4750
324.689	5376
324.778	10517
324.866	15235
324.954	3731
325.043	3533
325.131	6782
325.220	10085
325.308	13138
325.397	7668
325.485	5065
325.574	6572
325.662	6007
325.750	3076
325.839	6064
325.927	3137
326.015	5952
326.104	3486
326.192	4677
326.280	2794
326.369	2619
326.457	6753
326.545	8764
326.634	2788
326.722	2104
326.810	2477
326.898	3651
326.987	3346
327.075	6929
327.163	4712
327.251	3225
327.340	2566
327.428	3854
327.516	2534
327.604	3127
327.692	2143
327.781	3230
327.869	3664
327.957	3272
328.045	3010
328.133	2240
328.221	2158
328.309	2951
328.397	2420
328.485	3908
328.574	5303
328.662	18415
328.750	6141
328.838	3029
328.926	1976
329.014	2358
329.102	3463
329.190	7875
329.278	3475
329.366	2550
329.454	1329
329.542	2459
329.630	1721
329.718	2674
329.806	3117
329.893	3145
329.981	1030
330.069	2610
330.157	8116
330.245	21911
330.333	9930
330.421	2334
330.509	5510
330.597	20451
330.684	9357
330.772	3856
330.860	4357
330.948	5287
331.036	2394
331.123	1997
331.211	1823
331.299	3415
331.387	6328
331.475	9430
331.562	3251
331.650	3005
331.738	2902
331.825	3496
331.913	1524
332.001	1925
332.089	2969
332.176	3751
332.264	8488
332.352	6876
332.439	2705
332.527	2709
332.614	1301
332.702	2982
332.790	1060
332.877	5544
332.965	7066
333.052	2844
333.140	3658
333.228	5979
333.315	1581
333.403	3419
333.490	5408
333.578	5169
333.665	6390
333.753	3727
333.840	1947
333.928	3789
334.015	6839
334.103	13411
334.190	37751
334.278	9881
334.365	8192
334.452	8913
334.540	3909
334.627	4409
334.715	5623
334.802	11547
334.889	42684
334.977	44792
335.064	13774
335.151	5987
335.239	4343
335.326	5749
335.413	22623
335.501	25728
335.588	4201
335.675	4251
335.762	4484
335.850	7543
335.937	7886
336.024	19552
336.111	57382
336.199	34414
336.286	10021
336.373	5572
336.460	2438
336.547	3635
336.635	3414
336.722	3554
336.809	2661
336.896	4053
336.983	12119
337.070	29373
337.157	40223
337.245	24339
337.332	13196
337.419	3423
337.506	2116
337.593	3248
337.680	9116
337.767	24522
337.854	6309
337.941	7600
338.028	8175
338.115	3368
338.202	4025
338.289	7818
338.376	21772
338.463	6690
338.550	15594
338.637	14734
338.724	4750
338.811	7129
338.898	1623
338.984	1870
339.071	1644
339.158	3648
339.245	8787
339.332	4858
339.419	5447
339.506	5546
339.593	925
339.679	3292
339.766	923
339.853	3884
339.940	7297
340.027	2865
340.113	2413
340.200	4073
340.287	1466
340.374	3773
340.460	5498
340.547	2478
340.634	5270
340.720	20593
340.807	8801
340.894	2134
340.980	1503
341.067	1713
341.154	2509
341.240	4262
341.327	8785
341.414	2723
341.500	2009
341.587	2717
341.674	2565
341.760	6511
341.847	6733
341.933	2562
342.020	463
342.106	1420
342.193	2279
342.279	5290
342.366	2903
342.452	7108
342.539	2985
342.625	9201
342.712	21523
342.798	8298
342.885	2748
342.971	1542
343.058	555
343.144	2227
343.230	2416
343.317	3074
343.403	1147
343.490	1948
343.576	752
343.662	2438
343.749	2590
343.835	3959
343.921	6688
344.008	55919
344.094	109689
344.180	21069
344.267	7501
344.353	32089
344.439	25225
344.525	9668
344.612	4667
344.698	4995
344.784	1849
344.870	2353
344.957	2185
345.043	4577
345.129	2486
345.215	6681
345.301	3320
345.387	2024
345.474	908
345.560	2027
345.646	1238
345.732	2765
345.818	1950
345.904	2897
345.990	2946
346.076	3351
346.162	2388
346.249	2712
346.335	1750
346.421	3249
346.507	14396
346.593	45176
346.679	8021
346.765	2624
346.851	2956
346.937	2386
347.023	2283
347.108	3114
347.194	2011
347.280	2426
347.366	4215
347.452	16633
347.538	57570
347.624	37835
347.710	25597
347.796	3727
347.882	2293
347.967	2363
348.053	2377
348.139	2108
348.225	2085
348.311	2251
348.397	1402
348.482	3394
348.568	2232
348.654	2542
348.740	6564
348.825	5885
348.911	6095
348.997	27668
349.083	46015
349.168	6357
349.254	1815
349.340	2636
349.425	378
349.511	3296
349.597	3312
349.682	9641
349.768	29862
349.854	11762
349.939	2062
350.025	1945
350.110	1862
350.196	1514
350.282	262
350.367	2089
350.453	2983
350.538	2090
350.624	1948
350.709	3251
350.795	1065
350.880	1944
350.966	2052
351.051	3362
351.137	2505
351.222	3155
351.308	8717
351.393	23187
351.479	4374
351.564	2529
351.649	1962
351.735	1740
351.820	1119
351.906	1905
351.991	1724
352.076	16744
352.162	20141
352.247	3799
352.332	2923
352.418	5474
352.503	6605
352.588	35782
352.673	22423
352.759	5504
352.844	1675
352.929	3365
353.014	3729
353.100	9523
353.185	36201
353.270	20770
353.355	7013
353.441	3612
353.526	2185
353.611	6252
353.696	7112
353.781	5983
353.866	1616
353.952	3105
354.037	6060
354.122	15793
354.207	11497
354.292	4761
354.377	1904
354.462	2597
354.547	2461
354.632	4391
354.717	19609
354.802	47076
354.887	11233
354.972	2404
355.057	1748
355.142	1953
355.227	2758
355.312	4539
355.397	9535
355.482	23253
355.567	9584
355.652	8582
355.737	9454
355.822	34145
355.907	22077
355.991	5221
356.076	684
356.161	2769
356.246	1869
356.331	3188
356.416	7452
356.501	58453
356.585	50578
356.670	6173
356.755	5834
356.840	13359
356.924	78248
357.009	153806
357.094	42498
357.179	8329
357.263	4852
357.348	6577
357.433	4235
357.517	5139
357.602	3617
357.687	5745
357.771	18099
357.856	15629
357.941	8155
358.025	32078
358.110	121926
358.195	48202
358.279	6127
358.364	5684
358.448	21548
358.533	58849
358.617	43267
358.702	44527
358.787	12969
358.871	8188
358.956	6147
359.040	2345
359.125	1164
359.209	2419
359.294	4194
359.378	7683
359.462	6718
359.547	5572
359.631	1438
359.716	1648
359.800	1222
359.885	5149
359.969	1823
360.053	2965
360.138	2523
360.222	3418
360.306	7072
360.391	5268
360.475	8239
360.559	16847
360.644	19336
360.728	17621
360.812	39416
360.896	82884
360.981	29242
361.065	14748
361.149	3869
361.233	4595
361.318	2955
361.402	2950
361.486	2685
361.570	2270
361.654	3412
361.739	10753
361.823	55775
361.907	77935
361.991	12882
362.075	8129
362.159	14911
362.243	12295
362.327	19077
362.411	32685
362.495	11740
362.580	4882
362.664	3729
362.748	3930
362.832	5889
362.916	13536
363.000	50629
363.084	120251
363.168	104055
363.252	21147
363.336	7610
363.420	9875
363.503	30674
363.587	31274
363.671	6805
363.755	5365
363.839	8293
363.923	3944
364.007	8782
364.091	9627
364.175	14480
364.258	55892
364.342	65437
364.426	119469
364.510	59144
364.594	18130
364.677	18929
364.761	73523
364.845	46523
364.929	14696
365.013	9429
365.096	9440
365.180	9339
365.264	14972
365.347	46883
365.431	17664
365.515	3948
365.598	2319
365.682	3153
365.766	3643
365.849	4459
365.933	3236
366.017	5188
366.100	2834
366.184	964
366.267	3237
366.351	1804
366.435	2617
366.518	466
366.602	2791
366.685	1673
366.769	3541
366.852	4864
366.936	7643
367.019	4643
367.103	3531
367.186	5273
367.270	3079
367.353	1422
367.436	3094
367.520	1551
367.603	3333
367.687	4178
367.770	8583
367.853	5571
367.937	23893
368.020	34906
368.104	6963
368.187	6012
368.270	10501
368.353	7637
368.437	9323
368.520	14728
368.603	11137
368.687	23921
368.770	42130
368.853	8208
368.936	8185
369.020	6014
369.103	2376
369.186	655
369.269	1987
369.352	6784
369.436	7803
369.519	3838
369.602	1236
369.685	3366
369.768	2785
369.851	2921
369.934	1024
370.018	2069
370.101	6133
370.184	6626
370.267	4393
370.350	5013
370.433	10520
370.516	40310
370.599	51626
370.682	12535
370.765	22552
370.848	29140
370.931	53878
371.014	16836
371.097	2977
371.180	2320
371.263	2302
371.346	457
371.429	2192
371.511	1751
371.594	3507
371.677	6863
371.760	7340
371.843	7506
371.926	48572
372.009	99136
372.091	28248
372.174	21882
372.257	53888
372.340	17573
372.423	10001
372.505	9093
372.588	4622
372.671	17382
372.754	53173
372.836	23128
372.919	13763
373.002	22950
373.085	7388
373.167	8562
373.250	24058
373.332	52649
373.415	72202
373.498	129767
373.580	45989
373.663	76159
373.746	93461
373.828	15992
373.911	7280
373.993	7470
374.076	25056
374.159	19989
374.241	14175
374.324	43119
374.406	27327
374.489	46669
374.571	120690
374.654	45464
374.736	24093
374.819	75509
374.901	103924
374.983	94529
375.066	15582
375.148	5409
375.231	22096
375.313	37753
375.395	13658
375.478	3849
375.560	4592
375.643	4961
375.725	23517
375.807	86471
375.890	58520
375.972	14001
376.054	10543
376.136	10947
376.219	6652
376.301	27362
376.383	75301
376.465	26051
376.548	13210
376.630	21931
376.712	62532
376.794	26222
376.877	3521
376.959	365
377.041	2843
377.123	4457
377.205	5427
377.287	693
377.369	2301
377.452	1969
377.534	2570
377.616	1295
377.698	1643
377.780	86
377.862	2526
377.944	2539
378.026	707
378.108	2289
378.190	1658
378.272	1293
378.354	858
378.436	1480
378.518	3519
378.600	10022
378.682	12536
378.764	30113
378.846	22167
378.928	5980
379.010	10204
379.091	6234
379.173	2414
379.255	1448
379.337	4187
379.419	16304
379.501	43902
379.583	15102
379.664	4091
379.746	9510
379.828	30345
379.910	41111
379.991	35005
380.073	5144
380.155	3755
380.237	2900
380.318	1192
380.400	1254
380.482	5806
380.564	11396
380.645	27235
380.727	22110
380.809	6157
380.890	5069
380.972	6132
381.053	2612
381.135	3679
381.217	10146
381.298	29824
381.380	12253
381.461	13815
381.543	62148
381.624	71707
381.706	11266
381.787	4191
381.869	5277
381.951	30438
382.032	102333
382.113	60718
382.195	9031
382.276	14560
382.358	41790
382.439	67453
382.521	67426
382.602	95157
382.684	40046
382.765	68076
382.846	57183
382.928	50446
383.009	25468
383.090	20908
383.172	78562
383.253	114343
383.334	52900
383.416	91540
383.497	43729
383.578	10161
383.659	16648
383.741	74128
383.822	176586
383.903	88093
383.984	51865
384.066	101313
384.147	57488
384.228	10978
384.309	7960
384.390	8043
384.471	4917
384.553	4434
384.634	5546
384.715	6774
384.796	2652
384.877	6365
384.958	27632
385.039	31239
385.120	9748
385.201	5118
385.282	4508
385.363	5917
385.444	3906
385.525	11181
385.606	45979
385.687	39887
385.768	6929
385.849	10329
385.930	52739
386.011	85703
386.092	19903
386.173	5515
386.254	3693
386.335	4540
386.416	4303
386.496	18861
386.577	27818
386.658	9147
386.739	3664
386.820	5355
386.901	3471
386.981	4262
387.062	4043
387.143	9695
387.224	29876
387.304	28769
387.385	9896
387.466	5957
387.547	7322
387.627	6258
387.708	15314
387.789	58702
387.869	69790
387.950	19168
388.031	2844
388.111	2021
388.192	6958
388.273	9894
388.353	5132
388.434	4836
388.514	12435
388.595	57431
388.676	68398
388.756	30174
388.837	25604
388.917	14298
388.998	1576
389.078	3714
389.159	2361
389.239	1937
389.320	5091
389.400	3402
389.480	13535
389.561	33238
389.641	16434
389.722	5598
389.802	6936
389.883	16151
389.963	42076
390.043	22808
390.124	3957
390.204	11602
390.284	31177
390.365	19099
390.445	24422
390.525	76055
390.605	65213
390.686	17778
390.766	5094
390.846	4466
390.927	1725
391.007	2549
391.087	3377
391.167	2403
391.247	1234
391.328	4727
391.408	5604
391.488	5897
391.568	1688
391.648	4023
391.728	6144
391.808	6760
391.888	6910
391.969	19776
392.049	29231
392.129	12970
392.209	16432
392.289	40912
392.369	20952
392.449	12928
392.529	8671
392.609	10545
392.689	15533
392.769	43083
392.849	36049
392.929	28040
393.009	57965
393.089	52826
393.169	57941
393.248	182213
393.328	511529
393.408	519815
393.488	173353
393.568	54504
393.648	26387
393.728	16414
393.807	11317
393.887	10620
393.967	8744
394.047	9043
394.127	9728
394.206	15768
394.286	63429
394.366	249361
394.446	249075
394.525	52508
394.605	13360
394.685	10379
394.764	17886
394.844	28407
394.924	23071
395.003	8658
395.083	6455
395.163	5724
395.242	5156
395.322	5813
395.402	2072
395.481	7159
395.561	13295
395.640	36681
395.720	39340
395.799	38984
395.879	27360
395.958	22506
396.038	89750
396.117	325967
396.197	332955
396.276	87947
396.356	25901
396.435	18762
396.515	17674
396.594	22471
396.673	47494
396.753	181806
396.832	456688
396.912	342305
396.991	86964
397.070	27320
397.150	13244
397.229	11817
397.308	21722
397.388	36621
397.467	16151
397.546	5645
397.625	1805
397.705	6556
397.784	4922
397.863	3161
397.942	2431
398.022	3121
398.101	9880
398.180	26911
398.259	12921
398.338	4960
398.417	3430
398.497	1898
398.576	3951
398.655	3055
398.734	2586
398.813	2706
398.892	9911
398.971	28585
399.050	13566
399.129	1595
399.208	1686
399.287	1545
399.366	728
399.445	2075
399.524	1517
399.603	118
399.682	3735
399.761	11951
399.840	30817
399.919	24228
399.998	2544
400.077	1314
400.156	69
400.235	3931
400.313	1065
400.392	2153
400.471	14198
400.550	22489
400.629	4684
400.708	2609
400.786	1314
400.865	5310
400.944	4313
401.023	4893
401.102	33
401.180	991
401.259	838
401.338	1488
401.416	2302
401.495	2120
401.574	1857
401.652	1757
401.731	5557
401.810	10413
401.888	3847
401.967	1063
402.046	723
402.124	2392
402.203	1997
402.281	1980
402.360	1645
402.438	7493
402.517	3525
402.596	2652
402.674	2662
402.753	1621
402.831	1323
402.910	5634
402.988	30115
403.066	94123
403.145	55181
403.223	36584
403.302	91623
403.380	79453
403.459	79415
403.537	34742
403.615	12326
403.694	2962
403.772	1668
403.850	1471
403.929	552
404.007	3925
404.085	22649
404.164	31702
404.242	6725
404.320	7093
404.398	19553
404.477	29476
404.555	79431
404.633	68516
404.711	17186
404.789	10890
404.868	10657
404.946	5669
405.024	468
405.102	1514
405.180	-65
405.258	129
405.336	1293
405.415	1807
405.493	10386
405.571	17615
405.649	3478
405.727	1029
405.805	4378
405.883	8726
405.961	6142
406.039	2210
406.117	673
406.195	4573
406.273	20548
406.351	67369
406.429	37842
406.507	4177
406.585	601
406.663	1575
406.740	2598
406.818	1903
406.896	-218
406.974	3587
407.052	6437
407.130	39696
407.208	49685
407.285	10916
407.363	577
407.441	1579
407.519	809
407.596	1858
407.674	6889
407.752	27000
407.830	23059
407.907	14395
407.985	8130
408.063	2326
408.141	233
408.218	4701
408.296	11008
408.373	12239
408.451	4673
408.529	2270
408.606	383
408.684	1259
408.762	272
408.839	1046
408.917	244
408.994	1405
409.072	-463
409.149	1016
409.227	3577
409.304	5809
409.382	5338
409.459	6791
409.537	9919
409.614	8182
409.692	4358
409.769	5485
409.846	9398
409.924	13253
410.001	5250
410.079	3964
410.156	3398
410.233	3124
410.311	1888
410.388	1110
410.465	1344
410.543	873
410.620	2429
410.697	2655
410.775	347
410.852	748
410.929	2374
411.006	3866
411.083	1448
411.161	3000
411.238	2854
411.315	2020
411.392	1003
411.469	2224
411.547	902
411.624	-251
411.701	595
411.778	2036
411.855	3117
411.932	1838
412.009	16
412.086	1032
412.163	616
412.240	697
412.317	2041
412.394	1523
412.471	760
412.548	789
412.625	253
412.702	1209
412.779	1966
412.856	2028
412.933	-280
413.010	910
413.087	1521
413.164	14118
413.241	17514
413.318	3562
413.395	1967
413.471	3160
413.548	586
413.625	269
413.702	20
413.779	909
413.855	-28
413.932	397
414.009	-789
414.086	777
414.162	733
414.239	2404
414.316	13714
414.393	29579
414.469	8409
414.546	1679
414.623	-925
414.699	504
414.776	63
414.853	892
414.929	678
415.006	771
415.082	673
415.159	104
415.236	-168
415.312	654
415.389	1676
415.465	2401
415.542	563
415.618	329
415.695	2114
415.771	1555
415.848	40
415.924	517
416.000	-215
416.077	1390
416.153	-1165
416.230	-531
416.306	-734
416.383	185
416.459	234
416.535	-115
416.612	-944
416.688	206
416.764	-245
416.841	-976
416.917	-1117
416.993	221
417.069	676
417.146	1531
417.222	2115
417.298	1365
417.374	-933
417.451	1058
417.527	1145
417.603	1997
417.679	938
417.755	882
417.831	-1240
417.908	198
417.984	-258
418.060	-70
418.136	2423
418.212	4323
418.288	1487
418.364	1206
418.440	-258
418.516	2456
418.592	1367
418.668	5166
418.744	6762
418.820	5404
418.896	756
418.972	47
419.048	82
419.124	4461
419.200	1312
419.276	832
419.352	-1042
419.428	895
419.504	23
419.579	1260
419.655	478
419.731	2164
419.807	5955
419.883	9341
419.959	6085
420.034	1185
420.110	4159
420.186	18707
420.262	14761
420.337	1806
420.413	854
420.489	915
420.565	746
420.640	951
420.716	1664
420.792	483
420.867	2125
420.943	1468
421.019	1425
421.094	1705
421.170	1397
421.245	1102
421.321	1695
421.397	1881
421.472	5753
421.548	15769
421.623	10615
421.699	4672
421.774	4076
421.850	3776
421.925	6062
422.001	6391
422.076	6997
422.152	8250
422.227	12782
422.302	18209
422.378	26829
422.453	52217
422.529	121746
422.604	270392
422.679	350856
422.755	275250
422.830	128853
422.905	55725
422.981	29374
423.056	20008
423.131	14021
423.207	10396
423.282	8194
423.357	11049
423.432	8177
423.508	12889
423.583	14508
423.658	8989
423.733	3205
423.808	4342
423.883	4209
423.959	5540
424.034	4467
424.109	4623
424.184	1087
424.259	1733
424.334	587
424.409	1010
424.484	481
424.559	1893
424.634	896
424.709	1655
424.784	1512
424.859	1440
424.934	2782
425.009	13842
425.084	20235
425.159	7313
425.234	787
425.309	388
425.384	1512
425.459	2148
425.534	1604
425.609	903
425.683	-315
425.758	920
425.833	689
425.908	1678
425.983	7728
426.058	20491
426.132	7574
426.207	1276
426.282	1862
426.357	1328
426.431	-301
426.506	1466
426.581	1933
426.655	1612
426.730	-481
426.805	479
426.879	253
426.954	1273
427.029	2633
427.103	23411
427.178	52580
427.253	22477
427.327	1635
427.402	1050
427.476	3170
427.551	1699
427.625	-34
427.700	316
427.774	-822
427.849	1322
427.923	-335
427.998	624
428.072	1425
428.147	5172
428.221	27313
428.296	82099
428.370	43523
428.444	4892
428.519	2517
428.593	4964
428.667	3568
428.742	5204
428.816	10381
428.890	49682
428.965	75172
429.039	19362
429.113	5597
429.188	2560
429.262	174
429.336	4062
429.410	9105
429.485	5638
429.559	3613
429.633	2886
429.707	609
429.781	8271
429.855	49309
429.930	74466
430.004	25491
430.078	25407
430.152	36298
430.226	101523
430.300	102110
430.374	15911
430.448	3881
430.522	10018
430.596	22844
430.670	24657
430.744	83045
430.818	106322
430.892	17788
430.966	2133
431.040	1207
431.114	84
431.188	-599
431.262	373
431.336	-195
431.410	2990
431.484	6017
431.557	4935
431.631	-272
431.705	2244
431.779	17770
431.853	71936
431.927	49711
432.000	4925
432.074	486
432.148	1234
432.222	49
432.295	696
432.369	69
432.443	2796
432.516	21127
432.590	51498
432.664	16955
432.737	1036
432.811	-426
432.885	-986
432.958	-443
433.032	-315
433.106	-936
433.179	590
433.253	-478
433.326	563
433.400	-1333
433.473	130
433.547	-1077
433.620	643
433.694	622
433.767	1203
433.841	-1022
433.914	202
433.988	-677
434.061	5
434.134	-693
434.208	-671
434.281	-1105
434.355	-37
434.428	-418
434.501	-327
434.575	-205
434.648	-467
434.721	-1306
434.795	-1219
434.868	-1153
434.941	-445
435.014	-1611
435.088	-226
435.161	-658
435.234	1402
435.307	778
435.381	1692
435.454	1455
435.527	4550
435.600	4304
435.673	3737
435.746	1673
435.819	1006
435.892	10
435.966	84
436.039	-793
436.112	292
436.185	-446
436.258	-373
436.331	-1899
436.404	-788
436.477	-1014
436.550	-613
436.623	90
436.696	-493
436.769	-567
436.842	157
436.915	-22
436.987	128
437.060	-327
437.133	-710
437.206	-1278
437.279	762
437.352	-1471
437.425	-48
437.498	-105
437.570	2197
437.643	1331
437.716	112
437.789	-714
437.861	642
437.934	1103
438.007	668
438.080	-1067
438.152	516
438.225	2456
438.298	31497
438.370	74336
438.443	26459
438.516	2479
438.588	57
438.661	-1178
438.734	-92
438.806	-672
438.879	247
438.951	-965
439.024	246
439.096	-1313
439.169	508
439.241	-1639
439.314	-161
439.386	-533
439.459	545
439.531	499
439.604	572
439.676	-617
439.749	-451
439.821	-1040
439.893	286
439.966	-838
440.038	27
440.110	-726
440.183	97
440.255	-725
440.327	1401
440.400	11323
440.472	45543
440.544	26317
440.617	1492
440.689	1230
440.761	1337
440.833	1289
440.905	908
440.978	-1213
441.050	-102
441.122	-246
441.194	-447
441.266	-892
441.338	60
441.411	1494
441.483	14263
441.555	18349
441.627	3037
441.699	524
441.771	1141
441.843	-590
441.915	481
441.987	-802
442.059	-268
442.131	240
442.203	1143
442.275	687
442.347	3092
442.419	6311
442.491	42792
442.563	99186
442.635	37003
442.706	9100
442.778	5718
442.850	664
442.922	568
442.994	511
443.066	2347
443.137	887
443.209	1807
443.281	2329
443.353	10236
443.425	50049
443.496	171293
443.568	163475
443.640	58048
443.711	8577
443.783	2871
443.855	515
443.926	1544
443.998	380
444.070	1185
444.141	-56
444.213	1260
444.285	1920
444.356	1756
444.428	533
444.499	862
444.571	71
444.642	477
444.714	275
444.785	2290
444.857	1188
444.928	3453
445.000	1536
445.071	3530
445.143	7693
445.214	7873
445.285	8080
445.357	25804
445.428	106433
445.500	228307
445.571	144591
445.642	81356
445.714	24076
445.785	12940
445.856	5689
445.928	4214
445.999	1691
446.070	1952
446.141	3391
446.213	6774
446.284	2739
446.355	1401
446.426	481
446.497	2116
446.569	614
446.640	2078
446.711	1712
446.782	203
446.853	-476
446.924	129
446.995	-10
447.066	1323
447.138	181
447.209	599
447.280	-339
447.351	-491
447.422	-1093
447.493	-20
447.564	505
447.635	827
447.706	-1091
447.777	-891
447.847	-935
447.918	-436
447.989	107
448.060	617
448.131	1375
448.202	2557
448.273	648
448.344	597
448.414	-82
448.485	-85
448.556	-791
448.627	-571
448.698	-190
448.768	-727
448.839	-1482
448.910	474
448.981	-102
449.051	819
449.122	-1382
449.193	-592
449.263	-1257
449.334	-656
449.405	-518
449.475	2973
449.546	1046
449.616	850
449.687	-141
449.758	100
449.828	-1481
449.899	390
449.969	-1457
450.040	-1075
450.110	-1286
450.181	775
450.251	853
450.322	14
450.392	-215
450.463	-146
450.533	-697
450.604	-79
450.674	-1736
450.744	536
450.815	-1340
450.885	-480
450.955	-1230
451.026	-350
451.096	-1602
451.166	134
451.237	1126
451.307	3776
451.377	1323
451.447	-713
451.518	-1107
451.588	-550
451.658	-524
451.728	746
451.799	3404
451.869	4050
451.939	-122
452.009	-331
452.079	-1015
452.149	426
452.219	-384
452.289	5487
452.360	2787
452.430	-382
452.500	-598
452.570	1002
452.640	3130
452.710	11886
452.780	12564
452.850	7332
452.920	4041
452.990	1431
453.060	-323
453.129	1173
453.199	941
453.269	6927
453.339	13361
453.409	19832
453.479	19038
453.549	30061
453.619	29445
453.688	9762
453.758	765
453.828	78
453.898	-665
453.968	-22
454.037	-1159
454.087	-934
454.107	-851
454.168	-1250
454.177	-1321
454.247	-282
454.249	-313
454.316	-1415
454.330	-1167
454.386	-281
454.411	217
454.456	1010
454.492	2277
454.525	3391
454.574	1288
454.595	389
454.655	-60
454.665	-142
454.734	-680
454.736	-629
454.804	649
454.817	1241
454.873	3594
454.898	4037
454.943	4840
454.979	2618
455.013	602
455.060	538
455.082	558
455.141	-263
455.152	-404
455.221	3622
455.222	3686
455.291	6392
455.303	6683
455.360	7680
455.384	10298
455.430	14192
455.465	9908
455.499	6139
455.546	4189
455.569	3255
455.627	2203
455.638	2013
455.707	-468
455.708	-460
455.777	-273
455.789	-309
455.846	-678
455.869	-459
455.916	14
455.950	-151
455.985	-405
456.031	-331
456.054	-237
456.112	-730
456.124	-833
456.193	488
456.193	480
456.262	-897
456.274	-608
456.332	620
456.355	69
456.401	-838
456.436	-193
456.470	284
456.516	-175
456.540	-360
456.597	-71
456.609	-32
456.678	-408
456.678	-417
456.747	-331
456.759	-384
456.817	-614
456.840	-539
456.886	-476
456.920	-420
456.955	-314
457.001	195
457.024	420
457.082	-26
457.093	-84
457.162	900
457.163	909
457.232	370
457.243	306
457.301	368
457.324	414
457.370	253
457.405	131
457.439	244
457.485	143
457.508	-23
457.566	525
457.577	683
457.646	1105
457.647	1122
457.715	2938
457.727	3285
457.784	4931
457.808	7668
457.853	11658
457.889	13129
457.922	14215
457.969	9339
457.991	7918
458.050	7796
458.060	7798
458.129	18864
458.130	19076
458.198	22880
458.211	19826
458.267	8788
458.292	6061
458.336	2798
458.372	3308
458.405	4849
458.453	7072
458.474	8037
458.533	14988
458.543	15658
458.611	31995
458.614	31905
458.680	21756
458.694	17244
458.749	4948
458.775	3679
458.818	1797
458.855	1343
458.887	1059
458.936	1089
458.955	1107
459.016	261
459.024	178
459.093	1383
459.097	1362
459.162	482
459.177	595
459.230	1330
459.257	1397
459.299	1364
459.338	1461
459.368	1313
459.418	819
459.437	720
459.499	801
459.505	826
459.574	667
459.579	693
459.643	916
459.659	902
459.711	695
459.740	736
459.780	950
459.820	611
459.849	251
459.900	922
459.917	1206
459.981	1089
459.986	1056
460.054	1386
460.061	1357
460.123	1082
460.141	1150
460.191	1816
460.222	2135
460.260	2412
460.302	3060
460.328	3057
460.382	1862
460.397	1665
460.462	1978
460.465	2078
460.534	4085
460.543	4355
460.602	9365
460.623	11532
460.671	16869
460.703	23822
460.739	22841
460.783	16623
460.808	15180
460.864	4792
460.876	3347
460.944	1299
460.945	1271
461.013	1450
461.024	1372
461.081	1066
461.104	1283
461.150	1479
461.184	1054
461.218	1029
461.264	1585
461.286	1532
461.345	942
461.355	920
461.423	1330
461.425	1316
461.491	987
461.505	1166
461.559	2499
461.585	2837
461.628	3489
461.665	4684
461.696	4932
461.745	5515
461.764	5383
461.825	3157
461.832	3030
461.901	1192
461.905	1203
461.969	1784
461.985	1710
462.037	1472
462.065	1694
462.105	1826
462.145	1411
462.173	1623
462.225	2523
462.241	2733
462.305	3595
462.310	3525
462.378	3182
462.385	2927
462.446	1682
462.465	1567
462.514	1798
462.545	1793
462.582	1269
462.625	1004
462.650	1256
462.705	1631
462.718	1581
462.785	1554
462.786	1566
462.854	1816
462.865	1924
462.922	2396
462.945	2475
462.990	2005
463.025	1565
463.058	1398
463.104	1370
463.126	1452
463.184	1544
463.194	1605
463.262	1858
463.264	1882
463.330	1748
463.344	1642
463.398	1942
463.424	2062
463.466	1787
463.504	1828
463.533	2218
463.583	2243
463.601	2152
463.663	2145
463.669	2155
463.737	2451
463.743	2453
463.805	3478
463.823	3864
463.873	5425
463.903	6286
463.940	5719
463.982	5450
464.008	4844
464.062	2678
464.076	2502
464.142	1804
464.144	1807
464.211	1785
464.221	1845
464.279	1962
464.301	1890
464.347	1678
464.381	1683
464.414	1986
464.461	2366
464.482	2518
464.540	2950
464.550	2819
464.617	1555
464.620	1519
464.685	3227
464.699	3540
464.753	3738
464.779	3973
464.820	4437
464.859	4772
464.888	4502
464.938	3963
464.956	3977
465.018	3953
465.023	3949
465.091	3774
465.098	3747
465.158	3289
465.177	3213
465.226	3721
465.257	3907
465.293	3741
465.336	3716
465.361	4168
465.416	4968
465.428	5041
465.495	5547
465.496	5570
465.563	7577
465.575	7962
465.631	7813
465.654	7792
465.698	6105
465.734	4413
465.765	4243
465.813	3793
465.833	3651
465.893	3678
465.900	3698
465.968	3665
465.972	3663
466.035	3231
466.052	3070
466.102	3398
466.131	3663
466.170	3264
466.210	2677
466.237	2919
466.290	3477
466.304	3586
466.369	4034
466.372	4032
466.439	3729
466.449	3663
466.506	4092
466.528	4291
466.573	5822
466.607	6909
466.641	8481
466.687	10717
466.708	11100
466.766	12114
466.775	11410
466.842	5975
466.845	5701
466.909	4729
466.925	4551
466.977	4308
467.004	4140
467.044	4760
467.083	5398
467.111	5913
467.163	6838
467.178	6887
467.242	7050
467.245	7046
467.312	6692
467.321	6634
467.379	6265
467.400	6113
467.446	5853
467.480	5646
467.559	5837
467.638	5246
467.717	5433
467.796	6732
467.875	6130
467.955	5749
468.034	8418
468.113	12254
468.192	15430
468.271	5955
468.350	5422
468.429	8381
468.508	7470
468.588	6788
468.667	4836
468.746	4286
468.825	4814
468.904	5573
468.983	4798
469.062	6973
469.141	7082
469.220	4764
469.299	6002
469.378	5686
469.456	7155
469.535	6722
469.614	5702
469.693	6013
469.772	6036
469.851	8221
469.930	5317
470.009	5680
470.088	4702
470.166	6240
470.245	6655
470.324	6979
470.403	6243
470.482	6329
470.560	4482
470.639	5484
470.718	6522
470.797	4702
470.875	6985
470.954	7803
471.033	6575
471.111	4465
471.190	4875
471.269	3977
471.347	4492
471.426	4831
471.505	4578
471.583	5860
471.662	6460
471.740	4725
471.819	4393
471.898	4082
471.976	6113
472.055	4946
472.133	5583
472.212	5827
472.290	5471
472.369	3976
472.447	5099
472.526	3487
472.604	5225
472.683	6748
472.761	6277
472.839	4289
472.918	4392
472.996	4767
473.075	4217
473.153	4053
473.231	3885
473.310	5157
473.388	4759
473.466	5046
473.545	5929
473.623	6867
473.701	5720
473.780	5454
473.858	5121
473.936	6377
474.014	4327
474.093	5456
474.171	6454
474.249	6141
474.327	4473
474.405	3844
474.484	4536
474.562	4639
474.640	4526
474.718	3689
474.796	4294
474.874	4028
474.952	3544
475.030	3301
475.108	4328
475.187	5900
475.265	10440
475.343	18083
475.421	18448
475.499	4416
475.577	4358
475.655	6002
475.733	8147
475.811	10988
475.889	9791
475.966	7805
476.044	6669
476.122	12629
476.200	16613
476.278	9241
476.356	4188
476.434	5652
476.512	10583
476.590	14965
476.667	8707
476.745	3862
476.823	4760
476.901	3995
476.979	3641
477.056	3620
477.134	4354
477.212	3141
477.290	3819
477.367	4283
477.445	3999
477.523	2909
477.601	2727
477.678	4229
477.756	3809
477.834	4565
477.911	3634
477.989	4529
478.066	3451
478.144	6260
478.222	13320
478.299	26142
478.377	16887
478.454	3706
478.532	4105
478.609	2701
478.687	3043
478.764	2929
478.842	4161
478.919	4105
478.997	3623
479.074	3500
479.152	2764
479.229	3699
479.307	2950
479.384	2621
479.461	3228
479.539	3097
479.616	3797
479.694	2787
479.771	3128
479.848	3501
479.926	3069
480.003	5270
480.080	4275
480.157	2237
480.235	2133
480.312	3283
480.389	2761
480.467	4361
480.544	4806
480.621	3613
480.698	3790
480.775	4048
480.853	3673
480.930	3665
481.007	3152
481.084	3024
481.161	4315
481.238	3798
481.315	3312
481.392	2646
481.470	2075
481.547	3229
481.624	2882
481.701	3381
481.778	3066
481.855	3515
481.932	4391
482.009	7077
482.086	5472
482.163	6289
482.240	17995
482.317	35097
482.393	17217
482.470	3669
482.547	3296
482.624	3120
482.701	3272
482.778	3312
482.855	2778
482.932	3389
483.009	2194
483.085	4076
483.162	3531
483.239	3846
483.316	3416
483.393	3569
483.469	4145
483.546	3540
483.623	2986
483.699	2944
483.776	2683
483.853	3661
483.930	5012
484.006	8932
484.083	16660
484.160	15255
484.236	24611
484.313	17218
484.389	12081
484.466	11961
484.543	11104
484.619	11742
484.696	12850
484.772	12119
484.849	11060
484.925	10595
485.002	9970
485.078	10607
485.155	9947
485.231	9663
485.308	9509
485.384	8852
485.461	11027
485.537	13738
485.614	13384
485.690	9116
485.766	8977
485.843	10090
485.919	12335
485.995	11973
486.072	8268
486.148	8249
486.224	8794
486.301	8840
486.377	9387
486.453	9290
486.530	10962
486.606	14238
486.682	13967
486.758	14666
486.835	13814
486.911	13148
486.987	18640
487.063	23338
487.139	27712
487.215	19624
487.292	11742
487.368	10080
487.444	10453
487.520	12117
487.596	13575
487.672	28511
487.748	60420
487.824	75461
487.900	20727
487.976	11397
488.052	9710
488.128	10475
488.204	8070
488.280	9194
488.356	10065
488.432	14069
488.508	17732
488.584	9402
488.660	8646
488.736	8287
488.812	8360
488.888	11663
488.964	15920
489.039	30621
489.115	39299
489.191	19018
489.267	7943
489.343	8039
489.418	7095
489.494	8049
489.570	5300
489.646	8694
489.722	6817
489.797	6983
489.873	9857
489.949	14419
490.024	10820
490.100	6714
490.176	6668
490.251	7652
490.327	9945
490.403	5840
490.478	6088
490.554	5836
490.629	4917
490.705	5518
490.781	6728
490.856	5907
490.932	6630
491.007	6613
491.083	5637
491.158	5331
491.234	7231
491.309	11476
491.385	9326
491.460	4834
491.536	6783
491.611	5187
491.686	7105
491.762	10296
491.837	17865
491.913	29497
491.988	39421
492.063	42301
492.139	9876
492.214	6538
492.289	5987
492.365	5275
492.440	6358
492.515	5591
492.590	4746
492.666	5034
492.741	6334
492.816	7590
492.891	4528
492.967	5548
493.042	4475
493.117	4450
493.192	6225
493.267	12862
493.342	31525
493.418	33990
493.493	6310
493.568	3579
493.643	4295
493.718	5297
493.793	7109
493.868	8652
493.943	5332
494.018	4362
494.093	3808
494.168	4601
494.243	4377
494.318	3755
494.393	3359
494.468	3365
494.543	4030
494.618	4795
494.693	3409
494.768	3593
494.842	3725
494.917	4084
494.992	4153
495.067	3636
495.142	3712
495.217	4081
495.292	3853
495.366	4710
495.441	4414
495.516	6816
495.591	12889
495.665	43222
495.740	80636
495.815	21648
495.890	4879
495.964	2630
496.039	5626
496.114	3809
496.188	4285
496.263	4805
496.338	4336
496.412	4348
496.487	5616
496.561	5374
496.636	5466
496.710	4594
496.785	4838
496.860	4707
496.934	3223
497.009	3887
497.083	4249
497.158	4512
497.232	4799
497.307	5207
497.381	4534
497.455	4702
497.530	5929
497.604	4785
497.679	5694
497.753	7291
497.827	8055
497.902	6820
497.976	10463
498.050	29510
498.125	81855
498.199	64795
498.273	12822
498.348	9805
498.422	8248
498.496	7598
498.570	6361
498.645	4250
498.719	3690
498.793	5676
498.867	8210
498.941	12675
499.016	40170
499.090	77400
499.164	21026
499.238	4454
499.312	5120
499.386	5915
499.460	5486
499.534	3845
499.609	5008
499.683	6512
499.757	7163
499.831	19645
499.905	55484
499.979	40089
500.053	7671
500.127	9161
500.201	7682
500.275	5341
500.349	4140
500.422	5330
500.496	8688
500.570	19726
500.644	36046
500.718	50587
500.792	8687
500.866	4543
500.940	5756
501.013	4282
501.087	5232
501.161	9808
501.235	9377
501.309	23611
501.382	49314
501.456	34472
501.530	9934
501.603	14163
501.677	5174
501.751	2952
501.825	5443
501.898	8669
501.972	18211
502.046	9485
502.119	5029
502.193	11173
502.266	19840
502.340	8924
502.413	10681
502.487	17106
502.561	7643
502.634	4564
502.708	3665
502.781	2833
502.855	2797
502.928	2140
503.002	2938
503.075	1584
503.149	2421
503.222	3062
503.295	2064
503.369	4397
503.442	5086
503.516	17586
503.589	32397
503.662	18225
503.736	7806
503.809	16843
503.882	12849
503.956	23328
504.029	23052
504.102	34929
504.175	41465
504.249	11882
504.322	5255
504.395	3857
504.468	3911
504.542	2916
504.615	2037
504.688	3298
504.761	1419
504.834	4425
504.907	4790
504.980	7303
505.053	3738
505.127	3297
505.200	6680
505.273	3382
505.346	2336
505.419	1761
505.492	3312
505.565	1417
505.638	2433
505.711	2271
505.784	1137
505.857	1243
505.930	3626
506.003	1183
506.076	3049
506.149	2644
506.221	1422
506.294	5060
506.367	9123
506.440	26765
506.513	10690
506.586	4789
506.659	2469
506.731	3094
506.804	3773
506.877	4425
506.950	2513
507.022	3310
507.095	1784
507.168	3448
507.241	2950
507.313	1926
507.386	2102
507.459	4579
507.531	2187
507.604	1639
507.677	2718
507.749	1429
507.822	4633
507.894	9040
507.967	10053
508.040	4746
508.112	5454
508.185	4025
508.257	3812
508.330	7649
508.402	4590
508.475	4729
508.547	4261
508.620	3500
508.692	5443
508.765	4824
508.837	3104
508.909	3265
508.982	3586
509.054	3796
509.127	3089
509.199	2910
509.271	2079
509.344	2869
509.416	2862
509.488	2815
509.560	3872
509.633	3644
509.705	4384
509.777	3619
509.849	5952
509.922	2886
509.994	3159
510.066	4656
510.138	4020
510.210	9993
510.283	6304
510.355	6544
510.427	6698
510.499	5183
510.571	5086
510.643	5067
510.715	8456
510.787	4979
510.859	5059
510.931	5961
511.003	7506
511.076	6901
511.148	3769
511.219	4619
511.291	7185
511.363	6346
511.435	3794
511.507	2831
511.579	4956
511.651	5753
511.723	4150
511.795	3577
511.867	3606
511.939	5067
512.010	6705
512.082	5638
512.154	3296
512.226	4848
512.298	8241
512.369	9506
512.441	7848
512.513	7254
512.585	4527
512.656	7211
512.728	5112
512.800	3988
512.871	4774
512.943	4460
513.015	3619
513.086	5185
513.158	5572
513.230	4798
513.301	7065
513.373	9346
513.444	4971
513.516	3704
513.588	4766
513.659	5429
513.731	6019
513.802	4252
513.874	11739
513.945	15939
514.016	4480
514.088	4228
514.159	3273
514.231	7860
514.302	8008
514.374	7014
514.445	4579
514.516	10007
514.588	4575
514.659	4562
514.730	6382
514.802	6630
514.873	3842
514.944	6569
515.016	6361
515.087	6178
515.158	6644
515.229	7551
515.301	3835
515.372	5471
515.443	2886
515.514	3655
515.585	2246
515.656	4872
515.728	4428
515.799	3089
515.870	4816
515.941	4768
516.012	3803
516.083	7078
516.154	6847
516.225	9258
516.296	8573
516.367	6022
516.438	6486
516.509	8282
516.580	11585
516.651	41623
516.722	100247
516.793	36343
516.864	9855
516.935	9326
517.006	9943
517.077	15155
517.148	39471
517.219	116489
517.289	122247
517.360	31706
517.431	11224
517.502	5425
517.573	6156
517.643	6145
517.714	7279
517.785	6804
517.856	6291
517.926	7450
517.997	8918
518.068	8638
518.138	12689
518.209	22556
518.280	93925
518.350	235799
518.421	58936
518.492	9952
518.562	7580
518.633	8829
518.703	8741
518.774	25173
518.845	59250
518.915	46288
518.986	12755
519.056	10465
519.127	16168
519.197	22666
519.268	32672
519.338	16125
519.408	6864
519.479	10700
519.549	6260
519.620	5574
519.690	5379
519.760	3605
519.831	4261
519.901	4001
519.971	3648
520.042	3100
520.112	4009
520.182	6848
520.253	5997
520.323	3850
520.393	3905
520.463	7046
520.534	2286
520.604	8820
520.674	5522
520.744	4602
520.814	8333
520.885	8550
520.955	14910
521.025	33419
521.095	8925
521.165	4835
521.235	3721
521.305	2636
521.375	3945
521.445	5121
521.515	4749
521.585	6232
521.655	3600
521.725	4869
521.795	3997
521.865	1464
521.935	6599
522.005	2802
522.075	2784
522.145	4586
522.215	2448
522.285	5739
522.355	6429
522.424	9297
522.494	7732
522.564	6855
522.634	17509
522.704	41284
522.774	10748
522.843	4280
522.913	4494
522.983	4985
523.053	3075
523.122	3940
523.192	7085
523.262	24555
523.331	14709
523.401	4505
523.471	3920
523.540	3490
523.610	2004
523.680	2406
523.749	2958
523.819	4442
523.888	2453
523.958	1806
524.027	2779
524.097	3181
524.166	3156
524.236	2339
524.305	5281
524.375	2034
524.444	2048
524.514	4412
524.583	2253
524.653	3157
524.722	3518
524.791	1895
524.861	3977
524.930	1655
524.999	2015
525.069	4504
525.138	1811
525.207	3171
525.277	3924
525.346	2887
525.415	3827
525.484	4075
525.554	3943
525.623	4191
525.692	4902
525.761	4453
525.830	6278
525.900	5917
525.969	10293
526.038	19250
526.107	46229
526.176	117712
526.245	75594
526.314	27645
526.383	63294
526.452	76044
526.522	141754
526.591	102768
526.660	24156
526.729	12085
526.797	17798
526.867	49997
526.935	182012
527.004	282056
527.073	115262
527.142	9425
527.211	5415
527.280	6577
527.349	4909
527.418	1784
527.487	4540
527.555	2937
527.624	2192
527.693	916
527.762	3264
527.831	559
527.899	2044
527.968	2157
528.037	955
528.106	4123
528.174	7396
528.243	4886
528.312	7548
528.380	6714
528.449	1867
528.518	3459
528.586	249
528.655	2912
528.723	1801
528.792	1794
528.861	1384
528.929	514
528.998	3519
529.066	1883
529.135	2850
529.203	1757
529.272	1013
529.340	2972
529.409	3658
529.477	1736
529.545	2734
529.614	5164
529.682	2787
529.751	3882
529.819	6433
529.887	3179
529.956	2693
530.024	4158
530.092	2491
530.161	4634
530.229	5518
530.297	2526
530.365	3354
530.434	3470
530.502	2455
530.570	3506
530.638	1068
530.707	3445
530.775	3656
530.843	2613
530.911	2093
530.979	2724
531.047	3062
531.115	3155
531.183	2173
531.252	3289
531.320	2535
531.388	1899
531.456	3831
531.524	1508
531.592	4072
531.660	5708
531.728	1694
531.796	3152
531.864	3436
531.932	3321
532.000	2173
532.067	3809
532.135	3592
532.203	6361
532.271	4112
532.339	10752
532.407	18998
532.475	10195
532.542	6045
532.610	6533
532.678	10799
532.746	49844
532.814	79368
532.881	14495
532.949	4378
533.017	4460
533.084	3429
533.152	3312
533.220	4666
533.287	3229
533.355	3220
533.423	3538
533.490	2095
533.558	3890
533.625	2937
533.693	3111
533.761	4583
533.828	4469
533.896	3699
533.963	9820
534.031	11871
534.098	16578
534.166	5734
534.233	4426
534.300	5809
534.368	4879
534.435	4088
534.503	4969
534.570	4752
534.637	4403
534.705	4984
534.772	6733
534.840	14166
534.907	61841
534.974	55348
535.041	6833
535.109	4705
535.176	2889
535.243	4317
535.310	4557
535.378	3134
535.445	4078
535.512	3476
535.579	3566
535.646	1980
535.714	3328
535.781	5597
535.848	5388
535.915	5774
535.982	5221
536.049	4481
536.116	5490
536.183	4277
536.250	3808
536.317	4529
536.384	4600
536.451	7439
536.518	7306
536.585	4124
536.652	8028
536.719	9576
536.786	4647
536.853	4839
536.920	7956
536.987	12215
537.053	14255
537.120	51964
537.187	28843
537.254	4173
537.321	3921
537.388	5732
537.454	3025
537.521	3173
537.588	3923
537.654	5660
537.721	5970
537.788	6409
537.855	3912
537.921	4917
537.988	3332
538.055	5068
538.121	4304
538.188	4216
538.254	6224
538.321	12257
538.388	7247
538.454	4064
538.521	4839
538.587	4134
538.654	3643
538.720	4102
538.787	4430
538.853	4257
538.920	4661
538.986	4508
539.053	3970
539.119	4313
539.185	5222
539.252	6978
539.318	7311
539.385	7149
539.451	6566
539.517	7040
539.583	8266
539.650	18114
539.716	29593
539.782	7553
539.849	4580
539.915	6192
539.981	5199
540.047	4831
540.114	4826
540.180	4735
540.246	4241
540.312	7888
540.378	13238
540.444	12760
540.510	19960
540.576	35296
540.643	9391
540.709	4098
540.775	5545
540.841	4133
540.907	6105
540.973	7389
541.039	8198
541.105	7140
541.171	4796
541.237	3625
541.303	5675
541.369	8085
541.435	8317
541.500	11511
541.566	5673
541.632	3892
541.698	4277
541.764	5002
541.830	3536
541.896	3869
541.961	5195
542.027	6026
542.093	5332
542.159	5126
542.224	4524
542.290	8392
542.356	11652
542.421	11140
542.487	6258
542.553	5355
542.618	4690
542.684	4473
542.750	4752
542.815	6837
542.881	10943
542.947	35080
543.012	18905
543.078	4159
543.143	3809
543.209	5357
543.274	4897
543.340	6918
543.405	16572
543.471	16814
543.536	5018
543.602	5495
543.667	3131
543.732	5646
543.798	3485
543.863	5324
543.928	3739
543.994	3667
544.059	4831
544.124	4809
544.190	4284
544.255	5553
544.320	4587
544.386	4846
544.451	7791
544.516	7124
544.581	8582
544.646	25962
544.712	26489
544.777	7017
544.842	5708
544.907	5343
544.972	4833
545.037	5753
545.102	5812
545.168	5314
545.233	6069
545.298	6635
545.363	6790
545.428	7328
545.493	16740
545.558	25756
545.623	9618
545.688	5772
545.753	5921
545.818	6630
545.883	7169
545.947	5921
546.012	7453
546.077	6821
546.142	7450
546.207	7197
546.272	9541
546.337	8892
546.401	9473
546.466	7979
546.531	7824
546.596	8343
546.661	8783
546.725	8961
546.790	9609
546.855	10529
546.919	10618
546.984	12254
547.049	14511
547.113	14950
547.178	14510
547.243	18416
547.307	20622
547.372	23158
547.436	21976
547.501	23568
547.565	25654
547.630	23716
547.695	22911
547.759	21258
547.823	22703
547.888	23432
547.952	23697
548.017	25056
548.081	26889
548.146	25983
548.210	26693
548.274	27124
548.339	26524
548.403	24327
548.468	22417
548.532	22668
548.596	23175
548.660	22231
548.725	26041
548.789	28390
548.853	28471
548.917	25970
548.982	25295
549.046	22960
549.110	19680
549.174	21584
549.238	24636
549.303	26263
549.367	27972
549.431	25631
549.495	24690
549.559	23478
549.623	30146
549.687	31217
549.751	34612
549.815	36436
549.879	36976
549.943	34498
550.007	38145
550.071	35486
550.135	34382
550.199	31021
550.263	29981
550.327	28819
550.391	29282
550.455	32525
550.519	34617
550.582	39331
550.646	44541
550.710	43555
550.774	41495
550.838	41677
550.901	42482
550.965	45464
551.029	44746
551.093	49325
551.156	53853
551.220	64502
551.284	68268
551.347	51168
551.411	51634
551.475	47350
551.538	44783
551.602	41478
551.666	39718
551.729	35787
551.793	36232
551.856	35312
551.920	34811
551.983	34455
552.047	33569
552.110	35564
552.174	34695
552.237	35408
552.301	31888
552.364	30671
552.428	29638
552.491	31263
552.554	32640
552.618	31174
552.681	32514
552.745	31223
552.808	36091
552.871	36980
552.934	33650
552.998	31814
553.061	30699
553.124	29716
553.187	30789
553.251	31360
553.314	32033
553.377	31169
553.440	37648
553.503	57421
553.567	58417
553.630	34587
553.693	34393
553.756	33834
553.819	32865
553.882	31155
553.945	31516
554.008	31238
554.071	30212
554.134	30937
554.197	29676
554.260	29450
554.323	30554
554.386	31495
554.449	31634
554.512	32210
554.575	29406
554.638	30217
554.701	29046
554.764	29388
554.827	27887
554.889	26474
554.952	25189
555.015	23361
555.078	24883
555.141	25965
555.203	25205
555.266	24838
555.329	25809
555.391	23685
555.454	23996
555.517	23309
555.580	22637
555.642	20454
555.705	21136
555.768	21335
555.830	20125
555.893	18778
555.955	19036
556.018	18011
556.080	18423
556.143	19150
556.206	19351
556.268	19488
556.330	18208
556.393	17880
556.455	17590
556.518	17654
556.580	17011
556.643	16095
556.705	16061
556.767	14576
556.830	15055
556.892	16836
556.955	18149
557.017	15496
557.079	14388
557.142	14462
557.204	15894
557.266	21534
557.328	16080
557.391	11888
557.453	11318
557.515	12122
557.577	13579
557.639	13751
557.701	11979
557.764	11135
557.826	12509
557.888	13206
557.950	13464
558.012	14659
558.074	20142
558.136	50283
558.198	89813
558.260	26333
558.322	14272
558.384	15257
558.446	16463
558.508	17493
558.570	21497
558.632	30422
558.694	39613
558.756	61348
558.818	209271
558.880	354416
558.942	94608
559.003	95223
559.065	35034
559.127	17734
559.189	18031
559.251	20865
559.312	34418
559.374	104134
559.436	260527
559.498	81569
559.559	18311
559.621	16661
559.683	22022
559.744	43224
559.806	147001
559.868	148083
559.929	22421
559.991	19307
560.052	39105
560.114	91895
560.176	46382
560.237	60931
560.299	71193
560.360	13508
560.422	8761
560.483	7154
560.545	6971
560.606	7055
560.667	6907
560.729	6197
560.790	6659
560.852	5359
560.913	5934
560.974	5794
561.036	5330
561.097	5829
561.158	6079
561.220	6401
561.281	5586
561.342	5978
561.403	7769
561.465	8670
561.526	19638
561.587	17158
561.648	6215
561.709	6196
561.771	5769
561.832	5465
561.893	5094
561.954	5138
562.015	5686
562.076	5180
562.137	6391
562.198	5080
562.259	5632
562.320	5095
562.381	5658
562.442	7429
562.503	5688
562.564	5431
562.625	4932
562.686	4429
562.747	5123
562.808	4858
562.869	4825
562.930	5551
562.991	5374
563.051	4636
563.112	5396
563.173	4450
563.234	4513
563.294	4731
563.355	5066
563.416	5316
563.477	4968
563.537	4390
563.598	5099
563.659	5428
563.720	4333
563.780	5271
563.841	5822
563.901	5005
563.962	4448
564.023	4843
564.083	4979
564.144	4652
564.204	3983
564.265	4862
564.325	5665
564.386	7965
564.446	6430
564.507	4328
564.567	4566
564.628	4197
564.688	4239
564.749	4027
564.809	5188
564.869	4668
564.930	3650
564.990	5580
565.050	4144
565.111	5380
565.171	4429
565.231	3892
565.292	5352
565.352	4343
565.412	4139
565.472	4648
565.532	4897
565.593	4819
565.653	4456
565.713	3744
565.773	5623
565.833	5507
565.893	6556
565.953	4005
566.013	4770
566.074	4605
566.134	5338
566.194	7647
566.254	7360
566.314	4494
566.374	4153
566.434	4664
566.494	4378
566.554	4714
566.614	4691
566.673	5444
566.733	4910
566.793	4816
566.853	4073
566.913	3976
566.973	5023
567.033	5189
567.092	4609
567.152	4571
567.212	5505
567.272	4850
567.331	4724
567.391	4927
567.451	6412
567.511	6493
567.570	5902
567.630	4612
567.690	4941
567.749	4894
567.809	4669
567.868	5595
567.928	6056
567.988	5458
568.047	5585
568.107	5663
568.166	8034
568.226	11030
568.285	12756
568.345	10282
568.404	7922
568.464	7574
568.523	6601
568.582	7053
568.642	7864
568.701	9830
568.761	14823
568.820	20279
568.879	17144
568.939	11046
568.998	8727
569.057	7090
569.116	6666
569.176	5514
569.235	5347
569.294	4829
569.353	4489
569.413	5255
569.472	4345
569.531	4421
569.590	4494
569.649	5184
569.708	3561
569.767	4498
569.827	4438
569.886	3831
569.945	3987
570.004	4257
570.063	4199
570.122	4671
570.181	5191
570.240	4369
570.299	4973
570.358	4660
570.417	4721
570.475	4495
570.534	4450
570.593	5267
570.652	4452
570.711	5108
570.770	5111
570.829	4494
570.887	4616
570.946	5259
571.005	3439
571.064	4148
571.122	4937
571.181	4490
571.240	3538
571.299	3619
571.357	4171
571.416	3690
571.475	4949
571.533	3854
571.592	3547
571.650	4043
571.709	4511
571.768	4218
571.826	4677
571.885	5278
571.943	4164
572.002	3462
572.060	4521
572.119	3206
572.177	3563
572.236	3168
572.294	4046
572.352	5012
572.411	3583
572.469	3673
572.528	3295
572.586	4328
572.644	4372
572.703	4490
572.761	3877
572.819	3199
572.877	4318
572.936	2914
572.994	3112
573.052	3447
573.110	2761
573.169	3841
573.227	2807
573.285	2975
573.343	3930
573.401	3240
573.459	3770
573.517	3325
573.576	2683
573.634	3935
573.692	3750
573.750	3139
573.808	4062
573.866	3375
573.924	4350
573.982	3735
574.040	3244
574.098	3681
574.155	2649
574.213	3265
574.271	3692
574.329	3575
574.387	2900
574.445	3097
574.503	3347
574.560	2406
574.618	2660
574.676	2081
574.734	3144
574.792	3341
574.849	3456
574.907	2361
574.965	2234
575.022	1858
575.080	2388
575.138	2281
575.195	3870
575.253	3147
575.311	2662
575.368	3041
575.426	2605
575.483	2903
575.541	2878
575.598	3682
575.656	2588
575.713	2827
575.771	3447
575.828	2406
575.886	2930
575.943	3108
576.001	2359
576.058	3467
576.115	2750
576.173	3521
576.230	3516
576.287	4692
576.345	3218
576.402	2909
576.459	3305
576.517	2157
576.574	3818
576.631	2579
576.688	2677
576.746	2433
576.803	3114
576.860	2643
576.917	3724
576.974	3039
577.031	3098
577.089	2502
577.146	3086
577.203	2899
577.260	2844
577.317	2445
577.374	3235
577.431	3188
577.488	2802
577.545	2052
577.602	3688
577.659	2531
577.716	3034
577.773	2367
577.830	2456
577.886	2822
577.943	2639
578.000	2255
578.057	3742
578.114	3512
578.171	3610
578.227	4441
578.284	3422
578.341	3208
578.398	2892
578.454	3145
578.511	2967
578.568	3103
578.625	2575
578.681	2964
578.738	2572
578.794	3197
578.851	3277
578.908	2677
578.964	2617
579.021	3065
579.077	2590
579.134	2834
579.190	2737
579.247	2685
579.303	2445
579.360	2549
579.416	2396
579.473	3039
579.529	2663
579.586	3710
579.642	2716
579.698	2695
579.755	3376
579.811	2815
579.867	2443
579.924	2715
579.980	2368
580.036	3794
580.093	4620
580.149	6897
580.205	5701
580.261	4332
580.317	3944
580.374	3857
580.430	2739
580.486	3121
580.542	2678
580.598	3246
580.619	3367
580.654	3580
580.692	2924
580.710	2601
580.765	3172
580.767	3189
580.823	2535
580.838	2636
580.879	2910
580.911	2870
580.935	2845
580.984	3187
580.991	3236
581.047	3234
581.057	3312
581.103	3648
581.130	3752
581.159	3871
581.203	3505
581.215	3405
581.270	3554
581.276	3469
581.326	2654
581.349	2887
581.382	3236
581.422	3750
581.438	3967
581.494	2587
581.494	2593
581.550	3194
581.567	3229
581.606	3349
581.640	3219
581.661	3125
581.713	3681
581.717	3725
581.773	3241
581.786	3213
581.829	3058
581.859	3380
581.885	3705
581.932	3576
581.940	3529
581.996	3282
582.004	3356
582.052	3925
582.077	3585
582.107	3095
582.150	3250
582.163	3316
582.219	3181
582.223	3170
582.274	3063
582.296	3510
582.330	4207
582.368	3491
582.386	3189
582.441	3165
582.441	3163
582.497	3836
582.514	3861
582.552	4035
582.587	3934
582.608	3893
582.659	3303
582.663	3238
582.719	3986
582.732	3796
582.774	3290
582.805	3355
582.830	3455
582.877	3457
582.885	3426
582.941	3891
582.950	3833
582.996	3596
583.023	4064
583.052	4704
583.095	4932
583.107	4959
583.162	5661
583.168	5691
583.218	5817
583.240	5164
583.273	4240
583.313	4055
583.328	4046
583.384	4735
583.385	4718
583.439	3909
583.458	3913
583.494	3942
583.531	3666
583.549	3631
583.603	3623
583.605	3618
583.660	4076
583.676	3981
583.715	3611
583.748	3856
583.770	4089
583.820	3764
583.825	3741
583.881	4251
583.893	4183
583.936	4031
583.965	4267
583.991	4265
584.038	4308
584.046	4370
584.101	4441
584.110	4469
584.156	4526
584.183	4301
584.211	4103
584.255	4828
584.266	4968
584.321	4248
584.328	4204
584.376	4035
584.400	4437
584.431	4900
584.472	4531
584.486	4465
584.541	5169
584.545	5170
584.596	4964
584.617	4848
584.651	5013
584.689	5484
584.706	5480
584.761	4694
584.762	4689
584.816	5113
584.834	5363
584.871	5471
584.906	5345
584.926	5497
584.978	5674
584.980	5677
585.035	6278
585.051	6383
585.090	6883
585.123	7171
585.145	7249
585.195	7980
585.200	8127
585.254	8857
585.267	9420
585.309	10899
585.340	11437
585.364	12107
585.412	13132
585.419	13329
585.473	15982
585.484	16760
585.528	21760
585.556	27139
585.583	39787
585.628	66531
585.637	77679
585.692	167560
585.700	178106
585.747	200711
585.772	179158
585.801	106944
585.845	31857
585.856	27098
585.910	14387
585.917	12904
585.965	10670
585.989	9718
586.019	9195
586.061	8425
586.074	8382
586.128	8588
586.133	8626
586.183	9045
586.205	9107
586.237	9319
586.277	9065
586.292	8888
586.346	8711
586.349	8678
586.401	8490
586.421	8609
586.455	8857
586.493	9214
586.509	9799
586.564	10846
586.565	10904
586.618	14438
586.637	14554
586.672	13115
586.709	12812
586.727	12980
586.781	12262
586.781	12273
586.835	9926
586.853	9286
586.889	8860
586.925	8688
586.944	8854
586.996	9315
586.998	9326
587.052	9376
587.068	9346
587.106	9954
587.140	10076
587.161	9787
587.212	9221
587.215	9270
587.269	10570
587.284	10693
587.323	10518
587.356	10817
587.377	11144
587.427	11602
587.431	11624
587.485	11477
587.499	11435
587.539	11775
587.571	11989
587.593	12085
587.643	12986
587.648	13108
587.702	12941
587.715	13141
587.755	14009
587.786	14288
587.810	14251
587.858	14438
587.864	14570
587.917	16088
587.930	16230
587.971	16590
588.001	17215
588.025	17706
588.073	18178
588.079	18412
588.133	20678
588.145	21269
588.187	22159
588.217	22585
588.241	24189
588.288	27077
588.295	27359
588.348	30590
588.360	31091
588.402	34283
588.431	36775
588.456	38867
588.503	43456
588.510	44403
588.564	52084
588.575	53915
588.617	61956
588.646	68573
588.671	76187
588.718	94032
588.725	98786
588.778	144463
588.789	157022
588.832	256057
588.861	337399
588.886	456226
588.932	706283
588.939	725938
588.993	781474
589.004	771487
589.047	484294
589.075	315512
589.100	235566
589.147	121636
589.154	116905
589.207	88285
589.218	83210
589.261	80877
589.290	80939
589.314	85807
589.361	99371
589.368	104968
589.421	160652
589.433	175475
589.475	306794
589.504	415843
589.528	522960
589.576	695514
589.582	675719
589.635	390610
589.647	336783
589.689	181872
589.718	89238
589.742	73538
589.790	46305
589.795	45276
589.849	36939
589.861	35109
589.902	32738
589.932	30775
589.955	28688
590.004	24291
590.009	24127
590.062	22523
590.075	21993
590.115	20847
590.146	20204
590.168	20045
590.218	19207
590.222	19174
590.275	18582
590.289	18347
590.328	18376
590.360	18290
590.381	18168
590.431	17876
590.435	17903
590.488	17552
590.503	17499
590.541	17612
590.574	17363
590.594	17225
590.645	16993
590.647	17051
590.700	17486
590.716	17511
590.753	17480
590.787	17564
590.806	17706
590.859	17704
590.859	17753
590.912	18023
590.930	18086
590.965	18130
591.001	18115
591.018	18127
591.071	17803
591.072	17753
591.124	17652
591.143	17473
591.177	17621
591.214	17771
591.230	18077
591.283	19035
591.285	19013
591.336	18195
591.356	17898
591.389	18073
591.427	18047
591.442	18016
591.495	17655
591.498	17589
591.547	17718
591.569	17720
591.600	17814
591.640	17719
591.653	17971
591.706	18993
591.711	19039
591.759	18722
591.782	18473
591.811	19349
591.853	20552
591.864	20449
591.917	19576
591.924	19393
591.969	19783
591.995	19919
592.022	19915
592.066	19820
592.075	20000
592.127	20663
592.137	20744
592.180	21205
592.208	21377
592.233	21150
592.279	20553
592.285	20667
592.338	21138
592.350	21191
592.390	20832
592.421	20448
592.443	20758
592.491	21259
592.495	21393
592.548	22417
592.562	22637
592.600	22190
592.633	21699
592.653	21749
592.704	21625
592.705	21748
592.775	21718
592.846	23014
592.916	22682
592.987	22288
593.058	24264
593.128	23472
593.199	24337
593.270	23632
593.341	23501
593.411	24150
593.482	25059
593.553	25590
593.623	25072
593.694	27665
593.764	26867
593.835	26996
593.906	25369
593.976	26777
594.047	27414
594.117	29326
594.188	30178
594.258	29322
594.329	28851
594.399	29981
594.470	30211
594.540	31873
594.611	30912
594.681	31779
594.751	31419
594.822	33485
594.892	33777
594.963	34924
595.033	36179
595.103	36546
595.174	37174
595.244	40153
595.314	41885
595.384	38635
595.455	40562
595.525	42289
595.595	42976
595.665	44020
595.736	41451
595.806	43049
595.876	43007
595.946	43114
596.016	44411
596.087	46585
596.157	45299
596.227	46107
596.297	48398
596.367	53106
596.437	55788
596.507	56828
596.577	58644
596.647	55820
596.717	57836
596.787	59973
596.857	59617
596.927	59682
596.997	59343
597.067	60241
597.137	62369
597.207	63065
597.277	61490
597.347	59946
597.417	57327
597.487	57754
597.557	59350
597.626	61503
597.696	62749
597.766	62711
597.836	61281
597.906	56170
597.975	54003
598.045	55507
598.115	57170
598.185	61189
598.254	68342
598.324	75044
598.394	75523
598.464	73353
598.533	71962
598.603	68019
598.672	64015
598.742	67049
598.812	66971
598.881	69094
598.951	68494
599.020	69005
599.090	71578
599.159	73259
599.229	69007
599.299	68154
599.368	69264
599.437	70554
599.507	64770
599.576	61763
599.646	61894
599.715	60447
599.785	60539
599.854	58147
599.924	58460
599.993	57292
600.062	58364
600.132	60041
600.201	63746
600.270	73174
600.340	78662
600.409	76098
600.478	76057
600.547	77769
600.617	71416
600.686	57532
600.755	50664
600.824	50111
600.894	48831
600.963	49552
601.032	48308
601.101	46956
601.170	45020
601.239	47000
601.308	52112
601.378	50012
601.447	45603
601.516	46478
601.585	52359
601.654	60878
601.723	50060
601.792	47507
601.861	48717
601.930	53079
601.999	53603
602.068	56830
602.137	68322
602.206	65024
602.275	53931
602.343	55568
602.412	54395
602.481	54359
602.550	54255
602.619	55762
602.688	57000
602.756	56413
602.825	57706
602.894	59947
602.963	59505
603.032	61601
603.100	59999
603.169	61508
603.238	61488
603.307	61449
603.375	61953
603.444	63672
603.513	63972
603.581	64640
603.650	66679
603.719	64520
603.787	64553
603.856	66163
603.924	67865
603.993	69691
604.061	73111
604.130	75836
604.198	77807
604.267	78615
604.335	80950
604.404	81756
604.472	83472
604.541	83478
604.609	84890
604.678	84922
604.746	84589
604.815	87719
604.883	89495
604.951	88759
605.020	90621
605.088	91296
605.156	93121
605.225	93341
605.293	94299
605.361	95679
605.429	94901
605.498	97555
605.566	100036
605.634	104402
605.702	109090
605.771	111321
605.839	111972
605.907	109528
605.975	105523
606.043	104075
606.111	101908
606.180	103903
606.248	101383
606.316	102186
606.384	100181
606.452	100541
606.520	103708
606.588	106332
606.656	108304
606.724	103539
606.792	97505
606.860	87883
606.928	80048
606.996	76469
607.064	75365
607.132	77744
607.200	82521
607.267	84050
607.335	85678
607.403	88677
607.471	85140
607.539	83564
607.607	84372
607.674	74821
607.742	74040
607.810	73411
607.878	73390
607.946	74119
608.013	78410
608.081	79702
608.149	80577
608.216	82430
608.284	86253
608.352	85120
608.419	84137
608.487	85219
608.555	82732
608.622	84469
608.690	89962
608.757	99128
608.825	101038
608.893	98887
608.960	93196
609.028	89705
609.095	92045
609.163	87956
609.230	77946
609.298	72140
609.365	75509
609.432	82814
609.500	88355
609.567	102589
609.635	118876
609.702	124133
609.769	117155
609.837	92268
609.904	78861
609.971	83979
610.039	92752
610.106	122765
610.173	227793
610.241	512039
610.308	299797
610.375	119964
610.442	89032
610.509	81686
610.577	82234
610.644	83971
610.711	85681
610.778	87888
610.845	91729
610.912	98523
610.980	103441
611.047	101867
611.114	101168
611.181	97217
611.248	94126
611.315	102521
611.382	103268
611.449	108317
611.516	110508
611.583	108197
611.650	108140
611.717	109650
611.784	111626
611.851	116064
611.918	123395
611.984	145132
612.051	202366
612.118	389144
612.185	887103
612.252	558601
612.319	170412
612.386	143607
612.452	130467
612.519	124997
612.586	124015
612.653	125335
612.719	128107
612.786	122872
612.853	113591
612.919	110710
612.986	114549
613.053	105880
613.120	99089
613.186	96363
613.253	98515
613.319	96937
613.386	98155
613.453	98449
613.519	100880
613.586	100874
613.652	103445
613.719	99812
613.785	101278
613.852	101111
613.918	99806
613.985	101882
614.051	106742
614.118	110837
614.184	105452
614.250	100246
614.317	102468
614.383	100024
614.449	102615
614.516	100662
614.582	102303
614.648	100073
614.715	99275
614.781	96191
614.847	96554
614.914	96693
614.980	94335
615.046	94116
615.112	96214
615.179	96083
615.245	98374
615.311	98397
615.377	100084
615.443	100793
615.509	99833
615.575	104780
615.642	102572
615.708	106867
615.774	110023
615.840	117963
615.906	126657
615.972	153857
616.038	226591
616.104	460465
616.170	1000135
616.236	828937
616.302	236887
616.368	182499
616.434	133384
616.500	123589
616.565	138621
616.631	174399
616.697	137680
616.763	145092
616.829	221651
616.895	394130
616.961	357784
617.026	146293
617.092	107969
617.158	103943
617.224	98703
617.289	93870
617.355	87516
617.421	86519
617.487	88066
617.552	82065
617.618	81248
617.684	81439
617.749	83966
617.815	78387
617.880	76663
617.946	77101
618.012	78894
618.077	80100
618.143	76413
618.208	77910
618.274	84510
618.339	85731
618.405	69980
618.470	70451
618.536	68697
618.601	69458
618.667	64698
618.732	60704
618.798	60459
618.863	59073
618.928	57994
618.994	60794
619.059	61091
619.124	63306
619.190	59821
619.255	57806
619.320	58080
619.386	59856
619.451	57433
619.516	56516
619.581	57050
619.647	59901
619.712	58786
619.777	56747
619.842	57048
619.907	58542
619.972	60196
620.038	58171
620.103	57457
620.168	56114
620.233	58379
620.298	57252
620.363	59216
620.428	60480
620.493	62306
620.558	62323
620.623	64103
620.688	64442
620.753	62988
620.818	64398
620.883	63839
620.948	63667
621.013	61546
621.078	62909
621.143	62132
621.207	65774
621.272	62921
621.337	62393
621.402	60383
621.467	62390
621.532	61329
621.596	61049
621.661	58496
621.726	58010
621.791	58798
621.855	58916
621.920	58822
621.985	59636
622.049	61545
622.114	60565
622.179	60985
622.243	62890
622.308	64929
622.373	68726
622.437	66082
622.502	62031
622.566	61927
622.631	60589
622.695	63530
622.760	62896
622.824	61805
622.889	62712
622.953	62790
623.018	69589
623.082	69662
623.147	65666
623.211	64675
623.276	64107
623.340	60746
623.404	59529
623.469	59391
623.533	61052
623.597	58043
623.662	58266
623.726	54284
623.790	50440
623.854	48264
623.919	50765
623.983	52119
624.047	52556
624.111	53181
624.176	53850
624.240	53908
624.304	57297
624.368	53672
624.432	53809
624.496	56008
624.560	59567
624.625	58554
624.689	58220
624.753	61382
624.817	58033
624.881	56554
624.945	51519
625.009	49324
625.073	49642
625.137	52674
625.201	55510
625.265	55284
625.329	52654
625.393	52707
625.456	53639
625.520	55082
625.584	56452
625.648	58388
625.712	63891
625.776	73798
625.839	73630
625.903	51565
625.967	43806
626.031	51623
626.095	64543
626.158	52795
626.222	39632
626.286	38360
626.349	36520
626.413	33319
626.477	34955
626.540	34017
626.604	33893
626.668	33296
626.731	33911
626.795	33225
626.858	33040
626.922	32630
626.986	31974
627.049	32047
627.113	34002
627.176	33040
627.240	31481
627.303	31042
627.366	32719
627.430	32219
627.493	32127
627.557	31199
627.620	32398
627.684	33205
627.747	34996
627.810	29957
627.874	28548
627.937	25721
628.000	29237
628.064	27541
628.127	23627
628.190	25004
628.253	23359
628.317	22623
628.380	21778
628.443	20971
628.506	21445
628.569	20494
628.632	18629
628.696	19614
628.759	19218
628.822	19044
628.885	18088
628.948	18280
629.011	18328
629.074	17474
629.137	16978
629.200	15925
629.263	17386
629.326	15391
629.389	16287
629.452	16629
629.515	16803
629.578	15655
629.641	17179
629.704	16102
629.767	16243
629.830	15780
629.892	14915
629.955	15268
630.018	17031
630.081	15167
630.144	17207
630.207	14009
630.269	16405
630.332	15244
630.395	15243
630.458	13886
630.520	13325
630.583	15311
630.646	14965
630.708	14377
630.771	14109
630.834	15679
630.896	14905
630.959	14854
631.021	15263
631.084	14203
631.146	15383
631.209	14977
631.272	14552
631.334	15493
631.397	14540
631.459	14398
631.522	16932
631.584	16208
631.646	17227
631.709	18327
631.771	18413
631.834	18007
631.896	17526
631.958	14762
632.021	15786
632.083	13360
632.145	15179
632.208	13700
632.270	14889
632.332	13805
632.395	13117
632.457	14684
632.519	13226
632.581	14546
632.643	12934
632.706	13880
632.768	12396
632.830	13644
632.892	13238
632.954	13530
633.016	14538
633.078	13241
633.141	13146
633.203	13618
633.265	14120
633.327	14159
633.389	12788
633.451	14782
633.513	13416
633.575	15344
633.637	13730
633.698	13838
633.760	14864
633.822	15003
633.884	15364
633.946	15273
634.008	15993
634.070	16050
634.132	17551
634.193	19012
634.255	20957
634.317	21162
634.379	21923
634.441	18939
634.502	16957
634.564	15546
634.626	13586
634.687	14215
634.749	13617
634.811	14336
634.873	13074
634.934	13034
634.996	14213
635.057	12892
635.119	12633
635.181	13851
635.242	13711
635.304	11765
635.365	15969
635.427	12278
635.488	13557
635.550	12253
635.611	13740
635.673	11315
635.734	15380
635.796	14420
635.857	17600
635.918	16593
635.980	19988
636.041	20520
636.102	22110
636.164	21612
636.225	22586
636.286	16925
636.348	16280
636.409	13782
636.470	13054
636.531	13878
636.593	12864
636.654	13150
636.715	10901
636.776	11463
636.838	11469
636.899	11478
636.960	11169
637.021	10500
637.082	10596
637.143	11172
637.204	9528
637.265	9429
637.326	11321
637.387	10930
637.448	10596
637.509	11224
637.570	10541
637.631	11147
637.692	9031
637.753	8890
637.814	9682
637.875	9862
637.936	10509
637.997	8672
638.058	8842
638.119	10811
638.179	10288
638.240	8715
638.301	9021
638.362	8835
638.423	8833
638.483	9859
638.544	7961
638.605	9291
638.666	8518
638.726	9748
638.787	9590
638.848	8281
638.908	9456
638.969	8123
639.030	7916
639.090	7119
639.151	7802
639.211	9023
639.272	10494
639.332	10108
639.393	9689
639.453	8860
639.514	10557
639.574	8809
639.635	7975
639.695	8183
639.756	7455
639.816	8618
639.877	8679
639.937	10396
639.997	10842
640.058	7009
640.118	7788
640.178	8701
640.239	7849
640.299	7453
640.359	7980
640.420	8767
640.480	9920
640.540	11965
640.600	10912
640.661	9992
640.721	7547
640.781	10828
640.841	7210
640.901	9194
640.961	8454
641.021	9372
641.082	8417
641.142	9321
641.202	9507
641.262	6881
641.322	8605
641.382	6522
641.442	8665
641.502	7209
641.562	8885
641.622	7521
641.682	8720
641.742	9264
641.802	8208
641.861	8013
641.921	8210
641.981	7592
642.041	7031
642.101	7486
642.161	6305
642.221	6455
642.280	6983
642.340	5770
642.400	6238
642.460	7509
642.519	7516
642.579	6784
642.639	7263
642.698	4599
642.758	9309
642.818	7500
642.877	6770
642.937	6978
642.997	8734
643.056	7879
643.116	6514
643.175	8529
643.235	8239
643.294	8324
643.354	9159
643.414	8924
643.473	10746
643.532	13174
643.592	19210
643.651	31923
643.711	57196
643.770	111364
643.830	271885
643.889	552292
643.948	138087
644.008	25339
644.067	15376
644.126	10591
644.186	9734
644.245	9575
644.304	6875
644.363	10053
644.423	6205
644.482	7911
644.541	8047
644.600	7772
644.659	11245
644.719	12357
644.778	22553
644.837	39399
644.896	83615
644.955	191065
645.014	60901
645.073	13222
645.132	9593
645.191	9372
645.250	8384
645.309	10516
645.368	10275
645.427	13036
645.486	22252
645.545	41677
645.604	11705
645.663	8539
645.722	6917
645.781	8620
645.840	10029
645.898	12317
645.957	20089
646.016	29192
646.075	54994
646.134	108904
646.192	291443
646.251	416930
646.310	65215
646.369	18541
646.427	14795
646.486	9871
646.545	8947
646.603	8335
646.662	8188
646.721	7650
646.779	6011
646.838	6356
646.896	10326
646.955	13805
647.014	23809
647.072	44423
647.131	126319
647.189	58826
647.248	9838
647.306	6699
647.365	6718
647.423	4013
647.481	7048
647.540	4266
647.598	5286
647.657	5224
647.715	6312
647.773	3800
647.832	5741
647.890	3778
647.948	4212
648.007	4437
648.065	4179
648.123	3938
648.181	6357
648.240	5098
648.298	4364
648.356	4157
648.414	5085
648.472	3771
648.531	4694
648.589	3044
648.647	3957
648.705	4193
648.763	3716
648.821	4510
648.879	4346
648.937	5660
648.995	7061
649.053	7962
649.111	14008
649.169	25740
649.227	47875
649.285	97122
649.343	282436
649.401	132500
649.459	19181
649.516	11315
649.574	7707
649.632	11018
649.690	11880
649.748	10515
649.806	15866
649.863	32029
649.921	89087
649.979	56855
650.037	8167
650.094	3419
650.152	4658
650.210	3750
650.268	4852
650.325	3584
650.383	3885
650.440	2567
650.498	3240
650.556	2344
650.613	2881
650.671	3335
650.728	3278
650.786	3275
650.843	4700
650.901	2815
650.958	3248
651.016	2930
651.073	2991
651.131	1877
651.188	1733
651.246	2957
651.303	1679
651.360	2488
651.418	2534
651.475	3215
651.532	1850
651.590	2146
651.647	2262
651.704	2003
651.762	1967
651.819	1973
651.876	2239
651.933	2289
651.990	2757
652.048	872
652.105	1258
652.162	2633
652.219	2308
652.276	2116
652.333	3151
652.390	835
652.448	2070
652.505	2038
652.562	1897
652.619	2347
652.676	3102
652.733	3408
652.790	1649
652.847	1052
652.904	1994
652.961	897
653.017	1538
653.074	2593
653.131	2235
653.188	1256
653.245	2401
653.302	1873
653.359	1750
653.415	2464
653.472	1595
653.529	2534
653.586	579
653.642	1867
653.699	3119
653.756	1359
653.813	1057
653.869	1991
653.926	1431
653.983	1249
654.039	1301
654.096	1952
654.152	3237
654.209	328
654.266	1999
654.322	881
654.379	2767
654.435	2886
654.492	2061
654.548	2110
654.605	3155
654.661	2589
654.717	1541
654.774	1866
654.830	1595
654.887	1344
654.943	2372
655.000	2336
655.056	1967
655.112	1846
655.168	1607
655.225	2160
655.281	2781
655.337	2081
655.394	2347
655.450	2561
655.506	2152
655.562	2412
655.618	3912
655.675	473
655.731	2013
655.787	1031
655.843	2518
655.899	1624
655.955	2300
656.011	1771
656.067	1514
656.123	1187
656.179	1229
656.235	2818
656.291	878
656.347	3258
656.403	1222
656.459	1267
656.515	2264
656.571	1436
656.627	2262
656.683	2200
656.739	1904
656.795	1459
656.850	1466
656.906	1851
656.962	2804
657.018	735
657.074	2710
657.129	3039
657.185	5570
657.241	12393
657.297	6793
657.352	2187
657.408	1343
657.464	2552
657.519	1770
657.575	1191
657.630	1819
657.686	909
657.742	811
657.797	654
657.853	1568
657.908	1982
657.964	1011
658.019	1755
658.075	1625
658.130	2039
658.186	1302
658.241	1439
658.297	728
658.352	843
658.407	2368
658.463	339
658.518	1659
658.573	1381
658.629	1149
658.684	1399
658.739	1474
658.795	906
658.850	1742
658.905	1051
658.960	1943
659.016	303
659.071	1716
659.126	1699
659.181	1838
659.236	2545
659.291	3218
659.346	1734
659.401	1368
659.457	2108
659.512	1170
659.567	2665
659.622	1582
659.677	1139
659.732	503
659.787	1417
659.842	1019
659.897	2106
659.952	1926
660.007	1331
660.061	1346
660.116	-453
660.171	1084
660.226	847
660.281	2284
660.336	262
660.391	2200
660.445	1109
660.500	1588
660.555	1350
660.610	1236
660.664	1364
660.719	1657
660.774	835
660.828	1343
660.883	1275
660.938	1891
660.992	467
661.047	1683
661.101	375
661.156	1772
661.211	562
661.265	1535
661.320	1319
661.374	812
661.429	1321
661.483	1508
661.538	38
661.592	1248
661.647	869
661.701	1573
661.755	928
661.810	1240
661.864	728
661.919	756
661.973	1283
662.027	1324
662.081	576
662.136	1015
662.190	1300
662.244	1355
662.299	914
662.353	1380
662.407	665
662.461	1253
662.515	777
662.569	943
662.624	1542
662.678	1032
662.732	868
662.786	1196
662.840	969
662.894	2036
662.948	330
663.002	1388
663.056	615
663.110	383
663.164	69
663.218	815
663.272	774
663.326	1245
663.380	1088
663.434	830
663.488	827
663.542	433
663.595	986
663.649	280
663.703	871
663.757	779
663.811	1171
663.864	1156
663.918	623
663.972	1357
664.026	673
664.079	949
664.133	1682
664.187	522
664.240	743
664.294	1980
664.348	1267
664.401	1053
664.455	1191
664.508	1435
664.562	685
664.615	1459
664.669	818
664.722	1180
664.776	394
664.829	1062
664.883	388
664.936	-72
664.990	827
665.043	880
665.097	734
665.150	1907
665.203	433
665.257	681
665.310	163
665.363	696
665.417	1434
665.470	1787
665.523	1539
665.576	1521
665.630	337
665.683	1119
665.736	1198
665.789	1131
665.842	607
665.895	1298
665.949	1107
666.002	589
666.055	654
666.108	1829
666.161	1339
666.214	773
666.267	1294
666.320	1987
666.373	1013
666.426	1164
666.479	756
666.532	622
666.585	749
666.638	1281
666.691	1077
666.744	2728
666.796	1164
666.849	1525
666.902	1855
666.955	1691
667.008	770
667.060	949
667.113	34
667.166	837
667.219	660
667.271	1533
667.324	952
667.377	1834
667.430	1129
667.482	1657
667.535	1210
667.587	1601
667.640	1839
667.693	1812
667.745	1137
667.798	2280
667.850	541
667.903	2180
667.955	1267
668.008	995
668.060	1543
668.113	1154
668.165	1601
668.218	1853
668.270	1553
668.322	1106
668.375	649
668.427	1858
668.479	1299
668.532	2061
668.584	1766
668.636	1670
668.689	1054
668.741	937
668.793	1322
668.845	1315
668.898	1220
668.950	726
669.002	771
669.054	902
669.106	403
669.158	1791
669.211	953
669.263	1088
669.315	1578
669.367	1857
669.419	1429
669.471	2660
669.523	1358
669.575	2562
669.627	959
669.679	1409
669.731	1120
669.783	1624
669.835	2515
669.886	1190
669.938	1130
669.990	2134
670.042	1875
670.094	2009
670.146	2586
670.197	1811
670.249	2861
670.301	3025
670.353	4833
670.404	7756
670.456	9317
670.508	16293
670.560	27379
670.611	48179
670.663	83939
670.715	196954
670.766	308129
670.818	94416
670.869	16018
670.921	8480
670.972	5896
671.024	4591
671.075	4256
671.127	3318
671.178	2631
671.230	2484
671.281	2810
671.333	1857
671.384	2254
671.436	3378
671.487	4954
671.538	6978
671.590	10358
671.641	17751
671.692	31687
671.744	63567
671.795	34716
671.846	9356
671.897	4388
671.949	2972
672.000	2406
672.051	2026
672.102	1330
672.153	1808
672.204	1014
672.256	669
672.307	2120
672.358	1797
672.409	1460
672.460	1261
672.511	1058
672.562	1069
672.613	45
672.664	533
672.715	1184
672.766	1190
672.817	519
672.868	974
672.919	1017
672.970	1356
673.021	831
673.071	143
673.122	1050
673.173	761
673.224	490
673.275	815
673.326	682
673.376	594
673.427	-286
673.478	1452
673.528	1247
673.579	1360
673.630	535
673.680	598
673.731	562
673.782	1272
673.832	685
673.883	1284
673.934	46
673.984	807
674.035	459
674.085	720
674.136	1479
674.186	813
674.237	182
674.287	1393
674.338	1011
674.388	318
674.438	885
674.489	791
674.539	1527
674.589	1025
674.640	1155
674.690	985
674.740	605
674.791	1494
674.841	534
674.891	336
674.942	661
674.992	137
675.042	766
675.092	-133
675.142	707
675.193	877
675.243	432
675.293	893
675.343	124
675.393	269
675.443	688
675.493	425
675.543	722
675.593	1075
675.643	825
675.693	975
675.743	828
675.793	653
675.843	172
675.893	132
675.943	465
675.993	546
676.043	867
676.093	1072
676.142	242
676.192	545
676.242	320
676.292	532
676.341	917
676.391	427
676.441	271
676.491	664
676.540	229
676.590	816
676.640	233
676.689	742
676.739	308
676.789	96
676.838	461
676.888	995
676.937	531
676.987	399
677.037	-260
677.086	301
677.136	793
677.185	476
677.235	-534
677.284	877
677.333	256
677.383	153
677.432	-122
677.482	490
677.531	127
677.580	-370
677.630	396
677.679	-878
677.728	-115
677.778	362
677.827	-46
677.876	734
677.925	-67
677.975	258
678.024	83
678.073	747
678.122	695
678.171	517
678.220	610
678.269	533
678.319	747
678.368	855
678.417	1086
678.466	124
678.515	923
678.564	877
678.613	440
678.662	601
678.711	164
678.760	722
678.809	-79
678.857	199
678.906	508
678.955	324
679.004	503
679.053	-55
679.102	-385
679.151	-393
679.199	129
679.248	175
679.297	603
679.346	225
679.394	94
679.443	216
679.492	-29
679.540	660
679.589	-92
679.638	368
679.686	-432
679.735	361
679.784	-375
679.832	757
679.881	-574
679.929	-166
679.978	-220
680.026	-1180
680.075	456
680.123	-50
680.172	-495
680.220	177
680.268	72
680.317	-63
680.365	-332
680.414	27
680.462	135
680.510	538
680.559	-684
680.607	-47
680.655	-418
680.703	450
680.752	-310
680.800	324
680.848	-127
680.896	-124
680.945	-361
680.993	106
681.041	-431
681.089	-277
681.137	-176
681.185	511
681.233	525
681.258	312
681.281	94
681.329	625
681.377	-235
681.380	-198
681.425	188
681.473	529
681.502	97
681.521	-228
681.569	991
681.617	460
681.624	423
681.665	65
681.713	1042
681.745	525
681.761	248
681.809	-535
681.857	959
681.867	704
681.904	-240
681.952	1016
681.989	905
682.000	858
682.048	1069
682.096	61
682.111	462
682.143	1235
682.191	-22
682.233	1263
682.239	1443
682.286	522
682.334	348
682.354	475
682.382	605
682.430	1600
682.476	61
682.477	16
682.525	263
682.572	730
682.598	697
682.620	627
682.667	109
682.715	1359
682.720	1261
682.763	212
682.810	1028
682.841	861
682.857	758
682.905	398
682.952	1291
682.963	1357
683.000	1527
683.047	109
683.085	1249
683.095	1546
683.142	616
683.190	852
683.206	743
683.237	520
683.284	1361
683.328	1173
683.332	1135
683.379	1251
683.426	863
683.449	966
683.473	1114
683.521	1157
683.568	1698
683.571	1642
683.615	672
683.662	1254
683.693	932
683.709	749
683.757	664
683.804	1256
683.814	1249
683.851	1165
683.898	1967
683.936	2270
683.945	2330
683.992	1674
684.039	1859
684.057	1698
684.086	1428
684.133	1481
684.179	1287
684.180	1272
684.227	2349
684.274	1303
684.300	1666
684.321	1882
684.368	1079
684.415	1625
684.422	1582
684.462	1482
684.509	2048
684.543	1578
684.556	1348
684.603	2127
684.649	1644
684.665	1844
684.696	2276
684.743	1939
684.786	2182
684.790	2190
684.837	1688
684.883	2366
684.908	2285
684.930	2229
684.977	3020
685.023	1697
685.029	1785
685.070	2215
685.117	1702
685.150	2057
685.164	2244
685.210	2644
685.257	2923
685.272	2910
685.303	2841
685.350	2484
685.393	2564
685.396	2563
685.443	3141
685.490	2923
685.514	2929
685.536	2894
685.583	2491
685.629	2415
685.636	2412
685.675	2380
685.722	3162
685.757	2483
685.768	2233
685.815	2464
685.861	2570
685.878	2622
685.908	2824
685.954	2919
686.000	2214
686.000	2199
686.047	2825
686.093	2974
686.121	3084
686.139	3122
686.185	3273
686.232	3327
686.242	3286
686.278	3081
686.324	3231
686.363	3247
686.370	3243
686.416	2800
686.463	2878
686.484	3162
686.509	3561
686.555	3199
686.601	3064
686.606	3075
686.647	2942
686.693	3262
686.727	2943
686.739	2893
686.785	3010
686.831	3744
686.848	3663
686.877	3419
686.923	3445
686.969	2979
686.969	2976
687.015	3170
687.061	3297
687.090	3727
687.107	3925
687.153	4124
687.199	3861
687.211	3656
687.245	3093
687.291	3387
687.332	3396
687.336	3430
687.382	3548
687.428	3297
687.453	3548
687.474	3514
687.520	4010
687.565	4092
687.574	3901
687.611	3432
687.657	4424
687.695	3871
687.702	3779
687.748	4153
687.794	5195
687.816	4866
687.839	4392
687.885	4531
687.931	4493
687.937	4463
687.976	4264
688.022	3825
688.058	3890
688.067	3956
688.113	3949
688.158	3798
688.179	3934
688.204	4054
688.249	4080
688.295	4351
688.300	4311
688.340	4082
688.386	4624
688.421	4376
688.431	4291
688.477	4503
688.522	4013
688.542	4184
688.567	4522
688.613	4264
688.658	4556
688.663	4544
688.703	4280
688.749	4557
688.784	4298
688.794	4259
688.839	4015
688.884	4697
688.905	4600
688.930	4431
688.975	4293
689.020	4318
689.026	4303
689.065	4260
689.110	4330
689.146	4373
689.155	4382
689.201	3982
689.246	3781
689.267	4058
689.291	4514
689.336	4416
689.381	4906
689.388	4833
689.426	4265
689.471	4738
689.509	4533
689.516	4511
689.561	4503
689.606	4443
689.630	4691
689.651	4873
689.696	3996
689.741	4540
689.750	4463
689.785	4437
689.830	4882
689.871	4404
689.875	4339
689.920	4550
689.965	4706
689.992	4581
690.010	4625
690.054	4871
690.099	4809
690.112	4974
690.144	5104
690.189	4630
690.233	4363
690.233	4370
690.278	4632
690.323	4208
690.354	4510
690.367	4652
690.412	4841
690.457	4732
690.474	4636
690.501	4635
690.546	5113
690.590	5510
690.595	5489
690.635	5069
690.680	4622
690.716	4938
690.724	5131
690.769	5492
690.813	6224
690.836	6101
690.857	6038
690.902	7015
690.946	7338
690.957	7573
690.991	9788
691.035	12091
691.077	14978
691.080	14977
691.124	13333
691.168	12000
691.198	11016
691.213	10388
691.257	8721
691.301	6624
691.318	6113
691.346	6172
691.390	5448
691.434	5120
691.439	5086
691.478	5297
691.522	5800
691.559	5613
691.567	5573
691.611	5568
691.655	5410
691.680	5540
691.699	5659
691.743	5339
691.787	5565
691.800	5583
691.831	5602
691.875	5183
691.919	5287
691.921	5273
691.964	5401
692.008	5251
692.041	5425
692.052	5497
692.096	5806
692.139	5828
692.162	5746
692.183	5587
692.227	5803
692.271	5579
692.282	5529
692.315	5378
692.359	5374
692.402	5482
692.403	5499
692.447	5714
692.490	6246
692.523	6388
692.534	6289
692.578	6019
692.622	5883
692.643	5881
692.666	5955
692.709	5606
692.753	5763
692.763	5664
692.797	5477
692.840	5535
692.884	5599
692.884	5615
692.928	5995
692.971	5991
693.004	6120
693.015	6065
693.059	5736
693.102	5542
693.124	5454
693.146	5644
693.189	5648
693.233	5858
693.245	5947
693.276	5980
693.320	6038
693.363	5672
693.365	5656
693.407	6277
693.450	7056
693.485	7203
693.493	7258
693.537	8032
693.580	8325
693.605	8841
693.624	9728
693.667	11310
693.710	13077
693.725	13756
693.753	17506
693.797	23019
693.840	28770
693.845	29342
693.883	26552
693.926	23377
693.966	20570
693.970	20177
694.013	15832
694.056	11368
694.086	8177
694.099	8029
694.142	7673
694.185	7404
694.206	7145
694.229	7013
694.272	6897
694.315	6826
694.326	6752
694.358	6737
694.401	6776
694.444	6898
694.446	6889
694.487	6784
694.530	6396
694.566	6143
694.573	6186
694.616	6100
694.659	6541
694.686	6593
694.702	6463
694.745	6114
694.787	5769
694.806	5581
694.830	5720
694.873	5950
694.916	6386
694.926	6401
694.959	6139
695.002	6054
695.044	5788
695.046	5762
695.087	5945
695.130	6109
695.166	6362
695.172	6435
695.215	6569
695.258	6744
695.286	6842
695.301	6915
695.343	7163
695.386	7484
695.406	7512
695.428	7331
695.471	6960
695.514	6860
695.526	6745
695.556	7117
695.599	7795
695.641	8269
695.646	8305
695.684	7825
695.726	7248
695.766	6668
695.769	6707
695.811	7020
695.854	7432
695.886	7663
695.896	7564
695.938	7184
695.981	6530
696.005	6269
696.023	6541
696.065	6987
696.108	7588
696.125	7744
696.150	7766
696.192	8086
696.235	8148
696.245	8140
696.277	8177
696.319	8210
696.361	8276
696.365	8255
696.404	8340
696.446	8573
696.485	8538
696.488	8574
696.530	8899
696.572	9027
696.604	9272
696.614	9248
696.656	8982
696.698	8661
696.724	8383
696.740	8357
696.783	8347
696.825	8332
696.844	8342
696.867	8452
696.909	8284
696.951	8477
696.964	8482
696.992	8751
697.034	9081
697.076	9266
697.083	9299
697.118	9143
697.160	8883
697.202	8656
697.203	8624
697.244	8913
697.286	9241
697.323	9397
697.327	9397
697.369	9216
697.411	8927
697.442	8884
697.453	8988
697.494	9077
697.536	9290
697.562	9343
697.578	9265
697.620	9036
697.661	8752
697.682	8601
697.703	8756
697.744	9022
697.786	9379
697.801	9411
697.828	9178
697.869	8924
697.911	8598
697.921	8490
697.952	8737
697.994	9062
698.035	9394
698.040	9405
698.077	9313
698.118	9176
698.160	9045
698.160	9017
698.201	9299
698.243	9467
698.279	9645
698.284	9679
698.325	9714
698.367	9759
698.399	9744
698.408	9785
698.449	9877
698.491	9944
698.518	9962
698.532	10021
698.573	10119
698.614	10205
698.638	10228
698.656	10383
698.697	10691
698.738	10974
698.757	11095
698.779	10773
698.820	10063
698.862	9375
698.877	9097
698.903	9525
698.944	10153
698.985	10790
698.996	10938
699.026	10504
699.067	9858
699.116	9062
699.235	10214
699.354	9390
699.474	9981
699.593	9769
699.713	10057
699.832	9403
699.951	9906
700.070	9655
700.190	9402
700.309	9593
700.428	9556
700.547	8133
700.667	10043
700.786	9331
700.905	8638
701.024	8538
701.143	8412
701.262	8893
701.381	9587
701.500	8397
701.619	8839
701.738	9163
701.857	9406
701.976	8149
702.095	8059
702.214	9442
702.333	9103
702.452	8839
702.571	9141
702.690	8391
702.809	9019
702.928	7480
703.047	8445
703.165	7762
703.284	8628
703.403	8724
703.522	7817
703.640	7754
703.759	7871
703.878	8674
703.997	7623
704.115	7682
704.234	7870
704.353	7307
704.471	7843
704.590	7143
704.708	7490
704.827	7039
704.946	7456
705.064	7165
705.183	6835
705.301	8477
705.420	10476
705.538	9866
705.656	9060
705.775	8098
705.893	9676
706.012	9900
706.130	9085
706.249	8843
706.367	8807
706.485	8784
706.604	8325
706.722	7636
706.840	9742
706.958	10307
707.077	8929
707.195	8042
707.313	9115
707.431	7163
707.549	7231
707.668	6930
707.786	8848
707.904	7282
708.022	7623
708.140	7116
708.258	7213
708.376	8155
708.494	7186
708.612	7989
708.730	11135
708.848	9848
708.966	9263
709.084	8686
709.202	8584
709.320	8404
709.438	8440
709.556	8439
709.674	8609
709.791	8299
709.909	8682
710.027	8995
710.145	8447
710.263	8444
710.380	7441
710.498	7742
710.616	8135
710.733	7367
710.851	7621
710.969	7357
711.086	7492
711.204	7291
711.322	8286
711.439	7467
711.557	8556
711.674	7276
711.792	7684
711.909	6428
712.027	6888
712.144	6670
712.262	7887
712.379	7424
712.497	11159
712.614	10283
712.732	9614
712.849	8087
712.966	8994
713.084	10080
713.201	9497
713.318	9267
713.436	8723
713.553	8725
713.670	9673
713.787	9981
713.905	9371
714.022	9238
714.139	9137
714.256	10053
714.373	14233
714.490	20803
714.608	49712
714.725	210595
714.842	221735
714.959	18273
715.076	9675
715.193	8219
715.310	8416
715.427	7961
715.544	8287
715.661	6959
715.778	7970
715.895	7774
716.011	7871
716.128	7625
716.245	8382
716.362	7195
716.479	6988
716.596	7116
716.713	6684
716.829	7309
716.946	7145
717.063	5981
717.180	6653
717.296	7311
717.413	6486
717.530	6468
717.646	7390
717.763	5867
717.880	6391
717.996	6521
718.113	6412
718.229	6300
718.346	5929
718.462	6322
718.579	6368
718.695	7142
718.812	6994
718.928	7383
719.045	6263
719.161	5985
719.277	5917
719.394	5692
719.510	6813
719.626	5846
719.743	8592
719.859	9969
719.975	17911
720.092	66048
720.208	153821
720.324	19604
720.440	7007
720.557	6606
720.673	7267
720.789	8012
720.905	13576
721.021	6949
721.137	5354
721.253	5710
721.369	6004
721.486	6460
721.602	6345
721.718	5490
721.834	5228
721.950	4464
722.066	4868
722.181	5212
722.297	5870
722.413	5569
722.529	4637
722.645	4853
722.761	5068
722.877	3622
722.993	4617
723.108	5454
723.224	5437
723.340	4400
723.456	5068
723.571	5043
723.687	4564
723.803	3231
723.918	4217
724.034	4797
724.150	4685
724.265	5023
724.381	6028
724.497	6738
724.612	4758
724.728	3439
724.843	5422
724.959	3988
725.074	6299
725.190	7046
725.305	3921
725.421	4036
725.536	3764
725.651	4131
725.767	3909
725.882	4098
725.997	3534
726.113	3497
726.228	3708
726.343	4036
726.459	3466
726.574	3764
726.689	3992
726.804	3361
726.920	4765
727.035	3316
727.150	4705
727.265	3180
727.380	3930
727.495	3089
727.610	3280
727.725	3645
727.841	4083
727.956	3864
728.071	4664
728.186	3355
728.301	3211
728.416	3591
728.531	2899
728.645	2949
728.760	4590
728.875	3287
728.990	3567
729.105	2979
729.220	3374
729.335	3946
729.449	3565
729.564	3389
729.679	2546
729.794	2162
729.908	3844
730.023	2697
730.138	3416
730.253	3724
730.367	2988
730.482	2679
730.596	3503
730.711	3703
730.826	4537
730.940	4138
731.055	4168
731.169	2109
731.284	2937
731.398	3009
731.513	3700
731.627	3438
731.742	5131
731.856	4954
731.970	4268
732.085	5318
732.199	7784
732.313	10600
732.428	28073
732.542	93070
732.656	57184
732.771	8995
732.885	6205
732.999	5340
733.113	6433
733.227	5440
733.342	5974
733.456	5108
733.570	5969
733.684	5453
733.798	5001
733.912	4326
734.026	4899
734.140	4686
734.254	5528
734.368	6675
734.482	7106
734.596	4726
734.710	4264
734.824	4583
734.938	4517
735.052	4667
735.166	5544
735.280	5099
735.393	5585
735.507	4763
735.621	6196
735.735	5242
735.849	4830
735.962	4582
736.076	5439
736.190	4094
736.303	5199
736.417	5160
736.531	4080
736.644	5298
736.758	5464
736.872	4045
736.985	4610
737.099	4665
737.212	4327
737.326	3646
737.439	4387
737.553	3800
737.666	4187
737.780	4125
737.893	4648
738.007	3776
738.120	5155
738.233	3392
738.347	5115
738.460	3727
738.573	4295
738.687	2759
738.800	3661
738.913	4224
739.026	4874
739.140	4004
739.253	3726
739.366	3424
739.479	3406
739.592	3558
739.705	3568
739.818	3669
739.932	3600
740.045	2792
740.158	3521
740.271	4025
740.384	3736
740.497	3206
740.610	4452
740.723	2711
740.836	3641
740.949	3717
741.062	4021
741.174	3393
741.287	3310
741.400	3240
741.513	2849
741.626	2898
741.739	3698
741.851	3403
741.964	3058
742.077	3525
742.189	2864
742.302	3684
742.415	4052
742.527	2833
742.640	2888
742.753	2948
742.865	3826
742.978	2426
743.090	3541
743.203	3386
743.316	3009
743.428	2718
743.541	3546
743.653	2311
743.766	2859
743.878	2408
743.990	2790
744.103	3389
744.215	2652
744.327	2795
744.440	3322
744.552	3116
744.664	3653
744.777	2261
744.889	3265
745.001	2642
745.113	2644
745.226	1985
745.338	3795
745.450	2667
745.562	3317
745.674	2687
745.786	3787
745.898	2318
746.010	2084
746.122	1827
746.234	2419
746.347	2049
746.459	3709
746.570	1355
746.682	3324
746.794	2618
746.906	2541
747.018	1767
747.130	3268
747.242	1756
747.354	2039
747.466	3276
747.577	2147
747.689	2495
747.801	2195
747.913	1392
748.024	2864
748.136	1735
748.248	2760
748.359	2034
748.471	2979
748.583	1761
748.694	2179
748.806	2192
748.918	2688
749.029	2295
749.141	2855
749.252	2556
749.364	3054
749.475	2688
749.587	2984
749.698	1550
749.809	2744
749.921	1539
750.032	2445
750.144	1893
750.255	2725
750.366	1746
750.478	2459
750.589	1703
750.700	1366
750.811	2471
750.923	3300
751.034	2642
751.145	2845
751.256	974
751.367	1961
751.479	2397
751.590	1801
751.701	1705
751.812	1797
751.923	1320
752.034	2506
752.145	913
752.256	2090
752.367	1190
752.478	2137
752.589	1832
752.700	2458
752.811	1624
752.922	2556
753.032	1443
753.143	2022
753.254	1075
753.365	2195
753.476	1555
753.586	2756
753.697	2167
753.808	2201
753.919	2319
754.029	1537
754.140	2407
754.251	1780
754.361	2250
754.472	1905
754.582	1063
754.693	2630
754.804	2973
754.914	1798
755.025	1463
755.135	1288
755.246	2530
755.356	2138
755.466	2046
755.577	2116
755.687	1758
755.798	1986
755.908	1670
756.018	1657
756.129	1491
756.239	2032
756.349	2268
756.460	1954
756.570	1437
756.680	2087
756.790	1864
756.900	2798
757.011	1436
757.121	1532
757.231	971
757.341	1895
757.451	1356
757.561	2459
757.671	1905
757.781	1897
757.891	2683
758.001	1052
758.111	2333
758.221	2718
758.331	2439
758.441	1593
758.551	1164
758.661	2316
758.771	1590
758.880	2569
758.990	2296
759.100	2195
759.210	1851
759.320	2471
759.429	2094
759.539	2126
759.649	1650
759.758	2915
759.868	2673
759.978	2338
760.087	2613
760.197	3361
760.307	2245
760.416	2533
760.526	1867
760.635	3165
760.745	2226
760.854	3882
760.964	3721
761.073	3841
761.182	2858
761.292	2665
761.401	2937
761.511	2063
761.620	2641
761.729	2495
761.839	1938
761.948	2921
762.057	2914
762.166	2793
762.276	1548
762.385	3846
762.494	2753
762.603	3360
762.712	2950
762.822	2686
762.931	2421
763.040	2872
763.149	3028
763.258	3479
763.367	3825
763.476	3663
763.585	2801
763.694	4544
763.803	3663
763.912	4023
764.021	4395
764.130	4872
764.238	4264
764.347	4678
764.456	4326
764.565	5623
764.674	5990
764.783	6426
764.891	5627
765.000	8498
765.109	8727
765.217	9143
765.326	10778
765.435	12896
765.543	14897
765.652	19412
765.761	26754
765.869	37445
765.978	56103
766.086	96219
766.195	179757
766.303	376858
766.412	622016
766.520	537843
766.629	283954
766.737	128519
766.846	73793
766.954	49243
767.062	35429
767.171	26318
767.279	19957
767.387	16754
767.496	13136
767.604	12662
767.712	10483
767.820	9593
767.928	9211
768.037	7676
768.145	8569
768.253	8578
768.361	7164
768.469	7147
768.577	7063
768.685	8801
768.793	7714
768.901	9992
769.009	10467
769.117	11681
769.225	15887
769.333	24457
769.441	37475
769.549	71345
769.657	152259
769.765	374525
769.873	522189
769.981	288195
770.088	101974
770.196	50371
770.304	30922
770.412	23747
770.519	16395
770.627	13041
770.735	11007
770.842	9702
770.950	8220
771.058	6805
771.165	7012
771.273	7359
771.380	5183
771.488	6649
771.595	6420
771.703	6186
771.810	4741
771.918	4886
772.025	5747
772.133	6472
772.240	4695
772.348	6838
772.455	5130
772.562	5826
772.670	4414
772.777	5073
772.884	4289
772.991	3985
773.099	4471
773.206	3275
773.313	4446
773.420	4446
773.528	4195
773.635	3849
773.742	4369
773.849	3951
773.956	4360
774.063	3867
774.170	4205
774.277	4428
774.384	3002
774.491	3485
774.598	3296
774.705	3953
774.812	4163
774.919	4529
775.026	3697
775.133	3355
775.239	2470
775.346	3787
775.453	3461
775.560	3200
775.667	3852
775.773	2193
775.880	3417
775.987	3535
776.093	2848
776.200	2392
776.307	2892
776.413	3406
776.520	3403
776.627	3446
776.733	2720
776.840	2214
776.946	4267
777.053	3687
777.159	3391
777.266	1683
777.372	3885
777.478	3558
777.585	2958
777.691	2208
777.798	3023
777.904	3108
778.010	2170
778.117	3716
778.223	1734
778.329	2387
778.435	1724
778.542	2965
778.648	1676
778.754	1728
778.860	1808
778.966	2982
779.072	2309
779.178	3041
779.284	2464
779.391	2227
779.497	1934
779.603	4530
779.708	3449
779.815	7205
779.920	25980
780.026	45927
780.132	6186
780.238	2242
780.344	1931
780.450	4077
780.556	1551
780.661	2017
780.767	2277
780.873	1491
780.979	2638
781.085	2162
781.190	1612
781.296	1770
781.402	1092
781.507	1893
781.613	895
781.719	1818
781.824	1756
781.930	2154
782.035	1589
782.141	2341
782.246	543
782.352	1586
782.457	1582
782.563	1300
782.668	1325
782.773	2659
782.879	1076
782.984	2956
783.090	1445
783.195	1850
783.300	1434
783.405	1317
783.511	1358
783.616	2294
783.721	1655
783.826	1305
783.932	2374
784.037	2210
784.142	1188
784.247	1579
784.352	1882
784.457	793
784.562	1436
784.667	2169
784.772	670
784.877	1611
784.982	1276
785.087	1555
785.192	1011
785.297	1275
785.402	1215
785.507	1178
785.611	769
785.716	1014
785.821	1061
785.926	1648
786.031	409
786.135	1267
786.240	1347
786.345	345
786.450	1334
786.554	1843
786.659	1055
786.763	373
786.868	1214
786.973	1807
787.077	504
787.182	1467
787.286	996
787.391	887
787.495	817
787.600	999
787.704	815
787.809	1263
787.913	1245
788.017	1683
788.122	1600
788.226	1719
788.330	-758
788.435	1232
788.539	888
788.643	1632
788.747	708
788.852	1172
788.956	577
789.060	1675
789.164	790
789.268	398
789.372	1346
789.476	885
789.580	456
789.684	437
789.788	513
789.892	1033
789.996	447
790.100	1244
790.204	963
790.308	1088
790.412	256
790.516	746
790.620	776
790.724	1642
790.828	332
790.931	480
791.035	2107
791.139	838
791.242	290
791.346	1149
791.450	779
791.554	1825
791.657	-502
791.761	1779
791.864	1285
791.968	1085
792.072	1479
792.175	1181
792.279	521
792.382	1819
792.486	1633
792.589	1055
792.693	679
792.796	-125
792.899	1047
793.003	1026
793.106	-867
793.209	300
793.313	1210
793.416	-56
793.519	2133
793.623	1736
793.726	1746
793.829	161
793.932	602
794.035	776
794.138	1857
794.242	2249
794.345	823
794.448	1978
794.551	1963
794.654	13062
794.757	22341
794.860	3260
794.963	1005
795.066	134
795.169	793
795.272	695
795.375	269
795.477	247
795.580	541
795.683	-519
795.786	1394
795.889	172
795.991	1351
796.094	918
796.197	-419
796.300	1376
796.402	95
796.505	129
796.608	-482
796.710	1949
796.813	235
796.915	589
797.018	242
797.120	847
797.223	-902
797.326	1837
797.428	304
797.530	616
797.633	44
797.735	1290
797.838	553
797.940	1362
798.042	-80
798.145	13
798.247	583
798.349	-594
798.452	1392
798.554	117
798.656	-626
798.758	636
798.860	525
798.962	628
799.065	291
799.167	-67
799.269	1422
799.371	882
799.473	732
799.575	505
799.677	42
799.779	1366
799.881	-1118
799.983	1204
800.085	252
800.187	632
800.289	-577
800.390	-432
800.492	568
800.594	1792
800.696	246
800.798	638
800.899	263
801.001	750
801.103	515
801.205	-340
801.306	794
801.408	-554
801.509	41
801.611	1099
801.713	302
801.814	-27
801.916	725
802.017	390
802.119	-666
802.220	312
802.322	-733
802.423	1792
802.525	-1374
802.626	488
802.727	-17
802.829	1111
802.930	-1283
803.031	2142
803.133	-144
803.234	30
803.335	-272
803.436	227
803.538	505
803.639	-787
803.740	-800
803.841	-9
803.942	721
804.043	640
804.144	-1087
804.245	86
804.346	-672
804.447	-703
804.548	292
804.649	782
804.750	-447
804.851	-541
804.952	-268
805.053	551
805.154	-1418
805.255	1691
805.355	448
805.456	-41
805.557	-581
805.658	-799
805.758	506
805.859	1271
805.960	102
806.061	-96
806.161	-661
806.262	538
806.362	47
806.463	-111
806.564	1007
806.664	154
806.765	287
806.865	-142
806.966	-1353
807.066	-361
807.166	1185
807.267	1538
807.367	-914
807.468	335
807.568	-1270
807.668	617
807.769	-139
807.869	-727
807.969	-480
808.069	476
808.170	-492
808.270	344
808.370	595
808.470	280
808.570	-856
808.670	78
808.770	-224
808.870	117
808.970	863
809.070	-235
809.170	-286
809.271	854
809.370	-206
809.470	609
809.570	-12
809.670	-396
809.770	-205
809.870	1169
809.970	331
810.070	861
810.169	64
810.269	-1197
810.369	596
810.469	-54
810.568	-380
810.668	364
810.768	-11
810.867	345
810.967	-971
811.066	453
811.166	-212
811.265	1007
811.365	-982
811.464	-71
811.564	102
811.663	-99
811.763	-1279
811.862	654
811.962	775
812.061	-25
812.160	-822
812.260	-104
812.359	-544
812.458	638
812.557	1696
812.657	1314
812.756	558
812.855	-168
812.954	-390
813.053	215
813.153	-812
813.252	-432
813.351	78
813.450	-82
813.549	-338
813.648	817
813.747	-992
813.846	123
813.945	-1095
814.044	282
814.143	-283
814.242	1188
814.341	-1299
814.439	333
814.538	336
814.637	756
814.736	-393
814.835	1678
814.933	-283
815.032	456
815.131	149
815.229	1603
815.328	1811
815.427	1058
815.525	562
815.624	1774
815.722	73
815.821	515
815.919	913
816.018	1079
816.116	1227
816.215	1078
816.313	1003
816.412	1689
816.510	1230
816.609	2824
816.707	2043
816.805	1679
816.904	1231
817.002	1390
817.100	1446
817.198	2711
817.296	462
817.395	1904
817.493	2228
817.591	2027
817.689	2140
817.787	2267
817.885	2298
817.983	3489
818.081	6530
818.179	14876
818.277	38753
818.375	28689
818.473	5229
818.571	2970
818.669	2003
818.767	1947
818.865	2383
818.963	2797
819.061	2708
819.158	5797
819.256	13414
819.354	30860
819.452	72053
819.549	37064
819.647	7504
819.745	3127
819.842	2419
819.940	2253
820.038	1166
820.135	1479
820.233	2410
820.330	1308
820.428	275
820.525	2165
820.623	748
820.720	1065
820.818	1251
820.915	2174
821.012	72
821.110	-176
821.207	1550
821.304	572
821.402	1120
821.499	2130
821.596	1895
821.693	924
821.791	979
821.888	968
821.985	490
822.082	301
822.179	1448
822.276	818
822.373	-224
822.470	1320
822.567	899
822.664	663
822.761	1217
822.858	222
822.955	593
823.052	1178
823.149	952
823.246	1851
823.343	-89
823.440	1742
823.536	-9
823.633	-130
823.730	784
823.827	982
823.923	-110
824.020	1003
824.117	-5
824.213	224
824.310	1523
824.407	198
824.503	476
824.600	1384
824.696	86
824.793	1819
824.889	-178
824.986	1397
825.082	-73
825.179	557
825.275	187
825.371	1092
825.468	1430
825.564	362
825.660	1419
825.757	1603
825.853	989
825.949	25
826.045	675
826.142	-131
826.238	-244
826.334	568
826.430	-279
826.526	-177
826.622	-921
826.718	765
826.814	-253
826.910	1315
827.006	-461
827.102	393
827.198	911
827.294	315
827.390	243
827.486	1379
827.582	-1488
827.678	-543
827.774	4
827.869	499
827.965	1328
828.061	-396
828.157	83
828.252	648
828.348	154
828.444	1063
828.539	-755
828.635	71
828.731	292
828.826	-178
828.922	1051
829.017	638
829.113	181
829.208	-392
829.304	-779
829.399	1542
829.495	-383
829.590	502
829.685	-174
829.781	676
829.876	-222
829.971	5
830.066	-312
830.162	174
830.257	475
830.352	18
830.447	827
830.543	630
830.638	-1124
830.733	843
830.828	268
830.923	669
831.018	-17
831.113	796
831.208	-508
831.303	-373
831.398	-436
831.493	501
831.588	144
831.683	71
831.778	-647
831.873	191
831.967	861
832.062	29
832.157	-973
832.252	380
832.346	-237
832.441	42
832.536	-280
832.631	993
832.725	75
832.820	472
832.914	-705
833.009	-183
833.104	-299
833.198	204
833.293	-474
833.387	328
833.482	-489
833.576	-13
833.670	606
833.765	557
833.859	-295
833.954	459
834.048	7
834.142	422
834.237	-1085
834.331	-317
834.425	-613
834.519	567
834.613	63
834.708	-208
834.802	-118
834.896	-150
834.990	-539
835.084	510
835.178	-274
835.272	353
835.366	236
835.460	181
835.554	296
835.648	915
835.742	-1285
835.836	434
835.930	-1205
836.024	429
836.117	529
836.211	-325
836.305	-571
836.399	1156
836.493	-1780
836.586	550
836.680	-1073
836.774	-307
836.867	850
836.961	281
837.055	-1318
837.148	-282
837.242	189
837.335	-710
837.429	133
837.522	-793
837.616	-208
837.709	681
837.803	-379
837.896	-310
837.989	-877
838.083	158
838.176	106
838.269	482
838.363	351
838.456	93
838.549	-266
838.642	-923
838.735	266
838.829	749
838.922	-973
839.015	-100
839.108	-832
839.201	494
839.294	-737
839.387	44
839.480	-1156
839.573	74
839.666	-375
839.759	-230
839.852	-989
839.945	-1190
840.038	-711
840.131	-205
840.223	-1181
840.316	-297
840.409	-636
840.502	-513
840.594	-201
840.687	-728
840.780	-760
840.873	-639
840.965	-679
841.058	426
841.150	304
841.243	-611
841.336	-546
841.428	228
841.521	-1103
841.613	-959
841.706	-438
841.798	-362
841.890	-218
841.983	-835
842.075	-248
842.167	-582
842.260	-1362
842.352	1084
842.444	-820
842.537	-226
842.629	343
842.721	-628
842.813	-834
842.905	-1068
842.997	-290
843.090	-88
843.182	-30
843.274	-264
843.366	815
843.458	3650
843.550	1345
843.642	-319
843.734	11
843.826	-235
843.918	-52
844.009	281
844.101	55
844.193	-856
844.285	-1310
844.377	54
844.469	571
844.560	-850
844.652	-2164
844.744	-272
844.835	-947
844.927	147
845.019	-137
845.110	-454
845.202	-525
845.293	60
845.385	-1324
845.476	180
845.568	258
845.659	268
845.751	-718
845.842	-144
845.934	-1678
846.025	-140
846.116	-1187
846.208	-448
846.299	-716
846.390	-391
846.482	-566
846.573	-90
846.664	-225
846.755	125
846.846	-380
846.937	-891
847.029	-1340
847.120	-375
847.211	-1149
847.302	701
847.393	-883
847.484	-251
847.575	-697
847.666	-432
847.757	-931
847.847	-750
847.938	215
848.029	-750
848.120	-1236
848.211	264
848.302	-1629
848.392	-1008
848.483	-137
848.574	-366
848.664	-1247
848.755	-183
848.846	-1701
848.936	-646
849.027	-1074
849.118	-1127
849.208	-1367
849.299	-767
849.389	-173
849.480	1734
849.570	3031
849.661	7545
849.751	12787
849.841	3719
849.932	-208
850.022	-443
850.112	-743
850.203	-681
850.293	-1444
850.383	-586
850.474	-1646
850.564	-1093
850.654	-590
850.744	-362
850.834	-242
850.924	-575
851.014	-586
851.104	32
851.194	-650
851.284	-903
851.374	-813
851.464	-833
851.554	-769
851.644	-984
851.734	-578
851.824	-404
851.914	-1760
852.004	-46
852.094	-69
852.183	-669
852.273	-614
852.363	-739
852.452	-1082
852.542	-725
852.632	-1237
852.721	-466
852.811	-906
852.901	345
852.990	-561
853.080	-554
853.169	-262
853.259	-613
853.348	-1402
853.438	-143
853.527	205
853.617	-121
853.706	1336
853.795	4149
853.885	10125
853.974	19786
854.063	37288
854.152	61623
854.242	20521
854.331	2520
854.420	-176
854.509	459
854.598	-89
854.687	-326
854.777	-290
854.866	-862
854.955	-534
855.044	-442
855.133	-388
855.222	-558
855.311	-1887
855.400	-321
855.488	-1105
855.577	-807
855.666	-938
855.755	-24
855.844	-687
855.933	-1568
856.021	-958
856.110	226
856.199	-722
856.288	-732
856.376	-892
856.465	-864
856.554	-1252
856.642	-540
856.731	-342
856.819	-403
856.908	-1153
856.996	-442
857.085	-849
857.173	-136
857.262	-1766
857.350	-299
857.438	-2024
857.527	32
857.615	-1870
857.703	-441
857.792	-1433
857.880	-896
857.968	-1381
858.056	-269
858.145	-1367
858.233	-1106
858.321	-1463
858.409	-676
858.497	-1407
858.585	-1378
858.673	-921
858.761	-629
858.849	-1284
858.937	-792
859.025	-885
859.113	225
859.201	-1917
859.289	368
859.377	-695
859.465	-632
859.552	-850
859.640	-611
859.728	-1100
859.816	-484
859.903	-441
859.991	-788
860.079	-1230
860.166	-257
860.254	-1881
860.342	-443
860.429	-986
860.517	-921
860.604	-182
860.692	-1006
860.779	-1197
860.867	-1377
860.954	-1037
861.042	-565
861.129	-1000
861.216	331
861.304	-1753
861.391	25
861.478	-1111
861.565	-216
861.653	29
861.740	-1532
861.827	-1727
861.914	-568
862.001	-1103
862.089	-1054
862.176	-860
862.263	-1049
862.350	-1048
862.437	-352
862.524	-1308
862.611	-940
862.698	-1443
862.785	-795
862.871	-990
862.958	-624
863.045	-878
863.132	-632
863.219	-1295
863.306	-831
863.392	-275
863.479	-859
863.566	-607
863.652	-529
863.739	-1056
863.826	31
863.912	-1202
863.999	-69
864.086	-1197
864.172	-1338
864.259	-1521
864.345	224
864.432	-1058
864.518	-776
864.604	-1026
864.691	-579
864.777	-481
864.863	-57
864.950	130
865.036	676
865.122	596
865.209	2251
865.295	328
865.381	884
865.467	687
865.553	102
865.639	1306
865.726	2960
865.812	5742
865.898	12137
865.984	16655
866.070	30964
866.156	34537
866.242	8927
866.328	2563
866.414	1211
866.499	661
866.585	1059
866.671	-4
866.757	815
866.843	482
866.928	1437
867.014	-76
867.100	1513
867.186	977
867.271	848
867.357	39
867.442	500
867.528	611
867.614	-541
867.699	523
867.785	1193
867.870	186
867.956	334
868.041	1199
868.127	220
868.212	-234
868.297	1426
868.383	31
868.468	480
868.553	1228
868.639	898
868.724	1286
868.809	977
868.894	796
868.979	233
869.065	555
869.150	-244
869.235	-465
869.320	863
869.405	-320
869.490	332
869.575	592
869.660	166
869.745	866
869.830	-301
869.915	-861
870.000	26
870.085	-437
870.169	311
870.254	988
870.339	60
870.424	-1339
870.509	159
870.593	615
870.678	493
870.763	-427
870.847	359
870.932	-333
871.016	780
871.101	-721
871.186	308
871.270	303
871.355	-813
871.439	76
871.523	378
871.608	103
871.692	-433
871.777	278
871.861	386
871.945	-1313
872.030	782
872.114	-613
872.198	85
872.282	-461
872.367	1
872.451	-712
872.535	-102
872.619	-425
872.703	-10
872.787	-965
872.871	-569
872.955	-539
873.039	-285
873.123	-180
873.207	1698
873.291	-445
873.375	137
873.459	-11
873.543	281
873.627	-449
873.711	-229
873.794	425
873.878	-614
873.962	-24
874.045	-592
874.129	-524
874.137	-539
874.213	-691
874.245	-690
874.296	-689
874.352	-606
874.380	-569
874.460	-1280
874.464	-1308
874.547	-807
874.568	-640
874.631	-162
874.676	-79
874.714	-1
874.784	-458
874.798	-553
874.881	440
874.892	344
874.965	-274
874.999	-421
875.048	-657
875.107	-1043
875.131	-1202
875.215	-383
875.215	-384
875.298	-1136
875.323	-708
875.381	326
875.430	23
875.465	-181
875.538	144
875.548	185
875.631	-967
875.646	-841
875.714	-242
875.753	-400
875.798	-570
875.861	-501
875.881	-494
875.964	-648
875.968	-619
876.047	57
876.076	-21
876.130	-250
876.183	-167
876.213	-143
876.291	-451
876.296	-466
876.379	-149
876.398	-337
876.462	-973
876.506	-718
876.545	-466
876.613	-350
876.628	-333
876.711	-94
876.721	-43
876.794	325
876.828	111
876.877	-209
876.935	-971
876.960	-1214
877.043	369
877.043	365
877.125	-588
877.150	-191
877.208	826
877.258	-45
877.291	-613
877.365	-28
877.374	46
877.456	-726
877.472	-503
877.539	210
877.579	-258
877.622	-656
877.687	173
877.704	426
877.787	-119
877.794	-139
877.869	-507
877.901	-357
877.952	-35
878.008	-219
878.034	-355
878.115	-1059
878.117	-1067
878.199	-246
878.222	-175
878.282	-250
878.329	-297
878.364	-111
878.437	340
878.447	345
878.529	-416
878.544	-423
878.611	-283
878.651	-245
878.694	-103
878.758	-300
878.776	-393
878.858	496
878.865	443
878.941	-485
878.972	-622
879.023	-528
879.078	-731
879.105	-897
879.185	-174
879.187	-156
879.269	-881
879.292	-589
879.351	97
879.399	-6
879.433	-67
879.506	522
879.516	632
879.598	24
879.613	142
879.680	300
879.720	208
879.762	135
879.827	-436
879.844	-581
879.926	-412
879.933	-415
880.007	-203
880.040	-300
880.089	-566
880.147	-465
880.171	-395
880.253	-244
880.254	-245
880.335	-196
880.360	-256
880.417	-27
880.467	464
880.499	695
880.574	1334
880.580	1306
880.662	166
880.680	-159
880.744	-587
880.787	-247
880.825	-26
880.893	-345
880.907	-399
880.989	83
881.000	-5
881.070	-431
881.106	-107
881.152	211
881.213	39
881.233	-42
881.315	-29
881.319	-51
881.396	-55
881.426	-14
881.478	-4
881.532	24
881.559	85
881.639	287
881.641	283
881.722	-45
881.745	-19
881.803	604
881.852	383
881.885	-78
881.958	-171
881.966	-155
882.047	-253
882.064	-249
882.129	124
882.171	328
882.210	342
882.277	406
882.291	423
882.372	465
882.383	417
882.454	302
882.489	252
882.535	105
882.596	252
882.616	200
882.697	-326
882.702	-338
882.778	460
882.808	560
882.859	124
882.914	-36
882.940	-16
883.020	-592
883.021	-589
883.102	232
883.127	346
883.183	241
883.233	201
883.264	50
883.339	-406
883.345	-415
883.426	-475
883.445	-461
883.507	-113
883.551	94
883.587	192
883.657	155
883.668	128
883.749	323
883.763	285
883.830	156
883.869	110
883.910	138
883.975	283
883.991	254
884.072	304
884.081	228
884.152	-60
884.187	146
884.233	370
884.292	253
884.314	160
884.394	-10
884.398	-34
884.475	-166
884.504	-118
884.555	-15
884.610	3
884.636	24
884.716	309
884.716	314
884.797	331
884.821	386
884.877	642
884.927	333
884.958	92
885.033	399
885.038	408
885.118	-112
885.139	-135
885.199	-298
885.244	-590
885.279	-177
885.350	802
885.359	772
885.439	407
885.456	302
885.520	147
885.561	117
885.600	4
885.667	-290
885.680	-204
885.760	171
885.773	283
885.840	79
885.878	-50
885.920	273
885.984	508
886.000	515
886.080	779
886.089	779
886.160	559
886.195	494
886.240	470
886.300	491
886.320	505
886.400	344
886.406	342
886.480	486
886.511	469
886.560	484
886.616	619
886.640	615
886.720	452
886.722	444
886.800	89
886.827	-10
886.879	302
886.932	589
886.959	744
887.038	1027
887.039	1028
887.119	612
887.143	446
887.198	169
887.248	27
887.278	212
887.354	727
887.358	743
887.437	695
887.459	729
887.517	755
887.564	745
887.596	472
887.669	-255
887.676	-228
887.755	185
887.774	227
887.835	564
887.880	982
887.914	742
887.985	112
887.994	205
888.073	997
888.090	1125
888.153	564
888.195	268
888.232	362
888.300	479
888.311	547
888.391	1044
888.405	1103
888.470	632
888.510	391
888.549	280
888.615	73
888.628	184
888.708	844
888.720	929
888.787	679
888.825	559
888.866	508
888.930	413
888.945	434
889.024	561
889.035	564
889.103	570
889.140	592
889.182	651
889.245	701
889.261	623
889.340	284
889.349	237
889.419	551
889.454	719
889.498	488
889.559	170
889.577	271
889.656	710
889.664	753
889.735	850
889.768	894
889.814	806
889.873	684
889.978	687
890.083	872
890.187	640
890.292	544
890.397	268
890.501	102
890.606	916
890.710	1528
890.815	1088
890.919	247
891.024	837
891.128	326
891.233	224
891.337	61
891.442	349
891.546	404
891.650	765
891.755	1388
891.859	1541
891.963	813
892.068	127
892.172	464
892.276	335
892.380	595
892.484	513
892.589	1181
892.693	1181
892.797	94
892.901	1209
893.005	806
893.109	639
893.213	1239
893.317	202
893.421	1500
893.525	422
893.629	560
893.733	914
893.837	838
893.941	35
894.045	979
894.148	386
894.252	770
894.356	406
894.460	427
894.564	371
894.667	76
894.771	718
894.875	240
894.978	263
895.082	-253
895.186	1185
895.289	1843
895.393	734
895.496	402
895.600	177
895.703	73
895.807	-62
895.910	280
896.014	-99
896.117	402
896.221	296
896.324	955
896.427	1217
896.531	147
896.634	560
896.737	581
896.840	826
896.944	734
897.047	278
897.150	365
897.253	-288
897.356	783
897.460	626
897.563	552
897.666	220
897.769	1039
897.872	-181
897.975	227
898.078	31
898.181	409
898.284	127
898.387	194
898.490	-251
898.593	1074
898.695	-164
898.798	145
898.901	626
899.004	566
899.107	168
899.209	814
899.312	110
899.415	137
899.518	887
899.620	1069
899.723	-36
899.826	1370
899.928	1226
900.031	623
900.133	516
900.236	409
900.338	169
900.441	-56
900.543	579
900.646	255
900.748	-185
900.851	633
900.953	295
901.055	-808
901.158	339
901.260	114
901.362	436
901.465	-786
901.567	931
901.669	279
901.771	-152
901.873	-825
901.976	376
902.078	527
902.180	494
902.282	-721
902.384	143
902.486	217
902.588	661
902.690	492
902.792	279
902.894	58
902.996	256
903.098	370
903.200	7
903.302	907
903.404	9
903.505	57
903.607	51
903.709	1237
903.811	282
903.913	9
904.014	411
904.116	982
904.218	-212
904.319	737
904.421	320
904.523	685
904.624	157
904.726	615
904.827	225
904.929	-293
905.030	-89
905.132	443
905.233	657
905.335	-19
905.436	-490
905.537	-91
905.639	286
905.740	538
905.841	-145
905.943	-198
906.044	-198
906.145	-58
906.247	-765
906.348	-592
906.449	-326
906.550	792
906.651	151
906.752	573
906.854	617
906.955	53
907.056	201
907.157	66
907.258	27
907.359	406
907.460	-97
907.561	616
907.662	658
907.762	876
907.863	-76
907.964	696
908.065	-235
908.166	244
908.267	91
908.367	61
908.468	384
908.569	770
908.670	619
908.770	949
908.871	-390
908.971	-397
909.072	36
909.173	102
909.273	101
909.374	299
909.474	453
909.575	-767
909.675	192
909.776	1177
909.876	297
909.977	-217
910.077	197
910.177	398
910.278	416
910.378	-258
910.478	378
910.579	486
910.679	665
910.779	285
910.879	9
910.980	525
911.080	233
911.180	-378
911.280	-398
911.380	1116
911.480	-497
911.580	-247
911.680	-110
911.780	574
911.880	292
911.980	182
912.080	201
912.180	169
912.280	151
912.380	477
912.480	-322
912.580	425
912.679	-157
912.779	-594
912.879	-14
912.979	-321
913.078	-584
913.178	534
913.278	335
913.377	363
913.477	386
913.577	-555
913.676	566
913.776	-495
913.875	353
913.975	-85
914.074	-288
914.174	130
914.273	-144
914.373	1439
914.472	146
914.572	-442
914.671	56
914.770	126
914.870	649
914.969	52
915.068	-110
915.167	460
915.267	-145
915.366	-196
915.465	563
915.564	33
915.663	-135
915.763	152
915.862	356
915.961	893
916.060	73
916.159	371
916.258	-302
916.357	-231
916.456	848
916.555	-151
916.654	-95
916.752	322
916.851	730
916.950	348
917.049	-464
917.148	-264
917.247	641
917.345	595
917.444	34
917.543	-254
917.642	248
917.740	328
917.839	114
917.937	-247
918.036	362
918.135	38
918.233	-364
918.332	343
918.430	-98
918.529	498
918.627	-376
918.726	145
918.824	341
918.923	-70
919.021	540
919.119	385
919.218	-935
919.316	-446
919.414	-288
919.512	411
919.611	-577
919.709	131
919.807	112
919.905	510
920.003	1555
920.102	-169
920.200	-293
920.298	716
920.396	-448
920.494	1133
920.592	-193
920.690	544
920.788	154
920.886	-173
920.984	408
921.082	-516
921.180	882
921.277	-302
921.375	200
921.473	1068
921.571	820
921.669	370
921.766	380
921.864	9
921.962	440
922.060	755
922.157	39
922.255	1095
922.352	548
922.450	1243
922.548	1118
922.645	2
922.743	942
922.840	1416
922.938	1670
923.035	2772
923.133	1275
923.230	1768
923.327	2426
923.425	2416
923.522	1595
923.619	1750
923.717	1491
923.814	1282
923.911	1437
924.008	1399
924.106	1311
924.203	1197
924.300	1821
924.397	1509
924.494	2056
924.591	1332
924.688	976
924.786	1144
924.883	1458
924.979	1876
925.077	1935
925.173	1810
925.270	1348
925.367	1340
925.464	2491
925.561	1415
925.658	1424
925.755	1218
925.852	1464
925.948	1653
926.045	1686
926.142	2018
926.239	1090
926.335	1116
926.432	1543
926.529	1362
926.625	1946
926.722	1721
926.818	1324
926.915	2006
927.011	1431
927.108	1444
927.204	1720
927.301	2148
927.397	1213
927.494	1147
927.590	978
927.687	1783
927.783	2037
927.879	777
927.976	432
928.072	1165
928.168	1071
928.264	1514
928.361	882
928.457	1076
928.553	520
928.649	1578
928.745	1553
928.841	1514
928.937	1399
929.033	1982
929.129	829
929.225	268
929.321	1499
929.417	901
929.513	1294
929.609	563
929.705	237
929.801	1466
929.897	741
929.993	1141
930.089	312
930.184	524
930.280	951
930.376	2080
930.471	864
930.567	1469
930.663	1567
930.758	1166
930.854	724
930.950	418
931.045	716
931.141	1159
931.236	1044
931.332	875
931.427	1064
931.523	934
931.618	1437
931.714	622
931.809	1877
931.905	466
932.000	527
932.095	1220
932.191	585
932.286	1083
932.381	395
932.476	1216
932.572	775
932.667	410
932.762	754
932.857	1682
932.952	950
933.047	593
933.142	563
933.237	229
933.332	1245
933.427	1447
933.522	996
933.617	566
933.712	655
933.807	860
933.902	1148
933.997	1413
934.092	422
934.187	405
934.282	934
934.376	350
934.471	388
934.566	639
934.661	657
934.755	977
934.850	429
934.945	499
935.039	-83
935.134	899
935.228	594
935.323	913
935.417	401
935.512	1576
935.606	-368
935.701	689
935.795	931
935.890	524
935.984	1079
936.079	1098
936.173	449
936.267	-47
936.362	-104
936.456	458
936.550	1432
936.644	1203
936.738	604
936.833	863
936.927	717
937.021	498
937.115	789
937.209	18
937.303	1362
937.397	314
937.491	445
937.585	838
937.679	488
937.773	606
937.867	10
937.961	552
938.055	867
938.149	611
938.243	-116
938.337	482
938.430	289
938.524	469
938.618	364
938.712	701
938.805	133
938.899	419
938.993	517
939.086	310
939.180	-87
939.274	111
939.367	323
939.461	631
939.554	18
939.648	756
939.741	83
939.835	313
939.928	797
940.022	1738
940.115	-606
940.208	337
940.302	1171
940.395	1207
940.488	-635
940.582	-427
940.675	13
940.768	1040
940.861	429
940.954	885
941.048	299
941.141	-367
941.234	-881
941.327	656
941.420	1588
941.513	166
941.606	-170
941.699	793
941.792	1325
941.885	7
941.978	444
942.071	199
942.164	-670
942.257	90
942.349	924
942.442	287
942.535	-31
942.628	44
942.721	517
942.813	-657
942.906	899
942.999	602
943.091	-264
943.184	-208
943.277	307
943.369	439
943.462	-372
943.554	-331
943.647	-425
943.739	315
943.832	-552
943.924	-467
944.017	-226
944.109	-244
944.201	120
944.294	190
944.386	106
944.478	-315
944.571	-62
944.663	42
944.755	-147
944.847	68
944.940	592
945.032	-1185
945.124	112
945.216	841
945.308	586
945.400	659
945.492	33
945.584	166
945.676	-305
945.768	-209
945.860	356
945.952	624
946.044	656
946.136	-138
946.228	694
946.320	-736
946.412	-397
946.503	119
946.595	567
946.687	-468
946.779	-393
946.870	248
946.962	-715
947.054	198
947.145	271
947.237	89
947.329	212
947.420	-751
947.512	-3
947.603	430
947.695	413
947.786	-460
947.878	-73
947.969	323
948.061	-1252
948.152	-728
948.243	367
948.335	416
948.426	-366
948.517	-363
948.609	-130
948.700	-447
948.791	-189
948.882	31
948.973	-480
949.065	-1315
949.156	-360
949.247	-130
949.338	-89
949.429	18
949.520	163
949.611	-676
949.702	-51
949.793	675
949.884	-358
949.975	-62
950.066	-601
950.157	-511
950.247	-239
950.338	40
950.429	-17
950.520	4
950.611	-509
950.701	41
950.792	267
950.883	355
950.973	58
951.064	516
951.155	-478
951.245	34
951.336	-101
951.427	-752
951.517	426
951.608	373
951.698	-808
951.788	-640
951.879	-683
951.969	-211
952.060	-863
952.150	-531
952.240	292
952.331	-1575
952.421	631
952.511	-133
952.602	-408
952.692	-964
952.782	-606
952.872	-726
952.962	-596
953.052	-669
953.143	-450
953.233	18
953.323	568
953.413	-526
953.503	319
953.593	446
953.683	419
953.773	-834
953.863	-271
953.953	-367
954.042	-184
954.132	-564
954.222	-332
954.312	-888
954.402	-717
954.492	75
954.581	-414
954.671	-545
954.761	-594
954.850	-112
954.940	-737
955.030	-141
955.119	-653
955.209	-78
955.298	-774
955.388	-188
955.477	890
955.567	-322
955.656	-422
955.746	-191
955.835	96
955.925	-504
956.014	37
956.103	247
956.193	292
956.282	294
956.371	-366
956.461	-525
956.550	-351
956.639	-362
956.728	-418
956.817	-648
956.906	-1039
956.995	-409
957.085	-168
957.174	-31
957.263	-410
957.352	-671
957.441	-879
957.530	-260
957.619	-265
957.708	-185
957.796	-609
957.885	-460
957.974	-381
958.063	615
958.152	-1045
958.241	733
958.329	216
958.418	147
958.507	-1290
958.596	868
958.684	-472
958.773	-403
958.861	-1524
958.950	-473
959.039	49
959.127	-912
959.216	-184
959.304	-261
959.393	-725
959.481	-932
959.570	255
959.658	-248
959.746	-1280
959.835	363
959.923	-917
960.011	-290
960.100	-108
960.188	80
960.276	-574
960.365	-442
960.453	-46
960.541	-412
960.629	-912
960.717	-515
960.805	-589
960.893	-415
960.981	-227
961.069	88
961.158	-1204
961.245	238
961.333	-304
961.421	-194
961.509	-585
961.597	-353
961.685	77
961.773	-906
961.861	-928
961.949	-36
962.036	-550
962.124	425
962.212	-849
962.299	-776
962.387	-1609
962.475	-116
962.562	-973
962.650	469
962.738	572
962.825	-421
962.913	129
963.000	-423
963.088	-1052
963.175	-459
963.263	-765
963.350	-796
963.438	-884
963.525	-745
963.612	-184
963.700	-453
963.787	1676
963.874	-321
963.962	-415
964.049	-409
964.136	-1102
964.223	-802
964.310	-971
964.398	-915
964.485	-386
964.572	-1056
964.659	-341
964.746	-68
964.833	-161
964.920	115
965.007	-248
965.094	-512
965.181	129
965.268	-804
965.355	-60
965.441	-466
965.528	-361
965.615	573
965.702	-308
965.789	-681
965.875	-625
965.962	-227
966.049	-844
966.136	-487
966.222	-825
966.309	-277
966.395	-481
966.482	-209
966.569	-833
966.655	-400
966.742	-70
966.828	36
966.915	-839
967.001	-515
967.087	-1145
967.174	-812
967.260	-703
967.347	-3
967.433	-982
967.519	-279
967.605	-497
967.692	-90
967.778	-801
967.864	-897
967.950	-790
968.036	-568
968.123	-1125
968.209	-387
968.295	-1603
968.381	762
968.467	-197
968.553	-1227
968.639	6
968.725	-1293
968.811	-384
968.897	159
968.983	-144
969.069	-341
969.154	-117
969.240	64
969.326	-763
969.412	-274
969.497	-25
969.583	-222
969.669	-39
969.755	-22
969.840	-461
969.926	935
970.012	-1149
970.097	625
970.183	-510
970.268	99
970.354	-269
970.439	-1272
970.525	-301
970.610	-666
970.696	534
970.781	-359
970.866	-1024
970.952	-95
971.037	-411
971.122	-932
971.208	307
971.293	-985
971.378	-1826
971.463	-545
971.549	74
971.634	-1239
971.719	-230
971.804	-472
971.889	142
971.974	-1374
972.059	-1170
972.144	-558
972.229	275
972.314	-1040
972.399	483
972.484	-697
972.569	-87
972.654	-808
972.739	283
972.824	-1175
972.908	-1007
972.993	-1104
973.078	-803
973.163	-374
973.247	-701
973.332	-2264
973.417	878
973.501	-1239
973.586	-650
973.671	-930
973.755	-1456
973.840	108
973.924	-313
974.009	-384
974.093	-668
974.178	266
974.262	-304
974.346	-542
974.431	-908
974.515	-1077
974.600	-1113
974.684	38
974.768	-776
974.852	-293
974.937	-1771
975.021	-241
975.105	-758
975.189	-819
975.273	-515
975.358	-912
975.442	-1991
975.526	252
975.610	-1494
975.694	-1482
975.778	704
975.862	-526
975.946	-2283
976.030	1389
976.114	-1299
976.198	-184
976.281	-1077
976.365	117
976.449	-454
976.533	-142
976.617	-822
976.700	-774
976.784	-314
976.868	-857
976.951	-418
977.035	-570
977.119	-283
977.202	-1446
977.286	-1137
977.369	79
977.453	65
977.536	-187
977.620	-1457
977.703	-706
977.787	-684
977.870	-483
977.953	1588
978.037	-1345
978.120	-683
978.203	-790
978.287	-605
978.370	-65
978.453	-1156
978.536	-1104
978.620	-355
978.703	-563
978.786	-365
978.869	-1008
978.952	-935
979.035	712
979.118	348
979.201	-1148
979.284	-238
979.367	-454
979.450	-127
979.533	-709
979.616	-740
979.699	-290
979.782	-815
979.865	-409
979.948	-859
980.030	-1104
980.113	-1291
980.196	-1486
980.279	-587
980.361	-379
980.444	-503
980.526	-193
980.609	380
980.692	-1171
980.774	-35
980.857	-1145
980.939	17
981.022	-1599
981.104	-483
981.187	-1870
981.269	772
981.352	-909
981.434	-1279
981.516	-689
981.599	-247
981.681	-631
981.763	-616
981.846	-897
981.928	-431
982.010	-741
982.092	-1154
982.174	122
982.256	-1266
982.339	-500
982.421	-894
982.503	-718
982.585	-1557
982.667	-543
982.749	-1155
982.831	-642
982.913	-1423
982.995	465
983.077	-1402
983.158	-240
983.240	-1718
983.322	-141
983.404	527
983.486	-1168
983.568	-136
983.649	-1158
983.731	-561
983.813	-429
983.894	-376
983.976	-609
984.058	-1064
984.139	232
984.221	-1555
984.302	246
984.384	-146
984.465	-1091
984.547	84
984.628	-807
984.710	-205
984.791	-974
984.872	-1069
984.954	-1809
985.035	-588
985.116	-977
985.198	-506
985.279	-242
985.360	-620
985.441	-735
985.522	-36
985.604	-1455
985.685	-1885
985.766	996
985.847	508
985.928	-992
986.009	-1381
986.090	-730
986.171	-153
986.252	-858
986.333	3
986.414	-1753
986.495	355
986.576	-422
986.656	-517
986.737	-340
986.818	-337
986.899	-526
986.980	-1056
987.060	-156
987.141	-768
987.222	-201
987.302	-435
987.383	-547
987.464	-669
987.544	454
987.625	-522
987.705	-373
987.786	-462
987.866	-998
987.947	-116
988.027	-593
988.108	-396
988.188	-774
988.268	-26
988.349	-461
988.429	-913
988.509	-337
988.589	-784
988.670	-2165
988.750	-49
988.830	-1029
988.910	355
988.990	309
989.070	-692
989.151	-729
989.231	-1483
989.311	-585
989.391	-698
989.471	-344
989.551	-1049
989.631	-334
989.711	-60
989.791	-1209
989.870	-1045
989.950	100
990.030	-928
990.110	-487
990.190	326
990.269	-1283
990.349	-1632
990.429	-892
990.509	-407
990.588	-413
990.668	-685
990.747	-1324
990.827	-1442
990.907	-178
990.986	-675
991.066	-251
991.145	-898
991.225	-571
991.304	-825
991.383	-446
991.463	-759
991.542	-800
991.622	-1314
991.701	-1672
991.780	-982
991.859	-698
991.939	-445
992.018	-225
992.097	-194
992.176	-488
992.256	-907
992.335	-1351
992.414	-32
992.493	-2361
992.572	-1372
992.651	-253
992.730	-666
992.809	-119
992.888	-1203
992.967	-902
993.046	-157
993.125	-1648
993.203	-1295
993.282	141
993.361	-91
993.440	-309
993.519	-1689
993.597	-1292
993.676	-1268
993.755	-245
993.834	-1133
993.912	-765
993.991	9
994.069	-1169
994.148	-1495
994.226	-372
994.305	-568
994.384	-1291
994.462	-1038
994.540	-1535
994.619	-793
994.697	-500
994.776	-1573
994.854	505
994.932	-1734
995.011	-604
995.089	-1654
995.167	-1512
995.245	-769
995.324	-1523
995.402	-672
995.480	-942
995.558	-948
995.636	-1421
995.714	-1955
995.792	-122
995.870	-1265
995.948	-1325
996.026	-644
996.104	-1382
996.182	-923
996.260	-1923
996.338	-1535
996.416	-2118
996.494	-1193
996.572	270
996.649	-1461
996.727	-1819
996.805	-524
996.883	-1622
996.960	-970
997.038	-179
997.116	-975
997.193	-2197
997.271	-534
997.348	-1379
997.426	-1568
997.504	-1782
997.581	-1195
997.658	-792
997.736	-1591
997.813	-1471
997.891	-513
997.968	-1739
998.046	-1430
998.123	-1243
998.200	-313
998.277	-1791
998.355	-386
998.432	-1894
998.509	-1673
998.586	-607
998.663	-874
998.741	-1143
998.818	-2230
998.895	-949
998.972	-794
999.049	-482
999.126	-1608
999.203	-690
999.280	-1397
999.357	-868
999.434	-1840
999.511	-152
999.587	-652
999.664	-1460
999.741	-682
999.818	-1024
999.895	-797
999.971	-1967
1000.048	-1646
1000.125	-945
1000.202	-1541
1000.278	-1113
1000.355	-909
1000.431	-1086
1000.508	-1738
1000.584	-1045
1000.661	-1272
1000.738	-1064
1000.814	-1990
1000.890	-700
1000.967	-1386
1001.043	-1404
1001.120	-2443
1001.196	-865
1001.272	-1729
1001.349	-668
1001.425	-1065
1001.501	-142
1001.577	-1716
1001.654	-857
1001.730	-1629
1001.806	-2400
1001.882	-2271
1001.958	-1229
1002.034	-817
1002.110	-989
1002.186	-2168
1002.262	-1594
1002.338	-1621
1002.414	-1074
1002.490	-712
1002.566	-1852
1002.642	-2033
1002.718	-474
1002.794	-1770
1002.870	-1683
1002.945	-2112
1003.021	-1931
1003.097	-1367
1003.173	-1213
1003.248	-1669
1003.324	-806
1003.400	-1298
1003.475	-1748
1003.551	-1051
1003.626	-1442
1003.702	-1252
1003.777	-1222
1003.853	-1366
1003.928	-1409
1004.004	-1389
1004.079	-1398
1004.155	-1127
1004.230	-2409
1004.305	-896
1004.381	-1090
1004.456	-1199
1004.531	-1248
1004.607	-1235
1004.682	-947
1004.757	-893
1004.832	-1147
1004.907	-671
1004.982	-1715
1005.057	-720
1005.133	-1433
1005.208	-1632
1005.283	-1226
1005.358	-1417
1005.433	-1619
1005.508	-1761
1005.583	-1473
1005.657	-1652
1005.732	-386
1005.807	-2051
1005.882	-2246
1005.957	-1221
1006.032	-801
1006.106	-667
1006.181	-1234
1006.256	-1352
1006.331	-744
1006.405	-2022
1006.480	-1256
1006.554	-1141
1006.629	-1246
1006.704	-1084
1006.778	-1042
1006.853	-1040
1006.927	-1230
1007.002	-2435
1007.076	-1463
1007.150	-1800
1007.225	-1410
1007.299	-996
1007.373	-2471
1007.448	-1695
1007.522	-992
1007.596	-1258
1007.671	-1926
1007.745	-1262
1007.819	-2653
1007.893	-1044
1007.967	-1087
1008.041	-2345
1008.115	-1528
1008.190	-2110
1008.264	-1278
1008.338	-3157
1008.412	-1307
1008.486	-921
1008.560	-902
1008.633	-1600
1008.707	-1769
1008.781	-1105
1008.855	-1831
1008.929	-1526
1009.003	-859
1009.076	-1414
1009.150	-1352
1009.224	-1424
1009.298	-2091
1009.371	-1683
1009.445	-1529
1009.519	-1485
1009.592	-1789
1009.666	-1569
1009.739	-1924
1009.813	-1706
1009.886	-1611
1009.960	-2788
1010.033	-1123
1010.107	-1218
1010.180	-1871
1010.253	-1948
1010.327	-2284
1010.400	-1972
1010.473	-2183
1010.547	-574
1010.620	-1748
1010.693	-1522
1010.766	-2554
1010.840	-1982
1010.913	-1669
1010.986	-2356
1011.059	-1565
1011.132	-1421
1011.205	-436
1011.278	-1521
1011.351	-1417
1011.424	-764
1011.497	-1902
1011.570	-1869
1011.643	-1831
1011.716	-2278
1011.789	-1661
1011.862	-1642
1011.934	-1112
1012.007	-2504
1012.080	-1629
1012.153	-1775
1012.225	-1348
1012.298	-2174
1012.371	-2666
1012.443	-1041
1012.516	-2003
1012.588	-2211
1012.661	-1791
1012.733	-1841
1012.806	-640
1012.879	-2243
1012.951	-1370
1013.023	-1885
1013.096	-1299
1013.168	-1407
1013.241	-997
1013.313	-1089
1013.385	-1862
1013.458	-1756
1013.530	-2140
1013.602	-1788
1013.674	-1281
1013.746	-2160
1013.819	-1832
1013.891	-2030
1013.963	-1447
1014.035	-1828
1014.107	-1945
1014.179	-902
1014.251	-2540
1014.323	-959
1014.395	-1817
1014.467	-1367
1014.539	-1239
1014.611	-2356
1014.683	-1674
1014.754	-1504
1014.826	-2202
1014.898	-1493
1014.970	-2569
1015.042	-692
1015.113	-1323
1015.185	-2043
1015.257	-2405
1015.328	-951
1015.400	-2216
1015.471	-1178
1015.543	-2141
1015.615	-1629
1015.686	-1119
1015.757	-1988
1015.829	-1454
1015.901	-1803
1015.972	-1627
1016.043	-1664
1016.115	-1866
1016.186	-2132
1016.257	-2235
1016.328	-1736
1016.400	-718
1016.471	-2258
1016.542	-1607
1016.613	-1235
1016.685	-1004
1016.756	-2141
1016.827	-1653
1016.898	-2055
1016.969	-895
1017.040	-1676
1017.111	-2110
1017.182	-2172
1017.253	-1849
1017.324	-1964
1017.395	-1617
1017.466	-1203
1017.537	-1781
1017.608	-1675
1017.678	-1771
1017.749	-1588
1017.820	-1357
1017.891	-1459
1017.961	-2268
1018.032	-2096
1018.103	-1895
1018.173	-2128
1018.244	-2074
1018.315	-1471
1018.385	-1214
1018.456	-2394
1018.526	-2240
1018.597	-1998
1018.667	-1703
1018.738	-2480
1018.808	-2501
1018.878	-1829
1018.949	-1237
1019.019	-1025
1019.089	-1489
1019.160	-1847
1019.230	-2428
1019.300	-1768
1019.371	-2414
1019.441	-1975
1019.511	-1834
1019.581	-2126
1019.651	-1196
1019.721	-2265
1019.791	-2192
1019.861	-1613
1019.931	-1304
1020.001	-2247
1020.071	-1971
1020.141	-2221
1020.211	-1355
1020.281	-2087
1020.351	-2835
1020.421	-1041
1020.491	-1477
1020.560	-1837
1020.630	-1800
1020.700	-1071
1020.770	-2379
1020.839	-2724
1020.909	-1829
1020.979	-1140
1021.048	-1654
1021.118	-2357
1021.187	-1143
1021.257	-1290
1021.326	-1362
1021.396	-1926
1021.465	-1631
1021.535	-2164
1021.604	-1980
1021.674	-1750
1021.743	-1920
1021.812	-2011
1021.882	-1644
1021.951	-2313
1022.020	-1730
1022.089	-1033
1022.159	-2727
1022.228	-1987
1022.297	-2162
1022.366	-2013
1022.435	-1860
1022.504	-2040
1022.573	-2312
1022.642	-1249
1022.711	-1455
1022.781	-2111
1022.849	-1565
1022.918	-1622
1022.987	-1139
1023.056	-1803
1023.125	-1378
1023.194	-1724
1023.263	-1520
1023.331	-2134
1023.400	-2198
1023.469	-2040
1023.538	-1077
1023.606	-2266
1023.675	-1692
1023.744	-1556
1023.812	-2437
1023.881	-2639
1023.949	-1767
1024.018	-2077
1024.086	-1487
1024.155	-1886
1024.223	-2009
1024.292	-2076
1024.360	-962
1024.429	-2306
1024.497	-3054
1024.565	-857
1024.634	-1214
1024.702	-1342
1024.770	-2141
1024.838	-1895
1024.907	-916
1024.975	-1691
1025.043	-1313
1025.111	-1249
1025.179	-2358
1025.247	-1970
1025.315	-2017
1025.383	-2434
1025.451	-1681
1025.519	-1585
1025.587	-2306
1025.655	-1144
1025.723	-1962
1025.791	-1318
1025.859	-1142
1025.927	-1900
1025.995	-2070
1026.062	-1768
1026.130	-2116
1026.198	-1835
1026.266	-1256
1026.333	-1386
1026.401	-1926
1026.469	-1423
1026.536	-1600
1026.604	-1864
1026.671	-1305
1026.739	-1636
1026.806	-1598
1026.874	-2315
1026.941	-2175
1027.009	-1987
1027.076	-1810
1027.144	-1276
1027.211	-2925
1027.278	-1393
1027.345	-1850
1027.413	-1455
1027.480	-1752
1027.547	-2431
1027.614	-2014
1027.682	-1856
1027.749	-1772
1027.816	-1891
1027.883	-1809
1027.950	-1686
1028.017	-1554
1028.084	-1083
1028.151	-2116
1028.218	-2163
1028.285	-2164
1028.352	-1791
1028.419	-2061
1028.486	-2582
1028.553	-1607
1028.619	-1656
1028.686	-1804
1028.753	-2242
1028.820	-1574
1028.886	-2513
1028.953	-2415
1029.020	-1984
1029.086	-2231
1029.153	-1435
1029.220	-2379
1029.286	-2104
1029.353	-1727
1029.419	-2109
1029.486	-1645
1029.552	-1887
1029.619	-2740
1029.685	-2262
1029.751	-1613
1029.818	-1408
1029.884	-2302
1029.951	-1613
1030.017	-2678
1030.083	-2080
1030.149	-1606
1030.216	-1338
1030.282	-1914
1030.348	-1950
1030.414	-2241
1030.480	-2083
1030.546	-2012
1030.612	-1575
1030.678	-2261
1030.744	-1706
1030.810	-2764
1030.876	-1469
1030.942	-2065
1031.008	-1891
1031.074	-1943
1031.140	-1582
1031.206	-1216
1031.272	-2035
1031.337	-1906
1031.403	-1719
1031.469	-1584
1031.534	-1601
1031.600	-1093
1031.666	-1705
1031.731	-1622
1031.797	-1693
1031.863	-1489
1031.928	-1660
1031.994	-1836
1032.059	-2193
1032.125	-2336
1032.190	-1551
1032.256	-2683
1032.321	-2461
1032.386	-1693
1032.452	-1178
1032.517	-2232
1032.582	-2464
1032.647	-1763
1032.713	-2065
1032.778	-1644
1032.843	-2248
1032.908	-1895
1032.974	-1970
1033.039	-1052
1033.104	-1562
1033.169	-2961
1033.234	-1927
1033.299	-1860
1033.364	-1691
1033.429	-2287
1033.494	-1673
1033.559	-1372
1033.624	-2392
1033.688	-1662
1033.753	-2304
1033.818	-2086
1033.883	-2250
1033.948	-2249
1034.013	-2182
1034.077	-1945
1034.142	-1496
1034.207	-1794
1034.271	-2326
1034.336	-1146
1034.400	-1343
1034.465	-2538
1034.530	-2496
1034.594	-1717
1034.658	-1684
1034.723	-2986
1034.787	-2025
1034.852	-2240
1034.916	-1014
1034.981	-1451
1035.045	-1502
1035.109	-2475
1035.173	-1789
1035.238	-2032
1035.302	-1363
1035.366	-1997
1035.430	-2155
1035.495	-2609
1035.559	-1662
1035.623	-2184
1035.687	-1590
1035.751	-2242
1035.815	-2608
1035.879	-1916
1035.943	-1895
1036.007	-1928
1036.071	-1561
1036.135	-1970
1036.198	-1989
1036.262	-2438
1036.326	-1157
1036.390	-1626
1036.454	-1515
1036.517	-1667
1036.581	-1407
1036.645	-1210
1036.709	-1967
1036.772	-1484
1036.836	-1674
1036.900	-1978
1036.963	-1766
1037.026	-1893
1037.090	-1544
1037.154	-2170
1037.217	-2031
1037.280	-1892
1037.344	-2042
1037.407	-2472
1037.471	-2144
1037.534	-2061
1037.597	-1542
1037.661	-2397
1037.724	-2218
1037.787	-1581
1037.850	-2400
1037.913	-1842
1037.977	-1470
1038.040	-2019
1038.103	-1949
1038.166	-2207
1038.229	-1567
1038.292	-2065
1038.355	-1865
1038.418	-2489
1038.481	-2113
1038.544	-2506
1038.607	-2237
1038.670	-1824
1038.732	-1719
1038.795	-2579
1038.858	-1581
1038.921	-1425
1038.984	-1449
1039.046	-2203
1039.109	-1944
1039.172	-1641
1039.234	-1872
1039.297	-1968
1039.360	-1700
1039.422	-1877
1039.485	-1884
1039.547	-2017
1039.610	-1921
1039.672	-2058
1039.734	-2377
1039.797	-2634
1039.859	-2041
1039.922	-3185
1039.984	-1473
1040.046	-1915
1040.109	-1390
1040.171	-2062
1040.233	-1634
1040.295	-1696
1040.358	-2465
1040.420	-1772
1040.482	-2564
1040.544	-1222
1040.606	-1860
1040.668	-1766
1040.730	-2476
1040.792	-1725
1040.854	-2231
1040.916	-2139
1040.978	-2443
1041.040	-1576
1041.102	-2081
1041.164	-2253
1041.225	-2218
1041.287	-2028
1041.349	-2320
1041.411	-1828
1041.472	-2388
1041.534	-1723
1041.596	-2734
1041.657	-1534
1041.719	-1536
1041.781	-1880
1041.842	-2367
1041.904	-2173
1041.965	-2627
1042.027	-1632
1042.088	-1485
1042.150	-2125
1042.211	-2314
1042.272	-1865
1042.334	-2187
1042.395	-1845
1042.456	-2359
1042.518	-1638
1042.579	-2239
1042.640	-1965
1042.701	-2712
1042.763	-2326
1042.824	-2881
1042.885	-1849
1042.946	-2451
1043.007	-1312
1043.068	-1830
1043.129	-2280
1043.190	-2290
1043.251	-2199
1043.312	-2358
1043.373	-1431
1043.434	-1751
1043.495	-2230
1043.556	-1613
1043.616	-2024
1043.677	-2277
1043.738	-1829
1043.799	-2069
1043.859	-1547
1043.920	-2499
1043.981	-1588
1044.041	-1377
1044.102	-1999
1044.162	-1913
1044.223	-1553
1044.284	-2698
1044.344	-2067
1044.405	-1962
1044.465	-1955
1044.525	-2079
1044.586	-2229
1044.646	-1655
1044.707	-1767
1044.767	-2109
1044.827	-2312
1044.887	-1915
1044.948	-2223
1045.008	-1644
1045.068	-2656
1045.128	-1762
1045.188	-1722
1045.249	-905
1045.309	-2385
1045.369	-2851
1045.429	-2472
1045.489	-1868
1045.549	-1518
1045.609	-2158
1045.669	-2506
1045.729	-2080
1045.789	-2193
1045.848	-1977
1045.908	-1255
1045.968	-1397
1046.028	-1480
1046.088	-2655
1046.147	-2463
1046.207	-1397
1046.267	-2196
1046.326	-2181
1046.386	-1725
1046.446	-1924
1046.505	-576
1046.565	-1412
1046.624	-1005
1046.684	-728
1046.743	-1485
1046.803	-478
1046.862	-289
1046.922	0
