'Start Wavelength	183.907
'End Wavelength	1046.922
'Gate Delay	5.000
'Gate Width (ms)	1.050
'Laser Output Level	0.000
'X Position	0.000
'Y Position	0.000
'Z Position	0.000
'Grid Point Number	1.000
'Shot Number	100.000
183.907	-176.000
183.977	-38.000
184.047	-69
184.116	1177
184.186	135
184.256	421
184.325	-618
184.395	-198
184.465	729
184.534	566
184.604	51
184.674	272
184.743	-614
184.813	934
184.883	342
184.952	179
185.022	-84
185.092	586
185.161	-208
185.231	325
185.301	25
185.370	577
185.440	33
185.509	784
185.579	-31
185.649	753
185.718	229
185.788	858
185.857	-221
185.927	605
185.996	-458
186.066	234
186.136	-1
186.205	51
186.275	-352
186.344	715
186.414	24
186.483	-53
186.553	578
186.622	676
186.692	129
186.761	-419
186.831	-139
186.900	595
186.970	102
187.039	989
187.109	382
187.178	256
187.248	379
187.317	705
187.387	-320
187.456	874
187.526	236
187.595	501
187.664	-246
187.734	339
187.803	198
187.873	308
187.942	-373
188.012	679
188.081	-189
188.150	198
188.220	724
188.289	623
188.358	95
188.428	486
188.497	-943
188.567	612
188.636	-455
188.705	128
188.775	-664
188.844	501
188.913	434
188.983	405
189.052	-135
189.121	541
189.191	-84
189.260	563
189.329	619
189.399	-4
189.468	176
189.537	309
189.606	123
189.676	79
189.745	913
189.814	820
189.883	-31
189.953	1166
190.022	-240
190.091	1803
190.161	479
190.230	771
190.299	-174
190.368	426
190.437	66
190.507	-205
190.576	28
190.645	737
190.714	373
190.783	704
190.853	172
190.922	1370
190.991	531
191.060	894
191.129	227
191.198	1213
191.268	310
191.337	267
191.406	458
191.475	317
191.544	-2
191.613	302
191.682	-33
191.752	511
191.821	229
191.890	157
191.959	-393
192.028	971
192.097	344
192.166	787
192.235	-986
192.304	802
192.373	89
192.442	633
192.511	-633
192.580	716
192.650	-495
192.719	-606
192.788	-214
192.857	928
192.926	-53
192.995	283
193.064	755
193.133	1246
193.202	174
193.271	683
193.340	681
193.409	232
193.478	942
193.547	478
193.615	1023
193.684	1676
193.753	547
193.822	1284
193.891	-24
193.960	411
194.029	-253
194.098	777
194.167	-136
194.236	973
194.305	10
194.374	559
194.443	335
194.512	255
194.580	77
194.649	1235
194.718	503
194.787	942
194.856	367
194.925	566
194.994	-521
195.062	763
195.131	-295
195.200	500
195.269	-39
195.338	203
195.407	536
195.475	596
195.544	165
195.613	751
195.682	87
195.751	876
195.819	361
195.888	1297
195.957	688
196.026	807
196.094	424
196.163	708
196.232	536
196.301	919
196.369	894
196.438	729
196.507	67
196.576	366
196.644	-55
196.713	967
196.782	-636
196.850	720
196.919	-354
196.988	719
197.056	314
197.125	791
197.194	221
197.262	1433
197.331	176
197.400	1462
197.468	106
197.537	240
197.606	507
197.674	1124
197.743	1451
197.812	575
197.880	816
197.949	1307
198.017	1040
198.086	598
198.155	202
198.223	606
198.292	1020
198.360	1489
198.429	401
198.497	651
198.566	356
198.635	2013
198.703	838
198.772	1399
198.840	1135
198.909	1291
198.977	179
199.046	704
199.114	691
199.183	768
199.251	-191
199.320	578
199.388	214
199.457	46
199.525	393
199.594	560
199.662	425
199.731	142
199.799	758
199.867	67
199.936	-181
200.004	1173
200.073	217
200.141	546
200.210	17
200.278	1077
200.346	248
200.415	827
200.483	490
200.552	743
200.620	364
200.688	1129
200.757	-81
200.825	895
200.893	260
200.962	1147
201.030	245
201.098	610
201.167	635
201.235	473
201.303	-190
201.372	1090
201.440	319
201.508	1489
201.577	420
201.645	883
201.713	-72
201.781	596
201.850	976
201.918	694
201.986	-325
202.055	1007
202.123	-115
202.191	707
202.259	366
202.327	1009
202.396	425
202.464	1072
202.532	22
202.600	2238
202.669	676
202.737	740
202.805	50
202.873	955
202.941	438
203.009	611
203.078	534
203.146	1212
203.214	93
203.282	616
203.350	1087
203.418	1078
203.487	-91
203.555	899
203.623	-23
203.691	1138
203.759	227
203.827	1058
203.895	548
203.963	1536
204.031	577
204.099	961
204.168	316
204.236	1130
204.304	482
204.372	491
204.440	720
204.508	733
204.576	745
204.644	796
204.712	228
204.780	904
204.848	-127
204.916	11
204.984	729
205.052	1790
205.120	401
205.188	557
205.256	-230
205.324	821
205.392	-218
205.460	843
205.528	361
205.596	599
205.664	538
205.732	653
205.799	1441
205.867	2299
205.935	604
206.003	1815
206.071	1256
206.139	1272
206.207	1767
206.275	579
206.343	1147
206.411	1979
206.478	373
206.546	1287
206.614	1312
206.682	1152
206.750	294
206.818	1544
206.885	487
206.953	-1245
207.021	232
207.089	1045
207.157	345
207.225	1316
207.292	-108
207.360	409
207.428	341
207.496	1390
207.563	-85
207.631	1226
207.699	-394
207.767	451
207.834	-9
207.902	1180
207.970	-34
208.038	962
208.105	489
208.173	915
208.241	-243
208.309	690
208.376	977
208.444	1739
208.512	-304
208.579	-772
208.647	-124
208.715	990
208.782	35
208.850	802
208.918	73
208.985	980
209.053	846
209.120	367
209.188	-68
209.256	634
209.323	-117
209.391	782
209.459	899
209.526	867
209.594	321
209.661	1059
209.729	663
209.796	1407
209.864	840
209.932	-82
209.999	1380
210.067	775
210.134	481
210.202	1470
210.269	901
210.337	868
210.404	495
210.472	909
210.539	308
210.607	598
210.674	370
210.742	936
210.809	-390
210.877	740
210.944	799
211.012	216
211.079	1529
211.146	1938
211.214	812
211.281	1082
211.349	687
211.416	1415
211.484	517
211.551	181
211.618	759
211.686	1776
211.753	1328
211.821	2093
211.888	989
211.955	694
212.023	940
212.090	529
212.157	-11
212.225	1224
212.292	1544
212.359	4396
212.427	7603
212.494	3778
212.561	1383
212.629	2301
212.696	572
212.763	1237
212.831	613
212.898	1767
212.965	827
213.032	1598
213.100	746
213.167	741
213.234	433
213.301	1062
213.369	421
213.436	918
213.503	411
213.570	1002
213.638	225
213.705	928
213.772	-343
213.839	851
213.906	845
213.973	1450
214.041	603
214.108	1468
214.175	1066
214.242	1654
214.309	1278
214.376	2249
214.444	540
214.511	1471
214.578	349
214.645	1954
214.712	957
214.779	758
214.846	352
214.913	1485
214.980	1863
215.048	1023
215.115	2179
215.182	1387
215.249	165
215.316	1174
215.383	457
215.450	1323
215.517	1708
215.584	1487
215.651	214
215.718	1491
215.785	1094
215.852	517
215.919	2424
215.986	1329
216.053	308
216.120	-10
216.187	982
216.254	2737
216.321	366
216.388	798
216.455	695
216.522	31
216.589	540
216.656	1408
216.722	1474
216.789	1243
216.856	1740
216.923	750
216.990	694
217.057	1328
217.124	599
217.191	1009
217.258	1959
217.324	1903
217.391	2081
217.458	1873
217.525	931
217.592	1470
217.659	217
217.725	1795
217.792	700
217.859	2246
217.926	-302
217.993	419
218.059	370
218.126	669
218.193	-127
218.260	707
218.327	78
218.393	474
218.460	271
218.527	488
218.594	943
218.660	1847
218.727	1815
218.794	298
218.860	862
218.927	512
218.994	336
219.061	275
219.127	100
219.194	1136
219.261	592
219.327	655
219.394	737
219.461	223
219.527	-218
219.594	1219
219.661	742
219.727	-561
219.794	555
219.860	297
219.927	512
219.994	2264
220.060	1491
220.127	1624
220.193	1077
220.260	997
220.326	1181
220.393	3099
220.460	3354
220.526	2367
220.593	624
220.659	2244
220.726	1509
220.792	4431
220.859	2623
220.925	5265
220.992	6333
221.058	7080
221.125	5815
221.191	3981
221.258	1134
221.324	1557
221.391	1765
221.457	411
221.524	1684
221.590	2088
221.657	6357
221.723	3166
221.789	3191
221.856	3820
221.922	1011
221.989	1502
222.055	1373
222.121	2386
222.188	2886
222.254	2791
222.321	1721
222.387	1896
222.453	1074
222.520	3493
222.586	1048
222.652	2748
222.719	2524
222.785	2646
222.851	996
222.918	2435
222.984	3529
223.050	6355
223.116	1234
223.183	1514
223.249	707
223.315	667
223.382	2211
223.448	637
223.514	-43
223.580	125
223.647	-114
223.713	-444
223.779	893
223.845	2482
223.911	2621
223.978	88
224.044	300
224.110	576
224.176	911
224.242	664
224.309	270
224.375	763
224.441	667
224.507	571
224.573	-673
224.639	731
224.705	144
224.772	305
224.838	459
224.904	1686
224.970	756
225.036	816
225.102	359
225.168	1765
225.234	916
225.300	1162
225.366	473
225.432	1593
225.499	-462
225.565	1075
225.631	533
225.697	1098
225.763	1276
225.829	1834
225.895	1579
225.961	2181
226.027	2418
226.093	3220
226.159	3303
226.225	3224
226.291	6998
226.357	11434
226.423	7129
226.489	4389
226.554	2693
226.620	3605
226.686	2928
226.752	8073
226.818	7712
226.884	15845
226.950	11624
227.016	4500
227.082	2628
227.148	2300
227.214	3661
227.279	7717
227.345	5557
227.411	2917
227.477	1444
227.543	1971
227.609	2008
227.674	7284
227.740	2468
227.806	1803
227.872	2095
227.938	2431
228.003	6963
228.069	2870
228.135	593
228.201	1440
228.267	273
228.332	357
228.398	153
228.464	940
228.530	643
228.595	844
228.661	-353
228.727	1175
228.792	1585
228.858	-82
228.924	-1067
228.990	2348
229.055	51
229.121	722
229.187	897
229.252	761
229.318	1135
229.384	3219
229.449	1932
229.515	-547
229.581	-732
229.646	1193
229.712	977
229.777	2846
229.843	1231
229.909	2771
229.974	5918
230.040	3111
230.105	1659
230.171	1448
230.236	4277
230.302	6359
230.368	1984
230.433	1433
230.499	2369
230.564	8207
230.630	3189
230.695	2104
230.761	1549
230.826	452
230.892	2607
230.957	1302
231.023	793
231.088	1853
231.154	928
231.219	1286
231.284	674
231.350	1888
231.415	1158
231.481	1112
231.546	344
231.612	1658
231.677	-30
231.742	250
231.808	1750
231.873	700
231.939	-1232
232.004	1959
232.069	1200
232.135	1025
232.200	694
232.265	897
232.331	191
232.396	1061
232.461	-663
232.527	544
232.592	-42
232.657	489
232.723	157
232.788	1190
232.853	556
232.918	1024
232.984	-132
233.049	970
233.114	612
233.179	1670
233.245	2236
233.310	2486
233.375	144
233.440	1363
233.506	358
233.571	1047
233.636	721
233.701	1443
233.766	1188
233.832	2757
233.897	1126
233.962	67
234.027	1259
234.092	2146
234.157	1111
234.222	2148
234.288	1099
234.353	6295
234.418	4128
234.483	2922
234.548	1586
234.613	1382
234.678	1608
234.743	1886
234.808	5314
234.873	2141
234.938	1688
235.004	1421
235.069	592
235.134	1253
235.199	843
235.264	1178
235.329	239
235.394	2059
235.459	1948
235.524	1488
235.589	1322
235.654	1349
235.719	-421
235.784	1928
235.849	808
235.913	3043
235.978	3063
236.043	2082
236.108	880
236.173	1162
236.238	1620
236.303	989
236.368	790
236.433	2393
236.498	2069
236.563	2775
236.627	4414
236.692	18796
236.757	13924
236.822	5780
236.887	2972
236.952	3931
237.017	1739
237.081	4215
237.146	2635
237.211	9674
237.276	18099
237.341	28188
237.405	11601
237.470	6400
237.535	3373
237.600	2581
237.664	2166
237.729	1469
237.794	3174
237.859	6505
237.923	3668
237.988	2169
238.053	3817
238.118	4079
238.182	10251
238.247	8252
238.312	2444
238.376	3197
238.441	3315
238.506	4229
238.570	700
238.635	2253
238.700	1704
238.764	697
238.829	3989
238.893	3687
238.958	2655
239.023	1978
239.087	24
239.152	1724
239.216	65
239.281	1903
239.346	1273
239.410	1065
239.475	506
239.539	9303
239.604	5076
239.668	3641
239.733	705
239.797	1812
239.862	2585
239.926	5961
239.991	2259
240.055	2336
240.120	1473
240.184	2223
240.249	54
240.313	1715
240.378	1132
240.442	5841
240.507	9639
240.571	4353
240.635	4555
240.700	4385
240.764	1775
240.829	2490
240.893	1495
240.957	3248
241.022	4729
241.086	7881
241.151	3488
241.215	2266
241.279	3146
241.344	3590
241.408	3303
241.472	1917
241.537	3002
241.601	2942
241.665	832
241.730	1996
241.794	4133
241.858	4759
241.922	2184
241.987	2101
242.051	658
242.115	3706
242.179	3936
242.244	1467
242.308	2384
242.372	3759
242.436	6315
242.501	3074
242.565	388
242.629	1347
242.693	1719
242.757	1730
242.822	3671
242.886	3185
242.950	2768
243.014	1709
243.078	1997
243.142	2264
243.206	1803
243.271	3207
243.335	4416
243.399	5246
243.463	8953
243.527	22948
243.591	5017
243.655	2851
243.719	476
243.783	2965
243.847	3190
243.911	4240
243.975	3167
244.040	2736
244.104	7249
244.168	3476
244.232	1988
244.296	2988
244.360	2978
244.424	1282
244.488	2312
244.552	2394
244.615	432
244.679	2044
244.743	1196
244.807	1239
244.871	656
244.935	2288
244.999	-25
245.063	1994
245.127	2158
245.191	2550
245.255	1627
245.319	1454
245.383	-612
245.446	2590
245.510	289
245.574	1343
245.638	1634
245.702	1121
245.766	3906
245.829	4232
245.893	1006
245.957	1620
246.021	1736
246.085	2820
246.149	1926
246.212	7583
246.276	6756
246.340	3392
246.404	2320
246.467	4272
246.531	3510
246.595	4623
246.659	3247
246.722	1618
246.786	2978
246.850	4003
246.913	2833
246.977	1127
247.041	2258
247.104	3856
247.168	2249
247.232	4798
247.295	9007
247.359	4538
247.423	1542
247.486	3612
247.550	1776
247.614	1689
247.677	1276
247.741	1816
247.804	2167
247.868	3842
247.932	3368
247.995	8969
248.059	2265
248.122	1708
248.186	2805
248.249	3590
248.313	16443
248.376	14703
248.440	8019
248.503	2079
248.567	2938
248.630	3188
248.694	4407
248.757	7949
248.821	16848
248.884	8869
248.948	7438
249.011	12633
249.075	19886
249.138	15436
249.202	4172
249.265	3896
249.328	4628
249.392	3644
249.455	3539
249.519	2406
249.582	2030
249.645	4003
249.709	2729
249.772	3830
249.835	3163
249.899	4146
249.962	2985
250.025	3119
250.089	6296
250.152	8701
250.215	3564
250.279	3354
250.342	4325
250.405	4491
250.468	4353
250.532	4350
250.595	5857
250.658	27774
250.721	40268
250.785	10892
250.848	6819
250.911	3688
250.974	3846
251.038	5426
251.101	10445
251.164	5430
251.227	5006
251.290	5299
251.354	8249
251.417	38792
251.480	31074
251.543	21012
251.606	78157
251.669	43662
251.732	16458
251.795	15755
251.859	16551
251.922	44565
251.985	21278
252.048	16137
252.111	9678
252.174	4907
252.237	9125
252.300	20776
252.363	22598
252.426	55419
252.489	19967
252.552	18830
252.615	10616
252.678	7992
252.741	16459
252.804	27972
252.867	57035
252.930	26881
252.993	22019
253.056	12038
253.119	13664
253.182	8560
253.245	7137
253.308	6571
253.371	4475
253.434	8710
253.497	10325
253.559	13525
253.622	10124
253.685	6880
253.748	4919
253.811	3820
253.874	6507
253.937	4834
254.000	3215
254.062	7127
254.125	9919
254.188	20314
254.251	11239
254.314	4972
254.376	5371
254.439	5861
254.502	4349
254.565	7181
254.628	10113
254.690	4667
254.753	2553
254.816	3811
254.878	3314
254.941	7810
255.004	5950
255.067	3681
255.129	2628
255.192	2568
255.255	1545
255.317	2843
255.380	2255
255.443	2902
255.505	1691
255.568	4019
255.631	5612
255.693	4801
255.756	2913
255.819	3870
255.881	3313
255.944	3220
256.006	2368
256.069	2208
256.132	2272
256.194	3442
256.257	6081
256.319	5027
256.382	3863
256.444	4459
256.507	3638
256.569	3292
256.632	3354
256.694	5077
256.757	11241
256.819	30121
256.882	10186
256.944	4848
257.007	5684
257.069	6378
257.132	7234
257.194	4472
257.257	4644
257.319	3959
257.381	3756
257.444	9463
257.506	34788
257.569	34412
257.631	16181
257.693	8599
257.756	4905
257.818	3836
257.880	2873
257.943	4889
258.005	2303
258.067	8327
258.130	7633
258.192	5767
258.254	4911
258.317	5647
258.379	4935
258.441	7270
258.503	6232
258.566	8508
258.628	9352
258.690	3687
258.753	2810
258.815	4269
258.877	2101
258.939	2860
259.001	5510
259.064	6635
259.126	2627
259.188	3721
259.250	3102
259.312	5624
259.375	16969
259.437	7728
259.499	3936
259.561	3830
259.623	7236
259.685	11976
259.747	4226
259.809	10655
259.872	13845
259.934	29941
259.996	37478
260.058	16109
260.120	5438
260.182	4749
260.244	2702
260.306	2850
260.368	3695
260.430	4916
260.492	21313
260.554	29281
260.616	9445
260.678	11693
260.740	12300
260.802	4050
260.864	3952
260.926	3329
260.988	4896
261.050	6970
261.112	29814
261.174	49387
261.236	15883
261.298	6323
261.359	7397
261.421	9618
261.483	3345
261.545	4609
261.607	1829
261.669	3780
261.731	5504
261.793	7600
261.854	2539
261.916	5348
261.978	14507
262.040	16420
262.102	4997
262.164	4923
262.225	3223
262.287	3515
262.349	4022
262.411	4906
262.472	3443
262.534	4529
262.596	7061
262.658	4609
262.719	2290
262.781	5115
262.843	6610
262.904	4712
262.966	3919
263.028	5331
263.090	18579
263.151	50523
263.213	29471
263.275	25782
263.336	7921
263.398	5857
263.459	3605
263.521	4488
263.583	6199
263.644	5932
263.706	3037
263.767	2971
263.829	3368
263.891	4341
263.952	3659
264.014	5792
264.075	19067
264.137	41984
264.198	14191
264.260	6782
264.321	6590
264.383	19439
264.444	49343
264.506	19058
264.567	11676
264.629	27637
264.690	49552
264.752	17914
264.813	7283
264.875	8339
264.936	13680
264.998	12531
265.059	4111
265.120	5008
265.182	4278
265.243	16966
265.305	15680
265.366	5824
265.427	4404
265.489	6797
265.550	3451
265.611	5115
265.673	7574
265.734	12892
265.795	4981
265.857	3282
265.918	1769
265.979	5500
266.040	27476
266.102	21444
266.163	10482
266.224	16407
266.286	5626
266.347	2786
266.408	3084
266.469	3250
266.530	2071
266.592	2207
266.653	2814
266.714	4306
266.775	2300
266.836	3127
266.898	3459
266.959	17459
267.020	9461
267.081	5009
267.142	1856
267.203	3020
267.264	1579
267.326	3193
267.387	2014
267.448	3271
267.509	2988
267.570	2275
267.631	1352
267.692	1330
267.753	1517
267.814	1420
267.875	3487
267.936	6829
267.997	18308
268.058	9525
268.119	3475
268.180	2215
268.241	1525
268.302	3003
268.363	1998
268.424	1814
268.485	6255
268.546	5991
268.607	2284
268.668	1591
268.729	1382
268.790	2856
268.851	5387
268.912	15999
268.972	7335
269.033	3824
269.094	3030
269.155	2402
269.216	1451
269.277	2118
269.338	930
269.398	1698
269.459	932
269.520	2547
269.581	2212
269.642	2788
269.702	1351
269.763	2645
269.824	1500
269.885	2609
269.945	3172
270.006	1574
270.067	999
270.128	946
270.188	1256
270.249	2811
270.310	1049
270.370	3149
270.431	2259
270.492	1615
270.553	2447
270.613	3566
270.674	4600
270.734	2963
270.795	2160
270.856	3483
270.916	2472
270.977	3246
271.038	2674
271.098	3095
271.159	2180
271.219	2962
271.280	2205
271.340	2386
271.401	2676
271.462	4924
271.522	3382
271.583	3112
271.643	3965
271.704	3275
271.764	3460
271.825	5332
271.885	15594
271.946	20795
272.006	6485
272.066	10244
272.127	16094
272.187	5865
272.248	3885
272.308	4022
272.369	11979
272.429	7783
272.489	11372
272.550	16946
272.610	6486
272.671	5876
272.731	11704
272.791	14211
272.852	4090
272.912	4824
272.972	3279
273.033	3499
273.093	6922
273.153	18141
273.214	12757
273.274	8175
273.334	33879
273.394	29936
273.455	9031
273.515	16960
273.575	32975
273.635	12446
273.696	10530
273.756	16876
273.816	7108
273.876	5691
273.936	12317
273.997	28650
274.057	9940
274.117	5601
274.177	7900
274.237	36998
274.297	25784
274.358	12085
274.418	12612
274.478	13464
274.538	8144
274.598	5967
274.658	11734
274.718	12447
274.778	5294
274.838	4729
274.898	15573
274.958	24865
275.018	17356
275.078	11509
275.138	5382
275.198	4593
275.258	2601
275.318	4544
275.378	4449
275.438	4874
275.498	3676
275.558	10594
275.618	15159
275.678	11809
275.738	17558
275.798	27668
275.858	23369
275.918	6199
275.978	4092
276.038	3425
276.098	3447
276.157	6279
276.217	9690
276.277	5581
276.337	2667
276.397	3196
276.457	3509
276.517	5883
276.576	2220
276.636	2546
276.696	2528
276.756	5885
276.815	4698
276.875	3063
276.935	2577
276.995	2305
277.055	2272
277.114	3263
277.174	2750
277.234	8427
277.293	4168
277.353	3900
277.413	2874
277.472	3157
277.532	2997
277.592	3776
277.651	5664
277.711	8346
277.771	3950
277.830	11176
277.890	7794
277.950	8103
278.009	19163
278.069	8471
278.128	7238
278.188	8509
278.248	5308
278.307	8997
278.367	6819
278.426	4118
278.486	4443
278.545	3861
278.605	3233
278.664	3130
278.724	3279
278.783	8251
278.843	17161
278.902	6192
278.962	3201
279.021	4803
279.081	5580
279.140	4850
279.199	3860
279.259	4883
279.318	4289
279.378	6553
279.437	9629
279.496	35232
279.556	102037
279.615	56453
279.675	14664
279.734	9816
279.793	14350
279.853	27004
279.912	10023
279.971	7453
280.031	6018
280.090	13964
280.149	23507
280.208	21395
280.268	95984
280.327	63422
280.386	16554
280.445	12911
280.505	12635
280.564	19543
280.623	18527
280.682	10807
280.742	10386
280.801	6143
280.860	6168
280.919	12996
280.978	9656
281.037	8741
281.097	6245
281.156	5054
281.215	4513
281.274	6483
281.333	16598
281.392	10355
281.451	3984
281.510	4053
281.569	3576
281.628	3969
281.688	3319
281.747	8141
281.806	10309
281.865	6499
281.924	2822
281.983	4372
282.042	3367
282.101	4222
282.160	3395
282.219	4082
282.278	3611
282.337	6571
282.396	4521
282.454	3486
282.513	6258
282.572	12376
282.631	6704
282.690	3974
282.749	4183
282.808	7787
282.867	7945
282.926	5313
282.985	4160
283.043	4809
283.102	3242
283.161	5432
283.220	14897
283.279	18483
283.338	6130
283.396	4960
283.455	4147
283.514	5173
283.573	4507
283.631	6002
283.690	5825
283.749	4173
283.808	5207
283.866	5765
283.925	3916
283.984	5188
284.043	4655
284.101	4807
284.160	6669
284.219	20194
284.277	7837
284.336	6182
284.395	11435
284.453	10422
284.512	5102
284.570	5815
284.629	5452
284.688	4289
284.746	3772
284.805	5541
284.863	5087
284.922	6221
284.981	6514
285.039	8618
285.098	14815
285.156	37930
285.215	105279
285.273	90603
285.332	34336
285.390	19395
285.449	14441
285.507	10157
285.566	7972
285.624	8323
285.683	6559
285.741	5989
285.799	5424
285.858	6726
285.916	4310
285.975	5033
286.033	4919
286.091	5171
286.150	4208
286.208	8377
286.267	12379
286.325	6815
286.383	5792
286.442	5886
286.500	3947
286.558	5030
286.616	4152
286.675	5192
286.733	4476
286.791	3917
286.850	6367
286.908	8354
286.966	6232
287.024	5179
287.083	4425
287.141	3765
287.199	4149
287.257	5677
287.315	4913
287.374	5405
287.432	6861
287.490	5954
287.548	4366
287.606	5013
287.664	5897
287.723	10603
287.781	18880
287.839	8670
287.897	6720
287.955	7071
288.013	9760
288.071	16145
288.129	58855
288.187	143926
288.245	57267
288.303	21954
288.361	15609
288.419	23725
288.477	16950
288.535	9538
288.593	10512
288.651	10134
288.709	7144
288.767	7993
288.825	6143
288.883	10514
288.941	10365
288.999	6905
289.057	6737
289.115	10935
289.173	8935
289.231	7553
289.289	5548
289.346	5987
289.404	6572
289.462	6978
289.520	6136
289.578	6709
289.636	6149
289.694	5890
289.751	5840
289.809	7075
289.867	5515
289.925	8070
289.983	6770
290.040	7369
290.098	5733
290.156	6244
290.214	6510
290.271	7076
290.329	6841
290.387	6714
290.444	5550
290.502	6716
290.560	10833
290.617	14582
290.675	7069
290.733	7222
290.790	6649
290.848	6253
290.906	6715
290.963	6868
291.021	8165
291.078	8266
291.136	8991
291.194	30798
291.251	50011
291.309	18522
291.366	9549
291.424	8926
291.481	8227
291.539	7351
291.596	6005
291.654	5530
291.711	5066
291.769	5587
291.826	6259
291.884	6676
291.941	5351
291.999	5363
292.056	5157
292.114	5630
292.171	5243
292.228	5927
292.286	7448
292.343	10137
292.401	8497
292.458	7789
292.515	6927
292.573	7835
292.630	6781
292.687	7679
292.745	7857
292.802	18328
292.859	44441
292.917	27443
292.974	14099
293.031	10066
293.089	8837
293.146	8024
293.203	7736
293.260	9652
293.318	14693
293.375	34199
293.432	18380
293.489	10136
293.546	8600
293.604	10746
293.661	16102
293.718	38483
293.775	36632
293.832	16096
293.889	12600
293.947	11872
294.004	10732
294.061	11843
294.118	16290
294.175	42414
294.232	73379
294.289	33041
294.346	16554
294.403	13999
294.460	11418
294.517	11405
294.574	11807
294.631	11593
294.688	12716
294.745	21905
294.802	62395
294.859	88178
294.916	37804
294.973	20397
295.030	14934
295.087	12954
295.144	10869
295.201	12272
295.258	10588
295.315	12001
295.372	17016
295.429	25104
295.486	18986
295.542	22891
295.599	59972
295.656	94818
295.713	63729
295.770	37445
295.827	21020
295.883	18019
295.940	16763
295.997	26946
296.054	23332
296.111	15206
296.167	15267
296.224	12872
296.281	12184
296.338	12860
296.394	12916
296.451	16196
296.508	29794
296.564	61528
296.621	51692
296.678	42290
296.734	60437
296.791	36363
296.848	24810
296.904	20586
296.961	23602
297.018	37623
297.074	42768
297.131	23842
297.187	16078
297.244	17400
297.301	28011
297.357	40769
297.414	21457
297.470	17168
297.527	18922
297.583	14273
297.640	14406
297.696	13292
297.753	12250
297.809	12040
297.866	11866
297.922	12606
297.979	10715
298.035	11145
298.092	12590
298.148	23089
298.204	20329
298.261	16949
298.317	30308
298.374	47816
298.430	25891
298.486	16764
298.543	15207
298.599	16777
298.656	13407
298.712	17085
298.768	24735
298.824	20892
298.881	13384
298.937	13234
298.993	14169
299.050	18232
299.106	16770
299.162	14818
299.218	12963
299.275	12263
299.331	12012
299.387	13666
299.443	26630
299.500	26947
299.556	17265
299.612	14983
299.668	13338
299.724	11848
299.780	11681
299.837	11858
299.893	13413
299.949	23092
300.005	24954
300.061	31131
300.117	52553
300.173	28485
300.229	17785
300.285	17800
300.341	16224
300.397	14021
300.453	11431
300.510	12205
300.566	11962
300.622	12309
300.678	13931
300.734	19431
300.790	23573
300.845	26953
300.901	18657
300.957	20457
301.013	18394
301.069	14060
301.125	12077
301.181	13441
301.237	11462
301.293	12656
301.349	12329
301.405	12963
301.461	11396
301.516	14759
301.572	14961
301.628	15676
301.684	16721
301.740	24483
301.796	23291
301.851	19532
301.907	21312
301.963	23445
302.019	31056
302.074	64260
302.130	60680
302.186	33546
302.242	21235
302.297	19203
302.353	18046
302.409	22521
302.464	22846
302.520	22899
302.576	30548
302.631	31791
302.687	22176
302.743	17040
302.798	14886
302.854	15614
302.910	15258
302.965	20176
303.021	22597
303.076	19771
303.132	19361
303.187	18728
303.243	15350
303.299	14916
303.354	14467
303.410	14192
303.465	14885
303.521	15309
303.576	14944
303.632	15426
303.687	17711
303.743	29567
303.798	26763
303.853	19253
303.909	17175
303.964	15232
304.020	15541
304.075	16686
304.130	16040
304.186	21154
304.241	22553
304.297	21539
304.352	17695
304.358	17594
304.407	16783
304.449	16749
304.463	16746
304.518	17086
304.539	16972
304.573	16831
304.629	18702
304.630	18766
304.684	21923
304.720	27047
304.739	29629
304.794	31918
304.811	29671
304.850	24404
304.902	18478
304.905	18097
304.960	17016
304.992	16771
305.015	16570
305.071	16755
305.083	16465
305.126	15449
305.173	15320
305.181	15308
305.236	14187
305.264	14393
305.292	14575
305.347	14437
305.354	14452
305.402	14684
305.445	14855
305.457	14849
305.512	15847
305.535	15683
305.567	15616
305.622	16863
305.626	17285
305.678	24474
305.716	32918
305.733	36199
305.788	38010
305.807	36441
305.843	33533
305.897	31811
305.898	31765
305.953	32183
305.988	27255
306.008	24439
306.063	18285
306.078	17161
306.118	14385
306.168	13748
306.173	13695
306.228	13137
306.259	13320
306.283	13462
306.338	14276
306.349	14399
306.393	14766
306.440	14787
306.448	14922
306.503	17327
306.530	20230
306.558	25211
306.613	54146
306.620	56167
306.668	60715
306.711	43259
306.723	38967
306.778	25525
306.801	22368
306.833	18842
306.888	14466
306.892	14482
306.943	14870
306.982	14097
306.997	13931
307.052	15360
307.072	16321
307.107	19320
307.162	28986
307.163	29159
307.217	43231
307.253	49976
307.272	51337
307.327	48307
307.343	42739
307.381	31736
307.434	24915
307.436	24845
307.491	40072
307.524	51803
307.546	54942
307.600	36509
307.614	31929
307.655	22009
307.704	17780
307.710	17768
307.765	22008
307.795	28939
307.819	34052
307.874	54146
307.885	52816
307.929	39941
307.975	25163
307.984	23497
308.038	21284
308.065	22387
308.093	28082
308.148	50314
308.156	56494
308.202	84947
308.246	96007
308.257	95573
308.312	55935
308.336	42456
308.366	32164
308.421	22814
308.426	22441
308.475	19362
308.517	17452
308.530	16813
308.585	15207
308.607	15132
308.639	16211
308.694	19519
308.697	20027
308.748	35819
308.787	54755
308.803	56712
308.857	42567
308.877	36062
308.912	29602
308.967	26075
308.967	26107
309.021	24676
309.058	23214
309.076	24090
309.130	30586
309.148	34832
309.185	57593
309.238	105839
309.239	105955
309.293	113172
309.328	94911
309.348	83046
309.402	44616
309.418	36369
309.457	26204
309.508	18822
309.511	18426
309.566	16610
309.598	16263
309.620	16733
309.674	19879
309.688	20950
309.729	20535
309.778	16685
309.783	16360
309.837	13688
309.868	12868
309.892	13579
309.946	16201
309.959	17538
310.001	23613
310.049	30358
310.055	30007
310.109	24217
310.139	19302
310.163	16722
310.218	13533
310.229	13131
310.272	13883
310.319	15221
310.326	15359
310.381	17567
310.409	18178
310.435	18240
310.489	18807
310.499	18981
310.543	20660
310.589	22512
310.598	22563
310.652	24051
310.679	23831
310.706	21226
310.760	15689
310.769	14871
310.814	12479
310.859	10717
310.868	10794
310.923	12119
310.948	13042
310.977	14157
311.031	16032
311.038	16380
311.085	15906
311.128	14878
311.139	14854
311.193	15241
311.218	15543
311.247	15012
311.301	13781
311.308	13679
311.356	15146
311.398	17249
311.410	16838
311.464	14344
311.488	13083
311.518	12254
311.572	11190
311.578	11141
311.626	12841
311.668	14437
311.680	16319
311.734	25524
311.758	29632
311.788	27838
311.842	24004
311.847	23685
311.896	29062
311.937	34363
311.950	32956
312.004	26951
312.027	24241
312.058	20023
312.112	12934
312.117	12291
312.165	14131
312.207	15822
312.297	29043
312.386	22994
312.476	14861
312.566	15765
312.656	12302
312.745	15498
312.835	18297
312.925	18805
313.015	18725
313.104	20689
313.194	11822
313.284	11148
313.374	11942
313.463	11480
313.553	12061
313.643	11761
313.732	10657
313.822	12396
313.912	13972
314.001	14737
314.091	23572
314.180	31673
314.270	18429
314.360	22475
314.449	15435
314.539	13035
314.628	14114
314.718	20880
314.808	23378
314.897	11740
314.987	10541
315.076	11807
315.166	17385
315.255	20700
315.345	18349
315.434	21517
315.524	19615
315.613	15448
315.703	12169
315.792	11480
315.881	12451
315.971	13603
316.060	30122
316.150	58008
316.239	49788
316.328	18410
316.418	11512
316.507	10373
316.597	10387
316.686	12180
316.775	26647
316.865	44827
316.954	11333
317.043	10332
317.133	9695
317.222	10760
317.311	11378
317.400	8497
317.490	9409
317.579	8560
317.668	9034
317.757	9232
317.847	10619
317.936	12635
318.025	10800
318.114	10602
318.203	11123
318.293	12849
318.382	15102
318.471	15886
318.560	35687
318.649	73793
318.738	18424
318.828	12403
318.917	12915
319.006	24536
319.095	55984
319.184	87322
319.273	31912
319.362	13391
319.451	11143
319.540	11159
319.629	12051
319.718	15444
319.807	16797
319.896	41364
319.985	98228
320.074	31818
320.163	24990
320.252	39498
320.341	38096
320.430	27928
320.519	19052
320.608	17672
320.697	19466
320.786	14899
320.875	12268
320.964	12363
321.053	11291
321.142	12350
321.230	16856
321.319	29210
321.408	45937
321.497	26982
321.586	21372
321.675	48096
321.764	44546
321.852	36042
321.941	29150
322.030	20044
322.119	33922
322.207	44145
322.296	72628
322.385	45093
322.474	25234
322.562	38387
322.651	37692
322.740	22662
322.829	48524
322.917	73462
323.006	23742
323.095	22235
323.183	31559
323.272	31998
323.361	46661
323.449	100583
323.538	46814
323.626	95056
323.715	47056
323.804	36389
323.892	86858
323.981	43621
324.069	22140
324.158	59952
324.246	41262
324.335	19692
324.424	15073
324.512	12602
324.601	11867
324.689	13407
324.778	25725
324.866	48447
324.954	16706
325.043	14962
325.131	36839
325.220	63265
325.308	59978
325.397	47283
325.485	23620
325.574	11518
325.662	10593
325.750	10666
325.839	12064
325.927	12558
326.015	17063
326.104	35027
326.192	36631
326.280	13185
326.369	14573
326.457	11651
326.545	14069
326.634	9683
326.722	10223
326.810	9269
326.898	9743
326.987	10950
327.075	18072
327.163	33444
327.251	18496
327.340	12687
327.428	13901
327.516	10151
327.604	12042
327.692	16205
327.781	25004
327.869	38702
327.957	19375
328.045	10982
328.133	11661
328.221	20691
328.309	10942
328.397	10213
328.485	10920
328.574	10031
328.662	14612
328.750	30409
328.838	21856
328.926	11036
329.014	10179
329.102	15770
329.190	40346
329.278	16614
329.366	8657
329.454	12970
329.542	13035
329.630	11511
329.718	11205
329.806	9643
329.893	18214
329.981	15205
330.069	7963
330.157	11471
330.245	16352
330.333	10867
330.421	8199
330.509	9892
330.597	16737
330.684	28364
330.772	27643
330.860	53555
330.948	62248
331.036	19515
331.123	9332
331.211	14926
331.299	20581
331.387	49755
331.475	65253
331.562	24799
331.650	11673
331.738	20121
331.825	30723
331.913	12059
332.001	10034
332.089	23368
332.176	45565
332.264	70427
332.352	50036
332.439	22227
332.527	18782
332.614	19872
332.702	24101
332.790	11559
332.877	35670
332.965	54179
333.052	12639
333.140	17299
333.228	25938
333.315	10594
333.403	16421
333.490	50637
333.578	26078
333.665	10383
333.753	10220
333.840	10277
333.928	16627
334.015	51492
334.103	58692
334.190	120558
334.278	35704
334.365	27163
334.452	14935
334.540	10863
334.627	22078
334.715	23416
334.802	40806
334.889	164023
334.977	100632
335.064	18424
335.151	13387
335.239	19554
335.326	23852
335.413	69350
335.501	64114
335.588	15701
335.675	12627
335.762	27112
335.850	40210
335.937	15817
336.024	47943
336.111	148342
336.199	63690
336.286	14928
336.373	9895
336.460	8442
336.547	11495
336.635	15520
336.722	12205
336.809	14028
336.896	14272
336.983	45285
337.070	95088
337.157	114269
337.245	105912
337.332	57760
337.419	15868
337.506	13988
337.593	17705
337.680	49831
337.767	95795
337.854	35179
337.941	51985
338.028	56143
338.115	20487
338.202	36996
338.289	45647
338.376	91635
338.463	35047
338.550	78650
338.637	56599
338.724	36642
338.811	45824
338.898	14053
338.984	13898
339.071	22430
339.158	12713
339.245	23919
339.332	18091
339.419	42535
339.506	31655
339.593	7568
339.679	6769
339.766	7689
339.853	14534
339.940	10453
340.027	8828
340.113	6484
340.200	9208
340.287	10769
340.374	8993
340.460	9962
340.547	8538
340.634	7532
340.720	12644
340.807	7315
340.894	7662
340.980	9377
341.067	6940
341.154	9314
341.240	6813
341.327	6307
341.414	5472
341.500	5400
341.587	8926
341.674	7619
341.760	6540
341.847	6175
341.933	5675
342.020	4457
342.106	5065
342.193	5246
342.279	5809
342.366	5005
342.452	5683
342.539	5378
342.625	7062
342.712	7630
342.798	5898
342.885	6706
342.971	4593
343.058	5331
343.144	5136
343.230	4314
343.317	4450
343.403	4040
343.490	5379
343.576	5420
343.662	4708
343.749	5224
343.835	5868
343.921	10084
344.008	24564
344.094	37778
344.180	11086
344.267	7541
344.353	26521
344.439	42000
344.525	10585
344.612	6712
344.698	5582
344.784	4697
344.870	5021
344.957	4464
345.043	5420
345.129	4408
345.215	6935
345.301	6355
345.387	6449
345.474	6463
345.560	9466
345.646	16842
345.732	10464
345.818	6971
345.904	6616
345.990	6683
346.076	15936
346.162	29816
346.249	8873
346.335	5767
346.421	5218
346.507	9180
346.593	15684
346.679	10539
346.765	10159
346.851	5935
346.937	6051
347.023	5418
347.108	4249
347.194	4494
347.280	5887
347.366	4229
347.452	8091
347.538	18506
347.624	21693
347.710	35212
347.796	11636
347.882	10230
347.967	10889
348.053	23377
348.139	12016
348.225	6378
348.311	4742
348.397	4338
348.482	5943
348.568	7250
348.654	3657
348.740	3054
348.825	3476
348.911	7284
348.997	16722
349.083	33868
349.168	12533
349.254	5543
349.340	6657
349.425	4388
349.511	7116
349.597	9790
349.682	4634
349.768	9944
349.854	10195
349.939	11200
350.025	6760
350.110	3916
350.196	3997
350.282	3437
350.367	7363
350.453	23075
350.538	18177
350.624	11660
350.709	12856
350.795	5586
350.880	3668
350.966	7489
351.051	19205
351.137	14502
351.222	4769
351.308	5226
351.393	7267
351.479	3498
351.564	3552
351.649	5811
351.735	5431
351.820	3445
351.906	4088
351.991	9618
352.076	9559
352.162	7082
352.247	4017
352.332	3439
352.418	4544
352.503	6772
352.588	10375
352.673	7266
352.759	4596
352.844	3152
352.929	3631
353.014	3777
353.100	4344
353.185	4850
353.270	4377
353.355	5084
353.441	5944
353.526	11281
353.611	7607
353.696	4162
353.781	4447
353.866	2908
353.952	4008
354.037	4237
354.122	6053
354.207	6513
354.292	4724
354.377	4062
354.462	3644
354.547	3555
354.632	8866
354.717	15758
354.802	5709
354.887	3328
354.972	3812
355.057	2560
355.142	3164
355.227	3557
355.312	3142
355.397	4105
355.482	7351
355.567	7059
355.652	7714
355.737	5076
355.822	11142
355.907	7031
355.991	3361
356.076	3364
356.161	5541
356.246	3242
356.331	3867
356.416	6428
356.501	21820
356.585	16501
356.670	3406
356.755	5071
356.840	4662
356.924	18300
357.009	43176
357.094	15448
357.179	5888
357.263	5576
357.348	10474
357.433	13258
357.517	5825
357.602	3306
357.687	3007
357.771	5984
357.856	7953
357.941	5293
358.025	16440
358.110	46738
358.195	17623
358.279	3742
358.364	3000
358.448	6587
358.533	12736
358.617	10620
358.702	13997
358.787	7353
358.871	3841
358.956	3991
359.040	2610
359.125	2163
359.209	2860
359.294	4037
359.378	4359
359.462	4085
359.547	8571
359.631	12004
359.716	4089
359.800	10693
359.885	19204
359.969	5344
360.053	4718
360.138	3377
360.222	2856
360.306	4179
360.391	8494
360.475	7223
360.559	7302
360.644	10658
360.728	9951
360.812	14015
360.896	28599
360.981	36937
361.065	25835
361.149	7142
361.233	6890
361.318	6682
361.402	7996
361.486	5384
361.570	2620
361.654	3983
361.739	5440
361.823	18972
361.907	24191
361.991	6542
362.075	3758
362.159	3978
362.243	6351
362.327	7972
362.411	9109
362.495	11887
362.580	8222
362.664	5352
362.748	2803
362.832	3055
362.916	2118
363.000	6740
363.084	19757
363.168	28866
363.252	9410
363.336	11117
363.420	22324
363.503	88870
363.587	82414
363.671	12971
363.755	11346
363.839	12295
363.923	4572
364.007	7202
364.091	17261
364.175	44693
364.258	112141
364.342	47425
364.426	16916
364.510	14000
364.594	22488
364.677	17814
364.761	23090
364.845	15032
364.929	5408
365.013	4975
365.096	4680
365.180	9519
365.264	46500
365.347	121501
365.431	66339
365.515	21350
365.598	4180
365.682	8258
365.766	29519
365.849	31447
365.933	12814
366.017	25534
366.100	21775
366.184	9215
366.267	8211
366.351	3150
366.435	3067
366.518	2313
366.602	1924
366.685	3727
366.769	5460
366.852	23342
366.936	24736
367.019	7042
367.103	20899
367.186	37510
367.270	7876
367.353	1507
367.436	3653
367.520	2632
367.603	2999
367.687	2652
367.770	4232
367.853	4678
367.937	9594
368.020	10870
368.104	3657
368.187	4366
368.270	4850
368.353	6051
368.437	29928
368.520	82027
368.603	37213
368.687	15173
368.770	15915
368.853	7963
368.936	23317
369.020	29119
369.103	6288
369.186	4513
369.269	4379
369.352	7449
369.436	15510
369.519	8210
369.602	3458
369.685	7002
369.768	7964
369.851	9177
369.934	5445
370.018	8595
370.101	6240
370.184	14123
370.267	15076
370.350	12792
370.433	22670
370.516	18414
370.599	18466
370.682	10777
370.765	16370
370.848	17477
370.931	29313
371.014	30425
371.097	6882
371.180	3574
371.263	4361
371.346	2524
371.429	4693
371.511	5915
371.594	8752
371.677	24680
371.760	36263
371.843	9928
371.926	23329
372.009	41511
372.091	20291
372.174	25513
372.257	41111
372.340	19579
372.423	45406
372.505	61928
372.588	18068
372.671	9052
372.754	14614
372.836	12594
372.919	45981
373.002	72712
373.085	16334
373.167	6075
373.250	8295
373.332	18885
373.415	33718
373.498	50670
373.580	25198
373.663	28971
373.746	31489
373.828	11891
373.911	14923
373.993	21841
374.076	81646
374.159	79045
374.241	22965
374.324	22168
374.406	14611
374.489	19351
374.571	37302
374.654	14597
374.736	17527
374.819	41119
374.901	42578
374.983	33657
375.066	8345
375.148	14586
375.231	69589
375.313	116334
375.395	53127
375.478	9504
375.560	5877
375.643	7584
375.725	21338
375.807	48675
375.890	78155
375.972	62555
376.054	38256
376.136	70409
376.219	25668
376.301	15573
376.383	22956
376.465	9481
376.548	5646
376.630	9754
376.712	18549
376.794	8765
376.877	3662
376.959	4087
377.041	8298
377.123	33242
377.205	33509
377.287	5480
377.369	3125
377.452	3538
377.534	3478
377.616	4711
377.698	2743
377.780	1790
377.862	2081
377.944	3617
378.026	2521
378.108	3802
378.190	4191
378.272	3974
378.354	3251
378.436	5007
378.518	18832
378.600	51884
378.682	24638
378.764	9577
378.846	13733
378.928	17831
379.010	7614
379.091	4547
379.173	3061
379.255	3518
379.337	4418
379.419	7321
379.501	15261
379.583	15647
379.664	7842
379.746	7117
379.828	16503
379.910	12790
379.991	9306
380.073	6166
380.155	7429
380.237	3593
380.318	2720
380.400	2864
380.482	7437
380.564	8626
380.645	9513
380.727	7478
380.809	5373
380.890	3599
380.972	3170
381.053	4159
381.135	6993
381.217	6835
381.298	15079
381.380	11976
381.461	14213
381.543	23473
381.624	21188
381.706	10303
381.787	17445
381.869	12886
381.951	15965
382.032	37986
382.113	28154
382.195	17582
382.276	11866
382.358	9467
382.439	18757
382.521	24638
382.602	33671
382.684	23133
382.765	43290
382.846	37909
382.928	19288
383.009	10596
383.090	8414
383.172	21164
383.253	35260
383.334	38069
383.416	42968
383.497	15635
383.578	9856
383.659	21233
383.741	27592
383.822	42056
383.903	21322
383.984	16432
384.066	29542
384.147	18132
384.228	9939
384.309	7325
384.390	4858
384.471	6571
384.553	11764
384.634	17963
384.715	11671
384.796	7655
384.877	6233
384.958	9617
385.039	8028
385.120	5320
385.201	11360
385.282	30194
385.363	38225
385.444	16520
385.525	9441
385.606	18539
385.687	19981
385.768	29335
385.849	32378
385.930	29341
386.011	35891
386.092	15370
386.173	11364
386.254	19121
386.335	17657
386.416	11036
386.496	15400
386.577	30952
386.658	40250
386.739	28867
386.820	42495
386.901	36408
386.981	22315
387.062	8117
387.143	5989
387.224	15055
387.304	28503
387.385	24379
387.466	28923
387.547	37651
387.627	13611
387.708	11945
387.789	23650
387.869	21559
387.950	10941
388.031	10215
388.111	26849
388.192	88947
388.273	118357
388.353	51678
388.434	12344
388.514	9952
388.595	20849
388.676	22189
388.756	14680
388.837	13723
388.917	9385
388.998	7341
389.078	6118
389.159	3741
389.239	2428
389.320	6969
389.400	8982
389.480	27561
389.561	32219
389.641	12433
389.722	8678
389.802	11728
389.883	17822
389.963	30109
390.043	45466
390.124	33170
390.204	8893
390.284	10170
390.365	17055
390.445	57834
390.525	58548
390.605	19515
390.686	6060
390.766	4128
390.846	3309
390.927	4061
391.007	4837
391.087	13188
391.167	13267
391.247	11554
391.328	31798
391.408	44666
391.488	27303
391.568	6882
391.648	4801
391.728	4442
391.808	5240
391.888	5115
391.969	10774
392.049	16991
392.129	27949
392.209	18206
392.289	14396
392.369	24695
392.449	50128
392.529	24801
392.609	14064
392.689	12282
392.769	12921
392.849	14056
392.929	35026
393.009	52754
393.089	19044
393.169	10166
393.248	28289
393.328	105929
393.408	106263
393.488	23004
393.568	5962
393.648	3891
393.728	4564
393.807	4298
393.887	4894
393.967	4655
394.047	3781
394.127	4051
394.206	7838
394.286	33838
394.366	115575
394.446	108349
394.525	21674
394.605	7631
394.685	20612
394.764	66366
394.844	92282
394.924	50247
395.003	9073
395.083	4858
395.163	3887
395.242	4558
395.322	3925
395.402	3315
395.481	9982
395.561	39119
395.640	80039
395.720	56286
395.799	91217
395.879	64108
395.958	17365
396.038	49312
396.117	154440
396.197	158070
396.276	72990
396.356	45731
396.435	44493
396.515	16483
396.594	5489
396.673	7688
396.753	32503
396.832	90101
396.912	57710
396.991	10522
397.070	5089
397.150	2579
397.229	4168
397.308	2873
397.388	4052
397.467	4285
397.546	4194
397.625	1634
397.705	4457
397.784	2434
397.863	2416
397.942	3850
398.022	9000
398.101	44166
398.180	102067
398.259	63672
398.338	16446
398.417	9422
398.497	11206
398.576	11039
398.655	4350
398.734	4234
398.813	8086
398.892	40578
398.971	95314
399.050	46603
399.129	6977
399.208	5120
399.287	6377
399.366	4859
399.445	7160
399.524	6625
399.603	3812
399.682	8580
399.761	32176
399.840	97113
399.919	77083
399.998	16919
400.077	4098
400.156	3914
400.235	13174
400.313	11716
400.392	12458
400.471	9955
400.550	10529
400.629	9073
400.708	11022
400.786	21524
400.865	47831
400.944	44719
401.023	17714
401.102	3775
401.180	6104
401.259	12067
401.338	17549
401.416	15315
401.495	12967
401.574	17852
401.652	13963
401.731	16888
401.810	15017
401.888	5832
401.967	4107
402.046	5863
402.124	14316
402.203	19226
402.281	9829
402.360	17994
402.438	50131
402.517	37930
402.596	20438
402.674	24026
402.753	12282
402.831	7029
402.910	8865
402.988	23798
403.066	45446
403.145	25116
403.223	15218
403.302	22074
403.380	20256
403.459	18274
403.537	13681
403.615	11074
403.694	3145
403.772	3751
403.850	3056
403.929	3704
404.007	4432
404.085	6279
404.164	3793
404.242	2258
404.320	6804
404.398	12046
404.477	13532
404.555	25178
404.633	20683
404.711	8023
404.789	5299
404.868	3482
404.946	4168
405.024	2073
405.102	1826
405.180	1587
405.258	1665
405.336	4581
405.415	7977
405.493	19583
405.571	11752
405.649	3456
405.727	7055
405.805	14396
405.883	9875
405.961	15369
406.039	23831
406.117	6852
406.195	2476
406.273	6597
406.351	25095
406.429	33412
406.507	25499
406.585	9500
406.663	3011
406.740	3349
406.818	4256
406.896	5392
406.974	4414
407.052	4386
407.130	14958
407.208	15771
407.285	4461
407.363	2366
407.441	3268
407.519	2149
407.596	3089
407.674	6551
407.752	18663
407.830	40564
407.907	26511
407.985	7381
408.063	3743
408.141	6083
408.218	19076
408.296	14816
408.373	2837
408.451	1619
408.529	1406
408.606	1588
408.684	837
408.762	1217
408.839	1752
408.917	1456
408.994	503
409.072	463
409.149	1399
409.227	1705
409.304	843
409.382	986
409.459	1014
409.537	2096
409.614	938
409.692	1063
409.769	857
409.846	4063
409.924	8041
410.001	2708
410.079	2436
410.156	3352
410.233	1882
410.311	1738
410.388	1354
410.465	1490
410.543	1718
410.620	2436
410.697	1798
410.775	1666
410.852	95
410.929	2811
411.006	4188
411.083	2462
411.161	5855
411.238	17498
411.315	16302
411.392	3502
411.469	3155
411.547	2414
411.624	502
411.701	1988
411.778	1933
411.855	2398
411.932	3112
412.009	3689
412.086	5176
412.163	11011
412.240	14782
412.317	18005
412.394	14880
412.471	4957
412.548	1833
412.625	3072
412.702	10086
412.779	15302
412.856	7622
412.933	4753
413.010	4010
413.087	5550
413.164	7753
413.241	6849
413.318	3252
413.395	2674
413.471	2761
413.548	2665
413.625	5276
413.702	12001
413.779	10186
413.855	2464
413.932	3237
414.009	3096
414.086	3253
414.162	3534
414.239	8616
414.316	15543
414.393	12135
414.469	4044
414.546	3604
414.623	3032
414.699	2284
414.776	2469
414.853	3222
414.929	4536
415.006	8084
415.082	16284
415.159	9396
415.236	4112
415.312	2234
415.389	2435
415.465	3407
415.542	2809
415.618	1266
415.695	2097
415.771	2477
415.848	5066
415.924	7778
416.000	9903
416.077	5321
416.153	1805
416.230	1335
416.306	4130
416.383	6006
416.459	5138
416.535	3140
416.612	3811
416.688	2781
416.764	2927
416.841	2638
416.917	5091
416.993	4938
417.069	6678
417.146	7821
417.222	4660
417.298	3579
417.374	3023
417.451	4862
417.527	2339
417.603	737
417.679	2109
417.755	2479
417.831	1058
417.908	2286
417.984	2550
418.060	1745
418.136	3068
418.212	1924
418.288	3566
418.364	4103
418.440	2546
418.516	8053
418.592	21967
418.668	16397
418.744	3733
418.820	4142
418.896	3913
418.972	1389
419.048	1467
419.124	3650
419.200	961
419.276	1740
419.352	770
419.428	1294
419.504	758
419.579	829
419.655	646
419.731	1223
419.807	1949
419.883	2340
419.959	2634
420.034	3687
420.110	5349
420.186	5381
420.262	6053
420.337	6137
420.413	4115
420.489	2011
420.565	2363
420.640	1834
420.716	1816
420.792	575
420.867	2461
420.943	1643
421.019	2591
421.094	2237
421.170	3825
421.245	1693
421.321	1401
421.397	685
421.472	2693
421.548	3648
421.623	3420
421.699	1644
421.774	1880
421.850	1193
421.925	2369
422.001	1344
422.076	1769
422.152	1206
422.227	1457
422.302	2309
422.378	3070
422.453	5736
422.529	11644
422.604	43003
422.679	81981
422.755	40566
422.830	9489
422.905	2548
422.981	2333
423.056	1358
423.131	1527
423.207	2007
423.282	1678
423.357	2443
423.432	2039
423.508	2275
423.583	3114
423.658	3270
423.733	8019
423.808	11281
423.883	4410
423.959	1162
424.034	155
424.109	1163
424.184	968
424.259	1035
424.334	1358
424.409	1180
424.484	1901
424.559	1897
424.634	2476
424.709	1709
424.784	1542
424.859	3134
424.934	5481
425.009	6398
425.084	7443
425.159	6875
425.234	4470
425.309	1495
425.384	2427
425.459	2759
425.534	6837
425.609	11675
425.683	6633
425.758	2937
425.833	5717
425.908	6506
425.983	3568
426.058	9618
426.132	11191
426.207	13693
426.282	27873
426.357	25212
426.431	6768
426.506	6908
426.581	9077
426.655	6478
426.730	3020
426.805	2308
426.879	3847
426.954	4716
427.029	8401
427.103	10813
427.178	19011
427.253	15752
427.327	10837
427.402	22200
427.476	36037
427.551	14861
427.625	14334
427.700	13155
427.774	10100
427.849	12941
427.923	7470
427.998	5903
428.072	9724
428.147	17519
428.221	23370
428.296	32084
428.370	12619
428.444	13119
428.519	32686
428.593	52326
428.667	45484
428.742	53038
428.816	42826
428.890	56293
428.965	52629
429.039	47607
429.113	64090
429.188	22604
429.262	5507
429.336	6948
429.410	12130
429.485	17511
429.559	43626
429.633	33237
429.707	8176
429.781	22791
429.855	77750
429.930	95414
430.004	107931
430.078	150223
430.152	94915
430.226	28821
430.300	18394
430.374	7298
430.448	11327
430.522	51891
430.596	109570
430.670	53625
430.744	23788
430.818	26567
430.892	10193
430.966	4362
431.040	5323
431.114	3848
431.188	5545
431.262	6581
431.336	9262
431.410	28591
431.484	57916
431.557	26810
431.631	4533
431.705	4051
431.779	8676
431.853	28456
431.927	20032
432.000	4877
432.074	7281
432.148	17625
432.222	15801
432.295	5550
432.369	4368
432.443	10357
432.516	28753
432.590	35794
432.664	22967
432.737	6757
432.811	1742
432.885	1586
432.958	2227
433.032	1790
433.106	1574
433.179	2056
433.253	1649
433.326	1547
433.400	2443
433.473	3615
433.547	2734
433.620	1719
433.694	3412
433.767	7617
433.841	7725
433.914	3385
433.988	2846
434.061	2532
434.134	2048
434.208	1886
434.281	1921
434.355	2114
434.428	3887
434.501	3629
434.575	5199
434.648	7426
434.721	2817
434.795	719
434.868	508
434.941	1719
435.014	852
435.088	768
435.161	1774
435.234	1400
435.307	2476
435.381	4243
435.454	3409
435.527	3581
435.600	2404
435.673	1837
435.746	1988
435.819	1256
435.892	1432
435.966	2814
436.039	4750
436.112	6262
436.185	2420
436.258	1677
436.331	361
436.404	1828
436.477	1353
436.550	1404
436.623	1816
436.696	1222
436.769	3146
436.842	3974
436.915	8219
436.987	9831
437.060	4124
437.133	2595
437.206	4488
437.279	4916
437.352	1888
437.425	1776
437.498	3018
437.570	4368
437.643	2801
437.716	1660
437.789	877
437.861	2311
437.934	3510
438.007	1966
438.080	1773
438.152	1581
438.225	2659
438.298	11901
438.370	28029
438.443	12446
438.516	3304
438.588	1517
438.661	1877
438.734	3218
438.806	5184
438.879	5436
438.951	2854
439.024	2544
439.096	2931
439.169	2202
439.241	2348
439.314	4824
439.386	17318
439.459	23606
439.531	23015
439.604	7729
439.676	2649
439.749	2055
439.821	2230
439.893	2994
439.966	5297
440.038	5727
440.110	4450
440.183	3402
440.255	2728
440.327	5950
440.400	23386
440.472	41729
440.544	20817
440.617	6314
440.689	4446
440.761	3156
440.833	3281
440.905	3315
440.978	2903
441.050	2378
441.122	3024
441.194	2833
441.266	2984
441.338	2418
441.411	2868
441.483	7601
441.555	10921
441.627	11065
441.699	21767
441.771	25379
441.843	8116
441.915	2768
441.987	1567
442.059	2413
442.131	8212
442.203	16090
442.275	16342
442.347	11333
442.419	6074
442.491	8449
442.563	18482
442.635	32761
442.706	50464
442.778	33472
442.850	5849
442.922	3394
442.994	9882
443.066	15173
443.137	10170
443.209	5955
443.281	6349
443.353	16890
443.425	29358
443.496	22021
443.568	15907
443.640	11683
443.711	10943
443.783	5375
443.855	5028
443.926	4353
443.998	10317
444.070	16977
444.141	11332
444.213	6643
444.285	7260
444.356	16046
444.428	18555
444.499	7612
444.571	3405
444.642	3460
444.714	2897
444.785	5321
444.857	22741
444.928	56866
445.000	36528
445.071	41740
445.143	43374
445.214	14589
445.285	31847
445.357	80350
445.428	60414
445.500	63612
445.571	72387
445.642	30531
445.714	48796
445.785	68196
445.856	20054
445.928	4284
445.999	3713
446.070	3210
446.141	4032
446.213	6773
446.284	10290
446.355	18784
446.426	13176
446.497	9631
446.569	22806
446.640	22157
446.711	7283
446.782	7639
446.853	17662
446.924	14258
446.995	5996
447.066	12179
447.138	28972
447.209	15663
447.280	3107
447.351	2587
447.422	5140
447.493	12638
447.564	10846
447.635	3792
447.706	3223
447.777	3440
447.847	3753
447.918	5902
447.989	15990
448.060	21973
448.131	43817
448.202	31501
448.273	15183
448.344	10401
448.414	4624
448.485	4299
448.556	3770
448.627	2951
448.698	3409
448.768	3663
448.839	9365
448.910	25151
448.981	20102
449.051	5215
449.122	3624
449.193	3746
449.263	5660
449.334	4668
449.405	4466
449.475	7557
449.546	13477
449.616	28094
449.687	23960
449.758	8283
449.828	5475
449.899	3698
449.969	2640
450.040	4676
450.110	12896
450.181	14215
450.251	5269
450.322	4245
450.392	8139
450.463	6452
450.533	5452
450.604	7520
450.674	7358
450.744	5926
450.815	5930
450.885	5732
450.955	5061
451.026	5065
451.096	8106
451.166	12034
451.237	32198
451.307	66696
451.377	29858
451.447	6310
451.518	5290
451.588	6705
451.658	6985
451.728	16483
451.799	62196
451.869	71757
451.939	22637
452.009	6075
452.079	4170
452.149	6557
452.219	21725
452.289	71218
452.360	52983
452.430	12156
452.500	6472
452.570	7071
452.640	12925
452.710	40765
452.780	63824
452.850	23144
452.920	8185
452.990	6736
453.060	6771
453.129	7351
453.199	15576
453.269	58483
453.339	112625
453.409	166816
453.479	173453
453.549	248809
453.619	268370
453.688	121320
453.758	25835
453.828	10618
453.898	9745
453.968	9357
454.037	7619
454.087	7463
454.107	7329
454.168	6138
454.177	5900
454.247	5046
454.249	5241
454.316	6489
454.330	8572
454.386	14059
454.411	26670
454.456	44714
454.492	52685
454.525	60187
454.574	33063
454.595	21787
454.655	11267
454.665	9713
454.734	17201
454.736	18224
454.804	34888
454.817	44724
454.873	74654
454.898	78526
454.943	84544
454.979	61144
455.013	42787
455.060	28580
455.082	23175
455.141	29454
455.152	29314
455.221	64926
455.222	66129
455.291	89409
455.303	81578
455.360	54658
455.384	53846
455.430	49143
455.465	55019
455.499	57436
455.546	75705
455.569	79899
455.627	50982
455.638	47462
455.707	14449
455.708	14532
455.777	11448
455.789	11870
455.846	12796
455.869	12165
455.916	11244
455.950	12255
455.985	12038
456.031	12480
456.054	13081
456.112	10602
456.124	10485
456.193	13348
456.193	13200
456.262	19251
456.274	20951
456.332	26045
456.355	28376
456.401	27502
456.436	20963
456.470	16737
456.516	10869
456.540	8476
456.597	7255
456.609	6937
456.678	7571
456.678	7517
456.747	7767
456.759	7736
456.817	6837
456.840	6835
456.886	7641
456.920	9108
456.955	11424
457.001	13287
457.024	15094
457.082	22966
457.093	24169
457.162	35231
457.163	35472
457.232	34559
457.243	31947
457.301	20504
457.324	15841
457.370	10831
457.405	10543
457.439	10435
457.485	10117
457.508	9936
457.566	11369
457.577	11431
457.646	10908
457.647	10953
457.715	10526
457.727	10654
457.784	10676
457.808	10652
457.853	10782
457.889	11140
457.922	11208
457.969	11417
457.991	11506
458.050	11724
458.060	11737
458.129	12594
458.130	12670
458.198	12852
458.211	12682
458.267	12044
458.292	12071
458.336	12733
458.372	13362
458.405	14243
458.453	15857
458.474	16471
458.533	18768
458.543	18788
458.611	20887
458.614	20951
458.680	18196
458.694	17326
458.749	15572
458.775	15243
458.818	15258
458.855	16029
458.887	16838
458.936	17782
458.955	17846
459.016	18970
459.024	18948
459.093	18693
459.097	18750
459.162	20194
459.177	20554
459.230	20369
459.257	19912
459.299	19257
459.338	18952
459.368	18888
459.418	19742
459.437	19763
459.499	18714
459.505	18551
459.574	17874
459.579	17855
459.643	17912
459.659	17972
459.711	19387
459.740	20481
459.780	22837
459.820	25142
459.849	27235
459.900	32524
459.917	31029
459.981	25777
459.986	25684
460.054	19725
460.061	19381
460.123	19496
460.141	19784
460.191	19946
460.222	20302
460.260	20394
460.302	20252
460.328	19876
460.382	19220
460.397	19600
460.462	21281
460.465	21370
460.534	24404
460.543	24739
460.602	32420
460.623	35588
460.671	45273
460.703	52847
460.739	44979
460.783	34163
460.808	32868
460.864	26420
460.876	26068
460.944	26905
460.945	26822
461.013	22773
461.024	21871
461.081	21392
461.104	21393
461.150	20618
461.184	20123
461.218	20667
461.264	21483
461.286	22081
461.345	23865
461.355	24304
461.423	27771
461.425	27865
461.491	39566
461.505	42018
461.559	84851
461.585	105342
461.628	153240
461.665	199058
461.696	192943
461.745	191389
461.764	163871
461.825	49156
461.832	48056
461.901	32822
461.905	32778
461.969	28978
461.985	28244
462.037	32278
462.065	34275
462.105	50456
462.145	67343
462.173	87442
462.225	125702
462.241	136248
462.305	185630
462.310	178711
462.378	67287
462.385	52878
462.446	34472
462.465	30603
462.514	28230
462.545	29006
462.582	30021
462.625	31443
462.650	33297
462.705	37303
462.718	41015
462.785	60130
462.786	60667
462.854	91698
462.865	97096
462.922	103580
462.945	106623
462.990	72796
463.025	41585
463.058	38070
463.104	33875
463.126	32853
463.184	33051
463.194	33291
463.262	35160
463.264	35206
463.330	40412
463.344	41448
463.398	47047
463.424	49911
463.466	52056
463.504	54447
463.533	53752
463.583	51601
463.601	54195
463.663	62572
463.669	65691
463.737	102428
463.743	105727
463.805	172308
463.823	191670
463.873	287870
463.903	348200
463.940	328864
463.982	310867
464.008	240601
464.062	75874
464.076	70946
464.142	41663
464.144	41301
464.211	37095
464.221	36780
464.279	40174
464.301	41564
464.347	52566
464.381	60691
464.414	72060
464.461	87976
464.482	85696
464.540	80845
464.550	76497
464.617	41828
464.620	40537
464.685	39581
464.699	39755
464.753	44538
464.779	46925
464.820	54682
464.859	61886
464.888	68696
464.938	80332
464.956	80042
465.018	79716
465.023	77666
465.091	47752
465.098	44493
465.158	43700
465.177	43727
465.226	45088
465.257	45929
465.293	47014
465.336	48146
465.361	54903
465.416	69758
465.428	82206
465.495	149186
465.496	150112
465.563	255791
465.575	274075
465.631	276434
465.654	277275
465.698	158546
465.734	56187
465.765	50336
465.813	41720
465.833	41497
465.893	43550
465.900	43377
465.968	41374
465.972	41175
466.035	40735
466.052	40494
466.102	40148
466.131	39842
466.170	40353
466.210	40749
466.237	41744
466.290	43563
466.304	44139
466.369	46227
466.372	46360
466.439	47707
466.449	47802
466.506	63284
466.528	69073
466.573	120330
466.607	158541
466.641	220122
466.687	305210
466.708	316390
466.766	346302
466.775	316365
466.842	85477
466.845	74351
466.909	60085
466.925	56894
466.977	54887
467.004	53927
467.044	55275
467.083	56420
467.111	59293
467.163	64365
467.178	64433
467.242	64041
467.245	64445
467.312	70030
467.321	70622
467.379	82765
467.400	86924
467.446	107810
467.480	122534
467.559	79409
467.638	67754
467.717	69586
467.796	65643
467.875	66503
467.955	87679
468.034	182365
468.113	351234
468.192	437016
468.271	76638
468.350	58361
468.429	64110
468.508	57310
468.588	65041
468.667	73782
468.746	70232
468.825	70555
468.904	68552
468.983	113169
469.062	190244
469.141	197423
469.220	65901
469.299	70585
469.378	69440
469.456	60314
469.535	61787
469.614	70191
469.693	96518
469.772	137370
469.851	223002
469.930	85857
470.009	54398
470.088	48313
470.166	50439
470.245	51094
470.324	50579
470.403	48804
470.482	49037
470.560	49332
470.639	50449
470.718	55419
470.797	61874
470.875	98071
470.954	148629
471.033	143659
471.111	49874
471.190	48431
471.269	50149
471.347	53775
471.426	65487
471.505	80695
471.583	61768
471.662	54749
471.740	54925
471.819	53799
471.898	52963
471.976	53930
472.055	60453
472.133	86341
472.212	135784
472.290	138593
472.369	63654
472.447	55624
472.526	50975
472.604	50866
472.683	50959
472.761	50495
472.839	50652
472.918	54764
472.996	72135
473.075	94495
473.153	72803
473.231	65644
473.310	84932
473.388	68742
473.466	63931
473.545	53055
473.623	51703
473.701	52811
473.780	51529
473.858	50370
473.936	51985
474.014	55024
474.093	83864
474.171	155116
474.249	236369
474.327	89094
474.405	46070
474.484	44998
474.562	46669
474.640	53853
474.718	63707
474.796	52301
474.874	43666
474.952	41859
475.030	43492
475.108	43861
475.187	45236
475.265	46351
475.343	53350
475.421	55692
475.499	51833
475.577	66691
475.655	132511
475.733	286441
475.811	480353
475.889	409337
475.966	169492
476.044	65696
476.122	76151
476.200	79809
476.278	75852
476.356	74717
476.434	82670
476.512	87008
476.590	94932
476.667	83418
476.745	71426
476.823	73083
476.901	84546
476.979	90931
477.056	77994
477.134	76172
477.212	69635
477.290	66955
477.367	69468
477.445	71688
477.523	72081
477.601	70334
477.678	83322
477.756	116379
477.834	122973
477.911	70653
477.989	72993
478.066	80604
478.144	98164
478.222	71000
478.299	75898
478.377	68182
478.454	61553
478.532	61391
478.609	60569
478.687	62605
478.764	61986
478.842	60844
478.919	65311
478.997	66625
479.074	77933
479.152	110209
479.229	146239
479.307	69438
479.384	59727
479.461	64068
479.539	85516
479.616	101735
479.694	75949
479.771	98369
479.848	110080
479.926	166545
480.003	129091
480.080	64020
480.157	66648
480.235	64461
480.312	74124
480.389	121868
480.467	209260
480.544	222461
480.621	97261
480.698	94309
480.775	115640
480.853	119818
480.930	88173
481.007	95387
481.084	119319
481.161	111871
481.238	107797
481.315	80948
481.392	79812
481.470	82305
481.547	83144
481.624	82308
481.701	83825
481.778	92802
481.855	118446
481.932	189448
482.009	311039
482.086	139180
482.163	76560
482.240	77021
482.317	86398
482.393	79427
482.470	84366
482.547	89985
482.624	77591
482.701	81469
482.778	74900
482.855	65538
482.932	67377
483.009	66627
483.085	70180
483.162	75430
483.239	71159
483.316	65994
483.393	67481
483.469	75050
483.546	101805
483.623	103831
483.699	74634
483.776	76644
483.853	88383
483.930	166016
484.006	359851
484.083	497239
484.160	126632
484.236	123527
484.313	110049
484.389	104085
484.466	89788
484.543	88753
484.619	99119
484.696	113171
484.772	148799
484.849	164661
484.925	98213
485.002	96360
485.078	102716
485.155	100831
485.231	96330
485.308	97074
485.384	116689
485.461	196013
485.537	360799
485.614	344350
485.690	100388
485.766	90372
485.843	88601
485.919	88630
485.995	86071
486.072	83929
486.148	84652
486.224	87834
486.301	106979
486.377	129919
486.453	101809
486.530	94146
486.606	112535
486.682	156175
486.758	280246
486.835	312788
486.911	241115
486.987	405714
487.063	158473
487.139	99159
487.215	88578
487.292	78769
487.368	85424
487.444	92039
487.520	90466
487.596	73770
487.672	76662
487.748	88146
487.824	87559
487.900	83831
487.976	94985
488.052	113199
488.128	104236
488.204	99563
488.280	101499
488.356	179958
488.432	416019
488.508	524489
488.584	100689
488.660	72066
488.736	71814
488.812	72024
488.888	80571
488.964	84382
489.039	100884
489.115	117129
489.191	98474
489.267	100732
489.343	97144
489.418	72850
489.494	72976
489.570	72173
489.646	74094
489.722	78340
489.797	106216
489.873	240156
489.949	505199
490.024	266562
490.100	80567
490.176	76310
490.251	80100
490.327	75677
490.403	67760
490.478	62929
490.554	59264
490.629	62152
490.705	64311
490.781	73460
490.856	82107
490.932	73536
491.007	66276
491.083	76518
491.158	93779
491.234	181515
491.309	411153
491.385	288176
491.460	94600
491.536	90966
491.611	63810
491.686	63138
491.762	69002
491.837	103773
491.913	187081
491.988	231364
492.063	170019
492.139	244937
492.214	126726
492.289	57582
492.365	59031
492.440	77376
492.515	107784
492.590	94299
492.666	78287
492.741	147429
492.816	241112
492.891	78753
492.967	52608
493.042	52047
493.117	51838
493.192	55485
493.267	82861
493.342	157118
493.418	145227
493.493	52005
493.568	51440
493.643	64446
493.718	114845
493.793	171820
493.868	86219
493.943	46751
494.018	57721
494.093	73876
494.168	64109
494.243	47046
494.318	49878
494.393	50529
494.468	45212
494.543	42008
494.618	49516
494.693	57839
494.768	68936
494.842	55991
494.917	42827
494.992	43190
495.067	42141
495.142	41312
495.217	44237
495.292	49317
495.366	68299
495.441	96844
495.516	110716
495.591	111446
495.665	162316
495.740	206001
495.815	134133
495.890	115609
495.964	107773
496.039	103684
496.114	99239
496.188	100250
496.263	102510
496.338	114759
496.412	140059
496.487	137037
496.561	111657
496.636	107780
496.710	112073
496.785	138929
496.860	157656
496.934	100342
497.009	94450
497.083	95709
497.158	108106
497.232	143987
497.307	162331
497.381	122489
497.455	190070
497.530	235261
497.604	119633
497.679	157211
497.753	272063
497.827	259799
497.902	149525
497.976	214392
498.050	582530
498.125	1440394
498.199	921721
498.273	163761
498.348	115515
498.422	106612
498.496	103343
498.570	96871
498.645	104120
498.719	120849
498.793	179107
498.867	329601
498.941	400231
499.016	827115
499.090	1422041
499.164	339268
499.238	107063
499.312	98487
499.386	105297
499.460	116160
499.534	118547
499.609	166231
499.683	276846
499.757	223636
499.831	492718
499.905	1239451
499.979	788301
500.053	367725
500.127	263383
500.201	120260
500.275	113905
500.349	113306
500.422	122999
500.496	148189
500.570	287825
500.644	801720
500.718	1083076
500.792	206761
500.866	155895
500.940	222093
501.013	139536
501.087	132057
501.161	174085
501.235	353130
501.309	876787
501.382	1422722
501.456	759956
501.530	403405
501.603	631348
501.677	175487
501.751	117039
501.825	155801
501.898	347205
501.972	753951
502.046	296942
502.119	168336
502.193	402802
502.266	763875
502.340	315036
502.413	513478
502.487	803576
502.561	466847
502.634	115616
502.708	90550
502.781	84465
502.855	80002
502.928	84703
503.002	86010
503.075	90285
503.149	96270
503.222	92628
503.295	105847
503.369	134117
503.442	237839
503.516	755923
503.589	1353698
503.662	676462
503.736	350883
503.809	750028
503.882	464479
503.956	701893
504.029	394000
504.102	114022
504.175	87363
504.249	89283
504.322	146602
504.395	120685
504.468	92872
504.542	106728
504.615	68833
504.688	63452
504.761	75267
504.834	82293
504.907	67080
504.980	80516
505.053	77807
505.127	72907
505.200	126439
505.273	183260
505.346	92320
505.419	81481
505.492	71089
505.565	59293
505.638	61908
505.711	69560
505.784	67732
505.857	66038
505.930	68964
506.003	68811
506.076	78801
506.149	134643
506.221	142826
506.294	126175
506.367	370555
506.440	790287
506.513	263146
506.586	158866
506.659	77164
506.731	65710
506.804	85431
506.877	97746
506.950	88055
507.022	74435
507.095	136651
507.168	117014
507.241	54411
507.313	49788
507.386	53545
507.459	51983
507.531	46312
507.604	51348
507.677	51421
507.749	44322
507.822	51563
507.894	64477
507.967	60336
508.040	50016
508.112	52715
508.185	56874
508.257	47507
508.330	54933
508.402	62811
508.475	75383
508.547	76573
508.620	103393
508.692	167277
508.765	66040
508.837	51442
508.909	48370
508.982	50347
509.054	48679
509.127	44960
509.199	49652
509.271	48206
509.344	43973
509.416	46453
509.488	50377
509.560	46732
509.633	42420
509.705	48338
509.777	54161
509.849	51131
509.922	46719
509.994	45785
510.066	49285
510.138	49010
510.210	61391
510.283	62326
510.355	52922
510.427	46541
510.499	45924
510.571	44807
510.643	47894
510.715	48410
510.787	46386
510.859	60353
510.931	76682
511.003	52019
511.076	54498
511.148	53965
511.219	75718
511.291	172617
511.363	148240
511.435	46647
511.507	44586
511.579	45774
511.651	46931
511.723	46397
511.795	45679
511.867	58547
511.939	114677
512.010	273630
512.082	118119
512.154	52139
512.226	46250
512.298	49608
512.369	57758
512.441	50087
512.513	46359
512.585	44327
512.656	57062
512.728	59461
512.800	42358
512.871	47793
512.943	45112
513.015	37203
513.086	39680
513.158	41778
513.230	48213
513.301	51319
513.373	41924
513.444	36562
513.516	38251
513.588	38315
513.659	38243
513.731	40728
513.802	40165
513.874	47229
513.945	50552
514.016	43547
514.088	42072
514.159	41683
514.231	49112
514.302	51270
514.374	56662
514.445	106453
514.516	266020
514.588	120227
514.659	118190
514.730	228934
514.802	75429
514.873	39091
514.944	43643
515.016	45173
515.087	65241
515.158	164113
515.229	169944
515.301	44059
515.372	44643
515.443	38546
515.514	35737
515.585	33566
515.656	35924
515.728	34231
515.799	35660
515.870	37144
515.941	41338
516.012	38225
516.083	40679
516.154	38891
516.225	39862
516.296	39122
516.367	37399
516.438	39237
516.509	44532
516.580	60048
516.651	131905
516.722	219396
516.793	121614
516.864	110864
516.935	125945
517.006	124294
517.077	128525
517.148	161915
517.219	295631
517.289	475704
517.360	738533
517.431	194120
517.502	98452
517.573	95737
517.643	93654
517.714	96269
517.785	94948
517.856	95905
517.926	96525
517.997	94275
518.068	94915
518.138	97881
518.209	116457
518.280	220404
518.350	373889
518.421	127835
518.492	94948
518.562	113860
518.633	126568
518.703	93528
518.774	107104
518.845	137687
518.915	115651
518.986	103305
519.056	109847
519.127	137498
519.197	299727
519.268	798839
519.338	345206
519.408	147529
519.479	90013
519.549	79863
519.620	80979
519.690	72822
519.760	81589
519.831	71931
519.901	76795
519.971	77586
520.042	102707
520.112	121415
520.182	80596
520.253	82118
520.323	80539
520.393	84465
520.463	81068
520.534	109599
520.604	139733
520.674	97467
520.744	118725
520.814	125022
520.885	140369
520.955	400006
521.025	855923
521.095	211073
521.165	99901
521.235	101615
521.305	81609
521.375	66854
521.445	68000
521.515	63243
521.585	70499
521.655	66398
521.725	73019
521.795	80725
521.865	90953
521.935	172593
522.005	114193
522.075	75302
522.145	85839
522.215	131015
522.285	185905
522.355	314753
522.424	545053
522.494	318447
522.564	96688
522.634	99394
522.704	98134
522.774	67644
522.843	69145
522.913	62005
522.983	62056
523.053	61068
523.122	63018
523.192	57670
523.262	74837
523.331	67850
523.401	55830
523.471	53632
523.540	57151
523.610	50129
523.680	60869
523.749	72062
523.819	116512
523.888	91746
523.958	60067
524.027	77598
524.097	83732
524.166	66129
524.236	63666
524.305	72650
524.375	66384
524.444	66117
524.514	76919
524.583	96341
524.653	127242
524.722	122252
524.791	74558
524.861	68814
524.930	64793
524.999	63947
525.069	88090
525.138	111237
525.207	129508
525.277	69495
525.346	68378
525.415	65179
525.484	72262
525.554	111348
525.623	79811
525.692	63972
525.761	67373
525.830	59266
525.900	67654
525.969	99313
526.038	78044
526.107	64635
526.176	79980
526.245	75131
526.314	101522
526.383	95872
526.452	81772
526.522	145915
526.591	212317
526.660	88970
526.729	63592
526.797	71515
526.867	102888
526.935	189761
527.004	140008
527.073	79240
527.142	67591
527.211	59416
527.280	54674
527.349	54673
527.418	50931
527.487	54030
527.555	54021
527.624	48547
527.693	50208
527.762	52753
527.831	51126
527.899	56644
527.968	56710
528.037	56231
528.106	58884
528.174	83916
528.243	110560
528.312	169280
528.380	115947
528.449	66627
528.518	54234
528.586	48186
528.655	52069
528.723	50372
528.792	55469
528.861	68658
528.929	59274
528.998	52564
529.066	47907
529.135	49594
529.203	48623
529.272	48164
529.340	47828
529.409	54866
529.477	61898
529.545	104459
529.614	86021
529.682	131774
529.751	116416
529.819	111842
529.887	63298
529.956	55455
530.024	54459
530.092	43973
530.161	43871
530.229	49056
530.297	45382
530.365	43337
530.434	42969
530.502	43003
530.570	44472
530.638	43252
530.707	46192
530.775	56061
530.843	49857
530.911	49099
530.979	45307
531.047	50457
531.115	52748
531.183	50540
531.252	54188
531.320	58161
531.388	51117
531.456	49115
531.524	45348
531.592	47467
531.660	51741
531.728	48491
531.796	46952
531.864	46756
531.932	50268
532.000	46453
532.067	47698
532.135	43687
532.203	49266
532.271	49381
532.339	55862
532.407	61461
532.475	50891
532.542	48722
532.610	50388
532.678	55787
532.746	102732
532.814	117107
532.881	57344
532.949	50135
533.017	48636
533.084	50974
533.152	50043
533.220	47917
533.287	44860
533.355	44643
533.423	49620
533.490	46283
533.558	49719
533.625	50665
533.693	54270
533.761	53737
533.828	55644
533.896	45827
533.963	54309
534.031	57780
534.098	64622
534.166	54434
534.233	47877
534.300	47043
534.368	50588
534.435	48715
534.503	45536
534.570	43332
534.637	44013
534.705	45191
534.772	45451
534.840	44730
534.907	55074
534.974	54695
535.041	70755
535.109	89991
535.176	46644
535.243	43210
535.310	42638
535.378	41415
535.445	41771
535.512	40238
535.579	48544
535.646	47669
535.714	47452
535.781	49523
535.848	52535
535.915	61142
535.982	54434
536.049	53202
536.116	53531
536.183	49293
536.250	51406
536.317	51181
536.384	53416
536.451	52960
536.518	52374
536.585	56947
536.652	67146
536.719	58539
536.786	54394
536.853	54949
536.920	88944
536.987	83022
537.053	62144
537.120	96690
537.187	63795
537.254	51795
537.321	51525
537.388	49844
537.454	50310
537.521	47581
537.588	47210
537.654	52393
537.721	49491
537.788	48252
537.855	43734
537.921	46366
537.988	46848
538.055	48247
538.121	47975
538.188	46695
538.254	51546
538.321	54823
538.388	50040
538.454	50334
538.521	44798
538.587	44038
538.654	46850
538.720	44155
538.787	46770
538.853	59661
538.920	76638
538.986	85658
539.053	64429
539.119	56365
539.185	51187
539.252	50044
539.318	48410
539.385	52045
539.451	50295
539.517	49911
539.583	62208
539.650	103433
539.716	107686
539.782	51448
539.849	46320
539.915	48404
539.981	44620
540.047	47098
540.114	51165
540.180	49621
540.246	44447
540.312	52103
540.378	69452
540.444	57096
540.510	65239
540.576	78371
540.643	54662
540.709	47857
540.775	49368
540.841	59892
540.907	99816
540.973	105483
541.039	55866
541.105	49876
541.171	48554
541.237	48748
541.303	50474
541.369	48718
541.435	49591
541.500	52678
541.566	45970
541.632	45865
541.698	45858
541.764	48374
541.830	48946
541.896	51641
541.961	49497
542.027	47415
542.093	44291
542.159	46688
542.224	53800
542.290	56536
542.356	59694
542.421	54723
542.487	48985
542.553	58954
542.618	68876
542.684	47972
542.750	52013
542.815	60596
542.881	95494
542.947	95726
543.012	56119
543.078	45806
543.143	49487
543.209	50812
543.274	46802
543.340	50859
543.405	58112
543.471	52773
543.536	50695
543.602	56357
543.667	53806
543.732	47699
543.798	52977
543.863	51083
543.928	46194
543.994	44840
544.059	47002
544.124	42683
544.190	44284
544.255	42366
544.320	41035
544.386	43207
544.451	48458
544.516	46632
544.581	55306
544.646	89623
544.712	74273
544.777	70270
544.842	99361
544.907	106321
544.972	81291
545.037	80929
545.102	91298
545.168	89634
545.233	91999
545.298	95093
545.363	105628
545.428	87301
545.493	92274
545.558	98683
545.623	92599
545.688	89140
545.753	83427
545.818	86443
545.883	86137
545.947	86451
546.012	111436
546.077	103047
546.142	84630
546.207	78752
546.272	82993
546.337	81076
546.401	80682
546.466	82980
546.531	84982
546.596	87327
546.661	78379
546.725	76987
546.790	77693
546.855	77528
546.919	77920
546.984	83261
547.049	96687
547.113	115768
547.178	85605
547.243	100310
547.307	103406
547.372	128840
547.436	136080
547.501	77964
547.565	78566
547.630	82676
547.695	106577
547.759	168526
547.823	99785
547.888	76639
547.952	77127
548.017	86593
548.081	119144
548.146	183023
548.210	112427
548.274	74745
548.339	67636
548.403	71616
548.468	68316
548.532	71560
548.596	73579
548.660	75161
548.725	81717
548.789	120557
548.853	107093
548.917	99614
548.982	188715
549.046	135786
549.110	80996
549.174	74912
549.238	71252
549.303	63608
549.367	70136
549.431	69624
549.495	68848
549.559	71138
549.623	70701
549.687	81175
549.751	87846
549.815	83431
549.879	80724
549.943	77780
550.007	87660
550.071	82701
550.135	82138
550.199	85176
550.263	87899
550.327	126475
550.391	159537
550.455	86463
550.519	83315
550.582	78689
550.646	82659
550.710	83170
550.774	79503
550.838	82318
550.901	86963
550.965	86672
551.029	94772
551.093	114865
551.156	184045
551.220	398630
551.284	260316
551.347	201274
551.411	563846
551.475	343589
551.538	85455
551.602	77354
551.666	74535
551.729	70875
551.793	76506
551.856	74484
551.920	73693
551.983	72756
552.047	73241
552.110	67783
552.174	70865
552.237	70369
552.301	67848
552.364	70939
552.428	73909
552.491	70522
552.554	68696
552.618	74192
552.681	73520
552.745	76363
552.808	78583
552.871	78107
552.934	71222
552.998	84452
553.061	92709
553.124	73138
553.187	71827
553.251	79309
553.314	82565
553.377	76084
553.440	93090
553.503	146768
553.567	124318
553.630	73244
553.693	74862
553.756	74272
553.819	67271
553.882	75368
553.945	68332
554.008	65263
554.071	66201
554.134	68211
554.197	65526
554.260	59495
554.323	70170
554.386	70475
554.449	65441
554.512	64910
554.575	68162
554.638	75202
554.701	64700
554.764	64747
554.827	69548
554.889	62389
554.952	62705
555.015	65290
555.078	66429
555.141	63084
555.203	61800
555.266	65170
555.329	67363
555.391	57712
555.454	63854
555.517	65693
555.580	62226
555.642	58606
555.705	62666
555.768	63483
555.830	63841
555.893	60742
555.955	64040
556.018	66275
556.080	64193
556.143	62375
556.206	66449
556.268	73889
556.330	68223
556.393	68044
556.455	89347
556.518	160799
556.580	106453
556.643	61901
556.705	61518
556.767	62926
556.830	66157
556.892	61788
556.955	62215
557.017	63968
557.079	65894
557.142	60133
557.204	63200
557.266	72476
557.328	72866
557.391	66138
557.453	66490
557.515	66047
557.577	69981
557.639	64980
557.701	62635
557.764	62437
557.826	70357
557.888	74414
557.950	63352
558.012	62240
558.074	66786
558.136	69121
558.198	70171
558.260	75536
558.322	70724
558.384	62773
558.446	64023
558.508	71384
558.570	73025
558.632	69170
558.694	71150
558.756	68512
558.818	94603
558.880	109227
558.942	69754
559.003	67618
559.065	57037
559.127	59572
559.189	62082
559.251	61239
559.312	60206
559.374	76241
559.436	95285
559.498	71515
559.559	64256
559.621	68294
559.683	86712
559.744	151968
559.806	176374
559.868	135948
559.929	104197
559.991	100231
560.052	100517
560.114	100333
560.176	85502
560.237	85539
560.299	87549
560.360	90871
560.422	98379
560.483	96732
560.545	96781
560.606	97698
560.667	94995
560.729	93823
560.790	91315
560.852	94955
560.913	92338
560.974	89033
561.036	91030
561.097	89332
561.158	88973
561.220	89992
561.281	86840
561.342	86729
561.403	90374
561.465	90618
561.526	101926
561.587	98400
561.648	89457
561.709	89073
561.771	89427
561.832	89557
561.893	87537
561.954	86249
562.015	85872
562.076	86638
562.137	89182
562.198	86396
562.259	84838
562.320	83638
562.381	84430
562.442	87866
562.503	83367
562.564	83572
562.625	80473
562.686	84170
562.747	84595
562.808	88408
562.869	111336
562.930	140026
562.991	123236
563.051	109767
563.112	101288
563.173	95264
563.234	92907
563.294	88388
563.355	88834
563.416	91505
563.477	92560
563.537	101370
563.598	105685
563.659	99156
563.720	97397
563.780	95702
563.841	95518
563.901	97014
563.962	97208
564.023	96491
564.083	96302
564.144	98475
564.204	100047
564.265	108261
564.325	151361
564.386	276837
564.446	164245
564.507	91682
564.567	88303
564.628	88742
564.688	90889
564.749	97906
564.809	125541
564.869	130126
564.930	87679
564.990	82214
565.050	80546
565.111	82195
565.171	81391
565.231	78163
565.292	78105
565.352	79581
565.412	84317
565.472	84239
565.532	78497
565.593	78875
565.653	74973
565.713	80086
565.773	79905
565.833	78437
565.893	82809
565.953	79397
566.013	82718
566.074	103113
566.134	159826
566.194	247999
566.254	180484
566.314	117773
566.374	86389
566.434	88766
566.494	87842
566.554	81343
566.614	80881
566.673	82160
566.733	88685
566.793	91134
566.853	91405
566.913	88126
566.973	89247
567.033	88207
567.092	86051
567.152	89834
567.212	92976
567.272	98852
567.331	101630
567.391	95864
567.451	114312
567.511	172761
567.570	129918
567.630	82729
567.690	82807
567.749	77860
567.809	79018
567.868	84480
567.928	94316
567.988	101204
568.047	83705
568.107	78977
568.166	78516
568.226	82255
568.285	85312
568.345	78456
568.404	76578
568.464	74883
568.523	74478
568.582	75909
568.642	75125
568.701	82536
568.761	92377
568.820	102421
568.879	117759
568.939	142059
568.998	89319
569.057	76550
569.116	72542
569.176	69261
569.235	70859
569.294	69504
569.353	71226
569.413	83883
569.472	84105
569.531	74846
569.590	74530
569.649	70586
569.708	67886
569.767	72491
569.827	71657
569.886	67101
569.945	69443
570.004	70776
570.063	73243
570.122	76966
570.181	87428
570.240	111618
570.299	86807
570.358	74483
570.417	69304
570.475	66938
570.534	70016
570.593	66262
570.652	71062
570.711	72640
570.770	81790
570.829	83202
570.887	66426
570.946	65625
571.005	68833
571.064	68773
571.122	80062
571.181	93449
571.240	74665
571.299	76473
571.357	92825
571.416	91179
571.475	115753
571.533	97211
571.592	85230
571.650	86633
571.709	69273
571.768	66585
571.826	67390
571.885	67470
571.943	69113
572.002	78672
572.060	77187
572.119	64054
572.177	64115
572.236	61781
572.294	60734
572.352	61199
572.411	62654
572.469	59294
572.528	60523
572.586	61751
572.644	64255
572.703	64510
572.761	66865
572.819	68196
572.877	63312
572.936	61740
572.994	62311
573.052	60403
573.110	59978
573.169	57101
573.227	58491
573.285	59962
573.343	60924
573.401	62901
573.459	62442
573.517	59668
573.576	59603
573.634	60432
573.692	63012
573.750	61666
573.808	67755
573.866	82339
573.924	110138
573.982	89089
574.040	65675
574.098	63485
574.155	57137
574.213	55869
574.271	57562
574.329	53745
574.387	56241
574.445	56884
574.503	53693
574.560	51424
574.618	52590
574.676	50568
574.734	52397
574.792	52680
574.849	49689
574.907	49572
574.965	51745
575.022	50449
575.080	50342
575.138	52929
575.195	54457
575.253	55164
575.311	52753
575.368	49399
575.426	53601
575.483	52498
575.541	52908
575.598	55760
575.656	60345
575.713	56440
575.771	52857
575.828	54935
575.886	58763
575.943	63927
576.001	66872
576.058	67720
576.115	73512
576.173	91249
576.230	91880
576.287	76320
576.345	71527
576.402	68368
576.459	72437
576.517	78490
576.574	87505
576.631	88664
576.688	72492
576.746	67437
576.803	68608
576.860	64217
576.917	65840
576.974	64668
577.031	63786
577.089	67046
577.146	68860
577.203	67386
577.260	72312
577.317	83609
577.374	97380
577.431	78919
577.488	66757
577.545	60258
577.602	61007
577.659	60770
577.716	59052
577.773	59743
577.830	58586
577.886	57879
577.943	59013
578.000	59850
578.057	67429
578.114	58621
578.171	56862
578.227	59216
578.284	60306
578.341	63230
578.398	64209
578.454	72698
578.511	91283
578.568	93879
578.625	72365
578.681	58943
578.738	56013
578.794	58280
578.851	55263
578.908	54953
578.964	57789
579.021	57900
579.077	53545
579.134	52387
579.190	52065
579.247	52924
579.303	54183
579.360	49466
579.416	50215
579.473	51543
579.529	50296
579.586	50804
579.642	53922
579.698	55836
579.755	55516
579.811	50232
579.867	52010
579.924	50366
579.980	53721
580.036	54533
580.093	55609
580.149	58004
580.205	59480
580.261	58933
580.317	64167
580.374	72432
580.430	82888
580.486	72693
580.542	60349
580.598	56497
580.619	56429
580.654	56388
580.692	55528
580.710	55212
580.765	53239
580.767	53245
580.823	55429
580.838	54667
580.879	52903
580.911	52197
580.935	51782
580.984	54288
580.991	54710
581.047	56643
581.057	57290
581.103	60471
581.130	60977
581.159	61633
581.203	63468
581.215	64054
581.270	62672
581.276	62623
581.326	62738
581.349	62020
581.382	61153
581.422	62502
581.438	63128
581.494	67332
581.494	67221
581.550	61336
581.567	61351
581.606	61574
581.640	61465
581.661	61465
581.713	59277
581.717	59155
581.773	59181
581.786	59667
581.829	61563
581.859	61556
581.885	61583
581.932	60170
581.940	59960
581.996	62227
582.004	61576
582.052	58005
582.077	57828
582.107	57892
582.150	59596
582.163	60129
582.219	60898
582.223	60828
582.274	60441
582.296	62980
582.330	67036
582.368	63540
582.386	62000
582.441	56467
582.441	56482
582.497	56693
582.514	56306
582.552	55760
582.587	55483
582.608	55341
582.659	55164
582.663	55152
582.719	55759
582.732	55577
582.774	55329
582.805	56510
582.830	57353
582.877	55194
582.885	54852
582.941	52911
582.950	52988
582.996	53479
583.023	53785
583.052	54290
583.095	55748
583.107	56164
583.162	58784
583.168	58940
583.218	59871
583.240	57892
583.273	55075
583.313	53454
583.328	52905
583.384	53804
583.385	53778
583.439	53030
583.458	52702
583.494	51798
583.531	51351
583.549	51358
583.603	51576
583.605	51560
583.660	51232
583.676	51454
583.715	52405
583.748	53932
583.770	55118
583.820	56560
583.825	56597
583.881	52913
583.893	53028
583.936	53757
583.965	53144
583.991	52429
584.038	52875
584.046	53022
584.101	54192
584.110	53791
584.156	51314
584.183	51523
584.211	51654
584.255	49062
584.266	48414
584.321	48447
584.328	48599
584.376	50216
584.400	50174
584.431	49638
584.472	48509
584.486	48126
584.541	47271
584.545	47286
584.596	47705
584.617	49706
584.651	53538
584.689	53779
584.706	53401
584.761	52843
584.762	52855
584.816	52584
584.834	53088
584.871	53784
584.906	53439
584.926	53206
584.978	51992
584.980	51943
585.035	55114
585.051	55222
585.090	55497
585.123	55967
585.145	56007
585.195	56835
585.200	56883
585.254	54064
585.267	54462
585.309	55642
585.340	56749
585.364	57731
585.412	55217
585.419	54723
585.473	54304
585.484	54621
585.528	56947
585.556	57977
585.583	58812
585.628	60083
585.637	60393
585.692	65612
585.700	65910
585.747	66738
585.772	64342
585.801	59650
585.845	55189
585.856	54527
585.910	52842
585.917	52872
585.965	53512
585.989	54015
586.019	54906
586.061	55668
586.074	55686
586.128	56654
586.133	57029
586.183	62476
586.205	63856
586.237	65432
586.277	68362
586.292	68980
586.346	66389
586.349	66520
586.401	67930
586.421	69687
586.455	74292
586.493	84412
586.509	91671
586.564	128500
586.565	130177
586.618	206869
586.637	191909
586.672	129789
586.709	89200
586.727	74927
586.781	61389
586.781	61333
586.835	58622
586.853	58115
586.889	58384
586.925	57960
586.944	57471
586.996	59431
586.998	59462
587.052	60697
587.068	60866
587.106	60807
587.140	60704
587.161	60316
587.212	61066
587.215	61114
587.269	62832
587.284	62956
587.323	62493
587.356	62072
587.377	61656
587.427	61321
587.431	61227
587.485	61191
587.499	61181
587.539	61988
587.571	63374
587.593	64409
587.643	65656
587.648	65660
587.702	67185
587.715	67784
587.755	69761
587.786	69272
587.810	67492
587.858	64344
587.864	64304
587.917	67969
587.930	69032
587.971	73603
588.001	76182
588.025	76183
588.073	71234
588.079	70430
588.133	67392
588.145	67043
588.187	68054
588.217	69224
588.241	70422
588.288	72686
588.295	72805
588.348	74247
588.360	74926
588.402	79008
588.431	81964
588.456	84324
588.503	89973
588.510	90754
588.564	98087
588.575	100324
588.617	109563
588.646	117140
588.671	125055
588.718	146552
588.725	151263
588.778	200999
588.789	215296
588.832	305723
588.861	383224
588.886	485117
588.932	698114
588.939	716524
588.993	756076
589.004	744218
589.047	488917
589.075	340855
589.100	264401
589.147	164449
589.154	158951
589.207	130715
589.218	126344
589.261	124443
589.290	125630
589.314	130224
589.361	145812
589.368	150340
589.421	200008
589.433	214960
589.475	328526
589.504	427126
589.528	522571
589.576	661932
589.582	646060
589.635	398741
589.647	353955
589.689	214964
589.718	139959
589.742	127521
589.790	108868
589.795	109768
589.849	125903
589.861	132006
589.902	152723
589.932	150168
589.955	126694
590.004	85703
590.009	84189
590.062	76842
590.075	74938
590.115	71632
590.146	69926
590.168	70012
590.218	70371
590.222	70389
590.275	72449
590.289	72966
590.328	73996
590.360	73862
590.381	71998
590.431	68965
590.435	68922
590.488	69795
590.503	70031
590.541	70403
590.574	70760
590.594	70086
590.645	68815
590.647	68698
590.700	66972
590.716	66566
590.753	65945
590.787	65690
590.806	65333
590.859	64758
590.859	64678
590.912	63411
590.930	63287
590.965	63270
591.001	63492
591.018	63378
591.071	62815
591.072	62878
591.124	63594
591.143	63899
591.177	64751
591.214	65896
591.230	65787
591.283	65590
591.285	65658
591.336	66789
591.356	67136
591.389	65676
591.427	64111
591.442	63884
591.495	63826
591.498	63884
591.547	63732
591.569	63634
591.600	63619
591.640	64103
591.653	64541
591.706	66879
591.711	67215
591.759	72187
591.782	75518
591.811	81290
591.853	88067
591.864	85054
591.917	69888
591.924	67913
591.969	67036
591.995	66813
592.022	68048
592.066	70291
592.075	71981
592.127	83369
592.137	85799
592.180	98516
592.208	105514
592.233	94419
592.279	73920
592.285	73093
592.338	67433
592.350	66235
592.390	64485
592.421	63318
592.443	63412
592.491	63805
592.495	63769
592.548	64317
592.562	64542
592.600	64311
592.633	64252
592.653	63835
592.704	62629
592.705	62996
592.775	63680
592.846	63037
592.916	62798
592.987	63624
593.058	64939
593.128	62297
593.199	62084
593.270	60029
593.341	58911
593.411	59649
593.482	58149
593.553	60823
593.623	58527
593.694	62397
593.764	72489
593.835	62907
593.906	59702
593.976	60649
594.047	65227
594.117	80825
594.188	85826
594.258	58637
594.329	55709
594.399	59047
594.470	57106
594.540	54581
594.611	55863
594.681	55822
594.751	60211
594.822	60983
594.892	63673
594.963	67334
595.033	66569
595.103	67309
595.174	75561
595.244	108707
595.314	139813
595.384	71633
595.455	65086
595.525	66729
595.595	65123
595.665	67426
595.736	66960
595.806	65535
595.876	64273
595.946	64556
596.016	59732
596.087	62777
596.157	63115
596.227	62077
596.297	66857
596.367	67993
596.437	76742
596.507	102166
596.577	130905
596.647	73841
596.717	62936
596.787	61485
596.857	61117
596.927	59801
596.997	61322
597.067	60349
597.137	63833
597.207	61483
597.277	62298
597.347	63489
597.417	60786
597.487	60745
597.557	63866
597.626	63739
597.696	70228
597.766	90152
597.836	121731
597.906	77393
597.975	62078
598.045	61482
598.115	60227
598.185	58896
598.254	61513
598.324	58589
598.394	56791
598.464	58916
598.533	58546
598.603	53879
598.672	56935
598.742	57652
598.812	58702
598.881	58015
598.951	55538
599.020	53692
599.090	52540
599.159	54620
599.229	52426
599.299	52745
599.368	54415
599.437	51660
599.507	56211
599.576	57886
599.646	55983
599.715	54721
599.785	57382
599.854	66221
599.924	76906
599.993	69336
600.062	60014
600.132	58543
600.201	57870
600.270	57335
600.340	54928
600.409	53283
600.478	56567
600.547	54631
600.617	59722
600.686	58003
600.755	54603
600.824	54184
600.894	56508
600.963	53525
601.032	53939
601.101	55724
601.170	54012
601.239	55029
601.308	56419
601.378	54673
601.447	53862
601.516	51015
601.585	51000
601.654	53210
601.723	55159
601.792	53630
601.861	51514
601.930	52172
601.999	50447
602.068	47278
602.137	51272
602.206	49099
602.275	48889
602.343	50583
602.412	49868
602.481	48107
602.550	48866
602.619	47517
602.688	49074
602.756	50249
602.825	48554
602.894	48774
602.963	50374
603.032	50787
603.100	47598
603.169	48831
603.238	50599
603.307	47795
603.375	44453
603.444	47310
603.513	47838
603.581	45311
603.650	46673
603.719	45585
603.787	45784
603.856	46300
603.924	45612
603.993	46181
604.061	44576
604.130	45242
604.198	45584
604.267	45970
604.335	44034
604.404	43203
604.472	43324
604.541	44474
604.609	44939
604.678	42736
604.746	42925
604.815	42738
604.883	43647
604.951	44180
605.020	41114
605.088	44691
605.156	47522
605.225	43644
605.293	43830
605.361	44300
605.429	43456
605.498	42920
605.566	43733
605.634	44481
605.702	45080
605.771	45321
605.839	44129
605.907	44104
605.975	43899
606.043	43637
606.111	43439
606.180	43263
606.248	43288
606.316	46500
606.384	48412
606.452	61218
606.520	48887
606.588	43177
606.656	41243
606.724	43019
606.792	41572
606.860	39681
606.928	39353
606.996	38887
607.064	39498
607.132	39248
607.200	40731
607.267	39953
607.335	38011
607.403	38311
607.471	40709
607.539	39631
607.607	38364
607.674	37469
607.742	40864
607.810	40452
607.878	37510
607.946	36985
608.013	38128
608.081	38418
608.149	37132
608.216	37233
608.284	39876
608.352	39549
608.419	45857
608.487	72704
608.555	52054
608.622	36744
608.690	36203
608.757	36842
608.825	37332
608.893	37309
608.960	38671
609.028	51071
609.095	77978
609.163	47879
609.230	42362
609.298	40877
609.365	33786
609.432	33838
609.500	35423
609.567	35445
609.635	36378
609.702	36880
609.769	40183
609.837	49938
609.904	42031
609.971	34159
610.039	34694
610.106	35604
610.173	42210
610.241	55581
610.308	52621
610.375	44367
610.442	36512
610.509	33158
610.577	34666
610.644	34631
610.711	33310
610.778	34544
610.845	34212
610.912	35015
610.980	34447
611.047	37636
611.114	37213
611.181	32678
611.248	33595
611.315	35773
611.382	33964
611.449	31969
611.516	33797
611.583	35514
611.650	34836
611.717	34280
611.784	34548
611.851	34610
611.918	34772
611.984	35926
612.051	44608
612.118	55998
612.185	80773
612.252	62213
612.319	35864
612.386	33608
612.452	37074
612.519	47691
612.586	78095
612.653	52210
612.719	32740
612.786	31717
612.853	32319
612.919	32197
612.986	31481
613.053	31347
613.120	30378
613.186	30602
613.253	32465
613.319	29679
613.386	30687
613.453	30367
613.519	31649
613.586	30203
613.652	32648
613.719	31290
613.785	31859
613.852	31692
613.918	30238
613.985	29732
614.051	30436
614.118	37661
614.184	37888
614.250	28587
614.317	28330
614.383	28348
614.449	28415
614.516	29637
614.582	35098
614.648	31218
614.715	28899
614.781	30072
614.847	35818
614.914	40995
614.980	36577
615.046	32755
615.112	29264
615.179	30362
615.245	30539
615.311	31835
615.377	32375
615.443	32834
615.509	34509
615.575	36760
615.642	35583
615.708	37710
615.774	41860
615.840	50693
615.906	56463
615.972	51092
616.038	56231
616.104	75274
616.170	118733
616.236	108957
616.302	60905
616.368	55465
616.434	53708
616.500	54336
616.565	53876
616.631	54410
616.697	51719
616.763	51308
616.829	55272
616.895	60016
616.961	58619
617.026	51294
617.092	47640
617.158	48644
617.224	49891
617.289	49429
617.355	53834
617.421	62199
617.487	58893
617.552	54348
617.618	50710
617.684	50503
617.749	53004
617.815	49167
617.880	48742
617.946	48848
618.012	48074
618.077	47069
618.143	48458
618.208	48431
618.274	51495
618.339	54290
618.405	53166
618.470	55523
618.536	58855
618.601	71460
618.667	69630
618.732	61116
618.798	58217
618.863	58821
618.928	58257
618.994	62649
619.059	63032
619.124	63635
619.190	60447
619.255	61420
619.320	62984
619.386	61975
619.451	57248
619.516	58460
619.581	59809
619.647	60534
619.712	59771
619.777	59373
619.842	58480
619.907	57765
619.972	58450
620.038	61185
620.103	59440
620.168	57366
620.233	58374
620.298	55978
620.363	56128
620.428	56259
620.493	56190
620.558	55453
620.623	54245
620.688	54495
620.753	53698
620.818	53439
620.883	55385
620.948	54227
621.013	55483
621.078	59553
621.143	60986
621.207	64297
621.272	63665
621.337	66631
621.402	78556
621.467	107784
621.532	114930
621.596	83849
621.661	76546
621.726	70405
621.791	71847
621.855	71638
621.920	76291
621.985	86084
622.049	98175
622.114	93478
622.179	82504
622.243	90201
622.308	85111
622.373	85148
622.437	82413
622.502	79531
622.566	79586
622.631	83317
622.695	80929
622.760	81084
622.824	76444
622.889	76400
622.953	75534
623.018	75892
623.082	73879
623.147	75630
623.211	71401
623.276	73253
623.340	69505
623.404	70122
623.469	72164
623.533	70962
623.597	70971
623.662	69543
623.726	69414
623.790	69159
623.854	71395
623.919	71633
623.983	68735
624.047	71383
624.111	67273
624.176	68525
624.240	68680
624.304	67922
624.368	69409
624.432	68987
624.496	70020
624.560	64361
624.625	66768
624.689	65755
624.753	63712
624.817	66004
624.881	64792
624.945	63156
625.009	64206
625.073	61908
625.137	63355
625.201	63131
625.265	63961
625.329	61858
625.393	64897
625.456	63931
625.520	67475
625.584	73745
625.648	88162
625.712	128808
625.776	276083
625.839	308474
625.903	137447
625.967	82119
626.031	126154
626.095	193550
626.158	83240
626.222	59417
626.286	56602
626.349	58743
626.413	56281
626.477	58413
626.540	54200
626.604	57534
626.668	57210
626.731	56036
626.795	64097
626.858	62307
626.922	59130
626.986	55991
627.049	53882
627.113	55926
627.176	52959
627.240	54311
627.303	55324
627.366	55567
627.430	52989
627.493	56150
627.557	61706
627.620	58392
627.684	56135
627.747	57736
627.810	55857
627.874	54652
627.937	54296
628.000	57968
628.064	57248
628.127	50221
628.190	53570
628.253	55456
628.317	52425
628.380	52449
628.443	51672
628.506	52173
628.569	51129
628.632	49462
628.696	49089
628.759	50885
628.822	48425
628.885	47779
628.948	48608
629.011	50256
629.074	49266
629.137	46903
629.200	48282
629.263	52394
629.326	47295
629.389	46948
629.452	49343
629.515	52896
629.578	47745
629.641	48413
629.704	50063
629.767	47478
629.830	45185
629.892	45885
629.955	44181
630.018	46901
630.081	43703
630.144	45293
630.207	43930
630.269	49863
630.332	57862
630.395	50192
630.458	42184
630.520	43386
630.583	42133
630.646	40959
630.708	41321
630.771	42973
630.834	40830
630.896	40492
630.959	39810
631.021	41675
631.084	43898
631.146	46898
631.209	54963
631.272	42657
631.334	39176
631.397	39519
631.459	36395
631.522	35657
631.584	38872
631.646	39003
631.709	38148
631.771	43327
631.834	40858
631.896	37859
631.958	35282
632.021	36736
632.083	38800
632.145	40023
632.208	36854
632.270	36876
632.332	35578
632.395	35452
632.457	39979
632.519	38275
632.581	36345
632.643	34584
632.706	37493
632.768	34817
632.830	36153
632.892	34594
632.954	36966
633.016	37897
633.078	33888
633.141	34480
633.203	36146
633.265	35460
633.327	33618
633.389	32915
633.451	36438
633.513	37352
633.575	43571
633.637	36885
633.698	33416
633.760	34149
633.822	32016
633.884	31462
633.946	31646
634.008	33518
634.070	31395
634.132	31689
634.193	31864
634.255	31696
634.317	29870
634.379	30935
634.441	31897
634.502	31405
634.564	29376
634.626	29847
634.687	28923
634.749	31818
634.811	31295
634.873	28753
634.934	29847
634.996	32228
635.057	30679
635.119	30747
635.181	32360
635.242	31363
635.304	28274
635.365	31179
635.427	30774
635.488	29470
635.550	30891
635.611	30614
635.673	29764
635.734	34708
635.796	30836
635.857	31948
635.918	29198
635.980	32569
636.041	30801
636.102	30635
636.164	29635
636.225	29391
636.286	29446
636.348	30120
636.409	29193
636.470	27955
636.531	30919
636.593	38109
636.654	36810
636.715	27892
636.776	26820
636.838	25415
636.899	29319
636.960	28423
637.021	25711
637.082	27254
637.143	28429
637.204	25971
637.265	25585
637.326	27514
637.387	25992
637.448	24904
637.509	26841
637.570	26629
637.631	26344
637.692	25214
637.753	22859
637.814	25418
637.875	24202
637.936	25793
637.997	24346
638.058	26108
638.119	29060
638.179	25814
638.240	26222
638.301	26168
638.362	25491
638.423	28098
638.483	28391
638.544	23489
638.605	25428
638.666	24098
638.726	26554
638.787	26494
638.848	24336
638.908	24502
638.969	24739
639.030	25952
639.090	22801
639.151	22587
639.211	24387
639.272	23955
639.332	25849
639.393	23525
639.453	23462
639.514	23309
639.574	23195
639.635	22583
639.695	23916
639.756	21965
639.816	22756
639.877	21705
639.937	23645
639.997	22936
640.058	21152
640.118	21451
640.178	22095
640.239	22049
640.299	20494
640.359	21523
640.420	20192
640.480	20721
640.540	20870
640.600	20843
640.661	21795
640.721	21329
640.781	21576
640.841	19371
640.901	22517
640.961	22372
641.021	21980
641.082	19449
641.142	20296
641.202	21220
641.262	19623
641.322	21579
641.382	20728
641.442	23297
641.502	22544
641.562	22738
641.622	20398
641.682	22623
641.742	21056
641.802	21720
641.861	24428
641.921	21892
641.981	23053
642.041	23094
642.101	23728
642.161	19379
642.221	21423
642.280	21273
642.340	20944
642.400	19755
642.460	22965
642.519	21913
642.579	21249
642.639	23216
642.698	19227
642.758	22109
642.818	21266
642.877	20379
642.937	20602
642.997	20786
643.056	21059
643.116	18749
643.175	22900
643.235	19593
643.294	20762
643.354	20211
643.414	19953
643.473	20839
643.532	20354
643.592	20048
643.651	21146
643.711	23149
643.770	28043
643.830	40938
643.889	67289
643.948	29344
644.008	21079
644.067	19643
644.126	18131
644.186	18933
644.245	17702
644.304	16587
644.363	19813
644.423	17770
644.482	18667
644.541	18903
644.600	16016
644.659	18824
644.719	19661
644.778	23996
644.837	21224
644.896	22444
644.955	26690
645.014	21542
645.073	20030
645.132	21043
645.191	21507
645.250	16784
645.309	20634
645.368	19359
645.427	19548
645.486	18569
645.545	21256
645.604	18145
645.663	18579
645.722	18285
645.781	18161
645.840	18135
645.898	18287
645.957	19516
646.016	17009
646.075	20959
646.134	23825
646.192	36226
646.251	48463
646.310	21785
646.369	17379
646.427	16582
646.486	16348
646.545	16545
646.603	18102
646.662	16967
646.721	17341
646.779	14774
646.838	15448
646.896	17050
646.955	16711
647.014	17286
647.072	18005
647.131	22157
647.189	17043
647.248	15234
647.306	16531
647.365	16583
647.423	15050
647.481	17222
647.540	13535
647.598	16369
647.657	16046
647.715	17388
647.773	15928
647.832	18841
647.890	17543
647.948	18124
648.007	19009
648.065	15831
648.123	16288
648.181	17902
648.240	18430
648.298	16919
648.356	18406
648.414	19645
648.472	19770
648.531	19166
648.589	18631
648.647	17551
648.705	19533
648.763	18762
648.821	17871
648.879	16880
648.937	18719
648.995	18716
649.053	17790
649.111	18034
649.169	19354
649.227	20273
649.285	21255
649.343	32575
649.401	25623
649.459	19716
649.516	19414
649.574	16864
649.632	22311
649.690	23248
649.748	21468
649.806	18143
649.863	20157
649.921	19590
649.979	16840
650.037	16670
650.094	15471
650.152	17294
650.210	15376
650.268	16840
650.325	16185
650.383	13722
650.440	15019
650.498	17096
650.556	17026
650.613	14560
650.671	14767
650.728	16642
650.786	18008
650.843	16194
650.901	14448
650.958	15495
651.016	15221
651.073	15811
651.131	15344
651.188	15761
651.246	17186
651.303	16220
651.360	16162
651.418	15049
651.475	16203
651.532	13846
651.590	14374
651.647	15061
651.704	16516
651.762	15604
651.819	14669
651.876	14144
651.933	15056
651.990	15477
652.048	14149
652.105	15536
652.162	15821
652.219	13618
652.276	15320
652.333	14512
652.390	12424
652.448	13825
652.505	15162
652.562	13473
652.619	13238
652.676	15308
652.733	15284
652.790	12901
652.847	11980
652.904	14337
652.961	13415
653.017	13017
653.074	14465
653.131	12841
653.188	12729
653.245	13499
653.302	13214
653.359	12161
653.415	13381
653.472	13692
653.529	14251
653.586	13108
653.642	13485
653.699	12464
653.756	11991
653.813	12802
653.869	12440
653.926	12035
653.983	12988
654.039	13158
654.096	13271
654.152	14332
654.209	13545
654.266	14266
654.322	14173
654.379	18195
654.435	18699
654.492	18003
654.548	21728
654.605	31461
654.661	19889
654.717	14885
654.774	16931
654.830	16344
654.887	15796
654.943	16404
655.000	16424
655.056	16962
655.112	18127
655.168	16477
655.225	17059
655.281	20701
655.337	25817
655.394	42191
655.450	32522
655.506	26312
655.562	41844
655.618	35577
655.675	16502
655.731	16085
655.787	16244
655.843	16905
655.899	14229
655.955	15818
656.011	16543
656.067	14618
656.123	16604
656.179	18084
656.235	19323
656.291	15821
656.347	19624
656.403	18186
656.459	19072
656.515	20245
656.571	20257
656.627	18421
656.683	16346
656.739	16498
656.795	15076
656.850	14902
656.906	15909
656.962	15654
657.018	12984
657.074	14340
657.129	16301
657.185	15797
657.241	15553
657.297	15088
657.352	14669
657.408	14988
657.464	16744
657.519	16208
657.575	13485
657.630	14870
657.686	14136
657.742	14350
657.797	14904
657.853	15926
657.908	16972
657.964	14138
658.019	15134
658.075	15905
658.130	15898
658.186	13129
658.241	14627
658.297	13702
658.352	15218
658.407	14406
658.463	13096
658.518	14542
658.573	14379
658.629	12732
658.684	13451
658.739	13236
658.795	12198
658.850	14315
658.905	14223
658.960	13198
659.016	12595
659.071	13503
659.126	14729
659.181	13005
659.236	15441
659.291	14486
659.346	15279
659.401	14918
659.457	15101
659.512	14245
659.567	16410
659.622	14608
659.677	15225
659.732	14501
659.787	16148
659.842	17703
659.897	24518
659.952	17408
660.007	14201
660.061	15345
660.116	14192
660.171	12847
660.226	15547
660.281	14759
660.336	13220
660.391	14733
660.445	14231
660.500	15706
660.555	15281
660.610	14692
660.664	15158
660.719	14093
660.774	14943
660.828	14488
660.883	14801
660.938	14826
660.992	15257
661.047	15717
661.101	14188
661.156	14713
661.211	14321
661.265	14452
661.320	14223
661.374	14917
661.429	13855
661.483	15958
661.538	14910
661.592	14937
661.647	14575
661.701	14829
661.755	14279
661.810	15854
661.864	15681
661.919	15173
661.973	16310
662.027	15827
662.081	14637
662.136	14962
662.190	17412
662.244	17781
662.299	16287
662.353	15089
662.407	14971
662.461	17269
662.515	17345
662.569	17831
662.624	18208
662.678	17240
662.732	15696
662.786	15881
662.840	16946
662.894	17672
662.948	15321
663.002	14932
663.056	15317
663.110	14577
663.164	16209
663.218	14375
663.272	14601
663.326	15153
663.380	16204
663.434	17389
663.488	17070
663.542	16884
663.595	17755
663.649	17661
663.703	17141
663.757	16117
663.811	15974
663.864	16424
663.918	16512
663.972	15870
664.026	16011
664.079	15055
664.133	15911
664.187	15417
664.240	15304
664.294	15083
664.348	17054
664.401	16089
664.455	15655
664.508	14901
664.562	16516
664.615	16495
664.669	15520
664.722	16721
664.776	17419
664.829	16710
664.883	17684
664.936	18487
664.990	19132
665.043	19592
665.097	22192
665.150	23477
665.203	20210
665.257	20048
665.310	18950
665.363	19365
665.417	20244
665.470	19649
665.523	19734
665.576	19438
665.630	19661
665.683	18878
665.736	19840
665.789	19223
665.842	18982
665.895	19540
665.949	19697
666.002	17841
666.055	18416
666.108	20861
666.161	19877
666.214	19579
666.267	19734
666.320	19040
666.373	19395
666.426	18917
666.479	19374
666.532	22538
666.585	24521
666.638	25484
666.691	23168
666.744	24121
666.796	25413
666.849	24299
666.902	19745
666.955	18817
667.008	18169
667.060	17683
667.113	16695
667.166	17264
667.219	17075
667.271	17789
667.324	18267
667.377	19586
667.430	17576
667.482	18234
667.535	17557
667.587	18428
667.640	18689
667.693	21298
667.745	21029
667.798	21243
667.850	20233
667.903	20069
667.955	20476
668.008	20430
668.060	24775
668.113	25285
668.165	23787
668.218	24143
668.270	22765
668.322	22974
668.375	21179
668.427	22085
668.479	21750
668.532	21058
668.584	23560
668.636	21072
668.689	22544
668.741	21359
668.793	21104
668.845	20810
668.898	22646
668.950	21299
669.002	21940
669.054	22531
669.106	22486
669.158	23334
669.211	22377
669.263	21742
669.315	23182
669.367	21217
669.419	21969
669.471	22858
669.523	20795
669.575	21635
669.627	21393
669.679	20014
669.731	20520
669.783	21087
669.835	20859
669.886	19942
669.938	21551
669.990	20107
670.042	19824
670.094	20784
670.146	20093
670.197	20600
670.249	20920
670.301	19861
670.353	21853
670.404	22301
670.456	23379
670.508	26889
670.560	33404
670.611	41175
670.663	56605
670.715	110159
670.766	186622
670.818	79572
670.869	27532
670.921	22949
670.972	22984
671.024	21871
671.075	20513
671.127	21967
671.178	20161
671.230	20772
671.281	20259
671.333	21139
671.384	25159
671.436	25821
671.487	25912
671.538	24956
671.590	24541
671.641	26919
671.692	27684
671.744	29659
671.795	28741
671.846	24974
671.897	25296
671.949	26986
672.000	24468
672.051	23696
672.102	25785
672.153	23446
672.204	23853
672.256	24404
672.307	24919
672.358	25180
672.409	25859
672.460	23967
672.511	22784
672.562	23803
672.613	23308
672.664	23970
672.715	24145
672.766	23940
672.817	23259
672.868	23179
672.919	22985
672.970	22633
673.021	23234
673.071	22570
673.122	22159
673.173	23009
673.224	22664
673.275	22321
673.326	21920
673.376	21838
673.427	21720
673.478	22320
673.528	21860
673.579	20653
673.630	22369
673.680	23247
673.731	20844
673.782	19811
673.832	22223
673.883	23801
673.934	22524
673.984	21031
674.035	22032
674.085	21995
674.136	22818
674.186	24836
674.237	27205
674.287	38326
674.338	28319
674.388	23323
674.438	22352
674.489	21921
674.539	22576
674.589	23597
674.640	24913
674.690	23430
674.740	25658
674.791	26194
674.841	25900
674.891	24835
674.942	23003
674.992	20574
675.042	21038
675.092	21077
675.142	21778
675.193	21874
675.243	21506
675.293	21495
675.343	24297
675.393	24291
675.443	23190
675.493	21299
675.543	22091
675.593	23489
675.643	21694
675.693	21408
675.743	21565
675.793	21295
675.843	19992
675.893	21990
675.943	21637
675.993	20902
676.043	21428
676.093	21813
676.142	21098
676.192	21455
676.242	21221
676.292	19831
676.341	22100
676.391	22742
676.441	20396
676.491	19710
676.540	19930
676.590	18851
676.640	20795
676.689	20692
676.739	18552
676.789	18412
676.838	19139
676.888	19054
676.937	19781
676.987	18726
677.037	18627
677.086	18947
677.136	19223
677.185	20021
677.235	17607
677.284	18012
677.333	18635
677.383	16702
677.432	17464
677.482	17398
677.531	19034
677.580	19135
677.630	16845
677.679	17174
677.728	19378
677.778	18117
677.827	17616
677.876	18578
677.925	16890
677.975	18121
678.024	18736
678.073	19160
678.122	21818
678.171	21999
678.220	21642
678.269	22193
678.319	22345
678.368	21280
678.417	21029
678.466	22064
678.515	22887
678.564	23372
678.613	22017
678.662	20988
678.711	22028
678.760	21043
678.809	20528
678.857	21009
678.906	20319
678.955	20119
679.004	21320
679.053	20042
679.102	22321
679.151	21555
679.199	19622
679.248	19148
679.297	20959
679.346	22242
679.394	21205
679.443	20867
679.492	19775
679.540	19816
679.589	21880
679.638	19700
679.686	18110
679.735	18116
679.784	19521
679.832	20821
679.881	19627
679.929	18224
679.978	17647
680.026	18516
680.075	19978
680.123	18204
680.172	19163
680.220	16440
680.268	18505
680.317	18400
680.365	17783
680.414	17279
680.462	19068
680.510	18979
680.559	17526
680.607	16670
680.655	17022
680.703	17886
680.752	18821
680.800	15727
680.848	16290
680.896	15690
680.945	17136
680.993	17898
681.041	17979
681.089	16518
681.137	15479
681.185	16152
681.233	17752
681.258	17430
681.281	16990
681.329	16799
681.377	16943
681.380	17148
681.425	18337
681.473	20585
681.502	21002
681.521	21040
681.569	21439
681.617	19893
681.624	20090
681.665	20262
681.713	20921
681.745	20698
681.761	20390
681.809	20451
681.857	20217
681.867	20323
681.904	20144
681.952	20539
681.989	21346
682.000	21425
682.048	22114
682.096	21892
682.111	22007
682.143	21795
682.191	22215
682.233	23917
682.239	24042
682.286	23058
682.334	21886
682.354	22001
682.382	21880
682.430	23951
682.476	24476
682.477	24367
682.525	23196
682.572	23538
682.598	23448
682.620	23195
682.667	22836
682.715	25694
682.720	25804
682.763	25649
682.810	23944
682.841	24063
682.857	23941
682.905	23805
682.952	24520
682.963	24893
683.000	25930
683.047	26486
683.085	26640
683.095	26466
683.142	24827
683.190	25546
683.206	25596
683.237	25578
683.284	26921
683.328	27698
683.332	27656
683.379	26962
683.426	27083
683.449	26910
683.473	26545
683.521	26528
683.568	28222
683.571	28229
683.615	27095
683.662	27850
683.693	27907
683.709	27821
683.757	27451
683.804	28621
683.814	28750
683.851	28727
683.898	28408
683.936	28208
683.945	28052
683.992	28320
684.039	28987
684.057	29018
684.086	28990
684.133	28907
684.179	29961
684.180	29918
684.227	30453
684.274	30436
684.300	30325
684.321	30005
684.368	29871
684.415	30629
684.422	30616
684.462	30290
684.509	30132
684.543	30864
684.556	31058
684.603	31055
684.649	30375
684.665	31020
684.696	32310
684.743	32694
684.786	33632
684.790	33696
684.837	35491
684.883	38219
684.908	39276
684.930	39919
684.977	42126
685.023	40960
685.029	40933
685.070	38290
685.117	36318
685.150	37299
685.164	38483
685.210	40999
685.257	43335
685.272	43530
685.303	42178
685.350	40745
685.393	40367
685.396	40314
685.443	39202
685.490	40599
685.514	40928
685.536	41513
685.583	41587
685.629	41971
685.636	42039
685.675	41290
685.722	40603
685.757	40975
685.768	41360
685.815	43208
685.861	43737
685.878	44035
685.908	44251
685.954	44999
686.000	46504
686.000	46543
686.047	50809
686.093	56654
686.121	58999
686.139	57891
686.185	52693
686.232	49480
686.242	48709
686.278	46638
686.324	45768
686.363	43186
686.370	42956
686.416	42486
686.463	43946
686.484	43798
686.509	43667
686.555	43051
686.601	42524
686.606	42643
686.647	43801
686.693	43590
686.727	44035
686.739	44163
686.785	44685
686.831	44436
686.848	44410
686.877	43900
686.923	42662
686.969	42162
686.969	42159
687.015	43274
687.061	44058
687.090	44682
687.107	44819
687.153	45222
687.199	44569
687.211	44283
687.245	43897
687.291	45623
687.332	47257
687.336	47485
687.382	48981
687.428	49656
687.453	49539
687.474	47773
687.520	45485
687.565	43392
687.574	42787
687.611	42640
687.657	42776
687.695	43917
687.702	44206
687.748	44787
687.794	45609
687.816	45741
687.839	44980
687.885	43841
687.931	42503
687.937	42427
687.976	43750
688.022	44768
688.058	45773
688.067	45954
688.113	46302
688.158	46235
688.179	46378
688.204	46376
688.249	46740
688.295	47742
688.300	47790
688.340	49622
688.386	51353
688.421	51758
688.431	51330
688.477	49591
688.522	48672
688.542	48270
688.567	48300
688.613	48264
688.658	47435
688.663	47369
688.703	47950
688.749	49788
688.784	49543
688.794	49338
688.839	49001
688.884	49308
688.905	48791
688.930	48104
688.975	47426
689.020	48313
689.026	48271
689.065	49708
689.110	50219
689.146	51368
689.155	51110
689.201	48455
689.246	46815
689.267	45935
689.291	46555
689.336	48206
689.381	49162
689.388	49337
689.426	49583
689.471	49122
689.509	48989
689.516	48877
689.561	47531
689.606	46598
689.630	46293
689.651	46980
689.696	47826
689.741	48616
689.750	48820
689.785	48809
689.830	48396
689.871	47514
689.875	47444
689.920	46832
689.965	46130
689.992	45599
690.010	45933
690.054	46522
690.099	47595
690.112	47795
690.144	47986
690.189	48019
690.233	47940
690.233	47990
690.278	46928
690.323	46245
690.354	45667
690.367	46024
690.412	46753
690.457	48211
690.474	48751
690.501	48856
690.546	47181
690.590	47028
690.595	46867
690.635	46449
690.680	46865
690.716	46971
690.724	47229
690.769	48205
690.813	49371
690.836	49094
690.857	48760
690.902	49604
690.946	49993
690.957	50041
690.991	52840
691.035	56567
691.077	60316
691.080	60498
691.124	61459
691.168	62912
691.198	63860
691.213	63608
691.257	62657
691.301	61070
691.318	60303
691.346	57866
691.390	54281
691.434	50292
691.439	49856
691.478	50475
691.522	51156
691.559	50762
691.567	50734
691.611	50703
691.655	50445
691.680	50517
691.699	51140
691.743	52396
691.787	53343
691.800	53487
691.831	54387
691.875	55866
691.919	57536
691.921	57489
691.964	59107
692.008	60903
692.041	61697
692.052	61485
692.096	60507
692.139	59814
692.162	58936
692.183	58580
692.227	58724
692.271	58914
692.282	58704
692.315	58455
692.359	58060
692.402	57611
692.403	57704
692.447	57312
692.490	56555
692.523	56452
692.534	57069
692.578	58938
692.622	60178
692.643	60750
692.666	59809
692.709	58205
692.753	56212
692.763	55694
692.797	55589
692.840	55155
692.884	54486
692.884	54587
692.928	55359
692.971	56571
693.004	56736
693.015	56697
693.059	56665
693.102	56440
693.124	55925
693.146	56041
693.189	57104
693.233	57797
693.245	57942
693.276	59006
693.320	59729
693.363	60643
693.365	60577
693.407	61124
693.450	61263
693.485	61187
693.493	61461
693.537	62213
693.580	63528
693.605	64052
693.624	64382
693.667	64434
693.710	64574
693.725	64698
693.753	69638
693.797	77212
693.840	84520
693.845	85211
693.883	83480
693.926	81130
693.966	79168
693.970	78516
694.013	69664
694.056	61348
694.086	55505
694.099	56255
694.142	58596
694.185	60411
694.206	61202
694.229	61199
694.272	60928
694.315	60706
694.326	60542
694.358	59902
694.401	58511
694.444	57334
694.446	57160
694.487	56242
694.530	55142
694.566	54399
694.573	54457
694.616	53625
694.659	52638
694.686	52140
694.702	51725
694.745	50000
694.787	48757
694.806	48000
694.830	49169
694.873	51327
694.916	52908
694.926	53238
694.959	52573
695.002	51567
695.044	50411
695.046	50273
695.087	51733
695.130	52804
695.166	53649
695.172	53850
695.215	54610
695.258	55013
695.286	55353
695.301	55594
695.343	55855
695.386	55953
695.406	55856
695.428	54706
695.471	52615
695.514	50398
695.526	49666
695.556	50700
695.599	51835
695.641	53013
695.646	53007
695.684	52645
695.726	52302
695.766	51926
695.769	52136
695.811	53543
695.854	54892
695.886	55631
695.896	55219
695.938	53219
695.981	51023
696.005	49695
696.023	50034
696.065	50659
696.108	51253
696.125	51477
696.150	52478
696.192	53557
696.235	54693
696.245	54878
696.277	53508
696.319	51482
696.361	49431
696.365	49150
696.404	49367
696.446	49371
696.485	49449
696.488	49652
696.530	50555
696.572	51773
696.604	52386
696.614	52257
696.656	51312
696.698	50120
696.724	49416
696.740	49423
696.783	49128
696.825	48952
696.844	48620
696.867	49136
696.909	50102
696.951	51070
696.964	51169
696.992	50220
697.034	48744
697.076	47422
697.083	47065
697.118	47885
697.160	48911
697.202	49824
697.203	49726
697.244	49586
697.286	49499
697.323	49374
697.327	49309
697.369	47379
697.411	45542
697.442	44095
697.453	44737
697.494	46915
697.536	49099
697.562	50336
697.578	50169
697.620	49373
697.661	48559
697.682	48076
697.703	47928
697.744	47347
697.786	46865
697.801	46545
697.828	47085
697.869	47696
697.911	48386
697.921	48428
697.952	48965
697.994	49580
698.035	50132
698.040	50074
698.077	49151
698.118	47938
698.160	46768
698.160	46644
698.201	47023
698.243	47374
698.279	47491
698.284	47698
698.325	48546
698.367	49451
698.399	49949
698.408	49511
698.449	46963
698.491	44463
698.518	42641
698.532	43265
698.573	44902
698.614	46502
698.638	47286
698.656	47432
698.697	47518
698.738	47599
698.757	47523
698.779	48518
698.820	50175
698.862	51806
698.877	52293
698.903	53287
698.944	54644
698.985	56012
698.996	56250
699.026	55484
699.067	54221
699.116	52582
699.235	49465
699.354	46900
699.474	50699
699.593	61059
699.713	59203
699.832	47261
699.951	48310
700.070	44105
700.190	46893
700.309	49421
700.428	55903
700.547	49275
700.667	48330
700.786	55101
700.905	48773
701.024	51404
701.143	51293
701.262	38433
701.381	39951
701.500	42284
701.619	38349
701.738	37282
701.857	39456
701.976	38651
702.095	36326
702.214	40334
702.333	39050
702.452	36894
702.571	37162
702.690	37580
702.809	36865
702.928	34453
703.047	37313
703.165	36684
703.284	35340
703.403	36208
703.522	46165
703.640	45384
703.759	51897
703.878	88934
703.997	46308
704.115	38303
704.234	36453
704.353	33271
704.471	34573
704.590	33084
704.708	33089
704.827	31322
704.946	36170
705.064	46378
705.183	38679
705.301	53854
705.420	96442
705.538	86751
705.656	64522
705.775	56455
705.893	66210
706.012	79099
706.130	70116
706.249	68142
706.367	69558
706.485	75357
706.604	70025
706.722	66850
706.840	77262
706.958	75599
707.077	63541
707.195	60407
707.313	58287
707.431	59121
707.549	59345
707.668	58999
707.786	61350
707.904	57888
708.022	56263
708.140	54624
708.258	53617
708.376	55699
708.494	56856
708.612	64511
708.730	106624
708.848	104624
708.966	86828
709.084	77215
709.202	76708
709.320	85208
709.438	86298
709.556	82944
709.674	83188
709.791	82761
709.909	81225
710.027	79066
710.145	77393
710.263	80958
710.380	79610
710.498	77481
710.616	79795
710.733	77022
710.851	83106
710.969	85382
711.086	75921
711.204	73650
711.322	76598
711.439	76802
711.557	82674
711.674	75545
711.792	73601
711.909	69948
712.027	70298
712.144	69378
712.262	70593
712.379	82897
712.497	129832
712.614	135232
712.732	106395
712.849	96809
712.966	100755
713.084	113870
713.201	105906
713.318	102210
713.436	98578
713.553	103459
713.670	101784
713.787	112780
713.905	118507
714.022	97995
714.139	91963
714.256	94201
714.373	95438
714.490	94220
714.608	92926
714.725	124303
714.842	133690
714.959	87777
715.076	84917
715.193	81857
715.310	81739
715.427	81239
715.544	77106
715.661	81165
715.778	79982
715.895	93775
716.011	91317
716.128	81579
716.245	78807
716.362	77142
716.479	80813
716.596	75887
716.713	78964
716.829	72948
716.946	77128
717.063	70759
717.180	74694
717.296	70833
717.413	73337
717.530	68201
717.646	68977
717.763	69935
717.880	65983
717.996	66022
718.113	66332
718.229	65396
718.346	63638
718.462	63215
718.579	66553
718.695	66599
718.812	87745
718.928	99909
719.045	77119
719.161	59308
719.277	57997
719.394	55875
719.510	63174
719.626	61213
719.743	78937
719.859	67003
719.975	64121
720.092	69719
720.208	81379
720.324	68146
720.440	62099
720.557	67789
720.673	70902
720.789	113391
720.905	261967
721.021	119103
721.137	61414
721.253	63315
721.369	65141
721.486	73800
721.602	109967
721.718	62773
721.834	50045
721.950	55036
722.066	52335
722.181	50520
722.297	52623
722.413	48963
722.529	51183
722.645	49576
722.761	49019
722.877	49237
722.993	46345
723.108	51292
723.224	46555
723.340	52024
723.456	45267
723.571	48735
723.687	45744
723.803	45666
723.918	42797
724.034	46722
724.150	48207
724.265	52886
724.381	107432
724.497	155147
724.612	48115
724.728	43889
724.843	43034
724.959	51220
725.074	101248
725.190	139217
725.305	52251
725.421	46678
725.536	37084
725.651	37695
725.767	37075
725.882	34909
725.997	36934
726.113	35854
726.228	34387
726.343	38417
726.459	31849
726.574	40300
726.689	37486
726.804	35267
726.920	38723
727.035	38576
727.150	39034
727.265	34715
727.380	38442
727.495	33869
727.610	29656
727.725	33611
727.841	33128
727.956	36100
728.071	44788
728.186	35008
728.301	27186
728.416	31757
728.531	29302
728.645	26469
728.760	30589
728.875	28001
728.990	26760
729.105	29793
729.220	26582
729.335	26720
729.449	28196
729.564	25988
729.679	26556
729.794	28202
729.908	33803
730.023	30929
730.138	24002
730.253	26429
730.367	24902
730.482	23928
730.596	25070
730.711	24638
730.826	22503
730.940	20701
731.055	23863
731.169	22755
731.284	23501
731.398	24043
731.513	33126
731.627	29120
731.742	34046
731.856	40346
731.970	20290
732.085	21318
732.199	21685
732.313	21798
732.428	22684
732.542	30123
732.656	27293
732.771	17948
732.885	19936
732.999	22682
733.113	26574
733.227	24924
733.342	19560
733.456	18749
733.570	18618
733.684	19018
733.798	21401
733.912	18736
734.026	17318
734.140	19489
734.254	24376
734.368	52752
734.482	81155
734.596	19852
734.710	18484
734.824	17356
734.938	16337
735.052	16998
735.166	24272
735.280	19256
735.393	17618
735.507	17831
735.621	31625
735.735	75330
735.849	31513
735.962	17331
736.076	20231
736.190	21870
736.303	35069
736.417	57356
736.531	19299
736.644	21820
736.758	14151
736.872	14578
736.985	13955
737.099	14306
737.212	13253
737.326	14479
737.439	13872
737.553	13702
737.666	13733
737.780	13523
737.893	12829
738.007	12651
738.120	12890
738.233	12270
738.347	12819
738.460	12282
738.573	12294
738.687	12601
738.800	12187
738.913	11379
739.026	13542
739.140	13599
739.253	12060
739.366	11851
739.479	11652
739.592	11661
739.705	12680
739.818	13084
739.932	11693
740.045	10833
740.158	10949
740.271	13385
740.384	11292
740.497	9778
740.610	10808
740.723	10291
740.836	11443
740.949	9796
741.062	11237
741.174	12864
741.287	12832
741.400	10511
741.513	10904
741.626	11654
741.739	11504
741.851	9783
741.964	10312
742.077	10477
742.189	12158
742.302	13480
742.415	10391
742.527	9657
742.640	10304
742.753	9152
742.865	9024
742.978	9705
743.090	10130
743.203	10593
743.316	11298
743.428	8808
743.541	9335
743.653	8671
743.766	8787
743.878	10496
743.990	22001
744.103	22524
744.215	13594
744.327	8797
744.440	9495
744.552	9201
744.664	7868
744.777	8320
744.889	8685
745.001	8559
745.113	9089
745.226	7805
745.338	8182
745.450	8219
745.562	8999
745.674	7723
745.786	7408
745.898	7854
746.010	8687
746.122	8673
746.234	6832
746.347	7505
746.459	8959
746.570	8627
746.682	11283
746.794	14642
746.906	9650
747.018	8857
747.130	8078
747.242	7431
747.354	7777
747.466	10071
747.577	8080
747.689	7822
747.801	7646
747.913	6832
748.024	6787
748.136	7397
748.248	7054
748.359	6845
748.471	7825
748.583	7243
748.694	8511
748.806	11152
748.918	19827
749.029	12113
749.141	8119
749.252	7813
749.364	6816
749.475	9068
749.587	16893
749.698	9543
749.809	6857
749.921	6587
750.032	7478
750.144	6347
750.255	5892
750.366	6904
750.478	5732
750.589	7399
750.700	6807
750.811	6696
750.923	6877
751.034	6995
751.145	7141
751.256	6101
751.367	6411
751.479	6278
751.590	6220
751.701	5542
751.812	6208
751.923	6175
752.034	6093
752.145	6109
752.256	7280
752.367	5626
752.478	5020
752.589	5944
752.700	5404
752.811	6180
752.922	7036
753.032	5679
753.143	5934
753.254	5516
753.365	6663
753.476	5864
753.586	6188
753.697	5528
753.808	6269
753.919	5077
754.029	6408
754.140	5271
754.251	6175
754.361	6231
754.472	5498
754.582	5551
754.693	5302
754.804	5119
754.914	5496
755.025	5046
755.135	5863
755.246	5182
755.356	5849
755.466	5885
755.577	6655
755.687	6130
755.798	5813
755.908	4982
756.018	5595
756.129	5301
756.239	5282
756.349	4999
756.460	5421
756.570	5996
756.680	5837
756.790	6161
756.900	5926
757.011	5052
757.121	5150
757.231	4933
757.341	6248
757.451	5810
757.561	6113
757.671	4842
757.781	4928
757.891	5932
758.001	8598
758.111	6763
758.221	5653
758.331	5043
758.441	5528
758.551	5030
758.661	6151
758.771	7430
758.880	7757
758.990	10658
759.100	8603
759.210	8284
759.320	7405
759.429	9239
759.539	7460
759.649	7901
759.758	8529
759.868	7626
759.978	8041
760.087	8312
760.197	8447
760.307	7531
760.416	7475
760.526	7231
760.635	8656
760.745	7811
760.854	7938
760.964	8691
761.073	7313
761.182	7026
761.292	9104
761.401	12907
761.511	10418
761.620	7813
761.729	8880
761.839	10996
761.948	8791
762.057	8420
762.166	9515
762.276	8146
762.385	9419
762.494	8545
762.603	8916
762.712	10992
762.822	11782
762.931	11432
763.040	9724
763.149	10140
763.258	10558
763.367	11533
763.476	11503
763.585	11350
763.694	11534
763.803	12298
763.912	13673
764.021	13187
764.130	12156
764.238	12354
764.347	12585
764.456	13216
764.565	14066
764.674	13483
764.783	14366
764.891	13836
765.000	15663
765.109	16137
765.217	17450
765.326	21544
765.435	29879
765.543	25208
765.652	27373
765.761	34065
765.869	45454
765.978	64418
766.086	98066
766.195	163847
766.303	305598
766.412	473863
766.520	399541
766.629	290811
766.737	151797
766.846	92552
766.954	62621
767.062	48848
767.171	42133
767.279	33230
767.387	27419
767.496	25597
767.604	23021
767.712	20989
767.820	19635
767.928	19952
768.037	18702
768.145	18416
768.253	19035
768.361	17859
768.469	17966
768.577	18093
768.685	18729
768.793	18105
768.901	18821
769.009	20355
769.117	22485
769.225	25725
769.333	33461
769.441	46571
769.549	70604
769.657	132697
769.765	284126
769.873	390518
769.981	274220
770.088	121130
770.196	65595
770.304	44203
770.412	35072
770.519	30235
770.627	24744
770.735	22659
770.842	20331
770.950	17734
771.058	17165
771.165	16517
771.273	15847
771.380	15532
771.488	15817
771.595	14550
771.703	14535
771.810	14672
771.918	12752
772.025	12586
772.133	11634
772.240	12370
772.348	14004
772.455	13050
772.562	12388
772.670	11827
772.777	12539
772.884	10658
772.991	10564
773.099	11187
773.206	10523
773.313	10758
773.420	11121
773.528	9108
773.635	9924
773.742	11313
773.849	10729
773.956	10343
774.063	10626
774.170	9475
774.277	12973
774.384	11587
774.491	11119
774.598	11370
774.705	11069
774.812	10788
774.919	13969
775.026	14097
775.133	12806
775.239	11744
775.346	13760
775.453	11272
775.560	11100
775.667	11780
775.773	11813
775.880	12017
775.987	13727
776.093	11264
776.200	11634
776.307	11875
776.413	12964
776.520	11196
776.627	11821
776.733	11989
776.840	10647
776.946	13663
777.053	18105
777.159	26035
777.266	16050
777.372	24064
777.478	18513
777.585	12985
777.691	10544
777.798	10816
777.904	10805
778.010	10142
778.117	11308
778.223	11427
778.329	12390
778.435	11205
778.542	11802
778.648	10872
778.754	10229
778.860	10562
778.966	11591
779.072	12385
779.178	10326
779.284	10674
779.391	9751
779.497	9642
779.603	10944
779.708	10445
779.815	14315
779.920	24951
780.026	50631
780.132	16189
780.238	9237
780.344	8886
780.450	10181
780.556	8686
780.661	8379
780.767	9665
780.873	8818
780.979	9508
781.085	10125
781.190	9124
781.296	8758
781.402	8802
781.507	8861
781.613	8215
781.719	8461
781.824	8464
781.930	8411
782.035	8652
782.141	8520
782.246	8617
782.352	8541
782.457	8560
782.563	8803
782.668	8485
782.773	10365
782.879	10219
782.984	10280
783.090	10184
783.195	8797
783.300	9437
783.405	11291
783.511	10804
783.616	9521
783.721	10243
783.826	8136
783.932	10049
784.037	9456
784.142	10207
784.247	10305
784.352	8461
784.457	9489
784.562	8580
784.667	9448
784.772	8518
784.877	8427
784.982	8332
785.087	8792
785.192	9052
785.297	10274
785.402	8527
785.507	7445
785.611	7785
785.716	9252
785.821	8557
785.926	7751
786.031	7754
786.135	8079
786.240	7806
786.345	7538
786.450	8099
786.554	7471
786.659	8463
786.763	6585
786.868	8129
786.973	8796
787.077	7033
787.182	6824
787.286	7716
787.391	6663
787.495	7445
787.600	7549
787.704	6315
787.809	8102
787.913	6159
788.017	5790
788.122	6982
788.226	7155
788.330	6276
788.435	7677
788.539	6927
788.643	6161
788.747	7084
788.852	6760
788.956	6003
789.060	6335
789.164	6888
789.268	5602
789.372	6950
789.476	6156
789.580	5994
789.684	6247
789.788	6069
789.892	6022
789.996	8264
790.100	7336
790.204	6998
790.308	8154
790.412	7238
790.516	7735
790.620	7856
790.724	8028
790.828	6760
790.931	7008
791.035	7993
791.139	6858
791.242	5918
791.346	6620
791.450	5318
791.554	6290
791.657	5279
791.761	6719
791.864	6704
791.968	6146
792.072	6689
792.175	7519
792.279	6619
792.382	6480
792.486	6518
792.589	8591
792.693	7666
792.796	5456
792.899	6912
793.003	6453
793.106	4903
793.209	5699
793.313	6475
793.416	3817
793.519	6538
793.623	5688
793.726	5220
793.829	5455
793.932	5249
794.035	4714
794.138	6156
794.242	6682
794.345	9394
794.448	8882
794.551	7775
794.654	14396
794.757	26301
794.860	17695
794.963	12070
795.066	5627
795.169	5737
795.272	4184
795.375	4531
795.477	3770
795.580	5472
795.683	4089
795.786	4661
795.889	4702
795.991	6707
796.094	9514
796.197	8329
796.300	6705
796.402	3501
796.505	3692
796.608	4022
796.710	4817
796.813	3883
796.915	4917
797.018	4805
797.120	4201
797.223	2988
797.326	5015
797.428	4268
797.530	4581
797.633	5540
797.735	9070
797.838	21136
797.940	19685
798.042	4769
798.145	4123
798.247	5350
798.349	2922
798.452	4441
798.554	3545
798.656	3057
798.758	4264
798.860	4513
798.962	3287
799.065	3907
799.167	4446
799.269	5284
799.371	4813
799.473	6085
799.575	8907
799.677	12945
799.779	6878
799.881	3225
799.983	4505
800.085	4563
800.187	4162
800.289	4203
800.390	4564
800.492	3751
800.594	4728
800.696	2438
800.798	3488
800.899	2801
801.001	3846
801.103	3944
801.205	3441
801.306	2907
801.408	2344
801.509	3035
801.611	4511
801.713	3687
801.814	2758
801.916	3306
802.017	3214
802.119	2674
802.220	4075
802.322	3181
802.423	11338
802.525	9906
802.626	4172
802.727	3131
802.829	3490
802.930	1850
803.031	4468
803.133	2919
803.234	3401
803.335	2244
803.436	3017
803.538	2969
803.639	2909
803.740	3058
803.841	3283
803.942	2831
804.043	3828
804.144	2451
804.245	2892
804.346	2184
804.447	1256
804.548	2175
804.649	2495
804.750	2177
804.851	2662
804.952	2791
805.053	2649
805.154	2208
805.255	2962
805.355	2043
805.456	2056
805.557	2818
805.658	1841
805.758	3038
805.859	3030
805.960	2385
806.061	2115
806.161	1722
806.262	3169
806.362	2036
806.463	2640
806.564	3088
806.664	2920
806.765	7577
806.865	9004
806.966	3967
807.066	1794
807.166	2892
807.267	2161
807.367	2012
807.468	2756
807.568	1502
807.668	2467
807.769	2336
807.869	1993
807.969	2206
808.069	3019
808.170	2168
808.270	1324
808.370	2456
808.470	3313
808.570	1779
808.670	2239
808.770	2177
808.870	2133
808.970	2177
809.070	1871
809.170	1311
809.271	1442
809.370	1854
809.470	1545
809.570	1120
809.670	1343
809.770	1457
809.870	2610
809.970	1916
810.070	1804
810.169	2287
810.269	362
810.369	2657
810.469	671
810.568	1381
810.668	1280
810.768	1415
810.867	1520
810.967	1638
811.066	1711
811.166	1532
811.265	1641
811.365	862
811.464	1022
811.564	1073
811.663	1927
811.763	500
811.862	1268
811.962	1662
812.061	1333
812.160	737
812.260	1764
812.359	1393
812.458	631
812.557	1777
812.657	2849
812.756	2179
812.855	1322
812.954	1578
813.053	2146
813.153	1258
813.252	1281
813.351	1820
813.450	1376
813.549	393
813.648	1707
813.747	814
813.846	1794
813.945	1088
814.044	386
814.143	477
814.242	1158
814.341	449
814.439	941
814.538	2264
814.637	1501
814.736	797
814.835	1807
814.933	1014
815.032	1098
815.131	1343
815.229	238
815.328	846
815.427	510
815.525	2254
815.624	823
815.722	1406
815.821	1608
815.919	240
816.018	42
816.116	995
816.215	1485
816.313	291
816.412	249
816.510	943
816.609	1831
816.707	1340
816.805	875
816.904	364
817.002	870
817.100	797
817.198	596
817.296	698
817.395	1185
817.493	2486
817.591	518
817.689	1348
817.787	1230
817.885	3276
817.983	4877
818.081	10065
818.179	23491
818.277	60767
818.375	62924
818.473	16523
818.571	6363
818.669	4140
818.767	4831
818.865	2867
818.963	3327
819.061	3637
819.158	8299
819.256	19462
819.354	47115
819.452	115038
819.549	85313
819.647	20242
819.745	8033
819.842	4449
819.940	3215
820.038	2136
820.135	2242
820.233	2817
820.330	1526
820.428	770
820.525	1904
820.623	1144
820.720	1049
820.818	1988
820.915	1493
821.012	1950
821.110	1174
821.207	2200
821.304	1701
821.402	2197
821.499	3957
821.596	5117
821.693	2114
821.791	1603
821.888	1612
821.985	1726
822.082	1948
822.179	2819
822.276	1604
822.373	1118
822.470	1051
822.567	1138
822.664	332
822.761	1390
822.858	612
822.955	1146
823.052	860
823.149	579
823.246	743
823.343	697
823.440	628
823.536	277
823.633	-364
823.730	1712
823.827	1458
823.923	244
824.020	2318
824.117	2006
824.213	1704
824.310	1213
824.407	427
824.503	764
824.600	967
824.696	828
824.793	1159
824.889	427
824.986	621
825.082	1044
825.179	1255
825.275	391
825.371	796
825.468	535
825.564	-548
825.660	760
825.757	-32
825.853	1190
825.949	488
826.045	758
826.142	579
826.238	560
826.334	809
826.430	-199
826.526	1528
826.622	402
826.718	1373
826.814	-435
826.910	1180
827.006	698
827.102	60
827.198	1061
827.294	43
827.390	620
827.486	951
827.582	-532
827.678	166
827.774	1172
827.869	-28
827.965	1898
828.061	-15
828.157	882
828.252	894
828.348	676
828.444	1020
828.539	290
828.635	357
828.731	1485
828.826	-335
828.922	1049
829.017	1125
829.113	1577
829.208	372
829.304	-229
829.399	2178
829.495	888
829.590	1801
829.685	27
829.781	899
829.876	199
829.971	683
830.066	462
830.162	1790
830.257	208
830.352	1373
830.447	1749
830.543	2689
830.638	1906
830.733	3046
830.828	1307
830.923	1904
831.018	1054
831.113	2807
831.208	2302
831.303	1392
831.398	392
831.493	-92
831.588	1204
831.683	-17
831.778	1335
831.873	980
831.967	1352
832.062	-57
832.157	-259
832.252	1422
832.346	551
832.441	786
832.536	461
832.631	1726
832.725	913
832.820	334
832.914	402
833.009	313
833.104	864
833.198	1665
833.293	1486
833.387	2283
833.482	2101
833.576	405
833.670	1638
833.765	416
833.859	-91
833.954	1519
834.048	1017
834.142	895
834.237	-105
834.331	149
834.425	712
834.519	606
834.613	1367
834.708	858
834.802	1827
834.896	1184
834.990	820
835.084	1003
835.178	866
835.272	2328
835.366	881
835.460	1692
835.554	1024
835.648	916
835.742	925
835.836	182
835.930	-254
836.024	1514
836.117	3159
836.211	3841
836.305	8434
836.399	13643
836.493	3571
836.586	2024
836.680	306
836.774	237
836.867	1901
836.961	870
837.055	68
837.148	609
837.242	1634
837.335	1941
837.429	1806
837.522	2825
837.616	5768
837.709	14328
837.803	13235
837.896	3717
837.989	4232
838.083	9118
838.176	22255
838.269	24024
838.363	5312
838.456	1581
838.549	2660
838.642	1425
838.735	2487
838.829	2867
838.922	1537
839.015	1887
839.108	795
839.201	1067
839.294	1940
839.387	1536
839.480	2857
839.573	7016
839.666	12235
839.759	3961
839.852	1398
839.945	996
840.038	974
840.131	208
840.223	342
840.316	1095
840.409	954
840.502	1347
840.594	1216
840.687	388
840.780	1674
840.873	1858
840.965	3780
841.058	7621
841.150	17468
841.243	16211
841.336	2901
841.428	2750
841.521	1336
841.613	3163
841.706	4859
841.798	1385
841.890	1602
841.983	690
842.075	2165
842.167	1493
842.260	3318
842.352	6980
842.444	11300
842.537	20268
842.629	32347
842.721	8013
842.813	1925
842.905	761
842.997	2854
843.090	4120
843.182	8050
843.274	17896
843.366	39182
843.458	80487
843.550	59883
843.642	11019
843.734	5149
843.826	7268
843.918	5893
844.009	2730
844.101	1220
844.193	2304
844.285	2286
844.377	1718
844.469	3105
844.560	3885
844.652	3505
844.744	1760
844.835	2447
844.927	2991
845.019	5733
845.110	4812
845.202	1885
845.293	1777
845.385	760
845.476	1608
845.568	2731
845.659	2212
845.751	2112
845.842	1074
845.934	1214
846.025	1580
846.116	1064
846.208	1838
846.299	1676
846.390	2581
846.482	2627
846.573	4316
846.664	6571
846.755	8176
846.846	7888
846.937	1527
847.029	1517
847.120	1066
847.211	1282
847.302	2441
847.393	-210
847.484	1664
847.575	984
847.666	1399
847.757	1282
847.847	1480
847.938	2108
848.029	1663
848.120	1042
848.211	2087
848.302	1244
848.392	676
848.483	1325
848.574	379
848.664	876
848.755	1252
848.846	512
848.936	919
849.027	947
849.118	1215
849.208	899
849.299	1461
849.389	2386
849.480	3059
849.570	4329
849.661	3000
849.751	3500
849.841	1671
849.932	1181
850.022	446
850.112	848
850.203	1724
850.293	1193
850.383	1207
850.474	268
850.564	1430
850.654	1126
850.744	1148
850.834	1023
850.924	834
851.014	1263
851.104	1910
851.194	630
851.284	1167
851.374	1507
851.464	2385
851.554	4154
851.644	5125
851.734	10157
851.824	7859
851.914	2531
852.004	1797
852.094	1185
852.183	1322
852.273	1749
852.363	582
852.452	54
852.542	724
852.632	1103
852.721	1867
852.811	1177
852.901	1611
852.990	1307
853.080	964
853.169	1032
853.259	1283
853.348	1267
853.438	988
853.527	1913
853.617	1257
853.706	2080
853.795	2876
853.885	6682
853.974	7835
854.063	12230
854.152	21068
854.242	8840
854.331	3486
854.420	1208
854.509	1836
854.598	2769
854.687	4314
854.777	4009
854.866	1799
854.955	2180
855.044	310
855.133	297
855.222	627
855.311	931
855.400	783
855.488	1874
855.577	853
855.666	962
855.755	1674
855.844	1713
855.933	1526
856.021	1370
856.110	1083
856.199	967
856.288	821
856.376	1240
856.465	1115
856.554	1753
856.642	1259
856.731	1307
856.819	715
856.908	1586
856.996	1400
857.085	422
857.173	1628
857.262	1107
857.350	1299
857.438	-15
857.527	1083
857.615	899
857.703	1653
857.792	1110
857.880	1105
857.968	1332
858.056	1601
858.145	435
858.233	1178
858.321	645
858.409	981
858.497	760
858.585	-222
858.673	726
858.761	861
858.849	-357
858.937	1066
859.025	377
859.113	1661
859.201	575
859.289	2210
859.377	1493
859.465	1893
859.552	748
859.640	1549
859.728	1705
859.816	1005
859.903	1255
859.991	1420
860.079	1292
860.166	531
860.254	804
860.342	1641
860.429	-184
860.517	-766
860.604	859
860.692	914
860.779	405
860.867	1053
860.954	270
861.042	1351
861.129	375
861.216	544
861.304	184
861.391	307
861.478	312
861.565	1083
861.653	1580
861.740	552
861.827	876
861.914	210
862.001	275
862.089	587
862.176	76
862.263	-250
862.350	637
862.437	423
862.524	732
862.611	967
862.698	969
862.785	2281
862.871	1012
862.958	487
863.045	1558
863.132	495
863.219	661
863.306	-75
863.392	1224
863.479	714
863.566	173
863.652	1525
863.739	161
863.826	297
863.912	611
863.999	-506
864.086	1456
864.172	216
864.259	364
864.345	728
864.432	544
864.518	807
864.604	358
864.691	16
864.777	523
864.863	691
864.950	-15
865.036	74
865.122	-336
865.209	734
865.295	263
865.381	578
865.467	138
865.553	1228
865.639	-243
865.726	959
865.812	1026
865.898	2652
865.984	4065
866.070	7598
866.156	10454
866.242	2907
866.328	1102
866.414	146
866.499	-178
866.585	399
866.671	90
866.757	176
866.843	699
866.928	318
867.014	597
867.100	1564
867.186	1331
867.271	3397
867.357	4310
867.442	8464
867.528	4001
867.614	608
867.699	1278
867.785	1954
867.870	2274
867.956	3455
868.041	3910
868.127	4309
868.212	6196
868.297	2813
868.383	1015
868.468	1270
868.553	744
868.639	975
868.724	464
868.809	1657
868.894	1205
868.979	1398
869.065	1493
869.150	2443
869.235	782
869.320	32
869.405	132
869.490	-213
869.575	-442
869.660	-94
869.745	132
869.830	118
869.915	-180
870.000	2
870.085	165
870.169	418
870.254	194
870.339	21
870.424	-559
870.509	-11
870.593	-1104
870.678	116
870.763	76
870.847	127
870.932	-156
871.016	1123
871.101	144
871.186	-426
871.270	-177
871.355	222
871.439	-150
871.523	573
871.608	445
871.692	1189
871.777	404
871.861	891
871.945	-457
872.030	31
872.114	-410
872.198	-739
872.282	-107
872.367	-1040
872.451	-875
872.535	-22
872.619	-121
872.703	-42
872.787	-546
872.871	-188
872.955	-467
873.039	-375
873.123	200
873.207	697
873.291	912
873.375	803
873.459	871
873.543	42
873.627	-49
873.711	89
873.794	-110
873.878	-322
873.962	-611
874.045	-419
874.129	-768
874.137	-692
874.213	68
874.245	-48
874.296	-233
874.352	-569
874.380	-738
874.460	-665
874.464	-663
874.547	-331
874.568	-325
874.631	-319
874.676	-401
874.714	-446
874.784	-581
874.798	-617
874.881	1037
874.892	863
874.965	-336
874.999	-271
875.048	-177
875.107	-553
875.131	-709
875.215	43
875.215	43
875.298	-609
875.323	-760
875.381	-1110
875.430	-325
875.465	210
875.538	417
875.548	456
875.631	-1258
875.646	-1139
875.714	-595
875.753	-524
875.798	-479
875.861	-559
875.881	-572
875.964	85
875.968	91
876.047	226
876.076	112
876.130	-136
876.183	232
876.213	450
876.291	217
876.296	205
876.379	162
876.398	263
876.462	689
876.506	1264
876.545	1647
876.613	1007
876.628	847
876.711	-142
876.721	-166
876.794	-116
876.828	-76
876.877	-44
876.935	-323
876.960	-435
877.043	67
877.043	66
877.125	187
877.150	269
877.208	340
877.258	147
877.291	151
877.365	385
877.374	383
877.456	355
877.472	390
877.539	677
877.579	837
877.622	919
877.687	608
877.704	539
877.787	416
877.794	394
877.869	125
877.901	50
877.952	-104
878.008	491
878.034	850
878.115	-268
878.117	-293
878.199	20
878.222	65
878.282	400
878.329	276
878.364	88
878.437	592
878.447	669
878.529	159
878.544	205
878.611	400
878.651	349
878.694	413
878.758	808
878.776	881
878.858	142
878.865	151
878.941	380
878.972	263
879.023	-44
879.078	123
879.105	274
879.185	807
879.187	818
879.269	605
879.292	414
879.351	-82
879.399	93
879.433	297
879.506	907
879.516	930
879.598	-360
879.613	-346
879.680	172
879.720	404
879.762	632
879.827	391
879.844	277
879.926	-377
879.933	-328
880.007	323
880.040	252
880.089	134
880.147	607
880.171	803
880.253	477
880.254	473
880.335	341
880.360	416
880.417	793
880.467	982
880.499	1348
880.574	3054
880.580	3045
880.662	1161
880.680	787
880.744	178
880.787	213
880.825	541
880.893	487
880.907	341
880.989	301
881.000	231
881.070	302
881.106	270
881.152	353
881.213	825
881.233	927
881.315	902
881.319	909
881.396	1152
881.426	1103
881.478	951
881.532	1081
881.559	1125
881.639	762
881.641	756
881.722	671
881.745	708
881.803	1445
881.852	1486
881.885	1071
881.958	1027
881.966	1085
882.047	1027
882.064	1112
882.129	1228
882.171	1150
882.210	1121
882.277	905
882.291	880
882.372	550
882.383	571
882.454	681
882.489	809
882.535	1006
882.596	765
882.616	664
882.697	431
882.702	442
882.778	1244
882.808	1335
882.859	1135
882.914	1049
882.940	1086
883.020	672
883.021	677
883.102	1056
883.127	1086
883.183	1141
883.233	1150
883.264	1222
883.339	961
883.345	917
883.426	942
883.445	881
883.507	902
883.551	837
883.587	820
883.657	895
883.668	932
883.749	1066
883.763	1136
883.830	1360
883.869	1324
883.910	1154
883.975	626
883.991	639
884.072	1034
884.081	1068
884.152	1109
884.187	1095
884.233	1018
884.292	990
884.314	1003
884.394	946
884.398	937
884.475	1197
884.504	1201
884.555	834
884.610	662
884.636	842
884.716	1369
884.716	1377
884.797	1240
884.821	1152
884.877	996
884.927	620
884.958	672
885.033	1513
885.038	1511
885.118	1172
885.139	1027
885.199	1491
885.244	1582
885.279	1348
885.350	1549
885.359	1589
885.439	1264
885.456	1250
885.520	1272
885.561	1355
885.600	1604
885.667	1774
885.680	1803
885.760	2068
885.773	2090
885.840	2763
885.878	3142
885.920	3391
885.984	3628
886.000	3523
886.080	2810
886.089	2779
886.160	3046
886.195	2915
886.240	2490
886.300	2242
886.320	2308
886.400	2134
886.406	2110
886.480	2209
886.511	2431
886.560	2597
886.616	2498
886.640	2476
886.720	2474
886.722	2464
886.800	2778
886.827	2843
886.879	2748
886.932	2721
886.959	3023
887.038	3629
887.039	3635
887.119	3128
887.143	2953
887.198	2972
887.248	2972
887.278	3050
887.354	3209
887.358	3219
887.437	3130
887.459	3109
887.517	3064
887.564	2973
887.596	2982
887.669	3035
887.676	3020
887.755	2594
887.774	2479
887.835	2865
887.880	3230
887.914	3159
887.985	2764
887.994	2794
888.073	3086
888.090	3134
888.153	2700
888.195	2369
888.232	2863
888.300	3775
888.311	3704
888.391	3093
888.405	2956
888.470	3082
888.510	3156
888.549	3100
888.615	3073
888.628	3174
888.708	3587
888.720	3649
888.787	3368
888.825	3154
888.866	3187
888.930	3248
888.945	3274
889.024	3302
889.035	3297
889.103	3006
889.140	2844
889.182	3014
889.245	3187
889.261	3170
889.340	3084
889.349	3057
889.419	3080
889.454	3094
889.498	2951
889.559	2705
889.577	2685
889.656	2565
889.664	2546
889.735	3156
889.768	3430
889.814	3693
889.873	4017
889.978	3007
890.083	3390
890.187	3558
890.292	3225
890.397	2909
890.501	2343
890.606	3188
890.710	3207
890.815	3321
890.919	3700
891.024	3238
891.128	3469
891.233	3251
891.337	3939
891.442	3212
891.546	3318
891.650	2478
891.755	2698
891.859	3990
891.963	2934
892.068	3074
892.172	3277
892.276	3306
892.380	2119
892.484	2950
892.589	2659
892.693	2816
892.797	2570
892.901	3574
893.005	2637
893.109	3459
893.213	3325
893.317	2626
893.421	2891
893.525	2020
893.629	3008
893.733	3402
893.837	3498
893.941	2632
894.045	2735
894.148	3505
894.252	2909
894.356	3083
894.460	3642
894.564	2599
894.667	2932
894.771	2726
894.875	3070
894.978	2970
895.082	3073
895.186	3710
895.289	2750
895.393	3596
895.496	2626
895.600	2006
895.703	2745
895.807	2494
895.910	2529
896.014	2744
896.117	2255
896.221	2165
896.324	2990
896.427	3250
896.531	2818
896.634	3265
896.737	2682
896.840	2967
896.944	3000
897.047	3185
897.150	2384
897.253	2433
897.356	2746
897.460	2671
897.563	2891
897.666	2584
897.769	3381
897.872	4239
897.975	2612
898.078	3065
898.181	3448
898.284	3246
898.387	3104
898.490	3149
898.593	3495
898.695	3208
898.798	4474
898.901	9304
899.004	3343
899.107	2754
899.209	1792
899.312	2940
899.415	2468
899.518	2760
899.620	2116
899.723	2496
899.826	3269
899.928	3123
900.031	1991
900.133	2403
900.236	1631
900.338	2029
900.441	2708
900.543	1775
900.646	1896
900.748	2396
900.851	1966
900.953	2293
901.055	3024
901.158	2102
901.260	1832
901.362	2491
901.465	2521
901.567	3164
901.669	2387
901.771	2565
901.873	1519
901.976	3257
902.078	2550
902.180	3034
902.282	3132
902.384	2915
902.486	2513
902.588	4949
902.690	12786
902.792	5629
902.894	3102
902.996	2689
903.098	1860
903.200	2126
903.302	2359
903.404	2245
903.505	1332
903.607	3326
903.709	2546
903.811	2233
903.913	2509
904.014	3101
904.116	2412
904.218	2821
904.319	2140
904.421	3088
904.523	2738
904.624	2738
904.726	2352
904.827	2690
904.929	2046
905.030	1833
905.132	2380
905.233	1740
905.335	1586
905.436	1731
905.537	1351
905.639	2382
905.740	1173
905.841	1728
905.943	2112
906.044	2052
906.145	2326
906.247	1628
906.348	1122
906.449	1811
906.550	1366
906.651	1943
906.752	1634
906.854	2297
906.955	1783
907.056	1705
907.157	1435
907.258	2522
907.359	2145
907.460	1283
907.561	1658
907.662	1872
907.762	1698
907.863	1405
907.964	2069
908.065	1602
908.166	1735
908.267	1566
908.367	1581
908.468	1407
908.569	2659
908.670	3492
908.770	4721
908.871	3032
908.971	8310
909.072	15228
909.173	3133
909.273	1264
909.374	1355
909.474	2460
909.575	1675
909.675	1957
909.776	2097
909.876	1160
909.977	2124
910.077	1696
910.177	700
910.278	877
910.378	1613
910.478	1798
910.579	1270
910.679	1085
910.779	2356
910.879	1942
910.980	1723
911.080	1354
911.180	1515
911.280	1842
911.380	932
911.480	1065
911.580	824
911.680	1246
911.780	1162
911.880	2501
911.980	1866
912.080	1760
912.180	2198
912.280	3786
912.380	2395
912.480	1144
912.580	1168
912.679	1391
912.779	1048
912.879	1231
912.979	803
913.078	1365
913.178	1347
913.278	1091
913.377	1750
913.477	2018
913.577	1401
913.676	499
913.776	2045
913.875	1659
913.975	1572
914.074	1044
914.174	827
914.273	1043
914.373	1508
914.472	1975
914.572	1100
914.671	1411
914.770	1193
914.870	1317
914.969	727
915.068	952
915.167	1013
915.267	1032
915.366	1211
915.465	437
915.564	1094
915.663	1520
915.763	1557
915.862	1018
915.961	1192
916.060	973
916.159	978
916.258	516
916.357	1355
916.456	1478
916.555	1209
916.654	3277
916.752	4020
916.851	1250
916.950	1285
917.049	2520
917.148	1125
917.247	1852
917.345	567
917.444	660
917.543	696
917.642	837
917.740	363
917.839	654
917.937	1035
918.036	1423
918.135	1451
918.233	1159
918.332	1211
918.430	741
918.529	895
918.627	1405
918.726	1242
918.824	1713
918.923	1127
919.021	2068
919.119	461
919.218	1893
919.316	316
919.414	990
919.512	-76
919.611	1350
919.709	581
919.807	957
919.905	1024
920.003	-57
920.102	763
920.200	1213
920.298	802
920.396	1091
920.494	1249
920.592	471
920.690	1405
920.788	1079
920.886	870
920.984	1263
921.082	1957
921.180	1411
921.277	259
921.375	1405
921.473	1465
921.571	664
921.669	264
921.766	293
921.864	1178
921.962	2176
922.060	1125
922.157	1075
922.255	1121
922.352	898
922.450	2022
922.548	581
922.645	537
922.743	1426
922.840	931
922.938	1003
923.035	1088
923.133	719
923.230	827
923.327	632
923.425	977
923.522	721
923.619	1059
923.717	1614
923.814	1164
923.911	481
924.008	1733
924.106	493
924.203	967
924.300	600
924.397	558
924.494	1424
924.591	4918
924.688	2533
924.786	668
924.883	779
924.979	1603
925.077	921
925.173	981
925.270	1095
925.367	675
925.464	2109
925.561	1379
925.658	2393
925.755	3526
925.852	3188
925.948	1384
926.045	2319
926.142	2212
926.239	1708
926.335	2049
926.432	1700
926.529	2266
926.625	2078
926.722	1465
926.818	1380
926.915	1053
927.011	1108
927.108	1401
927.204	1346
927.301	335
927.397	549
927.494	837
927.590	539
927.687	805
927.783	845
927.879	1128
927.976	108
928.072	1046
928.168	934
928.264	525
928.361	1385
928.457	1391
928.553	1685
928.649	665
928.745	584
928.841	750
928.937	537
929.033	1064
929.129	882
929.225	1100
929.321	1588
929.417	624
929.513	959
929.609	962
929.705	667
929.801	791
929.897	841
929.993	486
930.089	1106
930.184	1184
930.280	1059
930.376	1246
930.471	624
930.567	742
930.663	697
930.758	999
930.854	1440
930.950	588
931.045	1205
931.141	853
931.236	1709
931.332	1704
931.427	989
931.523	303
931.618	812
931.714	617
931.809	392
931.905	1119
932.000	246
932.095	712
932.191	1028
932.286	174
932.381	946
932.476	453
932.572	1165
932.667	854
932.762	728
932.857	290
932.952	1121
933.047	874
933.142	535
933.237	780
933.332	446
933.427	1186
933.522	1027
933.617	-27
933.712	865
933.807	1053
933.902	452
933.997	44
934.092	386
934.187	787
934.282	1204
934.376	853
934.471	783
934.566	256
934.661	1168
934.755	1025
934.850	782
934.945	1062
935.039	614
935.134	879
935.228	1016
935.323	740
935.417	1889
935.512	718
935.606	1036
935.701	588
935.795	454
935.890	1149
935.984	1674
936.079	46
936.173	1048
936.267	496
936.362	479
936.456	1690
936.550	1143
936.644	1321
936.738	1118
936.833	821
936.927	1181
937.021	707
937.115	160
937.209	-198
937.303	1437
937.397	377
937.491	311
937.585	515
937.679	731
937.773	568
937.867	155
937.961	736
938.055	459
938.149	813
938.243	764
938.337	677
938.430	1142
938.524	1397
938.618	2812
938.712	1843
938.805	1637
938.899	709
938.993	1607
939.086	2112
939.180	2576
939.274	3196
939.367	1225
939.461	254
939.554	1350
939.648	-125
939.741	639
939.835	590
939.928	399
940.022	42
940.115	478
940.208	351
940.302	345
940.395	1247
940.488	-432
940.582	1270
940.675	868
940.768	774
940.861	787
940.954	1278
941.048	669
941.141	592
941.234	752
941.327	1714
941.420	2258
941.513	1485
941.606	277
941.699	793
941.792	534
941.885	1057
941.978	565
942.071	574
942.164	-77
942.257	757
942.349	154
942.442	80
942.535	1032
942.628	886
942.721	268
942.813	379
942.906	1440
942.999	795
943.091	636
943.184	918
943.277	67
943.369	918
943.462	395
943.554	-70
943.647	498
943.739	680
943.832	1236
943.924	-401
944.017	1113
944.109	-233
944.201	683
944.294	1165
944.386	741
944.478	116
944.571	860
944.663	-5
944.755	691
944.847	286
944.940	387
945.032	522
945.124	-162
945.216	1541
945.308	1015
945.400	809
945.492	1542
945.584	626
945.676	1321
945.768	1228
945.860	1569
945.952	350
946.044	388
946.136	-44
946.228	359
946.320	125
946.412	1191
946.503	232
946.595	178
946.687	177
946.779	-138
946.870	223
946.962	-43
947.054	834
947.145	1149
947.237	619
947.329	1502
947.420	118
947.512	-408
947.603	174
947.695	185
947.786	-801
947.878	-32
947.969	378
948.061	-347
948.152	-168
948.243	222
948.335	126
948.426	434
948.517	-494
948.609	176
948.700	341
948.791	215
948.882	270
948.973	123
949.065	-591
949.156	313
949.247	3
949.338	91
949.429	416
949.520	292
949.611	-175
949.702	434
949.793	542
949.884	369
949.975	474
950.066	165
950.157	187
950.247	1289
950.338	362
950.429	1627
950.520	2463
950.611	5291
950.701	3236
950.792	3414
950.883	4001
950.973	1335
951.064	2989
951.155	3494
951.245	1647
951.336	1423
951.427	-1054
951.517	1174
951.608	697
951.698	-99
951.788	369
951.879	-55
951.969	-213
952.060	106
952.150	85
952.240	-154
952.331	-1756
952.421	1841
952.511	-29
952.602	10
952.692	190
952.782	188
952.872	-135
952.962	-674
953.052	46
953.143	-430
953.233	211
953.323	307
953.413	-411
953.503	962
953.593	457
953.683	-390
953.773	294
953.863	-345
953.953	-417
954.042	738
954.132	479
954.222	464
954.312	1725
954.402	2979
954.492	7146
954.581	20633
954.671	8188
954.761	-140
954.850	1278
954.940	325
955.030	985
955.119	-144
955.209	-306
955.298	-110
955.388	288
955.477	556
955.567	-801
955.656	90
955.746	369
955.835	-743
955.925	50
956.014	-17
956.103	-125
956.193	166
956.282	496
956.371	737
956.461	-597
956.550	-63
956.639	132
956.728	-131
956.817	48
956.906	170
956.995	878
957.085	75
957.174	476
957.263	-562
957.352	-489
957.441	-39
957.530	-76
957.619	-65
957.708	72
957.796	-599
957.885	25
957.974	-445
958.063	667
958.152	-439
958.241	350
958.329	493
958.418	-582
958.507	-66
958.596	562
958.684	-619
958.773	1452
958.861	537
958.950	666
959.039	1076
959.127	35
959.216	1143
959.304	151
959.393	398
959.481	631
959.570	1331
959.658	1986
959.746	3532
959.835	9703
959.923	26100
960.011	12553
960.100	1233
960.188	484
960.276	627
960.365	-98
960.453	375
960.541	18
960.629	732
960.717	477
960.805	-856
960.893	430
960.981	-343
961.069	655
961.158	676
961.245	724
961.333	510
961.421	-533
961.509	107
961.597	-339
961.685	-228
961.773	109
961.861	-677
961.949	-686
962.036	-501
962.124	449
962.212	383
962.299	-44
962.387	-524
962.475	226
962.562	-427
962.650	279
962.738	207
962.825	739
962.913	475
963.000	190
963.088	-545
963.175	1428
963.263	1518
963.350	2084
963.438	3814
963.525	5574
963.612	13754
963.700	33045
963.787	84947
963.874	46119
963.962	4513
964.049	1669
964.136	278
964.223	890
964.310	966
964.398	980
964.485	2022
964.572	5360
964.659	17082
964.746	20625
964.833	2683
964.920	212
965.007	959
965.094	1708
965.181	501
965.268	1084
965.355	431
965.441	-45
965.528	-985
965.615	104
965.702	346
965.789	-480
965.875	751
965.962	171
966.049	144
966.136	1000
966.222	232
966.309	649
966.395	15
966.482	103
966.569	5
966.655	562
966.742	-108
966.828	1315
966.915	645
967.001	726
967.087	992
967.174	4052
967.260	5416
967.347	11379
967.433	29174
967.519	64448
967.605	26568
967.692	2984
967.778	810
967.864	750
967.950	-817
968.036	322
968.123	330
968.209	-260
968.295	-696
968.381	1214
968.467	1053
968.553	54
968.639	2262
968.725	3777
968.811	12764
968.897	12383
968.983	2376
969.069	-282
969.154	-47
969.240	-50
969.326	107
969.412	459
969.497	-92
969.583	9
969.669	515
969.755	1169
969.840	-526
969.926	163
970.012	385
970.097	708
970.183	2355
970.268	3777
970.354	8850
970.439	19149
970.525	45381
970.610	19693
970.696	2949
970.781	414
970.866	-710
970.952	93
971.037	133
971.122	41
971.208	-482
971.293	9
971.378	-603
971.463	441
971.549	1329
971.634	1904
971.719	2822
971.804	6847
971.889	9715
971.974	1721
972.059	521
972.144	359
972.229	239
972.314	579
972.399	2537
972.484	1860
972.569	3033
972.654	5720
972.739	19030
972.824	29999
972.908	7390
972.993	-102
973.078	278
973.163	7
973.247	27
973.332	-1440
973.417	1463
973.501	-576
973.586	540
973.671	417
973.755	740
973.840	1368
973.924	1139
974.009	1797
974.093	2467
974.178	7223
974.262	17583
974.346	24068
974.431	5343
974.515	180
974.600	1663
974.684	1641
974.768	615
974.852	539
974.937	-1722
975.021	750
975.105	-210
975.189	-413
975.273	-237
975.358	-766
975.442	-1035
975.526	249
975.610	-803
975.694	-869
975.778	615
975.862	-210
975.946	-2192
976.030	447
976.114	-23
976.198	-74
976.281	173
976.365	704
976.449	176
976.533	677
976.617	-162
976.700	479
976.784	2196
976.868	4046
976.951	10952
977.035	9718
977.119	2096
977.202	23
977.286	121
977.369	-287
977.453	-214
977.536	-781
977.620	-787
977.703	564
977.787	-256
977.870	2031
977.953	2198
978.037	1207
978.120	6327
978.203	12496
978.287	29427
978.370	15327
978.453	2649
978.536	2762
978.620	6740
978.703	17649
978.786	10262
978.869	539
978.952	-1407
979.035	714
979.118	220
979.201	-660
979.284	596
979.367	-649
979.450	-229
979.533	-931
979.616	-148
979.699	-709
979.782	-353
979.865	-664
979.948	31
980.030	-367
980.113	-387
980.196	-1483
980.279	-778
980.361	-4
980.444	-1188
980.526	-539
980.609	-711
980.692	-828
980.774	-95
980.857	-1231
980.939	372
981.022	-306
981.104	-889
981.187	-652
981.269	590
981.352	-494
981.434	-176
981.516	-227
981.599	1129
981.681	99
981.763	-997
981.846	-87
981.928	-370
982.010	-841
982.092	-1450
982.174	14
982.256	-176
982.339	-762
982.421	-486
982.503	-261
982.585	-995
982.667	-555
982.749	-141
982.831	-318
982.913	-1013
982.995	1655
983.077	1435
983.158	4352
983.240	797
983.322	118
983.404	-792
983.486	-426
983.568	-853
983.649	-755
983.731	-298
983.813	-915
983.894	-474
983.976	-623
984.058	-778
984.139	-167
984.221	-861
984.302	-172
984.384	-1214
984.465	-388
984.547	-573
984.628	-1132
984.710	23
984.791	-1113
984.872	-506
984.954	-92
985.035	-255
985.116	-1050
985.198	-1341
985.279	648
985.360	-906
985.441	-1178
985.522	297
985.604	-1479
985.685	-2440
985.766	334
985.847	818
985.928	-1080
986.009	-1413
986.090	-1541
986.171	-40
986.252	-1384
986.333	-926
986.414	-1367
986.495	-386
986.576	-1449
986.656	-1359
986.737	-112
986.818	-17
986.899	-465
986.980	-1272
987.060	-64
987.141	-1303
987.222	-444
987.302	-792
987.383	-184
987.464	-987
987.544	-210
987.625	-924
987.705	-153
987.786	-376
987.866	-950
987.947	-317
988.027	-1272
988.108	-1126
988.188	-662
988.268	-869
988.349	-816
988.429	-1115
988.509	-259
988.589	-1369
988.670	-2177
988.750	-277
988.830	-1266
988.910	-337
988.990	-961
989.070	-1363
989.151	-1498
989.231	-1538
989.311	-573
989.391	-765
989.471	-1693
989.551	-1299
989.631	-689
989.711	-699
989.791	-1519
989.870	-1417
989.950	-170
990.030	-1506
990.110	-1365
990.190	-1444
990.269	-561
990.349	-960
990.429	-1279
990.509	-391
990.588	-1742
990.668	-795
990.747	-975
990.827	-1376
990.907	-180
990.986	-1608
991.066	-533
991.145	-1758
991.225	-506
991.304	-1497
991.383	-1203
991.463	-633
991.542	-1227
991.622	-1085
991.701	-2048
991.780	-1212
991.859	-1485
991.939	-1841
992.018	-1092
992.097	-680
992.176	-568
992.256	-657
992.335	-597
992.414	105
992.493	-847
992.572	251
992.651	2244
992.730	958
992.809	-6
992.888	-1621
992.967	-1487
993.046	-361
993.125	-726
993.203	-872
993.282	-1355
993.361	-1587
993.440	-992
993.519	-1044
993.597	-1245
993.676	-980
993.755	-799
993.834	-906
993.912	-1714
993.991	340
994.069	-612
994.148	-1334
994.226	-849
994.305	-549
994.384	-1364
994.462	-44
994.540	-2004
994.619	-1252
994.697	-390
994.776	-1032
994.854	-584
994.932	-1438
995.011	-1019
995.089	-1500
995.167	-1045
995.245	-814
995.324	-1673
995.402	-459
995.480	-1420
995.558	-882
995.636	-1535
995.714	-1282
995.792	59
995.870	-853
995.948	-1246
996.026	-670
996.104	-2861
996.182	-292
996.260	-1420
996.338	-1317
996.416	-2217
996.494	-1219
996.572	-205
996.649	-2011
996.727	-2132
996.805	-1827
996.883	-1434
996.960	-1302
997.038	-758
997.116	-1445
997.193	-1941
997.271	-1526
997.348	-1891
997.426	-833
997.504	-2706
997.581	-899
997.658	-677
997.736	-2946
997.813	-1143
997.891	-533
997.968	-1385
998.046	-359
998.123	-826
998.200	-478
998.277	-2223
998.355	-637
998.432	-1970
998.509	-1713
998.586	-550
998.663	-1657
998.741	-1404
998.818	-1226
998.895	-1690
998.972	-1575
999.049	-1421
999.126	-1833
999.203	-1349
999.280	-927
999.357	-1197
999.434	-1365
999.511	-819
999.587	433
999.664	384
999.741	113
999.818	68
999.895	-970
999.971	-969
1000.048	-1536
1000.125	533
1000.202	473
1000.278	-538
1000.355	-684
1000.431	-1820
1000.508	-1475
1000.584	-1132
1000.661	-824
1000.738	-1546
1000.814	-1008
1000.890	-835
1000.967	-493
1001.043	-303
1001.120	-883
1001.196	-935
1001.272	-989
1001.349	-1270
1001.425	-985
1001.501	-1952
1001.577	-1119
1001.654	-1035
1001.730	-1145
1001.806	-1526
1001.882	-1707
1001.958	-1023
1002.034	-1164
1002.110	-1494
1002.186	-2244
1002.262	-1779
1002.338	-1845
1002.414	-1048
1002.490	-609
1002.566	-1576
1002.642	-1470
1002.718	-476
1002.794	-169
1002.870	-823
1002.945	-809
1003.021	-1378
1003.097	-1233
1003.173	-434
1003.248	-1086
1003.324	-1541
1003.400	-518
1003.475	-1596
1003.551	-1015
1003.626	-1461
1003.702	-1937
1003.777	-1752
1003.853	-1804
1003.928	-958
1004.004	-1312
1004.079	-1191
1004.155	-1323
1004.230	-2100
1004.305	-335
1004.381	-1944
1004.456	-858
1004.531	-766
1004.607	-362
1004.682	-988
1004.757	-629
1004.832	-892
1004.907	-1323
1004.982	-505
1005.057	-887
1005.133	-1643
1005.208	-821
1005.283	-1826
1005.358	-1066
1005.433	-1196
1005.508	-740
1005.583	-604
1005.657	537
1005.732	956
1005.807	-1006
1005.882	-1949
1005.957	-455
1006.032	-1238
1006.106	-1985
1006.181	-1334
1006.256	-1319
1006.331	-2311
1006.405	-1644
1006.480	-1271
1006.554	-1636
1006.629	-1163
1006.704	-1378
1006.778	-1963
1006.853	-935
1006.927	-1320
1007.002	-1764
1007.076	-768
1007.150	-1239
1007.225	-803
1007.299	-1514
1007.373	-2131
1007.448	-1381
1007.522	-633
1007.596	-894
1007.671	-1683
1007.745	-1119
1007.819	-1124
1007.893	-1136
1007.967	-1681
1008.041	-1533
1008.115	-1203
1008.190	-1552
1008.264	-844
1008.338	-2244
1008.412	-1524
1008.486	-977
1008.560	-1567
1008.633	-1962
1008.707	-1672
1008.781	-1154
1008.855	-1518
1008.929	-2355
1009.003	-1961
1009.076	-1853
1009.150	-1930
1009.224	-1636
1009.298	-1699
1009.371	-1689
1009.445	-1061
1009.519	-1690
1009.592	-2819
1009.666	-1722
1009.739	-2066
1009.813	-1814
1009.886	-1140
1009.960	-1946
1010.033	-1227
1010.107	-1340
1010.180	-2680
1010.253	-1253
1010.327	-1742
1010.400	-1218
1010.473	-1605
1010.547	-338
1010.620	-2210
1010.693	-900
1010.766	-1834
1010.840	-612
1010.913	-1731
1010.986	-1368
1011.059	-1420
1011.132	-1170
1011.205	-939
1011.278	-1444
1011.351	-1203
1011.424	-1266
1011.497	-2015
1011.570	-1141
1011.643	-1408
1011.716	-1827
1011.789	-1983
1011.862	-417
1011.934	-449
1012.007	-2025
1012.080	-1927
1012.153	-1937
1012.225	-1075
1012.298	-1740
1012.371	-1553
1012.443	-721
1012.516	-2538
1012.588	-1093
1012.661	-1403
1012.733	-1496
1012.806	-1318
1012.879	-999
1012.951	-1832
1013.023	-1440
1013.096	-1878
1013.168	-2489
1013.241	-1639
1013.313	-1359
1013.385	-2163
1013.458	-1996
1013.530	-1455
1013.602	-2095
1013.674	-909
1013.746	-1395
1013.819	-1609
1013.891	-1224
1013.963	-1869
1014.035	-1363
1014.107	-1367
1014.179	-737
1014.251	-1987
1014.323	-1781
1014.395	-1328
1014.467	-1899
1014.539	-1687
1014.611	-1333
1014.683	-1264
1014.754	-1124
1014.826	-2346
1014.898	-1520
1014.970	-2131
1015.042	-1172
1015.113	-1365
1015.185	-1781
1015.257	-3028
1015.328	-1645
1015.400	-2275
1015.471	-1786
1015.543	-2365
1015.615	-1765
1015.686	-1226
1015.757	-1965
1015.829	-2057
1015.901	-2273
1015.972	-1882
1016.043	-2237
1016.115	-2009
1016.186	-1730
1016.257	-2234
1016.328	-1760
1016.400	-992
1016.471	-2311
1016.542	-1516
1016.613	-2353
1016.685	-1268
1016.756	-2213
1016.827	-2177
1016.898	-1785
1016.969	-1323
1017.040	-2419
1017.111	-1999
1017.182	-2753
1017.253	-1319
1017.324	-2281
1017.395	-1295
1017.466	-1920
1017.537	-530
1017.608	-691
1017.678	-1603
1017.749	-1513
1017.820	-1094
1017.891	-1962
1017.961	-1591
1018.032	-1620
1018.103	-1045
1018.173	-1974
1018.244	-2346
1018.315	-2112
1018.385	-1625
1018.456	-1870
1018.526	-1915
1018.597	-1857
1018.667	-2501
1018.738	-2073
1018.808	-1585
1018.878	-1673
1018.949	-819
1019.019	-1884
1019.089	-2050
1019.160	-1537
1019.230	-2032
1019.300	-1040
1019.371	-2466
1019.441	-440
1019.511	-1731
1019.581	-1705
1019.651	-1386
1019.721	-1538
1019.791	-2067
1019.861	-2350
1019.931	-1660
1020.001	-1441
1020.071	-1924
1020.141	-2187
1020.211	-2074
1020.281	-2101
1020.351	-2257
1020.421	-1281
1020.491	-1259
1020.560	-2014
1020.630	-1382
1020.700	-2225
1020.770	-2091
1020.839	-1323
1020.909	-1974
1020.979	-2527
1021.048	-1966
1021.118	-1824
1021.187	-2533
1021.257	-1792
1021.326	-1921
1021.396	-2445
1021.465	-1461
1021.535	-2109
1021.604	-2335
1021.674	-1940
1021.743	-1672
1021.812	-1602
1021.882	-1517
1021.951	-1412
1022.020	-1707
1022.089	-2264
1022.159	-1368
1022.228	-1221
1022.297	-2424
1022.366	-1918
1022.435	-2404
1022.504	-2187
1022.573	-2658
1022.642	-1323
1022.711	-2717
1022.781	-2609
1022.849	-2592
1022.918	-2071
1022.987	-1788
1023.056	-1897
1023.125	-1651
1023.194	-1446
1023.263	-1890
1023.331	-1180
1023.400	-2146
1023.469	-1735
1023.538	-1328
1023.606	-1770
1023.675	-2241
1023.744	-1257
1023.812	-1907
1023.881	-2151
1023.949	-1930
1024.018	-2520
1024.086	-1927
1024.155	-1662
1024.223	-2447
1024.292	-1572
1024.360	-1674
1024.429	-1973
1024.497	-2604
1024.565	-1910
1024.634	-2155
1024.702	-1405
1024.770	-1936
1024.838	-2706
1024.907	-2189
1024.975	-1578
1025.043	-1125
1025.111	-1785
1025.179	-1925
1025.247	-2078
1025.315	-1982
1025.383	-2091
1025.451	-2264
1025.519	-2064
1025.587	-1749
1025.655	-2623
1025.723	-2036
1025.791	-1812
1025.859	-1737
1025.927	-2245
1025.995	-2687
1026.062	-1937
1026.130	-1869
1026.198	-3108
1026.266	-2477
1026.333	-1374
1026.401	-863
1026.469	-1825
1026.536	-1160
1026.604	-2481
1026.671	-2216
1026.739	-1116
1026.806	-2174
1026.874	-2523
1026.941	-1379
1027.009	-1911
1027.076	-2579
1027.144	-1518
1027.211	-2271
1027.278	-1666
1027.345	-2307
1027.413	-1590
1027.480	-2432
1027.547	-1959
1027.614	-2135
1027.682	-1332
1027.749	-2419
1027.816	-2122
1027.883	-1488
1027.950	-1967
1028.017	-2725
1028.084	-2135
1028.151	-2556
1028.218	-2059
1028.285	-2218
1028.352	-2022
1028.419	-1658
1028.486	-2442
1028.553	-1815
1028.619	-1780
1028.686	-2071
1028.753	-2386
1028.820	-1928
1028.886	-2318
1028.953	-1509
1029.020	-1941
1029.086	-2160
1029.153	-2051
1029.220	-1597
1029.286	-1904
1029.353	-1819
1029.419	-1757
1029.486	-2748
1029.552	-2170
1029.619	-2170
1029.685	-2431
1029.751	-2442
1029.818	-1513
1029.884	-1814
1029.951	-1135
1030.017	-2584
1030.083	-1495
1030.149	-1962
1030.216	-1834
1030.282	-1827
1030.348	-1748
1030.414	-2670
1030.480	-2230
1030.546	-1933
1030.612	-1535
1030.678	-2709
1030.744	-2261
1030.810	-2567
1030.876	-1805
1030.942	-2741
1031.008	-1666
1031.074	-1994
1031.140	-1674
1031.206	-2289
1031.272	-2782
1031.337	-2100
1031.403	-1794
1031.469	-1048
1031.534	-2550
1031.600	-1766
1031.666	-2451
1031.731	-2893
1031.797	-1307
1031.863	-1819
1031.928	-2518
1031.994	-2346
1032.059	-2462
1032.125	-2180
1032.190	-2297
1032.256	-2295
1032.321	-2505
1032.386	-2359
1032.452	-1010
1032.517	-1998
1032.582	-1480
1032.647	-1980
1032.713	-1401
1032.778	-1967
1032.843	-2284
1032.908	-1899
1032.974	-1817
1033.039	-2421
1033.104	-1146
1033.169	-2472
1033.234	-1688
1033.299	-1357
1033.364	-2300
1033.429	-2350
1033.494	-2124
1033.559	-2373
1033.624	-2206
1033.688	-2182
1033.753	-2344
1033.818	-2271
1033.883	-1706
1033.948	-1708
1034.013	-2538
1034.077	-2211
1034.142	-2140
1034.207	-1738
1034.271	-1671
1034.336	-2033
1034.400	-1243
1034.465	-1922
1034.530	-1334
1034.594	-2224
1034.658	-1456
1034.723	-2048
1034.787	-1601
1034.852	-2145
1034.916	-2232
1034.981	-2230
1035.045	-1661
1035.109	-2205
1035.173	-1314
1035.238	-1760
1035.302	-1579
1035.366	-2059
1035.430	-1936
1035.495	-2266
1035.559	-1901
1035.623	-1947
1035.687	-2953
1035.751	-2438
1035.815	-1974
1035.879	-2144
1035.943	-2090
1036.007	-2188
1036.071	-3243
1036.135	-2525
1036.198	-2024
1036.262	-2036
1036.326	-1467
1036.390	-1232
1036.454	-1775
1036.517	-1454
1036.581	-2155
1036.645	-1390
1036.709	-1895
1036.772	-1614
1036.836	-2559
1036.900	-1932
1036.963	-2195
1037.026	-2978
1037.090	-2546
1037.154	-1894
1037.217	-1836
1037.280	-2098
1037.344	-2953
1037.407	-2877
1037.471	-2482
1037.534	-2640
1037.597	-2547
1037.661	-1976
1037.724	-2043
1037.787	-2567
1037.850	-1808
1037.913	-2084
1037.977	-1518
1038.040	-1166
1038.103	-2198
1038.166	-2740
1038.229	-1982
1038.292	-2158
1038.355	-1444
1038.418	-2378
1038.481	-1227
1038.544	-1944
1038.607	-511
1038.670	-2753
1038.732	-2324
1038.795	-2534
1038.858	-2683
1038.921	-1854
1038.984	-1745
1039.046	-2143
1039.109	-2310
1039.172	-1305
1039.234	-2285
1039.297	-1876
1039.360	-2636
1039.422	-2493
1039.485	-1339
1039.547	-1909
1039.610	-569
1039.672	-1577
1039.734	-2063
1039.797	-2173
1039.859	-1952
1039.922	-2517
1039.984	-1910
1040.046	-2935
1040.109	-1627
1040.171	-2678
1040.233	-1971
1040.295	-2577
1040.358	-2072
1040.420	-1871
1040.482	-2371
1040.544	-2247
1040.606	-2229
1040.668	-2489
1040.730	-2110
1040.792	-2487
1040.854	-1930
1040.916	-2724
1040.978	-1373
1041.040	-2581
1041.102	-2385
1041.164	-2243
1041.225	-2466
1041.287	-1933
1041.349	-2236
1041.411	-2592
1041.472	-2063
1041.534	-1655
1041.596	-2417
1041.657	-2189
1041.719	-2341
1041.781	-2393
1041.842	-2019
1041.904	-1506
1041.965	-2365
1042.027	-1375
1042.088	-1492
1042.150	-1191
1042.211	-2632
1042.272	-2601
1042.334	-2485
1042.395	-2268
1042.456	-1576
1042.518	-2177
1042.579	-2466
1042.640	-2735
1042.701	-2136
1042.763	-2995
1042.824	-2175
1042.885	-2372
1042.946	-1844
1043.007	-2459
1043.068	-2101
1043.129	-1685
1043.190	-1817
1043.251	-1696
1043.312	-2509
1043.373	-1535
1043.434	-2283
1043.495	-2457
1043.556	-2174
1043.616	-2908
1043.677	-2597
1043.738	-2455
1043.799	-2258
1043.859	-1971
1043.920	-2503
1043.981	-2780
1044.041	-2792
1044.102	-2112
1044.162	-1963
1044.223	-2683
1044.284	-2602
1044.344	-1813
1044.405	-1882
1044.465	-1622
1044.525	-1209
1044.586	-1606
1044.646	-1637
1044.707	-2333
1044.767	-1086
1044.827	-1895
1044.887	-2240
1044.948	-1702
1045.008	-1361
1045.068	-2034
1045.128	-1769
1045.188	-1677
1045.249	-1407
1045.309	-2563
1045.369	-1922
1045.429	-1722
1045.489	-2662
1045.549	-1858
1045.609	-2637
1045.669	-2201
1045.729	-2074
1045.789	-2249
1045.848	-1851
1045.908	-2247
1045.968	-1944
1046.028	-1981
1046.088	-2109
1046.147	-1211
1046.207	-1766
1046.267	-1991
1046.326	-1153
1046.386	-1045
1046.446	-1334
1046.505	-1021
1046.565	-664
1046.624	-1571
1046.684	-1350
1046.743	-1340
1046.803	-340
1046.862	-549
1046.922	0
