'Start Wavelength	183.907
'End Wavelength	1046.922
'Gate Delay	5.000
'Gate Width (ms)	1.050
'Laser Output Level	0.000
'X Position	0.000
'Y Position	0.000
'Z Position	0.000
'Grid Point Number	1.000
'Shot Number	100.000
183.907	122.000
183.977	-601.000
184.047	-309
184.116	671
184.186	-263
184.256	143
184.325	-289
184.395	-101
184.465	44
184.534	-638
184.604	162
184.674	-86
184.743	-377
184.813	-379
184.883	412
184.952	-551
185.022	559
185.092	629
185.161	319
185.231	390
185.301	-571
185.370	53
185.440	-310
185.509	-100
185.579	-666
185.649	19
185.718	275
185.788	-40
185.857	241
185.927	-128
185.996	242
186.066	-303
186.136	-154
186.205	498
186.275	-608
186.344	-81
186.414	243
186.483	-1500
186.553	1175
186.622	331
186.692	-117
186.761	341
186.831	-159
186.900	-836
186.970	607
187.039	515
187.109	436
187.178	263
187.248	70
187.317	240
187.387	85
187.456	-33
187.526	533
187.595	78
187.664	-351
187.734	-54
187.803	418
187.873	-197
187.942	642
188.012	56
188.081	-131
188.150	-208
188.220	-86
188.289	684
188.358	-401
188.428	377
188.497	-183
188.567	232
188.636	-187
188.705	-68
188.775	-276
188.844	-554
188.913	479
188.983	-117
189.052	-102
189.121	-325
189.191	345
189.260	161
189.329	213
189.399	368
189.468	-593
189.537	-202
189.606	125
189.676	106
189.745	659
189.814	-167
189.883	452
189.953	-479
190.022	372
190.091	1191
190.161	1977
190.230	397
190.299	-15
190.368	91
190.437	-42
190.507	143
190.576	109
190.645	14
190.714	411
190.783	-335
190.853	1815
190.922	935
190.991	-325
191.060	-243
191.129	-780
191.198	-391
191.268	42
191.337	-208
191.406	645
191.475	68
191.544	0
191.613	339
191.682	1
191.752	201
191.821	39
191.890	-328
191.959	-260
192.028	160
192.097	293
192.166	-170
192.235	-757
192.304	-166
192.373	-62
192.442	1102
192.511	-123
192.580	-630
192.650	18
192.719	-124
192.788	248
192.857	-68
192.926	-93
192.995	608
193.064	163
193.133	798
193.202	644
193.271	471
193.340	649
193.409	1571
193.478	70
193.547	1231
193.615	714
193.684	960
193.753	-258
193.822	391
193.891	-29
193.960	813
194.029	274
194.098	276
194.167	-537
194.236	277
194.305	-271
194.374	536
194.443	-30
194.512	-204
194.580	710
194.649	583
194.718	355
194.787	426
194.856	-226
194.925	427
194.994	446
195.062	496
195.131	620
195.200	440
195.269	254
195.338	-75
195.407	522
195.475	-17
195.544	600
195.613	301
195.682	45
195.751	769
195.819	446
195.888	869
195.957	1054
196.026	771
196.094	551
196.163	625
196.232	630
196.301	-76
196.369	-72
196.438	810
196.507	-19
196.576	42
196.644	-148
196.713	614
196.782	219
196.850	405
196.919	247
196.988	635
197.056	-850
197.125	-15
197.194	455
197.262	277
197.331	-212
197.400	-480
197.468	134
197.537	-15
197.606	-229
197.674	573
197.743	1536
197.812	675
197.880	1602
197.949	668
198.017	1786
198.086	290
198.155	221
198.223	439
198.292	1812
198.360	341
198.429	644
198.497	-328
198.566	860
198.635	2576
198.703	377
198.772	1165
198.840	2240
198.909	2125
198.977	764
199.046	877
199.114	176
199.183	739
199.251	1204
199.320	54
199.388	322
199.457	30
199.525	476
199.594	122
199.662	844
199.731	367
199.799	279
199.867	658
199.936	50
200.004	516
200.073	492
200.141	-302
200.210	-548
200.278	-771
200.346	203
200.415	654
200.483	740
200.552	289
200.620	200
200.688	275
200.757	-78
200.825	402
200.893	370
200.962	548
201.030	177
201.098	-394
201.167	93
201.235	487
201.303	430
201.372	18
201.440	504
201.508	577
201.577	301
201.645	240
201.713	-469
201.781	81
201.850	-136
201.918	-4
201.986	316
202.055	362
202.123	9
202.191	53
202.259	-374
202.327	132
202.396	176
202.464	144
202.532	526
202.600	1306
202.669	198
202.737	1034
202.805	-179
202.873	231
202.941	772
203.009	-41
203.078	604
203.146	-10
203.214	499
203.282	398
203.350	21
203.418	181
203.487	766
203.555	-150
203.623	526
203.691	293
203.759	-163
203.827	149
203.895	302
203.963	34
204.031	81
204.099	-380
204.168	271
204.236	782
204.304	500
204.372	501
204.440	459
204.508	560
204.576	126
204.644	778
204.712	-481
204.780	-382
204.848	840
204.916	1228
204.984	1
205.052	823
205.120	-666
205.188	205
205.256	30
205.324	73
205.392	34
205.460	787
205.528	627
205.596	12
205.664	290
205.732	841
205.799	1935
205.867	3700
205.935	-312
206.003	1136
206.071	84
206.139	873
206.207	-332
206.275	424
206.343	185
206.411	-457
206.478	94
206.546	971
206.614	1061
206.682	656
206.750	164
206.818	459
206.885	-106
206.953	-741
207.021	1265
207.089	50
207.157	108
207.225	860
207.292	702
207.360	718
207.428	944
207.496	589
207.563	983
207.631	205
207.699	867
207.767	902
207.834	453
207.902	631
207.970	-391
208.038	412
208.105	315
208.173	298
208.241	1416
208.309	478
208.376	567
208.444	1961
208.512	1241
208.579	-232
208.647	176
208.715	1385
208.782	515
208.850	204
208.918	75
208.985	497
209.053	116
209.120	375
209.188	-167
209.256	77
209.323	-157
209.391	616
209.459	1700
209.526	615
209.594	375
209.661	-209
209.729	935
209.796	719
209.864	700
209.932	-1025
209.999	2044
210.067	1199
210.134	646
210.202	790
210.269	1234
210.337	1134
210.404	19
210.472	588
210.539	1411
210.607	850
210.674	1063
210.742	43
210.809	469
210.877	51
210.944	976
211.012	-556
211.079	1200
211.146	501
211.214	619
211.281	736
211.349	1256
211.416	886
211.484	556
211.551	545
211.618	344
211.686	1098
211.753	716
211.821	204
211.888	222
211.955	282
212.023	390
212.090	1055
212.157	210
212.225	1216
212.292	1906
212.359	4412
212.427	12720
212.494	4131
212.561	1646
212.629	1055
212.696	1192
212.763	1086
212.831	-64
212.898	1057
212.965	429
213.032	181
213.100	1041
213.167	600
213.234	1028
213.301	1450
213.369	643
213.436	560
213.503	399
213.570	1267
213.638	771
213.705	156
213.772	152
213.839	696
213.906	1589
213.973	187
214.041	741
214.108	519
214.175	368
214.242	452
214.309	500
214.376	341
214.444	714
214.511	1483
214.578	1039
214.645	1495
214.712	228
214.779	479
214.846	880
214.913	2016
214.980	1226
215.048	712
215.115	1864
215.182	1221
215.249	970
215.316	617
215.383	530
215.450	733
215.517	496
215.584	500
215.651	708
215.718	725
215.785	630
215.852	977
215.919	821
215.986	863
216.053	361
216.120	275
216.187	1548
216.254	950
216.321	216
216.388	1048
216.455	1240
216.522	1012
216.589	993
216.656	2459
216.722	3021
216.789	1879
216.856	2320
216.923	1729
216.990	942
217.057	1494
217.124	1654
217.191	887
217.258	1857
217.324	2921
217.391	3691
217.458	2171
217.525	1239
217.592	1178
217.659	372
217.725	1535
217.792	1934
217.859	1740
217.926	499
217.993	532
218.059	1558
218.126	1143
218.193	558
218.260	732
218.327	608
218.393	970
218.460	200
218.527	540
218.594	1360
218.660	1801
218.727	2996
218.794	429
218.860	707
218.927	428
218.994	-333
219.061	365
219.127	442
219.194	1714
219.261	299
219.327	36
219.394	397
219.461	40
219.527	1
219.594	1694
219.661	545
219.727	110
219.794	664
219.860	178
219.927	671
219.994	1034
220.060	1477
220.127	1275
220.193	853
220.260	1065
220.326	2835
220.393	3112
220.460	4541
220.526	3050
220.593	1035
220.659	2713
220.726	2075
220.792	6100
220.859	4292
220.925	5531
220.992	7918
221.058	8529
221.125	8494
221.191	6493
221.258	1991
221.324	1533
221.391	792
221.457	826
221.524	2006
221.590	1936
221.657	8156
221.723	3976
221.789	4205
221.856	3805
221.922	1273
221.989	1173
222.055	1418
222.121	-76
222.188	1872
222.254	981
222.321	536
222.387	-88
222.453	825
222.520	197
222.586	-348
222.652	573
222.719	-215
222.785	675
222.851	178
222.918	443
222.984	940
223.050	604
223.116	-351
223.183	352
223.249	-202
223.315	-317
223.382	924
223.448	216
223.514	240
223.580	819
223.647	-698
223.713	541
223.779	349
223.845	280
223.911	589
223.978	-569
224.044	331
224.110	-84
224.176	879
224.242	215
224.309	-184
224.375	1058
224.441	474
224.507	-384
224.573	-373
224.639	1276
224.705	-349
224.772	158
224.838	225
224.904	58
224.970	800
225.036	835
225.102	237
225.168	411
225.234	633
225.300	-124
225.366	157
225.432	662
225.499	1016
225.565	773
225.631	-143
225.697	1768
225.763	1667
225.829	1163
225.895	1360
225.961	2554
226.027	1966
226.093	1014
226.159	2298
226.225	3671
226.291	7092
226.357	12655
226.423	5443
226.489	3470
226.554	2376
226.620	2029
226.686	2025
226.752	3051
226.818	5821
226.884	16513
226.950	14189
227.016	4606
227.082	2764
227.148	1686
227.214	2301
227.279	1380
227.345	385
227.411	1065
227.477	1016
227.543	1390
227.609	1503
227.674	1467
227.740	571
227.806	335
227.872	1441
227.938	1076
228.003	1852
228.069	502
228.135	402
228.201	871
228.267	-229
228.332	1024
228.398	271
228.464	1125
228.530	330
228.595	1239
228.661	-204
228.727	982
228.792	2164
228.858	552
228.924	-1135
228.990	3095
229.055	-119
229.121	1623
229.187	780
229.252	482
229.318	579
229.384	455
229.449	1056
229.515	-419
229.581	-465
229.646	1369
229.712	738
229.777	2396
229.843	2169
229.909	1628
229.974	1585
230.040	1130
230.105	1150
230.171	1528
230.236	2498
230.302	3710
230.368	2304
230.433	669
230.499	1528
230.564	1986
230.630	172
230.695	1211
230.761	1001
230.826	-47
230.892	2135
230.957	856
231.023	637
231.088	453
231.154	344
231.219	921
231.284	1009
231.350	1494
231.415	620
231.481	1283
231.546	417
231.612	161
231.677	283
231.742	202
231.808	1339
231.873	-363
231.939	-1067
232.004	2800
232.069	2464
232.135	-35
232.200	394
232.265	725
232.331	467
232.396	317
232.461	63
232.527	54
232.592	639
232.657	586
232.723	951
232.788	1032
232.853	890
232.918	-2
232.984	96
233.049	-83
233.114	531
233.179	1339
233.245	3419
233.310	3032
233.375	762
233.440	315
233.506	490
233.571	-560
233.636	1245
233.701	755
233.766	1721
233.832	3143
233.897	615
233.962	91
234.027	1675
234.092	873
234.157	652
234.222	323
234.288	1939
234.353	6783
234.418	6141
234.483	3883
234.548	1460
234.613	1027
234.678	2191
234.743	1515
234.808	7434
234.873	4388
234.938	2491
235.004	1408
235.069	1237
235.134	831
235.199	1232
235.264	1178
235.329	383
235.394	1288
235.459	1721
235.524	268
235.589	1072
235.654	942
235.719	-151
235.784	1179
235.849	1531
235.913	3776
235.978	3956
236.043	4158
236.108	1291
236.173	549
236.238	1360
236.303	-101
236.368	293
236.433	2788
236.498	4322
236.563	3246
236.627	5025
236.692	21397
236.757	14989
236.822	5306
236.887	4176
236.952	3505
237.017	2315
237.081	3783
237.146	3478
237.211	8381
237.276	21164
237.341	35883
237.405	15296
237.470	5317
237.535	4704
237.600	2355
237.664	2039
237.729	812
237.794	1819
237.859	5536
237.923	3772
237.988	2425
238.053	2792
238.118	3195
238.182	9680
238.247	9819
238.312	3560
238.376	2760
238.441	382
238.506	2475
238.570	-176
238.635	1426
238.700	368
238.764	799
238.829	3474
238.893	4527
238.958	3154
239.023	1755
239.087	1281
239.152	948
239.216	461
239.281	985
239.346	487
239.410	1154
239.475	977
239.539	10217
239.604	7286
239.668	2413
239.733	24
239.797	1522
239.862	1504
239.926	6629
239.991	3167
240.055	292
240.120	836
240.184	711
240.249	309
240.313	755
240.378	-198
240.442	5061
240.507	9695
240.571	2876
240.635	3997
240.700	4806
240.764	1518
240.829	973
240.893	-591
240.957	1782
241.022	4915
241.086	9620
241.151	3006
241.215	602
241.279	3768
241.344	4011
241.408	2182
241.472	274
241.537	1994
241.601	1050
241.665	-278
241.730	155
241.794	2094
241.858	-110
241.922	987
241.987	1056
242.051	947
242.115	-323
242.179	807
242.244	-536
242.308	1662
242.372	840
242.436	1105
242.501	975
242.565	31
242.629	-79
242.693	1929
242.757	-497
242.822	801
242.886	1896
242.950	1830
243.014	466
243.078	1285
243.142	1531
243.206	631
243.271	1710
243.335	1949
243.399	3100
243.463	10754
243.527	33936
243.591	9204
243.655	3415
243.719	892
243.783	2669
243.847	3612
243.911	5039
243.975	4932
244.040	1778
244.104	2583
244.168	1486
244.232	1907
244.296	2969
244.360	3652
244.424	1299
244.488	1828
244.552	2387
244.615	-2
244.679	975
244.743	1573
244.807	189
244.871	1881
244.935	1211
244.999	501
245.063	143
245.127	1939
245.191	3547
245.255	2920
245.319	1819
245.383	104
245.446	2868
245.510	393
245.574	954
245.638	1468
245.702	612
245.766	3971
245.829	2990
245.893	1146
245.957	785
246.021	2248
246.085	749
246.149	2471
246.212	5813
246.276	9685
246.340	3636
246.404	1849
246.467	2294
246.531	2415
246.595	3370
246.659	1852
246.722	838
246.786	2702
246.850	2706
246.913	3399
246.977	826
247.041	1867
247.104	2075
247.168	1912
247.232	5686
247.295	13881
247.359	6016
247.423	1907
247.486	4125
247.550	3379
247.614	541
247.677	3041
247.741	2085
247.804	2173
247.868	2817
247.932	4052
247.995	12671
248.059	3599
248.122	1357
248.186	3775
248.249	4870
248.313	21788
248.376	21028
248.440	12832
248.503	4090
248.567	4245
248.630	4363
248.694	6929
248.757	9324
248.821	23658
248.884	12352
248.948	10474
249.011	17484
249.075	27189
249.138	22728
249.202	7545
249.265	3714
249.328	7678
249.392	4762
249.455	4105
249.519	2375
249.582	2993
249.645	5367
249.709	4226
249.772	3073
249.835	2093
249.899	3634
249.962	2710
250.025	2351
250.089	7628
250.152	11553
250.215	4426
250.279	2961
250.342	4109
250.405	3214
250.468	2046
250.532	4324
250.595	8036
250.658	31243
250.721	52971
250.785	15859
250.848	8384
250.911	3865
250.974	4432
251.038	6472
251.101	13818
251.164	7146
251.227	7419
251.290	6418
251.354	10008
251.417	45654
251.480	42347
251.543	26117
251.606	85752
251.669	58989
251.732	18841
251.795	19772
251.859	20410
251.922	51529
251.985	27951
252.048	9777
252.111	7930
252.174	5851
252.237	11508
252.300	27968
252.363	28610
252.426	68408
252.489	24244
252.552	12662
252.615	8310
252.678	9592
252.741	21149
252.804	28141
252.867	68990
252.930	35801
252.993	18033
253.056	10058
253.119	6553
253.182	5166
253.245	10342
253.308	7134
253.371	6732
253.434	5981
253.497	6382
253.559	12476
253.622	7640
253.685	8130
253.748	8504
253.811	4108
253.874	6079
253.937	4778
254.000	3451
254.062	8090
254.125	13074
254.188	10733
254.251	8225
254.314	4040
254.376	7119
254.439	8154
254.502	6813
254.565	7939
254.628	13875
254.690	6767
254.753	3361
254.816	3151
254.878	3927
254.941	8784
255.004	9350
255.067	3416
255.129	2345
255.192	1616
255.255	988
255.317	1472
255.380	2280
255.443	207
255.505	-273
255.568	1150
255.631	1534
255.693	1478
255.756	39
255.819	1719
255.881	402
255.944	1356
256.006	886
256.069	330
256.132	549
256.194	2064
256.257	7503
256.319	5975
256.382	4192
256.444	2711
256.507	1648
256.569	944
256.632	1831
256.694	3767
256.757	10527
256.819	29517
256.882	9990
256.944	4412
257.007	3532
257.069	2873
257.132	2030
257.194	2187
257.257	1607
257.319	1585
257.381	2122
257.444	7882
257.506	37942
257.569	38178
257.631	15882
257.693	8904
257.756	3909
257.818	2946
257.880	1524
257.943	2406
258.005	689
258.067	1317
258.130	2116
258.192	2548
258.254	4832
258.317	2355
258.379	1952
258.441	5971
258.503	6137
258.566	9195
258.628	12099
258.690	1941
258.753	2296
258.815	4281
258.877	1928
258.939	1504
259.001	1907
259.064	842
259.126	1140
259.188	2636
259.250	1459
259.312	2103
259.375	6412
259.437	3577
259.499	1417
259.561	1117
259.623	1448
259.685	1501
259.747	1387
259.809	8781
259.872	17127
259.934	25829
259.996	21705
260.058	5216
260.120	1940
260.182	1614
260.244	1346
260.306	464
260.368	2607
260.430	882
260.492	3793
260.554	7465
260.616	5252
260.678	11189
260.740	16845
260.802	3326
260.864	3289
260.926	981
260.988	2372
261.050	1126
261.112	5869
261.174	18541
261.236	14071
261.298	4692
261.359	7159
261.421	10889
261.483	2684
261.545	2211
261.607	191
261.669	1482
261.731	3812
261.793	11908
261.854	3000
261.916	2748
261.978	1073
262.040	2184
262.102	2059
262.164	3196
262.225	2659
262.287	1610
262.349	4243
262.411	3555
262.472	1249
262.534	4187
262.596	10996
262.658	3485
262.719	-57
262.781	2994
262.843	9735
262.904	3874
262.966	2425
263.028	3404
263.090	20414
263.151	54373
263.213	14951
263.275	5934
263.336	2788
263.398	2504
263.459	1400
263.521	1423
263.583	4896
263.644	2257
263.706	1368
263.767	-312
263.829	732
263.891	-48
263.952	968
264.014	310
264.075	1763
264.137	5004
264.198	2513
264.260	255
264.321	1132
264.383	3203
264.444	9587
264.506	2384
264.567	1140
264.629	2930
264.690	6002
264.752	2551
264.813	577
264.875	417
264.936	1705
264.998	597
265.059	322
265.120	898
265.182	1884
265.243	16314
265.305	13885
265.366	1682
265.427	1992
265.489	866
265.550	-546
265.611	878
265.673	217
265.734	728
265.795	645
265.857	-194
265.918	886
265.979	3875
266.040	26019
266.102	19441
266.163	5052
266.224	2587
266.286	957
266.347	-34
266.408	342
266.469	1559
266.530	654
266.592	320
266.653	2224
266.714	4520
266.775	1145
266.836	313
266.898	-565
266.959	1176
267.020	986
267.081	1194
267.142	-254
267.203	-797
267.264	-959
267.326	62
267.387	-244
267.448	-783
267.509	364
267.570	474
267.631	21
267.692	-1322
267.753	64
267.814	-200
267.875	2845
267.936	5356
267.997	1484
268.058	1650
268.119	596
268.180	503
268.241	30
268.302	-361
268.363	272
268.424	-107
268.485	1853
268.546	-253
268.607	-310
268.668	-78
268.729	-322
268.790	-192
268.851	641
268.912	3018
268.972	4287
269.033	700
269.094	1035
269.155	469
269.216	326
269.277	606
269.338	1027
269.398	513
269.459	73
269.520	1877
269.581	1449
269.642	2865
269.702	1110
269.763	1631
269.824	-403
269.885	741
269.945	2268
270.006	779
270.067	-330
270.128	-704
270.188	-514
270.249	804
270.310	-314
270.370	877
270.431	-68
270.492	-4
270.553	437
270.613	2891
270.674	6233
270.734	1639
270.795	90
270.856	1620
270.916	1039
270.977	-374
271.038	1122
271.098	708
271.159	2043
271.219	1687
271.280	926
271.340	-252
271.401	216
271.462	4802
271.522	2034
271.583	314
271.643	1343
271.704	853
271.764	1207
271.825	3510
271.885	18417
271.946	26439
272.006	6668
272.066	11100
272.127	21478
272.187	4525
272.248	2365
272.308	2878
272.369	14249
272.429	6319
272.489	4488
272.550	4021
272.610	4339
272.671	2341
272.731	3886
272.791	5924
272.852	2279
272.912	1746
272.972	1024
273.033	725
273.093	2668
273.153	2845
273.214	999
273.274	1408
273.334	9225
273.394	19603
273.455	5586
273.515	5687
273.575	14546
273.635	5720
273.696	8577
273.756	19836
273.816	6467
273.876	3532
273.936	9605
273.997	18897
274.057	3880
274.117	2785
274.177	3585
274.237	23440
274.297	20809
274.358	13650
274.418	15571
274.478	10413
274.538	3723
274.598	2626
274.658	15347
274.718	20070
274.778	7023
274.838	2550
274.898	7882
274.958	28034
275.018	22619
275.078	12920
275.138	4110
275.198	1735
275.258	958
275.318	2652
275.378	4415
275.438	4402
275.498	2973
275.558	11446
275.618	25251
275.678	13123
275.738	6466
275.798	4954
275.858	2008
275.918	805
275.978	1369
276.038	1753
276.098	260
276.157	3093
276.217	10519
276.277	4213
276.337	2096
276.397	1026
276.457	1633
276.517	1214
276.576	477
276.636	952
276.696	1389
276.756	5664
276.815	4908
276.875	1259
276.935	1304
276.995	666
277.055	427
277.114	-189
277.174	2746
277.234	8589
277.293	2546
277.353	1065
277.413	548
277.472	1056
277.532	1161
277.592	445
277.651	5306
277.711	9669
277.771	2779
277.830	13338
277.890	10226
277.950	7641
278.009	26836
278.069	8369
278.128	6815
278.188	10410
278.248	3769
278.307	10050
278.367	6209
278.426	2299
278.486	1189
278.545	48
278.605	650
278.664	25
278.724	674
278.783	6528
278.843	21029
278.902	4949
278.962	1781
279.021	1802
279.081	3099
279.140	2686
279.199	1866
279.259	2012
279.318	2283
279.378	3427
279.437	6595
279.496	28138
279.556	86035
279.615	65839
279.675	14266
279.734	8374
279.793	12758
279.853	22883
279.912	7650
279.971	4596
280.031	3007
280.090	8546
280.149	16105
280.208	10767
280.268	59478
280.327	60781
280.386	11297
280.445	8087
280.505	8011
280.564	3231
280.623	3154
280.682	4929
280.742	8302
280.801	1861
280.860	1541
280.919	780
280.978	587
281.037	1119
281.097	952
281.156	911
281.215	713
281.274	996
281.333	11555
281.392	8468
281.451	1204
281.510	380
281.569	603
281.628	454
281.688	659
281.747	859
281.806	611
281.865	-780
281.924	-128
281.983	334
282.042	-1100
282.101	-265
282.160	87
282.219	-400
282.278	1035
282.337	4882
282.396	2929
282.454	414
282.513	567
282.572	8554
282.631	3667
282.690	831
282.749	-683
282.808	1325
282.867	638
282.926	834
282.985	464
283.043	-404
283.102	112
283.161	735
283.220	4540
283.279	11215
283.338	3375
283.396	461
283.455	1134
283.514	892
283.573	2217
283.631	1189
283.690	806
283.749	77
283.808	2172
283.866	3005
283.925	496
283.984	432
284.043	1052
284.101	1666
284.160	632
284.219	2627
284.277	806
284.336	2070
284.395	11613
284.453	10483
284.512	2533
284.570	3689
284.629	2131
284.688	1515
284.746	2160
284.805	1551
284.863	3319
284.922	3135
284.981	4921
285.039	6874
285.098	12588
285.156	34741
285.215	121426
285.273	112582
285.332	38820
285.390	18934
285.449	10683
285.507	6379
285.566	4651
285.624	3296
285.683	2517
285.741	1723
285.799	1718
285.858	1748
285.916	1237
285.975	578
286.033	416
286.091	308
286.150	-383
286.208	591
286.267	721
286.325	377
286.383	2208
286.442	1820
286.500	-323
286.558	518
286.616	-214
286.675	664
286.733	442
286.791	703
286.850	350
286.908	1827
286.966	3767
287.024	780
287.083	147
287.141	-285
287.199	487
287.257	1848
287.315	789
287.374	653
287.432	4488
287.490	2585
287.548	1312
287.606	356
287.664	592
287.723	1469
287.781	3309
287.839	2260
287.897	2153
287.955	2739
288.013	5317
288.071	13115
288.129	59617
288.187	183589
288.245	75021
288.303	20636
288.361	11211
288.419	7858
288.477	4716
288.535	2851
288.593	2201
288.651	1858
288.709	1441
288.767	1696
288.825	464
288.883	716
288.941	498
288.999	-17
289.057	430
289.115	508
289.173	-155
289.231	610
289.289	-34
289.346	-454
289.404	455
289.462	1470
289.520	1383
289.578	157
289.636	21
289.694	-1047
289.751	-369
289.809	-374
289.867	176
289.925	668
289.983	87
290.040	9
290.098	-811
290.156	583
290.214	39
290.271	-387
290.329	-575
290.387	-926
290.444	-111
290.502	-314
290.560	-255
290.617	-79
290.675	-380
290.733	-844
290.790	1008
290.848	-734
290.906	-412
290.963	-236
291.021	51
291.078	133
291.136	-168
291.194	4171
291.251	10728
291.309	2415
291.366	296
291.424	-12
291.481	-127
291.539	-490
291.596	351
291.654	-691
291.711	-273
291.769	-233
291.826	1032
291.884	460
291.941	-991
291.999	433
292.056	396
292.114	208
292.171	-997
292.228	332
292.286	-260
292.343	1611
292.401	1295
292.458	1294
292.515	1226
292.573	489
292.630	1120
292.687	870
292.745	115
292.802	454
292.859	5632
292.917	12050
292.974	5682
293.031	1106
293.089	206
293.146	873
293.203	453
293.260	-413
293.318	1011
293.375	1531
293.432	-77
293.489	306
293.546	413
293.604	1120
293.661	6596
293.718	24216
293.775	10382
293.832	3134
293.889	1327
293.947	1854
294.004	635
294.061	1648
294.118	3795
294.175	10093
294.232	12177
294.289	4286
294.346	1161
294.403	885
294.460	1980
294.517	-35
294.574	409
294.631	936
294.688	951
294.745	5643
294.802	26191
294.859	24559
294.916	8765
294.973	4223
295.030	3073
295.087	2276
295.144	1542
295.201	218
295.258	1178
295.315	1363
295.372	8658
295.429	20224
295.486	7742
295.542	3509
295.599	9137
295.656	16148
295.713	10805
295.770	16764
295.827	5825
295.883	2316
295.940	835
295.997	4032
296.054	2234
296.111	1166
296.167	1005
296.224	736
296.281	315
296.338	-155
296.394	-120
296.451	1595
296.508	7007
296.564	13663
296.621	9231
296.678	20992
296.734	31354
296.791	10305
296.848	3950
296.904	3802
296.961	9645
297.018	19979
297.074	15584
297.131	5277
297.187	3562
297.244	4601
297.301	22665
297.357	41915
297.414	14670
297.470	4710
297.527	2482
297.583	1868
297.640	1355
297.696	544
297.753	757
297.809	947
297.866	-87
297.922	441
297.979	290
298.035	1272
298.092	2389
298.148	10394
298.204	10279
298.261	3865
298.317	8413
298.374	28020
298.430	15316
298.486	6641
298.543	4403
298.599	3555
298.656	3408
298.712	6873
298.768	19612
298.824	14174
298.881	3604
298.937	1984
298.993	1446
299.050	1342
299.106	1872
299.162	432
299.218	1094
299.275	1215
299.331	1027
299.387	3982
299.443	22774
299.500	21836
299.556	6776
299.612	2973
299.668	1762
299.724	1676
299.780	884
299.837	861
299.893	2610
299.949	15590
300.005	17652
300.061	16340
300.117	29962
300.173	14490
300.229	5703
300.285	5838
300.341	6875
300.397	2486
300.453	1545
300.510	155
300.566	930
300.622	744
300.678	2510
300.734	9439
300.790	15499
300.845	22745
300.901	11221
300.957	13348
301.013	11200
301.069	3805
301.125	2613
301.181	2866
301.237	1462
301.293	574
301.349	1509
301.405	780
301.461	66
301.516	1310
301.572	570
301.628	3245
301.684	3306
301.740	5694
301.796	11537
301.851	7355
301.907	11596
301.963	11993
302.019	22674
302.074	69499
302.130	69175
302.186	29677
302.242	10628
302.297	6068
302.353	5128
302.409	11486
302.464	9750
302.520	7979
302.576	22396
302.631	26766
302.687	13701
302.743	5547
302.798	1987
302.854	1103
302.910	1389
302.965	2486
303.021	4875
303.076	5029
303.132	5955
303.187	7510
303.243	3284
303.299	2059
303.354	933
303.410	1357
303.465	1056
303.521	1317
303.576	638
303.632	2442
303.687	5893
303.743	21141
303.798	19451
303.853	6628
303.909	2559
303.964	2309
304.020	3006
304.075	5192
304.130	5159
304.186	9351
304.241	10395
304.297	6964
304.352	3536
304.358	3272
304.407	1129
304.449	1661
304.463	1839
304.518	1241
304.539	1479
304.573	1850
304.629	1806
304.630	1845
304.684	4066
304.720	12149
304.739	16012
304.794	25810
304.811	21962
304.850	12587
304.902	4881
304.905	4414
304.960	2505
304.992	2522
305.015	2495
305.071	1924
305.083	1803
305.126	1401
305.173	1033
305.181	977
305.236	569
305.264	962
305.292	1407
305.347	1462
305.354	1564
305.402	2206
305.445	2800
305.457	2933
305.512	4113
305.535	4021
305.567	4003
305.622	4055
305.626	4189
305.678	9573
305.716	21379
305.733	24736
305.788	27302
305.807	23439
305.843	18838
305.897	26566
305.898	26606
305.953	24194
305.988	15723
306.008	11788
306.063	5621
306.078	4878
306.118	3366
306.168	2187
306.173	2100
306.228	1368
306.259	1399
306.283	1569
306.338	2002
306.349	2084
306.393	2275
306.440	2912
306.448	3042
306.503	3372
306.530	3477
306.558	4966
306.613	12824
306.620	13685
306.668	19930
306.711	26440
306.723	26267
306.778	18429
306.801	13415
306.833	8960
306.888	4331
306.892	4129
306.943	3079
306.982	2766
306.997	2716
307.052	2409
307.072	2507
307.107	3329
307.162	5411
307.163	5439
307.217	8738
307.253	10237
307.272	10309
307.327	11025
307.343	9831
307.381	7952
307.434	7572
307.436	7875
307.491	17078
307.524	25282
307.546	26494
307.600	23797
307.614	21100
307.655	12857
307.704	6678
307.710	6656
307.765	8480
307.795	11065
307.819	13184
307.874	21062
307.885	21103
307.929	17442
307.975	13244
307.984	13717
308.038	19402
308.065	23650
308.093	45924
308.148	97852
308.156	109157
308.202	156643
308.246	183744
308.257	176139
308.312	93205
308.336	60995
308.366	45599
308.421	26942
308.426	25256
308.475	16571
308.517	10864
308.530	10050
308.585	9096
308.607	8653
308.639	8873
308.694	9552
308.697	9710
308.748	19123
308.787	28724
308.803	28555
308.857	21196
308.877	17364
308.912	15116
308.967	14718
308.967	14709
309.021	21405
309.058	26307
309.076	34750
309.130	63744
309.148	74331
309.185	139669
309.238	250920
309.239	251492
309.293	253106
309.328	221755
309.348	188423
309.402	87717
309.418	62334
309.457	43064
309.508	24678
309.511	24317
309.566	20550
309.598	18931
309.620	20657
309.674	26547
309.688	28176
309.729	26125
309.778	21461
309.783	21111
309.837	16392
309.868	14047
309.892	20405
309.946	36868
309.959	41175
310.001	50580
310.049	59012
310.055	56625
310.109	30941
310.139	16581
310.163	13386
310.218	8031
310.229	7038
310.272	6306
310.319	5974
310.326	5872
310.381	4891
310.409	4590
310.435	4783
310.489	4918
310.499	4935
310.543	4929
310.589	5216
310.598	5299
310.652	5348
310.679	5350
310.706	4910
310.760	4020
310.769	3880
310.814	3720
310.859	3516
310.868	3612
310.923	3948
310.948	4267
310.977	4550
311.031	4882
311.038	4912
311.085	4264
311.128	3538
311.139	3677
311.193	4331
311.218	4708
311.247	4600
311.301	4124
311.308	4055
311.356	4275
311.398	4498
311.410	4480
311.464	4257
311.488	4153
311.518	4326
311.572	4557
311.578	4574
311.626	6466
311.668	8083
311.680	7995
311.734	7434
311.758	7117
311.788	6754
311.842	6145
311.847	6057
311.896	9262
311.937	12032
311.950	11706
312.004	10043
312.027	9283
312.058	7765
312.112	4993
312.117	4704
312.165	4769
312.207	4803
312.297	8271
312.386	6391
312.476	6293
312.566	13142
312.656	5818
312.745	3744
312.835	5639
312.925	6543
313.015	5394
313.104	5233
313.194	4737
313.284	5236
313.374	7435
313.463	5436
313.553	4328
313.643	4427
313.732	3810
313.822	3874
313.912	4732
314.001	5314
314.091	6160
314.180	8724
314.270	7517
314.360	8148
314.449	6357
314.539	4237
314.628	4256
314.718	5327
314.808	6198
314.897	4641
314.987	3943
315.076	6308
315.166	7743
315.255	7038
315.345	6615
315.434	5829
315.524	5289
315.613	6976
315.703	8543
315.792	7560
315.881	6188
315.971	5406
316.060	13361
316.150	18920
316.239	18660
316.328	6890
316.418	3992
316.507	4286
316.597	6773
316.686	5058
316.775	10014
316.865	18543
316.954	3847
317.043	3106
317.133	4109
317.222	3847
317.311	4222
317.400	3220
317.490	7530
317.579	6881
317.668	4183
317.757	6463
317.847	7381
317.936	10459
318.025	15602
318.114	7290
318.203	6343
318.293	11013
318.382	19201
318.471	16334
318.560	26066
318.649	55216
318.738	9975
318.828	7544
318.917	8376
319.006	9670
319.095	26321
319.184	73742
319.273	36523
319.362	19719
319.451	6614
319.540	6049
319.629	17824
319.718	25001
319.807	10069
319.896	25906
319.985	87526
320.074	25501
320.163	8189
320.252	12427
320.341	12754
320.430	10581
320.519	15116
320.608	6537
320.697	6348
320.786	5372
320.875	8131
320.964	10749
321.053	18080
321.142	26196
321.230	23476
321.319	19090
321.408	48547
321.497	16318
321.586	18510
321.675	20911
321.764	18459
321.852	13218
321.941	27170
322.030	13924
322.119	20552
322.207	48885
322.296	27168
322.385	12926
322.474	16900
322.562	59091
322.651	23338
322.740	20472
322.829	27129
322.917	26443
323.006	15547
323.095	13997
323.183	9986
323.272	15212
323.361	30122
323.449	75092
323.538	21365
323.626	58370
323.715	26718
323.804	13530
323.892	52854
323.981	24405
324.069	8619
324.158	29233
324.246	21547
324.335	10964
324.424	16522
324.512	6149
324.601	8501
324.689	12968
324.778	20781
324.866	18811
324.954	5932
325.043	6444
325.131	13420
325.220	21599
325.308	22440
325.397	18402
325.485	9382
325.574	3388
325.662	4629
325.750	5607
325.839	4353
325.927	3951
326.015	6240
326.104	10231
326.192	10699
326.280	4239
326.369	5272
326.457	8456
326.545	15608
326.634	5396
326.722	3385
326.810	3706
326.898	3485
326.987	5315
327.075	13722
327.163	12177
327.251	5491
327.340	7944
327.428	9112
327.516	2514
327.604	4096
327.692	4133
327.781	5310
327.869	8982
327.957	5892
328.045	5534
328.133	4189
328.221	4925
328.309	4380
328.397	3915
328.485	5254
328.574	8420
328.662	31146
328.750	12892
328.838	6008
328.926	4144
329.014	3433
329.102	6324
329.190	20249
329.278	10478
329.366	2860
329.454	3195
329.542	3193
329.630	2755
329.718	3999
329.806	4946
329.893	4708
329.981	4130
330.069	3810
330.157	13441
330.245	36741
330.333	15812
330.421	4268
330.509	9750
330.597	39076
330.684	21072
330.772	8015
330.860	11822
330.948	15788
331.036	6376
331.123	2898
331.211	3185
331.299	5345
331.387	14982
331.475	23488
331.562	6387
331.650	3475
331.738	4223
331.825	5954
331.913	2999
332.001	2875
332.089	5079
332.176	11568
332.264	27120
332.352	18420
332.439	6883
332.527	4691
332.614	3966
332.702	5574
332.790	4144
332.877	13021
332.965	21255
333.052	5383
333.140	6359
333.228	12214
333.315	2966
333.403	4626
333.490	15422
333.578	11320
333.665	13501
333.753	6774
333.840	3494
333.928	5777
334.015	15653
334.103	26342
334.190	83393
334.278	16094
334.365	6707
334.452	4352
334.540	3342
334.627	4830
334.715	6687
334.802	15692
334.889	92693
334.977	69062
335.064	6932
335.151	4232
335.239	6169
335.326	7930
335.413	45498
335.501	52685
335.588	7211
335.675	4007
335.762	7350
335.850	12405
335.937	5393
336.024	20687
336.111	91462
336.199	26774
336.286	5029
336.373	3274
336.460	2134
336.547	3160
336.635	5231
336.722	4183
336.809	3987
336.896	7470
336.983	27492
337.070	65366
337.157	86615
337.245	61377
337.332	34292
337.419	4887
337.506	4057
337.593	5604
337.680	22787
337.767	64087
337.854	16972
337.941	20610
338.028	21803
338.115	6868
338.202	9798
338.289	18193
338.376	58342
338.463	16390
338.550	40457
338.637	35084
338.724	12625
338.811	17012
338.898	3953
338.984	2790
339.071	5337
339.158	6440
339.245	18946
339.332	10137
339.419	14298
339.506	10985
339.593	1432
339.679	4321
339.766	3186
339.853	6490
339.940	13030
340.027	4263
340.113	4530
340.200	6653
340.287	4342
340.374	7383
340.460	10974
340.547	4153
340.634	8733
340.720	36746
340.807	17027
340.894	3560
340.980	3275
341.067	3810
341.154	4336
341.240	8053
341.327	17334
341.414	5934
341.500	5477
341.587	3572
341.674	3795
341.760	12541
341.847	13051
341.933	4352
342.020	2256
342.106	3102
342.193	4473
342.279	9488
342.366	6907
342.452	11602
342.539	5664
342.625	16967
342.712	38078
342.798	14978
342.885	5311
342.971	1542
343.058	2160
343.144	2493
343.230	3140
343.317	3329
343.403	3500
343.490	2269
343.576	1969
343.662	3445
343.749	3237
343.835	5420
343.921	11183
344.008	83450
344.094	165883
344.180	29939
344.267	11997
344.353	48400
344.439	43502
344.525	18255
344.612	10758
344.698	9973
344.784	5002
344.870	3041
344.957	3244
345.043	6713
345.129	4756
345.215	12158
345.301	5499
345.387	3826
345.474	1770
345.560	2338
345.646	3976
345.732	3586
345.818	4500
345.904	3662
345.990	3991
346.076	4573
346.162	9709
346.249	4356
346.335	2499
346.421	3827
346.507	20248
346.593	64026
346.679	12969
346.765	4294
346.851	2437
346.937	3110
347.023	2715
347.108	4451
347.194	3458
347.280	3393
347.366	3994
347.452	18540
347.538	78000
347.624	54925
347.710	41836
347.796	5743
347.882	3759
347.967	3420
348.053	5531
348.139	3330
348.225	2498
348.311	3131
348.397	2646
348.482	4512
348.568	4906
348.654	1607
348.740	1803
348.825	1084
348.911	6913
348.997	38853
349.083	68446
349.168	9021
349.254	4009
349.340	4445
349.425	3219
349.511	5092
349.597	5838
349.682	13628
349.768	46158
349.854	19233
349.939	3846
350.025	3274
350.110	2630
350.196	2441
350.282	1386
350.367	2337
350.453	6021
350.538	5378
350.624	5581
350.709	4833
350.795	2892
350.880	3099
350.966	4468
351.051	5995
351.137	4632
351.222	3256
351.308	15704
351.393	38544
351.479	8711
351.564	3170
351.649	3230
351.735	2788
351.820	2340
351.906	2593
351.991	4617
352.076	26200
352.162	35860
352.247	7174
352.332	4458
352.418	10499
352.503	13658
352.588	60245
352.673	42274
352.759	8893
352.844	3479
352.929	5052
353.014	7217
353.100	4679
353.185	8989
353.270	14703
353.355	12401
353.441	3491
353.526	4372
353.611	12516
353.696	13392
353.781	8326
353.866	2729
353.952	5407
354.037	12575
354.122	27858
354.207	22920
354.292	7880
354.377	2940
354.462	3218
354.547	5799
354.632	5118
354.717	7930
354.802	8653
354.887	3816
354.972	2923
355.057	2399
355.142	2637
355.227	3572
355.312	6619
355.397	19479
355.482	43726
355.567	18503
355.652	15505
355.737	16361
355.822	52240
355.907	38527
355.991	6904
356.076	3673
356.161	2382
356.246	2204
356.331	3651
356.416	10745
356.501	85003
356.585	77310
356.670	9903
356.755	7044
356.840	10666
356.924	59792
357.009	194962
357.094	64797
357.179	14979
357.263	9302
357.348	9333
357.433	8662
357.517	8355
357.602	5919
357.687	5534
357.771	9882
357.856	26912
357.941	16415
358.025	49982
358.110	192394
358.195	82383
358.279	11795
358.364	9688
358.448	37567
358.533	97155
358.617	66949
358.702	65149
358.787	22239
358.871	13289
358.956	10609
359.040	2948
359.125	1890
359.209	3653
359.294	12841
359.378	20772
359.462	9610
359.547	6393
359.631	3965
359.716	1782
359.800	3199
359.885	7417
359.969	3380
360.053	3793
360.138	2115
360.222	6773
360.306	12670
360.391	10149
360.475	18487
360.559	36335
360.644	34766
360.728	22733
360.812	47466
360.896	117388
360.981	48883
361.065	23689
361.149	6133
361.233	6655
361.318	4437
361.402	5383
361.486	5461
361.570	3629
361.654	6254
361.739	17093
361.823	83236
361.907	114891
361.991	18482
362.075	11212
362.159	24467
362.243	15965
362.327	8562
362.411	8188
362.495	5679
362.580	4349
362.664	2833
362.748	1993
362.832	2698
362.916	3376
363.000	11965
363.084	69515
363.168	126656
363.252	27517
363.336	9158
363.420	15015
363.503	61099
363.587	64861
363.671	10879
363.755	8440
363.839	11573
363.923	4941
364.007	12510
364.091	13962
364.175	20286
364.258	86366
364.342	37686
364.426	10420
364.510	7315
364.594	13237
364.677	23543
364.761	102848
364.845	69426
364.929	23632
365.013	18192
365.096	15827
365.180	16801
365.264	26252
365.347	92752
365.431	38948
365.515	10254
365.598	5350
365.682	4980
365.766	11033
365.849	12690
365.933	6328
366.017	9237
366.100	6807
366.184	1518
366.267	2993
366.351	3173
366.435	2536
366.518	1577
366.602	2116
366.685	3063
366.769	4568
366.852	9510
366.936	17222
367.019	8945
367.103	7375
367.186	14331
367.270	3938
367.353	1264
367.436	3133
367.520	1982
367.603	4392
367.687	8314
367.770	14499
367.853	8698
367.937	33938
368.020	52810
368.104	10461
368.187	11758
368.270	17593
368.353	15118
368.437	18858
368.520	38407
368.603	24590
368.687	38754
368.770	66636
368.853	15037
368.936	15726
369.020	15959
369.103	5138
369.186	2347
369.269	3491
369.352	10036
369.436	14813
369.519	8703
369.602	3120
369.685	5986
369.768	4765
369.851	4057
369.934	2674
370.018	5476
370.101	12652
370.184	10821
370.267	7037
370.350	11284
370.433	18507
370.516	55772
370.599	59080
370.682	15459
370.765	36585
370.848	47761
370.931	80878
371.014	29855
371.097	4847
371.180	4354
371.263	2835
371.346	1416
371.429	3023
371.511	3625
371.594	8887
371.677	14145
371.760	17031
371.843	14205
371.926	77490
372.009	161527
372.091	48782
372.174	34172
372.257	77357
372.340	29599
372.423	21779
372.505	25070
372.588	10772
372.671	27333
372.754	79812
372.836	37742
372.919	30729
373.002	55106
373.085	15989
373.167	13287
373.250	37706
373.332	78250
373.415	111364
373.498	206082
373.580	74801
373.663	94812
373.746	126316
373.828	28072
373.911	12034
373.993	14980
374.076	53947
374.159	48865
374.241	23806
374.324	68345
374.406	44214
374.489	67244
374.571	173665
374.654	69114
374.736	35211
374.819	107376
374.901	153532
374.983	145878
375.066	23485
375.148	9039
375.231	46066
375.313	82898
375.395	30070
375.478	6168
375.560	5007
375.643	6545
375.725	33243
375.807	127428
375.890	96576
375.972	35927
376.054	22613
376.136	30262
376.219	14454
376.301	40014
376.383	106895
376.465	40152
376.548	23442
376.630	34121
376.712	91873
376.794	40513
376.877	4972
376.959	2433
377.041	4919
377.123	12091
377.205	14214
377.287	2060
377.369	3310
377.452	2519
377.534	3450
377.616	3513
377.698	2880
377.780	1210
377.862	3974
377.944	3870
378.026	1942
378.108	2247
378.190	2640
378.272	2324
378.354	1753
378.436	1650
378.518	7292
378.600	25933
378.682	23150
378.764	48732
378.846	36295
378.928	10469
379.010	14540
379.091	7501
379.173	3650
379.255	2161
379.337	5661
379.419	25349
379.501	66142
379.583	25224
379.664	6240
379.746	17626
379.828	49899
379.910	67221
379.991	54027
380.073	8180
380.155	5469
380.237	4402
380.318	2917
380.400	3290
380.482	9939
380.564	14592
380.645	14679
380.727	13121
380.809	7451
380.890	4946
380.972	2952
381.053	3503
381.135	4637
381.217	17537
381.298	48824
381.380	23159
381.461	20678
381.543	92902
381.624	107290
381.706	18045
381.787	8610
381.869	11093
381.951	45179
382.032	154471
382.113	95116
382.195	16899
382.276	11478
382.358	31941
382.439	85942
382.521	98852
382.602	139786
382.684	64439
382.765	108532
382.846	100910
382.928	98166
383.009	52307
383.090	40980
383.172	151090
383.253	210530
383.334	89510
383.416	116778
383.497	58435
383.578	19615
383.659	37379
383.741	141561
383.822	320691
383.903	163314
383.984	80120
384.066	149174
384.147	89861
384.228	16454
384.309	11578
384.390	8368
384.471	5651
384.553	6627
384.634	11246
384.715	11168
384.796	4455
384.877	9239
384.958	43634
385.039	52308
385.120	17234
385.201	8051
385.282	9405
385.363	9848
385.444	6773
385.525	17037
385.606	65686
385.687	56636
385.768	12981
385.849	17696
385.930	80053
386.011	132799
386.092	34140
386.173	7402
386.254	5425
386.335	5616
386.416	6792
386.496	29620
386.577	48228
386.658	17232
386.739	8930
386.820	9584
386.901	6735
386.981	6512
387.062	2987
387.143	10237
387.224	46136
387.304	42509
387.385	13516
387.466	6950
387.547	9558
387.627	5413
387.708	18281
387.789	84441
387.869	99910
387.950	25546
388.031	3994
388.111	3175
388.192	15404
388.273	22268
388.353	12254
388.434	6471
388.514	18548
388.595	79955
388.676	104653
388.756	48429
388.837	43139
388.917	26967
388.998	3378
389.078	4135
389.159	4215
389.239	2443
389.320	7547
389.400	5972
389.480	19765
389.561	49922
389.641	25225
389.722	8702
389.802	13435
389.883	24400
389.963	59066
390.043	37647
390.124	9643
390.204	18624
390.284	51784
390.365	34040
390.445	42032
390.525	95776
390.605	77342
390.686	26775
390.766	8841
390.846	4779
390.927	2004
391.007	2238
391.087	4288
391.167	4512
391.247	2632
391.328	7646
391.408	13631
391.488	9308
391.568	753
391.648	5502
391.728	8460
391.808	8791
391.888	9193
391.969	27975
392.049	43083
392.129	18878
392.209	22956
392.289	55171
392.369	31324
392.449	23682
392.529	13649
392.609	8826
392.689	14685
392.769	52774
392.849	43057
392.929	27795
393.009	71720
393.089	42905
393.169	9185
393.248	24273
393.328	122903
393.408	128082
393.488	21962
393.568	7791
393.648	5881
393.728	3484
393.807	3530
393.887	5288
393.967	4959
394.047	8289
394.127	12756
394.206	24799
394.286	102984
394.366	374291
394.446	392725
394.525	102446
394.605	24657
394.685	19033
394.764	37928
394.844	60193
394.924	38742
395.003	10742
395.083	7826
395.163	7472
395.242	6931
395.322	7759
395.402	3821
395.481	8389
395.561	26419
395.640	63900
395.720	45033
395.799	69638
395.879	59964
395.958	41785
396.038	154073
396.117	484560
396.197	517382
396.276	174821
396.356	54010
396.435	34579
396.515	19380
396.594	15203
396.673	16437
396.753	37369
396.832	118691
396.912	118767
396.991	40929
397.070	9544
397.150	4405
397.229	3923
397.308	2832
397.388	3004
397.467	2746
397.546	2076
397.625	1396
397.705	6297
397.784	6073
397.863	2885
397.942	1979
398.022	3383
398.101	20522
398.180	58398
398.259	31043
398.338	7366
398.417	3594
398.497	3748
398.576	3958
398.655	1227
398.734	2432
398.813	2650
398.892	20048
398.971	63147
399.050	30844
399.129	2484
399.208	1529
399.287	2989
399.366	1460
399.445	2164
399.524	1823
399.603	1198
399.682	6954
399.761	23189
399.840	68109
399.919	52098
399.998	6808
400.077	1797
400.156	892
400.235	3786
400.313	2636
400.392	3986
400.471	26098
400.550	41299
400.629	9877
400.708	4266
400.786	4928
400.865	15493
400.944	16486
401.023	7932
401.102	1388
401.180	1488
401.259	1316
401.338	2409
401.416	5048
401.495	4787
401.574	3579
401.652	3401
401.731	5131
401.810	2877
401.888	2210
401.967	829
402.046	1431
402.124	4879
402.203	5526
402.281	3658
402.360	5043
402.438	18353
402.517	12941
402.596	4441
402.674	3344
402.753	2095
402.831	1315
402.910	4021
402.988	18650
403.066	57838
403.145	33574
403.223	19088
403.302	45674
403.380	36866
403.459	32612
403.537	12983
403.615	3947
403.694	-359
403.772	2052
403.850	594
403.929	839
404.007	1284
404.085	6596
404.164	6238
404.242	3703
404.320	13261
404.398	44781
404.477	57387
404.555	118020
404.633	104986
404.711	37331
404.789	19790
404.868	4311
404.946	1941
405.024	1654
405.102	805
405.180	566
405.258	438
405.336	1703
405.415	1816
405.493	6871
405.571	6406
405.649	782
405.727	1461
405.805	4792
405.883	3680
405.961	4809
406.039	5502
406.117	1447
406.195	5105
406.273	29549
406.351	96942
406.429	57548
406.507	9011
406.585	3057
406.663	3467
406.740	4628
406.818	3375
406.896	1421
406.974	2715
407.052	8568
407.130	58021
407.208	80029
407.285	16062
407.363	1506
407.441	2315
407.519	968
407.596	3603
407.674	6506
407.752	14987
407.830	19025
407.907	10565
407.985	2653
408.063	1852
408.141	985
408.218	5351
408.296	4413
408.373	3012
408.451	3495
408.529	2033
408.606	1202
408.684	284
408.762	483
408.839	-227
408.917	442
408.994	801
409.072	-841
409.149	-313
409.227	702
409.304	1144
409.382	365
409.459	-558
409.537	814
409.614	1442
409.692	-358
409.769	206
409.846	1142
409.924	2765
410.001	995
410.079	2154
410.156	1736
410.233	1791
410.311	692
410.388	954
410.465	1734
410.543	1142
410.620	1094
410.697	2111
410.775	2140
410.852	-292
410.929	2497
411.006	3570
411.083	1306
411.161	3773
411.238	5860
411.315	3502
411.392	770
411.469	3145
411.547	1970
411.624	-506
411.701	-53
411.778	2539
411.855	6631
411.932	3169
412.009	1514
412.086	1899
412.163	2017
412.240	2541
412.317	3566
412.394	2514
412.471	1520
412.548	1351
412.625	1202
412.702	2571
412.779	5388
412.856	3517
412.933	1152
413.010	1233
413.087	4149
413.164	24164
413.241	32916
413.318	7373
413.395	4276
413.471	5948
413.548	2529
413.625	1805
413.702	3083
413.779	1519
413.855	606
413.932	968
414.009	-835
414.086	784
414.162	1071
414.239	4254
414.316	23860
414.393	51804
414.469	18145
414.546	1204
414.623	441
414.699	1282
414.776	1574
414.853	661
414.929	965
415.006	1617
415.082	2216
415.159	1499
415.236	902
415.312	1780
415.389	5027
415.465	6817
415.542	2429
415.618	1800
415.695	4680
415.771	2511
415.848	2025
415.924	2074
416.000	998
416.077	1422
416.153	-421
416.230	-761
416.306	537
416.383	816
416.459	112
416.535	-357
416.612	431
416.688	-296
416.764	105
416.841	389
416.917	229
416.993	1091
417.069	2112
417.146	3508
417.222	5983
417.298	2488
417.374	995
417.451	2175
417.527	2599
417.603	3417
417.679	2101
417.755	1786
417.831	317
417.908	88
417.984	-179
418.060	766
418.136	5885
418.212	7719
418.288	2561
418.364	1071
418.440	912
418.516	3343
418.592	5861
418.668	11441
418.744	15349
418.820	10448
418.896	1902
418.972	223
419.048	857
419.124	7237
419.200	4201
419.276	1159
419.352	-784
419.428	132
419.504	1052
419.579	2720
419.655	729
419.731	1570
419.807	9695
419.883	18849
419.959	11187
420.034	3063
420.110	8311
420.186	31525
420.262	25026
420.337	3792
420.413	2080
420.489	1034
420.565	1067
420.640	147
420.716	851
420.792	-240
420.867	1614
420.943	601
421.019	3399
421.094	2650
421.170	409
421.245	-865
421.321	-49
421.397	803
421.472	1959
421.548	5335
421.623	6485
421.699	1933
421.774	1392
421.850	411
421.925	3695
422.001	3532
422.076	255
422.152	1107
422.227	3857
422.302	2776
422.378	2799
422.453	4128
422.529	9629
422.604	52003
422.679	126563
422.755	63313
422.830	10604
422.905	2431
422.981	887
423.056	427
423.131	1318
423.207	109
423.282	1830
423.357	7957
423.432	4553
423.508	5507
423.583	13896
423.658	11027
423.733	1868
423.808	3019
423.883	4245
423.959	2328
424.034	844
424.109	726
424.184	-343
424.259	891
424.334	-41
424.409	-205
424.484	207
424.559	991
424.634	1140
424.709	2264
424.784	3001
424.859	2003
424.934	4795
425.009	22690
425.084	36556
425.159	12952
425.234	1195
425.309	393
425.384	5829
425.459	9824
425.534	3218
425.609	1251
425.683	-231
425.758	950
425.833	985
425.908	3752
425.983	14331
426.058	37993
426.132	16254
426.207	2847
426.282	4955
426.357	4368
426.431	748
426.506	968
426.581	935
426.655	1684
426.730	1087
426.805	472
426.879	695
426.954	1500
427.029	6017
427.103	37856
427.178	83413
427.253	37975
427.327	4119
427.402	5341
427.476	13922
427.551	5998
427.625	2403
427.700	2559
427.774	584
427.849	1987
427.923	452
427.998	35
428.072	1541
428.147	4934
428.221	11753
428.296	14485
428.370	4437
428.444	1668
428.519	5467
428.593	13486
428.667	11683
428.742	14154
428.816	10191
428.890	17795
428.965	22025
429.039	13107
429.113	15211
429.188	5218
429.262	848
429.336	5600
429.410	17218
429.485	11937
429.559	11195
429.633	8462
429.707	1816
429.781	6753
429.855	28038
429.930	38871
430.004	36963
430.078	62456
430.152	42780
430.226	14120
430.300	10381
430.374	1808
430.448	2683
430.522	21807
430.596	58933
430.670	33451
430.744	47184
430.818	77692
430.892	19145
430.966	2164
431.040	986
431.114	-128
431.188	191
431.262	1063
431.336	895
431.410	6979
431.484	18720
431.557	11984
431.631	368
431.705	-99
431.779	1123
431.853	6784
431.927	4265
432.000	753
432.074	665
432.148	2197
432.222	1899
432.295	25
432.369	1015
432.443	4824
432.516	35540
432.590	83141
432.664	30538
432.737	3126
432.811	57
432.885	280
432.958	599
433.032	235
433.106	-517
433.179	-916
433.253	-325
433.326	-368
433.400	327
433.473	671
433.547	-526
433.620	911
433.694	3483
433.767	3423
433.841	428
433.914	313
433.988	-750
434.061	734
434.134	175
434.208	-341
434.281	-642
434.355	-323
434.428	6
434.501	-279
434.575	141
434.648	409
434.721	57
434.795	-476
434.868	-1010
434.941	-450
435.014	-337
435.088	159
435.161	258
435.234	2777
435.307	3168
435.381	674
435.454	-67
435.527	173
435.600	-523
435.673	17
435.746	-110
435.819	-236
435.892	200
435.966	171
436.039	429
436.112	1292
436.185	-680
436.258	-222
436.331	-1100
436.404	-354
436.477	-787
436.550	138
436.623	319
436.696	-174
436.769	366
436.842	725
436.915	1337
436.987	1193
437.060	422
437.133	378
437.206	-771
437.279	345
437.352	-21
437.425	64
437.498	1685
437.570	5160
437.643	4595
437.716	427
437.789	-157
437.861	1982
437.934	6794
438.007	2871
438.080	241
438.152	1093
438.225	5625
438.298	46318
438.370	115178
438.443	45677
438.516	7365
438.588	1798
438.661	-111
438.734	154
438.806	366
438.879	1726
438.951	1913
439.024	2760
439.096	602
439.169	838
439.241	-635
439.314	19
439.386	2201
439.459	3858
439.531	3953
439.604	1171
439.676	-123
439.749	-144
439.821	-862
439.893	746
439.966	283
440.038	919
440.110	1587
440.183	383
440.255	-430
440.327	2588
440.400	20860
440.472	74078
440.544	47701
440.617	5481
440.689	2924
440.761	4112
440.833	6615
440.905	3840
440.978	213
441.050	348
441.122	534
441.194	3
441.266	-153
441.338	396
441.411	4217
441.483	25724
441.555	35585
441.627	6962
441.699	3837
441.771	3347
441.843	1043
441.915	674
441.987	773
442.059	-285
442.131	187
442.203	3062
442.275	3344
442.347	1988
442.419	340
442.491	1623
442.563	4441
442.635	6290
442.706	15800
442.778	14169
442.850	1719
442.922	651
442.994	1612
443.066	2828
443.137	1615
443.209	84
443.281	497
443.353	2935
443.425	6139
443.496	7146
443.568	5800
443.640	2637
443.711	1707
443.783	766
443.855	1199
443.926	10
443.998	1308
444.070	1954
444.141	1311
444.213	3051
444.285	5385
444.356	2729
444.428	2121
444.499	416
444.571	-381
444.642	256
444.714	108
444.785	3719
444.857	4379
444.928	11503
445.000	6145
445.071	7264
445.143	8197
445.214	3115
445.285	6147
445.357	16135
445.428	14300
445.500	18928
445.571	17914
445.642	6686
445.714	11355
445.785	17944
445.856	4283
445.928	4461
445.999	2352
446.070	1984
446.141	3124
446.213	5074
446.284	1688
446.355	2789
446.426	1281
446.497	1438
446.569	3448
446.640	6180
446.711	4940
446.782	581
446.853	1711
446.924	2669
446.995	985
447.066	1898
447.138	4519
447.209	2343
447.280	315
447.351	-171
447.422	1
447.493	1235
447.564	2672
447.635	4256
447.706	681
447.777	-103
447.847	-40
447.918	408
447.989	1569
448.060	3403
448.131	8705
448.202	8154
448.273	5572
448.344	1856
448.414	725
448.485	1408
448.556	1394
448.627	484
448.698	542
448.768	171
448.839	373
448.910	3851
448.981	3600
449.051	1447
449.122	205
449.193	194
449.263	424
449.334	66
449.405	1544
449.475	5784
449.546	3858
449.616	4498
449.687	4099
449.758	766
449.828	-113
449.899	-608
449.969	-595
450.040	357
450.110	780
450.181	1696
450.251	1012
450.322	870
450.392	1667
450.463	782
450.533	223
450.604	1083
450.674	724
450.744	1351
450.815	785
450.885	810
450.955	66
451.026	201
451.096	646
451.166	1773
451.237	5939
451.307	14515
451.377	4327
451.447	934
451.518	311
451.588	1285
451.658	1316
451.728	3000
451.799	15165
451.869	15707
451.939	2837
452.009	901
452.079	627
452.149	1567
452.219	4672
452.289	18539
452.360	11380
452.430	2369
452.500	1659
452.570	2661
452.640	2546
452.710	9164
452.780	15102
452.850	11818
452.920	11332
452.990	2912
453.060	1400
453.129	3073
453.199	4742
453.269	20508
453.339	39190
453.409	57918
453.479	62053
453.549	89697
453.619	91772
453.688	32799
453.758	4741
453.828	3265
453.898	1515
453.968	1108
454.037	1606
454.087	1598
454.107	1591
454.168	447
454.177	276
454.247	714
454.249	721
454.316	698
454.330	864
454.386	1425
454.411	4265
454.456	9017
454.492	10684
454.525	12278
454.574	6410
454.595	3852
454.655	651
454.665	141
454.734	1996
454.736	2087
454.804	4737
454.817	6615
454.873	14315
454.898	14925
454.943	16024
454.979	10354
455.013	5292
455.060	3153
455.082	2225
455.141	3055
455.152	3225
455.221	10943
455.222	11097
455.291	21091
455.303	20606
455.360	18097
455.384	24096
455.430	34097
455.465	25681
455.499	18168
455.546	15460
455.569	14143
455.627	9022
455.638	8130
455.707	1606
455.708	1610
455.777	1055
455.789	1039
455.846	1203
455.869	1105
455.916	733
455.950	903
455.985	1109
456.031	1051
456.054	1045
456.112	1216
456.124	1261
456.193	1306
456.193	1299
456.262	986
456.274	1175
456.332	2219
456.355	2461
456.401	2464
456.436	1625
456.470	1015
456.516	886
456.540	774
456.597	580
456.609	580
456.678	296
456.678	290
456.747	530
456.759	474
456.817	400
456.840	711
456.886	987
456.920	664
456.955	623
457.001	809
457.024	896
457.082	1375
457.093	1479
457.162	3060
457.163	3075
457.232	3133
457.243	2823
457.301	1563
457.324	913
457.370	-48
457.405	512
457.439	1110
457.485	894
457.508	721
457.566	673
457.577	687
457.646	1501
457.647	1508
457.715	1409
457.727	1333
457.784	1500
457.808	1496
457.853	1181
457.889	1162
457.922	1229
457.969	1383
457.991	1415
458.050	1314
458.060	1341
458.129	1011
458.130	1032
458.198	1110
458.211	1094
458.267	1555
458.292	1229
458.336	372
458.372	361
458.405	537
458.453	654
458.474	642
458.533	890
458.543	982
458.611	2001
458.614	2052
458.680	2547
458.694	2152
458.749	1079
458.775	1214
458.818	1348
458.855	1135
458.887	984
458.936	1072
458.955	994
459.016	463
459.024	499
459.093	1585
459.097	1602
459.162	1151
459.177	1176
459.230	1724
459.257	2196
459.299	2396
459.338	2055
459.368	2094
459.418	2253
459.437	2170
459.499	1797
459.505	1782
459.574	1726
459.579	1700
459.643	1092
459.659	1044
459.711	1538
459.740	1711
459.780	1598
459.820	1680
459.849	1699
459.900	1853
459.917	1950
459.981	2206
459.986	2197
460.054	1945
460.061	1897
460.123	1719
460.141	1782
460.191	2729
460.222	3177
460.260	2759
460.302	3098
460.328	3491
460.382	3073
460.397	2907
460.462	1664
460.465	1661
460.534	2382
460.543	2513
460.602	3604
460.623	4307
460.671	6783
460.703	9992
460.739	10721
460.783	8703
460.808	8091
460.864	3197
460.876	2340
460.944	1192
460.945	1190
461.013	1864
461.024	1923
461.081	1523
461.104	1693
461.150	1911
461.184	1480
461.218	1368
461.264	1685
461.286	1632
461.345	1126
461.355	1093
461.423	1502
461.425	1492
461.491	1746
461.505	1991
461.559	4230
461.585	5147
461.628	7192
461.665	9885
461.696	10508
461.745	13832
461.764	13795
461.825	5578
461.832	5133
461.901	2313
461.905	2310
461.969	1467
461.985	1201
462.037	1992
462.065	2559
462.105	2846
462.145	2983
462.173	3485
462.225	4735
462.241	5238
462.305	8589
462.310	8418
462.378	4882
462.385	4141
462.446	2487
462.465	2423
462.514	1864
462.545	1927
462.582	1987
462.625	1758
462.650	1488
462.705	1201
462.718	1449
462.785	2216
462.786	2215
462.854	2673
462.865	2788
462.922	4136
462.945	4679
462.990	3575
463.025	2093
463.058	1645
463.104	1188
463.126	1112
463.184	1333
463.194	1413
463.262	1811
463.264	1841
463.330	1721
463.344	1571
463.398	2121
463.424	2436
463.466	2094
463.504	1975
463.533	2257
463.583	2406
463.601	2429
463.663	2708
463.669	2824
463.737	4205
463.743	4343
463.805	6615
463.823	7242
463.873	10261
463.903	12481
463.940	12162
463.982	12287
464.008	10623
464.062	4419
464.076	3964
464.142	1987
464.144	1961
464.211	1989
464.221	2032
464.279	1944
464.301	2004
464.347	2506
464.381	2869
464.414	2931
464.461	2866
464.482	2890
464.540	3372
464.550	3352
464.617	2682
464.620	2657
464.685	4253
464.699	4613
464.753	4680
464.779	4807
464.820	4770
464.859	4709
464.888	4345
464.938	3743
464.956	4066
465.018	4909
465.023	4826
465.091	3847
465.098	3731
465.158	3583
465.177	3619
465.226	3424
465.257	3190
465.293	3350
465.336	3603
465.361	4017
465.416	4926
465.428	5490
465.495	8639
465.496	8663
465.563	10743
465.575	11212
465.631	13466
465.654	14589
465.698	9930
465.734	4953
465.765	4172
465.813	3268
465.833	3105
465.893	3287
465.900	3236
465.968	2610
465.972	2569
466.035	2232
466.052	2159
466.102	2937
466.131	3350
466.170	3316
466.210	3295
466.237	3276
466.290	3203
466.304	3149
466.369	2845
466.372	2878
466.439	3845
466.449	3981
466.506	4314
466.528	4425
466.573	7904
466.607	10527
466.641	13291
466.687	17159
466.708	17999
466.766	20612
466.775	18965
466.842	6129
466.845	5512
466.909	3955
466.925	3709
466.977	3725
467.004	3768
467.044	4606
467.083	5467
467.111	5688
467.163	6074
467.178	6205
467.242	6761
467.245	6737
467.312	6168
467.321	6092
467.379	5269
467.400	4961
467.446	5981
467.480	6712
467.559	5688
467.638	4543
467.717	5176
467.796	6236
467.875	7144
467.955	5192
468.034	11803
468.113	18919
468.192	26469
468.271	5607
468.350	4682
468.429	3788
468.508	4751
468.588	4523
468.667	4994
468.746	4970
468.825	4945
468.904	4602
468.983	6269
469.062	8719
469.141	9938
469.220	4065
469.299	5441
469.378	4528
469.456	7054
469.535	5408
469.614	5443
469.693	4916
469.772	7417
469.851	9277
469.930	6327
470.009	4494
470.088	5013
470.166	4397
470.245	7368
470.324	7093
470.403	5222
470.482	3811
470.560	4536
470.639	4836
470.718	6589
470.797	5276
470.875	6162
470.954	6868
471.033	7008
471.111	3396
471.190	4723
471.269	3611
471.347	3513
471.426	4570
471.505	5373
471.583	4838
471.662	5151
471.740	4013
471.819	4954
471.898	4028
471.976	4118
472.055	3600
472.133	4693
472.212	6881
472.290	6381
472.369	3286
472.447	4472
472.526	4356
472.604	4546
472.683	4571
472.761	4150
472.839	3922
472.918	3987
472.996	4129
473.075	5677
473.153	4527
473.231	4340
473.310	4597
473.388	5027
473.466	4074
473.545	5104
473.623	6969
473.701	5977
473.780	4020
473.858	2997
473.936	4611
474.014	4427
474.093	4715
474.171	7127
474.249	9701
474.327	5810
474.405	2957
474.484	3720
474.562	3250
474.640	4350
474.718	4427
474.796	4623
474.874	4348
474.952	3773
475.030	2924
475.108	3234
475.187	3230
475.265	4667
475.343	6120
475.421	6327
475.499	2692
475.577	4134
475.655	6426
475.733	11693
475.811	19582
475.889	17052
475.966	8448
476.044	3991
476.122	4554
476.200	6683
476.278	4388
476.356	3233
476.434	4083
476.512	5459
476.590	5794
476.667	5424
476.745	3237
476.823	3864
476.901	3385
476.979	4239
477.056	3904
477.134	3653
477.212	3935
477.290	4490
477.367	3349
477.445	3601
477.523	2902
477.601	2726
477.678	3215
477.756	4921
477.834	4306
477.911	3847
477.989	3363
478.066	3235
478.144	3672
478.222	5237
478.299	6421
478.377	5533
478.454	2516
478.532	2236
478.609	2741
478.687	3628
478.764	3094
478.842	4310
478.919	3006
478.997	3688
479.074	3896
479.152	4338
479.229	5264
479.307	2455
479.384	1690
479.461	3477
479.539	2216
479.616	3306
479.694	2418
479.771	4415
479.848	3449
479.926	4112
480.003	4748
480.080	3133
480.157	2281
480.235	2993
480.312	2794
480.389	4342
480.467	6278
480.544	7429
480.621	3578
480.698	3734
480.775	3566
480.853	3458
480.930	2446
481.007	2777
481.084	3310
481.161	3687
481.238	3853
481.315	2344
481.392	2217
481.470	2435
481.547	2769
481.624	3046
481.701	2927
481.778	3162
481.855	3665
481.932	6023
482.009	9807
482.086	5489
482.163	2975
482.240	6181
482.317	7590
482.393	4750
482.470	2457
482.547	4338
482.624	1824
482.701	3119
482.778	2934
482.855	2777
482.932	2148
483.009	1800
483.085	2058
483.162	3056
483.239	2643
483.316	1293
483.393	2440
483.469	2641
483.546	3445
483.623	4314
483.699	2403
483.776	2954
483.853	3272
483.930	8226
484.006	17497
484.083	28061
484.160	13608
484.236	22544
484.313	14512
484.389	11162
484.466	11474
484.543	9815
484.619	9587
484.696	11150
484.772	10591
484.849	11610
484.925	9285
485.002	9345
485.078	9644
485.155	9404
485.231	8432
485.308	8302
485.384	9088
485.461	12553
485.537	18458
485.614	20119
485.690	8995
485.766	8525
485.843	9756
485.919	13507
485.995	12747
486.072	7774
486.148	7220
486.224	8135
486.301	8867
486.377	9696
486.453	7708
486.530	11151
486.606	13573
486.682	14036
486.758	16878
486.835	17931
486.911	15345
486.987	25452
487.063	25534
487.139	29985
487.215	17970
487.292	10129
487.368	8744
487.444	9541
487.520	9741
487.596	7514
487.672	8772
487.748	12252
487.824	12375
487.900	8590
487.976	7861
488.052	8310
488.128	10193
488.204	8206
488.280	8341
488.356	12370
488.432	22633
488.508	29346
488.584	9801
488.660	8290
488.736	7425
488.812	7738
488.888	10960
488.964	17381
489.039	33183
489.115	43923
489.191	19562
489.267	8890
489.343	7305
489.418	6833
489.494	6171
489.570	5782
489.646	7203
489.722	6599
489.797	6839
489.873	13521
489.949	24165
490.024	15725
490.100	5337
490.176	6707
490.251	8425
490.327	10753
490.403	6069
490.478	6187
490.554	5218
490.629	5472
490.705	4491
490.781	7167
490.856	5475
490.932	6997
491.007	7602
491.083	6583
491.158	5273
491.234	9463
491.309	17516
491.385	15670
491.460	5779
491.536	7012
491.611	5212
491.686	7100
491.762	9838
491.837	21296
491.913	34312
491.988	47778
492.063	48056
492.139	12968
492.214	7315
492.289	5441
492.365	5442
492.440	6283
492.515	4601
492.590	6244
492.666	4309
492.741	8216
492.816	9836
492.891	4783
492.967	5009
493.042	4669
493.117	5354
493.192	7018
493.267	15560
493.342	43267
493.418	46406
493.493	6222
493.568	3694
493.643	4500
493.718	6128
493.793	8616
493.868	9377
493.943	5985
494.018	4222
494.093	3788
494.168	4238
494.243	3344
494.318	2996
494.393	3501
494.468	2922
494.543	3162
494.618	4249
494.693	3879
494.768	3337
494.842	4297
494.917	3227
494.992	3959
495.067	3040
495.142	3268
495.217	3861
495.292	4630
495.366	4072
495.441	4158
495.516	7945
495.591	15121
495.665	52354
495.740	94451
495.815	25087
495.890	5988
495.964	2952
496.039	5691
496.114	4424
496.188	4546
496.263	4224
496.338	4247
496.412	4801
496.487	7640
496.561	6616
496.636	6268
496.710	4389
496.785	5739
496.860	6344
496.934	4996
497.009	4098
497.083	4919
497.158	5137
497.232	5981
497.307	6302
497.381	5256
497.455	6822
497.530	9730
497.604	5283
497.679	7426
497.753	10692
497.827	11936
497.902	8715
497.976	15685
498.050	58625
498.125	175258
498.199	131295
498.273	14799
498.348	10091
498.422	8821
498.496	8678
498.570	6925
498.645	4895
498.719	5115
498.793	8597
498.867	15177
498.941	25113
499.016	84599
499.090	171781
499.164	38982
499.238	5383
499.312	5374
499.386	7088
499.460	6505
499.534	5061
499.609	8297
499.683	10737
499.757	12717
499.831	41662
499.905	123352
499.979	85439
500.053	14364
500.127	14125
500.201	8510
500.275	5860
500.349	5865
500.422	6544
500.496	12294
500.570	30854
500.644	73510
500.718	109892
500.792	17139
500.866	6980
500.940	8485
501.013	6548
501.087	7590
501.161	12049
501.235	17535
501.309	46766
501.382	106852
501.456	71605
501.530	19473
501.603	30350
501.677	9080
501.751	4403
501.825	8291
501.898	16888
501.972	40080
502.046	18908
502.119	7238
502.193	21411
502.266	41352
502.340	17544
502.413	22347
502.487	35896
502.561	16877
502.634	4795
502.708	4532
502.781	2622
502.855	3999
502.928	2114
503.002	3747
503.075	3364
503.149	3901
503.222	4244
503.295	3947
503.369	4986
503.442	9945
503.516	36942
503.589	73625
503.662	37837
503.736	15990
503.809	34929
503.882	26386
503.956	40982
504.029	28204
504.102	9344
504.175	8155
504.249	2538
504.322	6012
504.395	3429
504.468	3606
504.542	2998
504.615	1815
504.688	2993
504.761	1297
504.834	4683
504.907	6009
504.980	8165
505.053	4851
505.127	3337
505.200	8861
505.273	5332
505.346	2910
505.419	2022
505.492	3333
505.565	1640
505.638	2155
505.711	1692
505.784	2107
505.857	1762
505.930	4020
506.003	1056
506.076	4704
506.149	3834
506.221	3292
506.294	7039
506.367	20709
506.440	54352
506.513	22450
506.586	5512
506.659	3342
506.731	2694
506.804	3588
506.877	5799
506.950	3357
507.022	3245
507.095	3529
507.168	4800
507.241	3961
507.313	1015
507.386	2771
507.459	6015
507.531	2466
507.604	1773
507.677	3344
507.749	1008
507.822	4398
507.894	7947
507.967	9529
508.040	4348
508.112	4159
508.185	3247
508.257	3906
508.330	6392
508.402	3862
508.475	3277
508.547	4417
508.620	4137
508.692	6698
508.765	3541
508.837	3380
508.909	3318
508.982	3277
509.054	3958
509.127	3135
509.199	2332
509.271	1943
509.344	2350
509.416	3027
509.488	1837
509.560	3935
509.633	2718
509.705	4480
509.777	3592
509.849	6504
509.922	2835
509.994	3515
510.066	3537
510.138	3327
510.210	10049
510.283	7205
510.355	5694
510.427	5125
510.499	4746
510.571	4582
510.643	4462
510.715	9471
510.787	4473
510.859	5731
510.931	5471
511.003	7671
511.076	7000
511.148	3643
511.219	3725
511.291	7465
511.363	8285
511.435	4156
511.507	2583
511.579	4869
511.651	4115
511.723	3964
511.795	2090
511.867	3578
511.939	5281
512.010	10486
512.082	6977
512.154	3210
512.226	3749
512.298	8813
512.369	8861
512.441	7635
512.513	7006
512.585	4208
512.656	6365
512.728	5726
512.800	3916
512.871	5447
512.943	5030
513.015	2773
513.086	4676
513.158	4388
513.230	4713
513.301	7435
513.373	9109
513.444	4731
513.516	3511
513.588	3718
513.659	4489
513.731	5617
513.802	4601
513.874	14882
513.945	17817
514.016	5022
514.088	3447
514.159	4669
514.231	6174
514.302	8994
514.374	6442
514.445	4936
514.516	12368
514.588	7341
514.659	5179
514.730	10040
514.802	7560
514.873	3605
514.944	5663
515.016	5450
515.087	4980
515.158	8545
515.229	8640
515.301	3356
515.372	4783
515.443	3305
515.514	3100
515.585	2725
515.656	4449
515.728	3956
515.799	3290
515.870	4675
515.941	4109
516.012	4572
516.083	6916
516.154	6213
516.225	8527
516.296	7736
516.367	5493
516.438	6772
516.509	7719
516.580	13094
516.651	46451
516.722	115588
516.793	38690
516.864	11328
516.935	9910
517.006	11609
517.077	16994
517.148	45542
517.219	135298
517.289	147032
517.360	57891
517.431	17038
517.502	4639
517.573	6256
517.643	6561
517.714	6902
517.785	6795
517.856	6996
517.926	8546
517.997	9285
518.068	9051
518.138	14505
518.209	25547
518.280	110405
518.350	270944
518.421	64963
518.492	9906
518.562	7589
518.633	6070
518.703	3886
518.774	7809
518.845	6778
518.915	6309
518.986	6530
519.056	9105
519.127	17903
519.197	31227
519.268	63635
519.338	29139
519.408	8559
519.479	10762
519.549	6908
519.620	5749
519.690	3877
519.760	4328
519.831	4878
519.901	3845
519.971	4480
520.042	3953
520.112	4457
520.182	6369
520.253	7136
520.323	3682
520.393	6264
520.463	8699
520.534	4643
520.604	12599
520.674	6442
520.744	5049
520.814	13140
520.885	11892
520.955	28174
521.025	69289
521.095	17797
521.165	5184
521.235	3919
521.305	2900
521.375	4101
521.445	4172
521.515	6022
521.585	7851
521.655	4890
521.725	6421
521.795	5935
521.865	1491
521.935	8483
522.005	4051
522.075	2965
522.145	4175
522.215	3669
522.285	6712
522.355	10577
522.424	17752
522.494	12003
522.564	7451
522.634	21469
522.704	44446
522.774	11074
522.843	3337
522.913	3833
522.983	4735
523.053	3848
523.122	4424
523.192	7904
523.262	28115
523.331	17138
523.401	3757
523.471	2366
523.540	2898
523.610	1788
523.680	2390
523.749	2520
523.819	3715
523.888	3692
523.958	2075
524.027	3347
524.097	3874
524.166	3353
524.236	2259
524.305	4705
524.375	1736
524.444	2125
524.514	4845
524.583	2781
524.653	2949
524.722	4557
524.791	1631
524.861	3308
524.930	1393
524.999	2239
525.069	4074
525.138	4327
525.207	3624
525.277	3338
525.346	2581
525.415	3584
525.484	2101
525.554	2282
525.623	2530
525.692	2136
525.761	1884
525.830	2515
525.900	1933
525.969	3374
526.038	3450
526.107	1401
526.176	5272
526.245	3120
526.314	6682
526.383	5995
526.452	2380
526.522	11578
526.591	17196
526.660	17106
526.729	5877
526.797	10366
526.867	34862
526.935	118276
527.004	58473
527.073	15357
527.142	3266
527.211	2857
527.280	4144
527.349	3571
527.418	775
527.487	2860
527.555	673
527.624	1336
527.693	450
527.762	2578
527.831	929
527.899	2179
527.968	1346
528.037	1180
528.106	4615
528.174	7436
528.243	4949
528.312	10246
528.380	8784
528.449	2455
528.518	3699
528.586	-555
528.655	1890
528.723	942
528.792	971
528.861	755
528.929	-58
528.998	2070
529.066	758
529.135	1799
529.203	-356
529.272	141
529.340	1885
529.409	2807
529.477	624
529.545	1667
529.614	3964
529.682	2814
529.751	3353
529.819	5421
529.887	1534
529.956	654
530.024	1459
530.092	253
530.161	3621
530.229	3713
530.297	72
530.365	2837
530.434	562
530.502	255
530.570	841
530.638	-597
530.707	2012
530.775	3171
530.843	-518
530.911	1645
530.979	1553
531.047	780
531.115	1179
531.183	1330
531.252	1446
531.320	2037
531.388	180
531.456	1561
531.524	576
531.592	2107
531.660	3025
531.728	522
531.796	435
531.864	1608
531.932	1105
532.000	1773
532.067	774
532.135	1603
532.203	3361
532.271	2304
532.339	8109
532.407	19411
532.475	6280
532.542	4076
532.610	3756
532.678	9085
532.746	48710
532.814	76924
532.881	12258
532.949	2549
533.017	1687
533.084	1791
533.152	1544
533.220	2044
533.287	1310
533.355	1627
533.423	1455
533.490	878
533.558	862
533.625	2102
533.693	1782
533.761	1984
533.828	2578
533.896	1412
533.963	8012
534.031	8783
534.098	10347
534.166	2155
534.233	746
534.300	2472
534.368	2389
534.435	1667
534.503	1893
534.570	2367
534.637	663
534.705	1751
534.772	1195
534.840	151
534.907	2395
534.974	2566
535.041	2109
535.109	2537
535.176	440
535.243	2018
535.310	2130
535.378	876
535.445	646
535.512	1383
535.579	1595
535.646	1283
535.714	1265
535.781	2865
535.848	2336
535.915	2891
535.982	2503
536.049	3210
536.116	2842
536.183	1946
536.250	2764
536.317	1428
536.384	3886
536.451	5869
536.518	4534
536.585	2264
536.652	5854
536.719	8407
536.786	3187
536.853	3638
536.920	7284
536.987	12155
537.053	11637
537.120	51101
537.187	25382
537.254	2038
537.321	965
537.388	2950
537.454	568
537.521	1190
537.588	255
537.654	3705
537.721	2626
537.788	2956
537.855	1056
537.921	1771
537.988	1366
538.055	3030
538.121	999
538.188	2779
538.254	5133
538.321	12726
538.388	4425
538.454	2568
538.521	2079
538.587	1697
538.654	695
538.720	1565
538.787	1218
538.853	1786
538.920	3846
538.986	3835
539.053	1555
539.119	2955
539.185	2260
539.252	4357
539.318	5513
539.385	4387
539.451	2502
539.517	3684
539.583	5372
539.650	16661
539.716	29599
539.782	4695
539.849	1396
539.915	2823
539.981	2601
540.047	3962
540.114	3027
540.180	4552
540.246	1365
540.312	5439
540.378	11727
540.444	10751
540.510	16375
540.576	33343
540.643	5215
540.709	1464
540.775	1964
540.841	2621
540.907	4583
540.973	6917
541.039	6399
541.105	5815
541.171	1953
541.237	1141
541.303	3317
541.369	4926
541.435	5756
541.500	10740
541.566	2916
541.632	1993
541.698	1391
541.764	2608
541.830	1603
541.896	1740
541.961	2370
542.027	1576
542.093	1898
542.159	2855
542.224	1701
542.290	6726
542.356	10461
542.421	10723
542.487	4246
542.553	2782
542.618	3746
542.684	2792
542.750	2048
542.815	4315
542.881	10029
542.947	35227
543.012	15378
543.078	1595
543.143	635
543.209	2246
543.274	2332
543.340	4575
543.405	13012
543.471	14651
543.536	2526
543.602	2367
543.667	395
543.732	3070
543.798	1040
543.863	3050
543.928	1408
543.994	2029
544.059	1983
544.124	2220
544.190	1738
544.255	2935
544.320	2623
544.386	2003
544.451	4175
544.516	4984
544.581	5990
544.646	24042
544.712	24901
544.777	5072
544.842	3444
544.907	3835
544.972	3517
545.037	3073
545.102	3888
545.168	2574
545.233	3385
545.298	4669
545.363	4060
545.428	6105
545.493	14859
545.558	24626
545.623	6221
545.688	3696
545.753	2517
545.818	2727
545.883	3240
545.947	2891
546.012	3699
546.077	3429
546.142	3253
546.207	3696
546.272	5208
546.337	4740
546.401	4071
546.466	2939
546.531	2411
546.596	4331
546.661	2630
546.725	3899
546.790	1532
546.855	3078
546.919	1520
546.984	3138
547.049	3040
547.113	4381
547.178	1911
547.243	4218
547.307	4076
547.372	4562
547.436	4578
547.501	2349
547.565	2916
547.630	5151
547.695	4279
547.759	5919
547.823	2563
547.888	2607
547.952	1593
548.017	3524
548.081	3899
548.146	5772
548.210	3887
548.274	2554
548.339	1945
548.403	2922
548.468	1342
548.532	2649
548.596	1929
548.660	1350
548.725	3829
548.789	3407
548.853	4676
548.917	4041
548.982	6018
549.046	5037
549.110	2062
549.174	2987
549.238	1934
549.303	1380
549.367	2422
549.431	2905
549.495	2224
549.559	1931
549.623	3003
549.687	3895
549.751	6437
549.815	2781
549.879	2884
549.943	2308
550.007	3275
550.071	3582
550.135	5202
550.199	3420
550.263	2952
550.327	4626
550.391	6037
550.455	3339
550.519	2995
550.582	4043
550.646	5587
550.710	4980
550.774	2393
550.838	2917
550.901	2592
550.965	2995
551.029	2246
551.093	5673
551.156	6720
551.220	16570
551.284	11313
551.347	7381
551.411	22714
551.475	17884
551.538	3760
551.602	3299
551.666	1942
551.729	1200
551.793	1441
551.856	3105
551.920	2841
551.983	3374
552.047	944
552.110	1571
552.174	1582
552.237	1948
552.301	2566
552.364	2394
552.428	2731
552.491	2261
552.554	2429
552.618	3052
552.681	2820
552.745	2757
552.808	7476
552.871	8615
552.934	3493
552.998	2103
553.061	3312
553.124	3570
553.187	1832
553.251	3493
553.314	3175
553.377	3863
553.440	8475
553.503	29662
553.567	34850
553.630	5200
553.693	2399
553.756	3108
553.819	2091
553.882	3147
553.945	2579
554.008	2323
554.071	1413
554.134	2710
554.197	2318
554.260	2251
554.323	3208
554.386	3243
554.449	2011
554.512	2741
554.575	1849
554.638	3467
554.701	1691
554.764	2461
554.827	2440
554.889	1411
554.952	1229
555.015	1753
555.078	1201
555.141	2684
555.203	1311
555.266	2254
555.329	2121
555.391	1712
555.454	2158
555.517	2643
555.580	1357
555.642	2358
555.705	1420
555.768	2183
555.830	2394
555.893	2511
555.955	2708
556.018	2230
556.080	1218
556.143	1602
556.206	2519
556.268	3062
556.330	1972
556.393	3005
556.455	2968
556.518	5953
556.580	4066
556.643	2747
556.705	1905
556.767	1499
556.830	3716
556.892	4248
556.955	6149
557.017	3710
557.079	2165
557.142	2748
557.204	3742
557.266	10577
557.328	5819
557.391	2270
557.453	1767
557.515	2244
557.577	3897
557.639	4540
557.701	2156
557.764	1616
557.826	2418
557.888	2559
557.950	863
558.012	2247
558.074	1806
558.136	2921
558.198	3791
558.260	3195
558.322	2080
558.384	2852
558.446	2297
558.508	2973
558.570	4204
558.632	13578
558.694	12793
558.756	4708
558.818	6456
558.880	12539
558.942	3663
559.003	4071
559.065	2286
559.127	2135
559.189	1586
559.251	1861
559.312	2483
559.374	3849
559.436	7877
559.498	4886
559.559	1344
559.621	2051
559.683	3691
559.744	5855
559.806	8982
559.868	7997
559.929	2818
559.991	4197
560.052	3186
560.114	5252
560.176	3898
560.237	5570
560.299	6295
560.360	3283
560.422	3203
560.483	3608
560.545	3181
560.606	3477
560.667	2486
560.729	2529
560.790	2688
560.852	3165
560.913	3269
560.974	2566
561.036	2395
561.097	3139
561.158	3295
561.220	3164
561.281	1481
561.342	4005
561.403	5993
561.465	7106
561.526	20843
561.587	19256
561.648	3635
561.709	3881
561.771	3581
561.832	3029
561.893	2734
561.954	3372
562.015	2230
562.076	3018
562.137	2951
562.198	3397
562.259	3484
562.320	3090
562.381	4132
562.442	6584
562.503	3325
562.564	4187
562.625	2610
562.686	3018
562.747	2911
562.808	3371
562.869	4062
562.930	5175
562.991	3825
563.051	3674
563.112	4353
563.173	4516
563.234	2731
563.294	4205
563.355	3243
563.416	3306
563.477	3609
563.537	3907
563.598	4390
563.659	4457
563.720	3165
563.780	4730
563.841	4415
563.901	3877
563.962	3898
564.023	4689
564.083	3380
564.144	3653
564.204	3228
564.265	3816
564.325	6182
564.386	12118
564.446	7526
564.507	4129
564.567	3381
564.628	3372
564.688	3035
564.749	3637
564.809	4634
564.869	4994
564.930	3542
564.990	4638
565.050	3568
565.111	4104
565.171	3192
565.231	3990
565.292	4086
565.352	2854
565.412	4101
565.472	3119
565.532	3893
565.593	3582
565.653	2655
565.713	3428
565.773	3600
565.833	5139
565.893	6127
565.953	3750
566.013	3068
566.074	4286
566.134	7844
566.194	10561
566.254	8073
566.314	5452
566.374	3496
566.434	4476
566.494	3404
566.554	3724
566.614	3766
566.673	4300
566.733	4315
566.793	4531
566.853	3585
566.913	5131
566.973	4492
567.033	6117
567.092	3868
567.152	4744
567.212	3661
567.272	4104
567.331	4107
567.391	4707
567.451	4336
567.511	8393
567.570	5795
567.630	3936
567.690	3747
567.749	4189
567.809	3902
567.868	5002
567.928	4696
567.988	5738
568.047	4559
568.107	4889
568.166	6011
568.226	8380
568.285	8951
568.345	7964
568.404	6367
568.464	6362
568.523	5308
568.582	6970
568.642	6001
568.701	8200
568.761	10136
568.820	13098
568.879	13512
568.939	12352
568.998	8656
569.057	6600
569.116	5674
569.176	5221
569.235	3851
569.294	4132
569.353	3979
569.413	4347
569.472	3939
569.531	4215
569.590	2984
569.649	5021
569.708	3319
569.767	5739
569.827	4706
569.886	4415
569.945	3907
570.004	3862
570.063	3828
570.122	5251
570.181	3842
570.240	5928
570.299	4578
570.358	5216
570.417	3108
570.475	4245
570.534	4101
570.593	4990
570.652	4368
570.711	4922
570.770	4425
570.829	4666
570.887	3913
570.946	5370
571.005	2848
571.064	4321
571.122	3979
571.181	5266
571.240	3646
571.299	3456
571.357	4653
571.416	4666
571.475	4758
571.533	4882
571.592	3415
571.650	4828
571.709	3578
571.768	3709
571.826	2783
571.885	4014
571.943	3229
572.002	3311
572.060	4101
572.119	3634
572.177	3557
572.236	2941
572.294	3528
572.352	4186
572.411	2889
572.469	4204
572.528	3561
572.586	3949
572.644	3395
572.703	4892
572.761	3582
572.819	3683
572.877	2451
572.936	3300
572.994	2346
573.052	3384
573.110	3501
573.169	3176
573.227	3060
573.285	3174
573.343	2459
573.401	3041
573.459	3864
573.517	3148
573.576	2690
573.634	3889
573.692	3042
573.750	3662
573.808	2097
573.866	4506
573.924	4907
573.982	5621
574.040	2451
574.098	3620
574.155	3861
574.213	3812
574.271	2917
574.329	2719
574.387	2375
574.445	2594
574.503	2502
574.560	3009
574.618	3021
574.676	2607
574.734	2536
574.792	3453
574.849	2803
574.907	2663
574.965	3208
575.022	2650
575.080	1630
575.138	3852
575.195	2211
575.253	3940
575.311	3863
575.368	2501
575.426	2594
575.483	3829
575.541	3117
575.598	3120
575.656	2557
575.713	2711
575.771	2543
575.828	3672
575.886	2717
575.943	3409
576.001	2883
576.058	3600
576.115	3582
576.173	4653
576.230	4591
576.287	5681
576.345	4069
576.402	3280
576.459	3505
576.517	3452
576.574	5101
576.631	4318
576.688	2792
576.746	4356
576.803	3450
576.860	3066
576.917	2664
576.974	3656
577.031	3049
577.089	3755
577.146	3594
577.203	4196
577.260	3125
577.317	4341
577.374	4705
577.431	4524
577.488	3117
577.545	4001
577.602	3174
577.659	4079
577.716	3194
577.773	4381
577.830	2921
577.886	4311
577.943	3776
578.000	3887
578.057	2508
578.114	4234
578.171	5148
578.227	6688
578.284	5535
578.341	5069
578.398	3902
578.454	5427
578.511	5014
578.568	5331
578.625	4657
578.681	3411
578.738	2886
578.794	3784
578.851	2704
578.908	4166
578.964	2895
579.021	5329
579.077	3186
579.134	3099
579.190	3257
579.247	5020
579.303	2615
579.360	3270
579.416	3169
579.473	3720
579.529	2915
579.586	3657
579.642	4092
579.698	3676
579.755	3341
579.811	3703
579.867	2896
579.924	3455
579.980	4583
580.036	5859
580.093	7269
580.149	11810
580.205	10935
580.261	7863
580.317	5530
580.374	6342
580.430	6080
580.486	5406
580.542	4144
580.598	4105
580.619	4298
580.654	4631
580.692	4328
580.710	4173
580.765	3822
580.767	3808
580.823	4524
580.838	4322
580.879	3760
580.911	3637
580.935	3550
580.984	3028
580.991	2953
581.047	4333
581.057	4408
581.103	4719
581.130	5075
581.159	5439
581.203	5506
581.215	5517
581.270	5564
581.276	5512
581.326	4917
581.349	5154
581.382	5504
581.422	4745
581.438	4425
581.494	4696
581.494	4691
581.550	3666
581.567	4158
581.606	5256
581.640	4763
581.661	4417
581.713	5477
581.717	5561
581.773	4343
581.786	4538
581.829	5168
581.859	4857
581.885	4627
581.932	4564
581.940	4528
581.996	5136
582.004	5009
582.052	4316
582.077	4355
582.107	4388
582.150	5369
582.163	5657
582.219	4676
582.223	4747
582.274	5671
582.296	5721
582.330	5761
582.368	5642
582.386	5541
582.441	4471
582.441	4466
582.497	5663
582.514	5844
582.552	6402
582.587	6479
582.608	6389
582.659	5711
582.663	5649
582.719	5749
582.732	5568
582.774	5267
582.805	5873
582.830	6223
582.877	5463
582.885	5367
582.941	6270
582.950	6190
582.996	5710
583.023	6558
583.052	7767
583.095	8324
583.107	8472
583.162	10749
583.168	10788
583.218	10433
583.240	9655
583.273	8352
583.313	7822
583.328	7794
583.384	8497
583.385	8482
583.439	7457
583.458	7217
583.494	6950
583.531	6459
583.549	6332
583.603	7549
583.605	7580
583.660	6887
583.676	6882
583.715	6967
583.748	7373
583.770	7666
583.820	7447
583.825	7426
583.881	7112
583.893	7259
583.936	7955
583.965	7836
583.991	7530
584.038	7699
584.046	7766
584.101	7112
584.110	7243
584.156	7936
584.183	7715
584.211	7505
584.255	7656
584.266	7651
584.321	7339
584.328	7320
584.376	7648
584.400	7763
584.431	7677
584.472	7556
584.486	7594
584.541	8014
584.545	8028
584.596	8120
584.617	7775
584.651	7837
584.689	9062
584.706	9316
584.761	8708
584.762	8695
584.816	8862
584.834	8879
584.871	8754
584.906	9340
584.926	9713
584.978	8450
584.980	8435
585.035	10003
585.051	10155
585.090	10267
585.123	10418
585.145	10509
585.195	10635
585.200	10712
585.254	11474
585.267	11698
585.309	12884
585.340	14007
585.364	14199
585.412	12347
585.419	12041
585.473	11914
585.484	11426
585.528	10893
585.556	11681
585.583	12329
585.628	12915
585.637	13188
585.692	15104
585.700	15225
585.747	15446
585.772	15486
585.801	14342
585.845	11860
585.856	11637
585.910	12081
585.917	12021
585.965	12101
585.989	12622
586.019	13214
586.061	13064
586.074	13193
586.128	14118
586.133	14118
586.183	14310
586.205	14848
586.237	15658
586.277	15590
586.292	15335
586.346	14475
586.349	14397
586.401	14429
586.421	14952
586.455	15998
586.493	16673
586.509	18228
586.564	23820
586.565	23966
586.618	35527
586.637	36593
586.672	28457
586.709	21098
586.727	19161
586.781	16232
586.781	16275
586.835	16511
586.853	16655
586.889	16773
586.925	16082
586.944	15941
586.996	17394
586.998	17485
587.052	17559
587.068	17867
587.106	18413
587.140	18012
587.161	18127
587.212	19518
587.215	19608
587.269	19816
587.284	19862
587.323	20345
587.356	20298
587.377	20546
587.427	21561
587.431	21657
587.485	21832
587.499	21912
587.539	22758
587.571	22847
587.593	23034
587.643	24389
587.648	24569
587.702	24846
587.715	25143
587.755	26911
587.786	27347
587.810	27522
587.858	28252
587.864	28609
587.917	31380
587.930	32005
587.971	34400
588.001	35775
588.025	36906
588.073	39108
588.079	39692
588.133	43865
588.145	44822
588.187	49223
588.217	51751
588.241	55071
588.288	61810
588.295	63066
588.348	72355
588.360	74175
588.402	83593
588.431	90037
588.456	96536
588.503	108524
588.510	111178
588.564	131168
588.575	135387
588.617	159182
588.646	175642
588.671	198529
588.718	245436
588.725	261302
588.778	389622
588.789	418094
588.832	696469
588.861	897094
588.886	1194602
588.932	1776532
588.939	1809734
588.993	1926693
589.004	1922576
589.047	1346946
589.075	975416
589.100	761810
589.147	388160
589.154	375044
589.207	272790
589.218	251660
589.261	236602
589.290	226922
589.314	240862
589.361	271445
589.368	289653
589.421	442771
589.433	477345
589.475	844119
589.504	1112920
589.528	1364253
589.576	1812064
589.582	1762742
589.635	1160114
589.647	1032695
589.689	596563
589.718	300277
589.742	248852
589.790	147372
589.795	144439
589.849	113830
589.861	106686
589.902	97978
589.932	89832
589.955	81293
590.004	63469
590.009	63074
590.062	56722
590.075	54928
590.115	51707
590.146	48913
590.168	47909
590.218	45249
590.222	45303
590.275	43998
590.289	43387
590.328	41912
590.360	40531
590.381	40192
590.431	39040
590.435	39130
590.488	37747
590.503	37339
590.541	36837
590.574	36180
590.594	36037
590.645	34912
590.647	35003
590.700	33816
590.716	33375
590.753	33801
590.787	33910
590.806	33362
590.859	31571
590.859	31699
590.912	31775
590.930	31781
590.965	31704
591.001	31227
591.018	31412
591.071	31802
591.072	31678
591.124	32219
591.143	32340
591.177	32931
591.214	33048
591.230	33422
591.283	34482
591.285	34380
591.336	34915
591.356	35004
591.389	34797
591.427	33961
591.442	33420
591.495	31051
591.498	30750
591.547	31425
591.569	31606
591.600	31572
591.640	31026
591.653	31186
591.706	31567
591.711	31459
591.759	32444
591.782	32835
591.811	34305
591.853	36004
591.864	35516
591.917	32273
591.924	31669
591.969	32298
591.995	32498
592.022	32473
592.066	32007
592.075	32596
592.127	35462
592.137	35850
592.180	38320
592.208	39623
592.233	37521
592.279	33091
592.285	33068
592.338	31739
592.350	31295
592.390	30988
592.421	30565
592.443	31250
592.491	32301
592.495	32326
592.548	30824
592.562	30286
592.600	30774
592.633	30961
592.653	30840
592.704	30030
592.705	30234
592.775	31793
592.846	31222
592.916	31493
592.987	33035
593.058	31774
593.128	29205
593.199	29103
593.270	28310
593.341	28626
593.411	29625
593.482	29312
593.553	28062
593.623	27571
593.694	28912
593.764	30097
593.835	27733
593.906	27133
593.976	27568
594.047	27641
594.117	33579
594.188	32058
594.258	27124
594.329	26910
594.399	26630
594.470	25582
594.540	26029
594.611	25399
594.681	26011
594.751	25679
594.822	27347
594.892	27982
594.963	28245
595.033	27729
595.103	27403
595.174	29471
595.244	40533
595.314	47848
595.384	27737
595.455	25824
595.525	27388
595.595	26405
595.665	26127
595.736	27001
595.806	26424
595.876	25810
595.946	25613
596.016	25511
596.087	25118
596.157	26330
596.227	26246
596.297	25843
596.367	26495
596.437	29464
596.507	36835
596.577	43315
596.647	28352
596.717	25067
596.787	25273
596.857	24806
596.927	24729
596.997	24116
597.067	24919
597.137	28531
597.207	27926
597.277	26094
597.347	26076
597.417	26324
597.487	27207
597.557	27220
597.626	26707
597.696	28716
597.766	32998
597.836	40658
597.906	28868
597.975	25159
598.045	24169
598.115	24879
598.185	24381
598.254	25199
598.324	26325
598.394	26089
598.464	26211
598.533	25082
598.603	24240
598.672	25391
598.742	23055
598.812	23800
598.881	23690
598.951	22857
599.020	22874
599.090	21953
599.159	24168
599.229	22322
599.299	21881
599.368	22388
599.437	22127
599.507	21808
599.576	23960
599.646	25386
599.715	26007
599.785	23007
599.854	24125
599.924	25983
599.993	24791
600.062	22472
600.132	21628
600.201	23027
600.270	24562
600.340	23641
600.409	21294
600.478	22411
600.547	21153
600.617	22094
600.686	23120
600.755	22865
600.824	24249
600.894	22415
600.963	21942
601.032	20472
601.101	20971
601.170	20600
601.239	22524
601.308	23618
601.378	23252
601.447	20947
601.516	20591
601.585	21898
601.654	24722
601.723	22137
601.792	20661
601.861	22614
601.930	27950
601.999	25100
602.068	22707
602.137	24265
602.206	23898
602.275	22081
602.343	25680
602.412	25924
602.481	20750
602.550	19072
602.619	19525
602.688	20679
602.756	20079
602.825	19846
602.894	19145
602.963	19156
603.032	19744
603.100	17697
603.169	18630
603.238	19017
603.307	20040
603.375	18945
603.444	18776
603.513	18642
603.581	18752
603.650	19128
603.719	18813
603.787	17447
603.856	18306
603.924	18721
603.993	19442
604.061	17285
604.130	18666
604.198	18610
604.267	19076
604.335	17498
604.404	18295
604.472	17272
604.541	18099
604.609	17505
604.678	17839
604.746	18210
604.815	17456
604.883	18022
604.951	18232
605.020	17311
605.088	18338
605.156	18223
605.225	17612
605.293	17312
605.361	17607
605.429	17269
605.498	18176
605.566	18758
605.634	18710
605.702	18827
605.771	17144
605.839	18613
605.907	17326
605.975	16851
606.043	18372
606.111	18009
606.180	19612
606.248	22792
606.316	24316
606.384	19962
606.452	26483
606.520	29656
606.588	20791
606.656	16412
606.724	16624
606.792	16317
606.860	16183
606.928	15454
606.996	16659
607.064	14980
607.132	15918
607.200	15960
607.267	16431
607.335	15048
607.403	15902
607.471	15924
607.539	16006
607.607	16008
607.674	15446
607.742	16785
607.810	18544
607.878	16023
607.946	15246
608.013	15363
608.081	16118
608.149	16080
608.216	15945
608.284	16529
608.352	15584
608.419	16771
608.487	25737
608.555	19094
608.622	15787
608.690	14946
608.757	16142
608.825	16489
608.893	17075
608.960	18600
609.028	22671
609.095	27431
609.163	17585
609.230	16782
609.298	18235
609.365	15586
609.432	17388
609.500	18244
609.567	17486
609.635	18703
609.702	18855
609.769	18676
609.837	21027
609.904	19883
609.971	19119
610.039	24051
610.106	31457
610.173	49734
610.241	104323
610.308	191317
610.375	137610
610.442	38233
610.509	22183
610.577	18989
610.644	17876
610.711	18392
610.778	17415
610.845	17358
610.912	17819
610.980	20928
611.047	28379
611.114	21874
611.181	15838
611.248	14513
611.315	16939
611.382	15295
611.449	15422
611.516	15819
611.583	16057
611.650	15134
611.717	15449
611.784	15391
611.851	16877
611.918	17491
611.984	17005
612.051	20124
612.118	26758
612.185	46840
612.252	34949
612.319	17185
612.386	16072
612.452	16076
612.519	18332
612.586	26446
612.653	19455
612.719	15475
612.786	15594
612.853	14478
612.919	14598
612.986	14975
613.053	14347
613.120	13409
613.186	13295
613.253	16899
613.319	15118
613.386	14469
613.453	15841
613.519	18816
613.586	26596
613.652	39922
613.719	30422
613.785	26288
613.852	16183
613.918	15076
613.985	19674
614.051	27977
614.118	59710
614.184	57984
614.250	18209
614.317	14622
614.383	14250
614.449	13368
614.516	13700
614.582	15248
614.648	15349
614.715	12953
614.781	14734
614.847	14747
614.914	16799
614.980	16653
615.046	14766
615.112	13736
615.179	14623
615.245	15055
615.311	16372
615.377	20733
615.443	21689
615.509	16629
615.575	16807
615.642	15253
615.708	17177
615.774	18699
615.840	19735
615.906	21286
615.972	25031
616.038	35247
616.104	48088
616.170	67854
616.236	59129
616.302	25405
616.368	20111
616.434	18708
616.500	20182
616.565	19708
616.631	19591
616.697	18286
616.763	19791
616.829	21075
616.895	24477
616.961	24994
617.026	20873
617.092	17433
617.158	17145
617.224	17081
617.289	17525
617.355	18756
617.421	19281
617.487	19739
617.552	17797
617.618	17012
617.684	17309
617.749	19940
617.815	16752
617.880	16628
617.946	18570
618.012	18152
618.077	18046
618.143	18013
618.208	18630
618.274	19149
618.339	19874
618.405	18550
618.470	19293
618.536	19853
618.601	23430
618.667	21655
618.732	20653
618.798	20262
618.863	20295
618.928	20011
618.994	23842
619.059	26658
619.124	38007
619.190	27600
619.255	20491
619.320	20844
619.386	20747
619.451	19113
619.516	19615
619.581	19690
619.647	19553
619.712	19734
619.777	19774
619.842	20375
619.907	21329
619.972	20418
620.038	21497
620.103	19581
620.168	19031
620.233	19053
620.298	19141
620.363	19735
620.428	19865
620.493	20140
620.558	18537
620.623	18541
620.688	19186
620.753	18762
620.818	18652
620.883	18951
620.948	19056
621.013	18522
621.078	20389
621.143	18852
621.207	22529
621.272	22221
621.337	23760
621.402	24143
621.467	30857
621.532	32199
621.596	27384
621.661	25023
621.726	24155
621.791	23487
621.855	25859
621.920	27038
621.985	26199
622.049	30537
622.114	28885
622.179	25760
622.243	28366
622.308	25712
622.373	27973
622.437	25903
622.502	25877
622.566	26457
622.631	25030
622.695	26007
622.760	26655
622.824	25819
622.889	26891
622.953	30158
623.018	45212
623.082	41417
623.147	26427
623.211	26304
623.276	26613
623.340	24252
623.404	24441
623.469	23873
623.533	23286
623.597	23712
623.662	24030
623.726	23166
623.790	23540
623.854	23748
623.919	24870
623.983	23405
624.047	24492
624.111	23439
624.176	23549
624.240	24500
624.304	26913
624.368	23416
624.432	23708
624.496	24781
624.560	26866
624.625	29015
624.689	24511
624.753	22344
624.817	23218
624.881	21627
624.945	22757
625.009	22606
625.073	22968
625.137	25121
625.201	32139
625.265	31443
625.329	23703
625.393	25338
625.456	23241
625.520	23140
625.584	27717
625.648	31769
625.712	45559
625.776	99634
625.839	113213
625.903	47345
625.967	28057
626.031	43016
626.095	65635
626.158	27249
626.222	20902
626.286	20613
626.349	20688
626.413	19881
626.477	24668
626.540	20157
626.604	19814
626.668	19474
626.731	20783
626.795	21126
626.858	21781
626.922	20108
626.986	20006
627.049	18759
627.113	20034
627.176	19070
627.240	18661
627.303	18959
627.366	18480
627.430	19456
627.493	19451
627.557	20115
627.620	19915
627.684	18515
627.747	19958
627.810	17428
627.874	20390
627.937	17750
628.000	20996
628.064	19379
628.127	16945
628.190	18841
628.253	19480
628.317	18660
628.380	18475
628.443	17199
628.506	18537
628.569	18097
628.632	17611
628.696	17082
628.759	16657
628.822	16614
628.885	16667
628.948	16610
629.011	18244
629.074	16867
629.137	16728
629.200	16242
629.263	19284
629.326	16293
629.389	16361
629.452	15976
629.515	17764
629.578	16936
629.641	17994
629.704	18150
629.767	18767
629.830	17136
629.892	15868
629.955	16359
630.018	20249
630.081	19254
630.144	24483
630.207	18356
630.269	19852
630.332	19054
630.395	18183
630.458	15583
630.520	14599
630.583	15771
630.646	15660
630.708	14494
630.771	15010
630.834	15923
630.896	14798
630.959	14238
631.021	14089
631.084	14991
631.146	16560
631.209	18301
631.272	14945
631.334	15387
631.397	13758
631.459	14561
631.522	14947
631.584	14284
631.646	15207
631.709	16124
631.771	19966
631.834	15988
631.896	15006
631.958	12891
632.021	14518
632.083	13204
632.145	14782
632.208	13976
632.270	15337
632.332	13043
632.395	12289
632.457	14724
632.519	13825
632.581	14389
632.643	11989
632.706	13860
632.768	12460
632.830	13031
632.892	12597
632.954	12993
633.016	14121
633.078	13168
633.141	12137
633.203	12204
633.265	13643
633.327	13100
633.389	12747
633.451	15531
633.513	18474
633.575	17463
633.637	16402
633.698	15054
633.760	13548
633.822	12740
633.884	14385
633.946	13253
634.008	12384
634.070	13016
634.132	15758
634.193	13305
634.255	12924
634.317	11548
634.379	12925
634.441	12326
634.502	11445
634.564	12132
634.626	12328
634.687	12794
634.749	12444
634.811	12385
634.873	10455
634.934	11633
634.996	12452
635.057	11363
635.119	10218
635.181	11505
635.242	12604
635.304	9962
635.365	13229
635.427	11680
635.488	12502
635.550	9922
635.611	12493
635.673	9869
635.734	13425
635.796	11711
635.857	13374
635.918	10488
635.980	13009
636.041	10262
636.102	12251
636.164	10924
636.225	11806
636.286	9910
636.348	11596
636.409	11895
636.470	10702
636.531	11388
636.593	12478
636.654	12651
636.715	10909
636.776	10293
636.838	9717
636.899	11118
636.960	9996
637.021	9658
637.082	10824
637.143	10737
637.204	9026
637.265	9772
637.326	9901
637.387	9503
637.448	8348
637.509	9708
637.570	9731
637.631	9994
637.692	9001
637.753	8326
637.814	9329
637.875	9375
637.936	11246
637.997	8928
638.058	10420
638.119	11146
638.179	9283
638.240	9394
638.301	9926
638.362	9380
638.423	9093
638.483	10052
638.544	8775
638.605	11239
638.666	8713
638.726	10382
638.787	10089
638.848	8920
638.908	9163
638.969	9833
639.030	9262
639.090	8374
639.151	9524
639.211	10987
639.272	14255
639.332	22952
639.393	13332
639.453	8009
639.514	8936
639.574	8943
639.635	7751
639.695	9634
639.756	8624
639.816	10467
639.877	12530
639.937	20229
639.997	26452
640.058	10742
640.118	8753
640.178	9218
640.239	8166
640.299	7885
640.359	8033
640.420	8490
640.480	8784
640.540	7970
640.600	8236
640.661	9027
640.721	9448
640.781	12465
640.841	9215
640.901	8954
640.961	9503
641.021	10155
641.082	9318
641.142	15925
641.202	11731
641.262	6566
641.322	8504
641.382	7541
641.442	8039
641.502	8421
641.562	7881
641.622	7123
641.682	8340
641.742	8565
641.802	8414
641.861	9720
641.921	8943
641.981	11104
642.041	11081
642.101	13954
642.161	8439
642.221	7597
642.280	7687
642.340	6985
642.400	7415
642.460	8525
642.519	7617
642.579	8239
642.639	8770
642.698	5321
642.758	9588
642.818	7684
642.877	6751
642.937	8407
642.997	10788
643.056	15537
643.116	8574
643.175	9409
643.235	7677
643.294	7151
643.354	7564
643.414	7658
643.473	8426
643.532	7517
643.592	7624
643.651	8687
643.711	11147
643.770	14161
643.830	22045
643.889	42341
643.948	14280
644.008	7801
644.067	6576
644.126	6169
644.186	6979
644.245	7170
644.304	5813
644.363	8599
644.423	6202
644.482	6090
644.541	7701
644.600	4870
644.659	7408
644.719	5706
644.778	7312
644.837	7468
644.896	9569
644.955	12256
645.014	10007
645.073	9144
645.132	7601
645.191	7407
645.250	7272
645.309	8127
645.368	6314
645.427	7804
645.486	5839
645.545	7677
645.604	6437
645.663	6589
645.722	6193
645.781	6976
645.840	6115
645.898	6595
645.957	7785
646.016	6074
646.075	8669
646.134	10571
646.192	21024
646.251	29837
646.310	8218
646.369	6068
646.427	6628
646.486	5227
646.545	6943
646.603	5987
646.662	5644
646.721	6625
646.779	6193
646.838	4654
646.896	7460
646.955	4831
647.014	6989
647.072	6068
647.131	9271
647.189	5809
647.248	5032
647.306	6290
647.365	6857
647.423	4463
647.481	7453
647.540	4235
647.598	6448
647.657	5413
647.715	6164
647.773	4614
647.832	6932
647.890	5442
647.948	5610
648.007	7147
648.065	5025
648.123	6335
648.181	7872
648.240	7667
648.298	7622
648.356	6293
648.414	7003
648.472	6209
648.531	7247
648.589	6004
648.647	5651
648.705	5774
648.763	6058
648.821	5759
648.879	5766
648.937	6371
648.995	5790
649.053	5709
649.111	6708
649.169	7275
649.227	8209
649.285	10780
649.343	19690
649.401	17738
649.459	29424
649.516	21103
649.574	12114
649.632	25420
649.690	31505
649.748	13780
649.806	11963
649.863	19038
649.921	10025
649.979	5934
650.037	6733
650.094	4279
650.152	5747
650.210	5634
650.268	6438
650.325	5836
650.383	6292
650.440	4550
650.498	6233
650.556	4371
650.613	4888
650.671	5002
650.728	4819
650.786	5180
650.843	5639
650.901	3927
650.958	5609
651.016	5019
651.073	5712
651.131	4434
651.188	4426
651.246	5058
651.303	4688
651.360	5419
651.418	4472
651.475	5320
651.532	3926
651.590	4708
651.647	4529
651.704	5085
651.762	5300
651.819	4486
651.876	4895
651.933	4258
651.990	5911
652.048	3181
652.105	5082
652.162	4495
652.219	4342
652.276	4731
652.333	5120
652.390	3592
652.448	5120
652.505	5267
652.562	4785
652.619	5724
652.676	9415
652.733	9705
652.790	5466
652.847	3055
652.904	5416
652.961	3718
653.017	3991
653.074	5130
653.131	4669
653.188	3517
653.245	4778
653.302	4587
653.359	4547
653.415	4981
653.472	3910
653.529	4948
653.586	4310
653.642	4301
653.699	4842
653.756	3926
653.813	4706
653.869	4359
653.926	3559
653.983	3785
654.039	4693
654.096	3965
654.152	5258
654.209	3583
654.266	5391
654.322	4189
654.379	5814
654.435	6615
654.492	5475
654.548	8589
654.605	13165
654.661	6752
654.717	4274
654.774	5872
654.830	5047
654.887	4252
654.943	5179
655.000	5117
655.056	4782
655.112	5146
655.168	4756
655.225	4990
655.281	5455
655.337	6867
655.394	10642
655.450	7737
655.506	8423
655.562	10536
655.618	10002
655.675	3813
655.731	4055
655.787	4254
655.843	5579
655.899	3126
655.955	5592
656.011	4242
656.067	4093
656.123	4301
656.179	3866
656.235	5690
656.291	3835
656.347	5522
656.403	3984
656.459	4993
656.515	4616
656.571	4738
656.627	4807
656.683	4565
656.739	5183
656.795	4725
656.850	5146
656.906	6807
656.962	5608
657.018	4097
657.074	5251
657.129	3844
657.185	5223
657.241	3670
657.297	3612
657.352	4512
657.408	3545
657.464	5580
657.519	4349
657.575	3743
657.630	4493
657.686	5137
657.742	3479
657.797	4125
657.853	3997
657.908	5024
657.964	3440
658.019	4735
658.075	4150
658.130	4831
658.186	3124
658.241	3646
658.297	3891
658.352	4253
658.407	4635
658.463	4094
658.518	4853
658.573	4536
658.629	3052
658.684	3663
658.739	4744
658.795	3673
658.850	4426
658.905	3829
658.960	4953
659.016	3469
659.071	4075
659.126	6104
659.181	5586
659.236	8669
659.291	10465
659.346	6234
659.401	6348
659.457	6403
659.512	7083
659.567	6748
659.622	4548
659.677	3532
659.732	4277
659.787	3838
659.842	5067
659.897	6241
659.952	5023
660.007	4388
660.061	4652
660.116	4372
660.171	2997
660.226	3458
660.281	5455
660.336	3846
660.391	4256
660.445	3725
660.500	4258
660.555	4923
660.610	3560
660.664	4817
660.719	3266
660.774	4385
660.828	4582
660.883	4360
660.938	4474
660.992	3007
661.047	4426
661.101	3613
661.156	5204
661.211	3778
661.265	4286
661.320	4012
661.374	3540
661.429	3243
661.483	4014
661.538	4000
661.592	3497
661.647	4083
661.701	4385
661.755	3956
661.810	4328
661.864	3626
661.919	3956
661.973	4700
662.027	4626
662.081	3257
662.136	4270
662.190	4524
662.244	5089
662.299	4416
662.353	3456
662.407	4361
662.461	4518
662.515	4505
662.569	4131
662.624	4826
662.678	4559
662.732	3403
662.786	3957
662.840	4474
662.894	3954
662.948	3976
663.002	3850
663.056	4092
663.110	3541
663.164	3245
663.218	4229
663.272	4232
663.326	3635
663.380	4505
663.434	4623
663.488	3317
663.542	4071
663.595	4351
663.649	4125
663.703	4434
663.757	4169
663.811	2973
663.864	3357
663.918	3755
663.972	3728
664.026	3234
664.079	3370
664.133	3928
664.187	3551
664.240	3261
664.294	4038
664.348	4872
664.401	3774
664.455	3422
664.508	3587
664.562	4363
664.615	4060
664.669	2473
664.722	4661
664.776	3555
664.829	4331
664.883	3590
664.936	4029
664.990	3957
665.043	4866
665.097	4911
665.150	6238
665.203	4654
665.257	4948
665.310	3931
665.363	4156
665.417	5040
665.470	4583
665.523	3840
665.576	4752
665.630	4757
665.683	4504
665.736	3794
665.789	4755
665.842	4105
665.895	4835
665.949	4586
666.002	3709
666.055	4376
666.108	5511
666.161	4365
666.214	4641
666.267	5581
666.320	5380
666.373	4457
666.426	4506
666.479	4348
666.532	4653
666.585	4639
666.638	5635
666.691	5103
666.744	5721
666.796	5007
666.849	5047
666.902	4781
666.955	4891
667.008	3708
667.060	4180
667.113	3330
667.166	3397
667.219	3796
667.271	4054
667.324	4707
667.377	4410
667.430	4027
667.482	5632
667.535	4987
667.587	5088
667.640	5775
667.693	6349
667.745	8640
667.798	9758
667.850	4889
667.903	4633
667.955	4433
668.008	4069
668.060	5013
668.113	5119
668.165	5766
668.218	5226
668.270	4938
668.322	4286
668.375	4671
668.427	4549
668.479	3981
668.532	4867
668.584	5250
668.636	5574
668.689	5078
668.741	3874
668.793	5026
668.845	4403
668.898	4661
668.950	4590
669.002	4975
669.054	4892
669.106	4362
669.158	5547
669.211	4655
669.263	5101
669.315	5688
669.367	7128
669.419	5048
669.471	6937
669.523	6474
669.575	9056
669.627	7170
669.679	6151
669.731	4994
669.783	6370
669.835	7200
669.886	5865
669.938	6235
669.990	6278
670.042	5412
670.094	6131
670.146	7537
670.197	8318
670.249	10223
670.301	11559
670.353	16764
670.404	23850
670.456	34310
670.508	54626
670.560	90892
670.611	159644
670.663	281229
670.715	637651
670.766	932002
670.818	314168
670.869	65017
670.921	32259
670.972	22010
671.024	16666
671.075	13508
671.127	11209
671.178	9514
671.230	9087
671.281	7802
671.333	6349
671.384	7533
671.436	6693
671.487	7615
671.538	6766
671.590	6548
671.641	7347
671.692	6505
671.744	7619
671.795	6520
671.846	6024
671.897	6067
671.949	5090
672.000	5215
672.051	5664
672.102	5913
672.153	4864
672.204	4770
672.256	5074
672.307	5417
672.358	5246
672.409	5538
672.460	4734
672.511	5001
672.562	4886
672.613	5203
672.664	4644
672.715	5042
672.766	4471
672.817	4548
672.868	4218
672.919	4284
672.970	4332
673.021	4601
673.071	3649
673.122	4196
673.173	3492
673.224	4382
673.275	3322
673.326	3499
673.376	3954
673.427	3806
673.478	4205
673.528	4189
673.579	3928
673.630	3472
673.680	4255
673.731	4604
673.782	3392
673.832	4397
673.883	4955
673.934	3783
673.984	4025
674.035	3600
674.085	4041
674.136	4304
674.186	4748
674.237	5221
674.287	7972
674.338	4260
674.388	4291
674.438	4104
674.489	4119
674.539	4045
674.589	4379
674.640	4040
674.690	4187
674.740	3740
674.791	4887
674.841	4817
674.891	3889
674.942	3671
674.992	4138
675.042	3760
675.092	4287
675.142	3480
675.193	4327
675.243	3438
675.293	3825
675.343	4563
675.393	3965
675.443	3691
675.493	3359
675.543	3313
675.593	2916
675.643	3623
675.693	3976
675.743	4568
675.793	4589
675.843	3260
675.893	3304
675.943	3757
675.993	3602
676.043	3741
676.093	4324
676.142	2764
676.192	3303
676.242	3979
676.292	3726
676.341	4132
676.391	4120
676.441	2769
676.491	3510
676.540	2905
676.590	3157
676.640	3333
676.689	3678
676.739	2889
676.789	3218
676.838	2841
676.888	3541
676.937	3279
676.987	3141
677.037	2483
677.086	2337
677.136	3438
677.185	2978
677.235	2347
677.284	2531
677.333	2512
677.383	2123
677.432	1964
677.482	2290
677.531	2542
677.580	2473
677.630	2890
677.679	2549
677.728	2970
677.778	2616
677.827	2567
677.876	3262
677.925	2086
677.975	3229
678.024	3192
678.073	2599
678.122	3787
678.171	3465
678.220	2848
678.269	4036
678.319	3457
678.368	2984
678.417	3165
678.466	3625
678.515	3154
678.564	3161
678.613	3008
678.662	2898
678.711	2391
678.760	3392
678.809	2498
678.857	2761
678.906	2825
678.955	2673
679.004	3387
679.053	2349
679.102	2885
679.151	3320
679.199	2365
679.248	2794
679.297	2700
679.346	2886
679.394	3411
679.443	3469
679.492	3028
679.540	3369
679.589	2549
679.638	2983
679.686	2316
679.735	2607
679.784	2873
679.832	3557
679.881	2581
679.929	2983
679.978	2506
680.026	2384
680.075	2973
680.123	2971
680.172	2863
680.220	2372
680.268	2807
680.317	1446
680.365	2569
680.414	2064
680.462	2312
680.510	3782
680.559	1943
680.607	2497
680.655	1915
680.703	2538
680.752	1888
680.800	2593
680.848	2721
680.896	2510
680.945	2163
680.993	2667
681.041	1894
681.089	2094
681.137	1743
681.185	1908
681.233	1674
681.258	2081
681.281	2428
681.329	1815
681.377	2209
681.380	2272
681.425	2674
681.473	3230
681.502	3118
681.521	2966
681.569	3577
681.617	2894
681.624	2966
681.665	3146
681.713	2800
681.745	2961
681.761	2987
681.809	3331
681.857	3769
681.867	3664
681.904	3118
681.952	4603
681.989	4012
682.000	3795
682.048	3971
682.096	3692
682.111	3700
682.143	3596
682.191	3829
682.233	4414
682.239	4466
682.286	3651
682.334	3709
682.354	3895
682.382	4044
682.430	4806
682.476	4019
682.477	3970
682.525	3913
682.572	3769
682.598	4167
682.620	4447
682.667	4700
682.715	5010
682.720	4972
682.763	4282
682.810	3970
682.841	4367
682.857	4525
682.905	4367
682.952	4927
682.963	4908
683.000	4717
683.047	5092
683.085	5434
683.095	5473
683.142	4849
683.190	5439
683.206	5220
683.237	4813
683.284	5174
683.328	4721
683.332	4649
683.379	5088
683.426	5123
683.449	5091
683.473	5043
683.521	5677
683.568	5505
683.571	5546
683.615	5669
683.662	6308
683.693	6374
683.709	6390
683.757	6348
683.804	6574
683.814	6407
683.851	5661
683.898	6482
683.936	6960
683.945	7053
683.992	6233
684.039	6610
684.057	6823
684.086	7095
684.133	6971
684.179	6798
684.180	6771
684.227	7154
684.274	6771
684.300	6981
684.321	7071
684.368	6821
684.415	7822
684.422	7671
684.462	6568
684.509	6725
684.543	6454
684.556	6370
684.603	7018
684.649	6542
684.665	6972
684.696	7816
684.743	7183
684.786	7529
684.790	7543
684.837	7282
684.883	8351
684.908	8662
684.930	8920
684.977	9415
685.023	9027
685.029	9033
685.070	8609
685.117	7983
685.150	8473
685.164	8809
685.210	9317
685.257	9969
685.272	9971
685.303	9523
685.350	9248
685.393	9202
685.396	9211
685.443	9761
685.490	9579
685.514	9991
685.536	10195
685.583	9864
685.629	9363
685.636	9421
685.675	9802
685.722	10294
685.757	9904
685.768	9750
685.815	10126
685.861	10499
685.878	10487
685.908	10434
685.954	9665
686.000	10084
686.000	10086
686.047	10213
686.093	11392
686.121	11735
686.139	11735
686.185	10551
686.232	10722
686.242	10719
686.278	10693
686.324	10453
686.363	10244
686.370	10245
686.416	10157
686.463	10949
686.484	10778
686.509	10434
686.555	10524
686.601	10075
686.606	10096
686.647	10472
686.693	10664
686.727	10652
686.739	10606
686.785	10477
686.831	10820
686.848	10591
686.877	10147
686.923	10782
686.969	10385
686.969	10382
687.015	10703
687.061	10967
687.090	10860
687.107	10769
687.153	10745
687.199	11253
687.211	10958
687.245	10110
687.291	11107
687.332	10724
687.336	10722
687.382	11478
687.428	11890
687.453	11869
687.474	11485
687.520	11049
687.565	11135
687.574	10996
687.611	10964
687.657	11019
687.695	11563
687.702	11678
687.748	11460
687.794	11742
687.816	11791
687.839	11613
687.885	11311
687.931	11951
687.937	11777
687.976	11084
688.022	11533
688.058	11423
688.067	11418
688.113	11709
688.158	12107
688.179	12188
688.204	12177
688.249	11836
688.295	12691
688.300	12659
688.340	12799
688.386	13446
688.421	13107
688.431	12921
688.477	12542
688.522	12454
688.542	12510
688.567	12729
688.613	12631
688.658	12930
688.663	12924
688.703	12863
688.749	12815
688.784	12917
688.794	13018
688.839	12994
688.884	13476
688.905	13620
688.930	13532
688.975	13265
689.020	12468
689.026	12440
689.065	12963
689.110	13544
689.146	14085
689.155	14066
689.201	13119
689.246	13149
689.267	12728
689.291	12637
689.336	13108
689.381	13539
689.388	13498
689.426	13270
689.471	13677
689.509	12955
689.516	12814
689.561	13255
689.606	13557
689.630	13331
689.651	13163
689.696	13012
689.741	13056
689.750	13035
689.785	13337
689.830	13880
689.871	13776
689.875	13718
689.920	13419
689.965	13120
689.992	12840
690.010	12997
690.054	13321
690.099	13942
690.112	13965
690.144	13859
690.189	13867
690.233	14031
690.233	14050
690.278	14084
690.323	13897
690.354	13929
690.367	14085
690.412	14163
690.457	14831
690.474	14970
690.501	15392
690.546	15942
690.590	16344
690.595	16356
690.635	16448
690.680	16468
690.716	17013
690.724	17467
690.769	19684
690.813	21866
690.836	22834
690.857	25118
690.902	30224
690.946	35571
690.957	36917
690.991	49655
691.035	67883
691.077	84412
691.080	84633
691.124	81820
691.168	80051
691.198	78911
691.213	73203
691.257	57142
691.301	40518
691.318	34241
691.346	31444
691.390	26300
691.434	21555
691.439	20992
691.478	20287
691.522	19523
691.559	18891
691.567	18873
691.611	18242
691.655	17474
691.680	17197
691.699	17196
691.743	17665
691.787	17103
691.800	17036
691.831	17064
691.875	17036
691.919	17017
691.921	16994
691.964	17458
692.008	17387
692.041	17608
692.052	17640
692.096	17155
692.139	17422
692.162	17114
692.183	16955
692.227	17443
692.271	17170
692.282	17172
692.315	17112
692.359	16801
692.402	16807
692.403	16842
692.447	16838
692.490	17173
692.523	17329
692.534	17458
692.578	17605
692.622	17848
692.643	18299
692.666	18591
692.709	18061
692.753	18044
692.763	17943
692.797	17767
692.840	17516
692.884	17462
692.884	17499
692.928	17891
692.971	17752
693.004	17809
693.015	17896
693.059	18170
693.102	18700
693.124	18644
693.146	18791
693.189	19621
693.233	19913
693.245	20033
693.276	20823
693.320	21786
693.363	22878
693.365	22866
693.407	24457
693.450	26103
693.485	27447
693.493	28287
693.537	32796
693.580	36482
693.605	39039
693.624	44634
693.667	57300
693.710	70652
693.725	75207
693.753	99837
693.797	139799
693.840	179485
693.845	183494
693.883	179163
693.926	173685
693.966	169523
693.970	166022
694.013	126701
694.056	87514
694.086	60220
694.099	57249
694.142	47589
694.185	37880
694.206	33250
694.229	31878
694.272	29139
694.315	26348
694.326	25558
694.358	25029
694.401	24220
694.444	23520
694.446	23429
694.487	22865
694.530	22361
694.566	21712
694.573	21626
694.616	20896
694.659	20071
694.686	19401
694.702	19219
694.745	18858
694.787	18624
694.806	18417
694.830	18584
694.873	18466
694.916	18788
694.926	18763
694.959	18479
695.002	18064
695.044	17829
695.046	17775
695.087	18301
695.130	18684
695.166	19125
695.172	19164
695.215	18968
695.258	18804
695.286	18502
695.301	18420
695.343	18442
695.386	18215
695.406	18126
695.428	18198
695.471	18165
695.514	18187
695.526	18083
695.556	17968
695.599	18212
695.641	18209
695.646	18143
695.684	17679
695.726	17229
695.766	16641
695.769	16709
695.811	17384
695.854	18004
695.886	18460
695.896	18473
695.938	18067
695.981	17806
696.005	17675
696.023	17962
696.065	18286
696.108	18960
696.125	19129
696.150	18938
696.192	18379
696.235	17975
696.245	17793
696.277	17853
696.319	18040
696.361	18195
696.365	18150
696.404	18738
696.446	19665
696.485	20062
696.488	20086
696.530	19962
696.572	19819
696.604	19704
696.614	19655
696.656	19063
696.698	18601
696.724	18195
696.740	18093
696.783	17821
696.825	17415
696.844	17257
696.867	17514
696.909	17767
696.951	18083
696.964	18121
696.992	18011
697.034	17915
697.076	17642
697.083	17579
697.118	17843
697.160	17993
697.202	18150
697.203	18107
697.244	17757
697.286	17422
697.323	16938
697.327	16969
697.369	17082
697.411	16995
697.442	16943
697.453	17177
697.494	17947
697.536	18726
697.562	19159
697.578	19039
697.620	18583
697.661	18090
697.682	17773
697.703	18049
697.744	18680
697.786	19252
697.801	19382
697.828	19479
697.869	19557
697.911	19629
697.921	19599
697.952	19294
697.994	18894
698.035	18418
698.040	18311
698.077	18135
698.118	17905
698.160	17604
698.160	17554
698.201	17629
698.243	17545
698.279	17517
698.284	17595
698.325	17845
698.367	18128
698.399	18234
698.408	18209
698.449	17906
698.491	17609
698.518	17372
698.532	17467
698.573	17579
698.614	17732
698.638	17751
698.656	17890
698.697	18100
698.738	18348
698.757	18405
698.779	18492
698.820	18566
698.862	18633
698.877	18609
698.903	18861
698.944	19191
698.985	19511
698.996	19549
699.026	19237
699.067	18734
699.116	18085
699.235	18885
699.354	17771
699.474	17739
699.593	19158
699.713	19233
699.832	17944
699.951	19659
700.070	17745
700.190	17955
700.309	17257
700.428	17994
700.547	17091
700.667	17846
700.786	18310
700.905	17032
701.024	16905
701.143	16951
701.262	16129
701.381	17194
701.500	16669
701.619	18243
701.738	15888
701.857	16516
701.976	16514
702.095	16441
702.214	17047
702.333	17057
702.452	16485
702.571	15870
702.690	14928
702.809	16272
702.928	14742
703.047	16680
703.165	16218
703.284	15224
703.403	14756
703.522	16782
703.640	15859
703.759	17454
703.878	19959
703.997	15316
704.115	14778
704.234	15539
704.353	15568
704.471	14950
704.590	14971
704.708	15296
704.827	14437
704.946	15662
705.064	16138
705.183	15578
705.301	17591
705.420	26760
705.538	24538
705.656	20519
705.775	20530
705.893	31531
706.012	40394
706.130	23013
706.249	20491
706.367	20971
706.485	21597
706.604	20382
706.722	20018
706.840	21521
706.958	21236
707.077	20213
707.195	18478
707.313	18339
707.431	18027
707.549	18846
707.668	18310
707.786	19106
707.904	17323
708.022	18301
708.140	17574
708.258	18689
708.376	17330
708.494	18314
708.612	19785
708.730	27414
708.848	26868
708.966	23264
709.084	22740
709.202	23120
709.320	23123
709.438	22993
709.556	22904
709.674	22750
709.791	23309
709.909	23048
710.027	22056
710.145	21423
710.263	22677
710.380	21278
710.498	21551
710.616	21420
710.733	21104
710.851	21519
710.969	21121
711.086	20701
711.204	19642
711.322	20571
711.439	20040
711.557	20750
711.674	20340
711.792	20783
711.909	21537
712.027	23618
712.144	19196
712.262	20106
712.379	21390
712.497	31393
712.614	32046
712.732	26419
712.849	24861
712.966	24593
713.084	28736
713.201	27296
713.318	25190
713.436	25379
713.553	25609
713.670	24586
713.787	26327
713.905	26397
714.022	24929
714.139	23575
714.256	24451
714.373	24102
714.490	23605
714.608	24431
714.725	29523
714.842	28798
714.959	23012
715.076	22332
715.193	21932
715.310	21998
715.427	22150
715.544	20484
715.661	21737
715.778	21814
715.895	23655
716.011	23540
716.128	21323
716.245	22105
716.362	22666
716.479	24227
716.596	20461
716.713	21347
716.829	20934
716.946	20766
717.063	19706
717.180	19095
717.296	19737
717.413	20702
717.530	19475
717.646	19556
717.763	19210
717.880	19299
717.996	18772
718.113	19761
718.229	18097
718.346	17857
718.462	18485
718.579	20330
718.695	26299
718.812	23849
718.928	21338
719.045	18883
719.161	16400
719.277	16960
719.394	17481
719.510	18018
719.626	17093
719.743	20674
719.859	18775
719.975	17771
720.092	18812
720.208	20586
720.324	18054
720.440	17309
720.557	19030
720.673	24670
720.789	28628
720.905	47544
721.021	23346
721.137	16570
721.253	16102
721.369	17711
721.486	16746
721.602	20255
721.718	16855
721.834	15821
721.950	15660
722.066	16367
722.181	15509
722.297	15142
722.413	15315
722.529	15575
722.645	14898
722.761	14632
722.877	15639
722.993	14392
723.108	14440
723.224	14697
723.340	15091
723.456	14053
723.571	14720
723.687	14177
723.803	14052
723.918	14012
724.034	13592
724.150	13698
724.265	14496
724.381	22982
724.497	25499
724.612	14677
724.728	13638
724.843	13101
724.959	13880
725.074	21289
725.190	23832
725.305	13470
725.421	13508
725.536	12475
725.651	11958
725.767	13235
725.882	12075
725.997	13116
726.113	12311
726.228	11655
726.343	13021
726.459	11591
726.574	13223
726.689	11469
726.804	10774
726.920	12457
727.035	12469
727.150	12038
727.265	12048
727.380	12485
727.495	12007
727.610	11042
727.725	10987
727.841	13381
727.956	20625
728.071	19038
728.186	12024
728.301	10874
728.416	11910
728.531	11485
728.645	9906
728.760	11135
728.875	11467
728.990	10605
729.105	10756
729.220	11101
729.335	10487
729.449	10487
729.564	9270
729.679	9859
729.794	10077
729.908	11123
730.023	10507
730.138	10445
730.253	10542
730.367	10299
730.482	10369
730.596	9688
730.711	10951
730.826	10458
730.940	9282
731.055	10822
731.169	9514
731.284	9608
731.398	9016
731.513	10918
731.627	9643
731.742	10887
731.856	10884
731.970	9086
732.085	9441
732.199	9439
732.313	7704
732.428	9402
732.542	10848
732.656	9341
732.771	8733
732.885	8593
732.999	8926
733.113	9381
733.227	8150
733.342	8976
733.456	9090
733.570	9316
733.684	7908
733.798	8851
733.912	8156
734.026	8209
734.140	8179
734.254	8972
734.368	12430
734.482	15104
734.596	9006
734.710	8868
734.824	7370
734.938	8166
735.052	8079
735.166	9312
735.280	8175
735.393	7534
735.507	8019
735.621	10785
735.735	14395
735.849	9311
735.962	8465
736.076	9013
736.190	8860
736.303	9974
736.417	11888
736.531	8554
736.644	7266
736.758	7469
736.872	7381
736.985	7446
737.099	7352
737.212	6931
737.326	6966
737.439	8063
737.553	7729
737.666	8179
737.780	7409
737.893	7192
738.007	6693
738.120	6909
738.233	7189
738.347	8023
738.460	6796
738.573	8297
738.687	6659
738.800	8020
738.913	8695
739.026	7511
739.140	8086
739.253	7922
739.366	6803
739.479	6849
739.592	5973
739.705	7761
739.818	6792
739.932	6514
740.045	6786
740.158	8128
740.271	7208
740.384	7324
740.497	6390
740.610	7801
740.723	6155
740.836	7527
740.949	7331
741.062	8927
741.174	8194
741.287	7321
741.400	7748
741.513	6663
741.626	7224
741.739	7034
741.851	6318
741.964	7140
742.077	6525
742.189	7417
742.302	7181
742.415	7282
742.527	7335
742.640	5781
742.753	6522
742.865	5777
742.978	6960
743.090	6766
743.203	5831
743.316	6704
743.428	6494
743.541	6703
743.653	6373
743.766	6121
743.878	6345
743.990	7032
744.103	8299
744.215	7989
744.327	6677
744.440	7295
744.552	9505
744.664	7242
744.777	5631
744.889	6516
745.001	6646
745.113	6323
745.226	6502
745.338	6485
745.450	5873
745.562	6089
745.674	5574
745.786	6543
745.898	6492
746.010	6187
746.122	5777
746.234	6156
746.347	5962
746.459	6348
746.570	5754
746.682	6451
746.794	7943
746.906	6917
747.018	5476
747.130	6376
747.242	6218
747.354	5786
747.466	6658
747.577	6829
747.689	6516
747.801	5986
747.913	5860
748.024	5866
748.136	5567
748.248	5715
748.359	6587
748.471	6644
748.583	6096
748.694	7381
748.806	7387
748.918	7308
749.029	6488
749.141	6806
749.252	6667
749.364	6854
749.475	10831
749.587	8810
749.698	5511
749.809	6227
749.921	5952
750.032	5982
750.144	5672
750.255	5051
750.366	5403
750.478	5933
750.589	6481
750.700	6596
750.811	6631
750.923	7924
751.034	10573
751.145	11957
751.256	6033
751.367	6355
751.479	5303
751.590	5406
751.701	5663
751.812	5359
751.923	5979
752.034	5920
752.145	6033
752.256	5839
752.367	6312
752.478	5824
752.589	6207
752.700	6218
752.811	5485
752.922	6858
753.032	5096
753.143	7112
753.254	5100
753.365	5822
753.476	5921
753.586	6013
753.697	6005
753.808	6437
753.919	5846
754.029	5570
754.140	5754
754.251	6637
754.361	5965
754.472	5650
754.582	6016
754.693	5737
754.804	5920
754.914	5612
755.025	5566
755.135	5299
755.246	5673
755.356	5498
755.466	6358
755.577	6584
755.687	6098
755.798	5831
755.908	6337
756.018	6420
756.129	7345
756.239	6537
756.349	6885
756.460	6336
756.570	7023
756.680	6404
756.790	6049
756.900	7245
757.011	6293
757.121	7313
757.231	6292
757.341	6591
757.451	6883
757.561	6514
757.671	7051
757.781	6397
757.891	7759
758.001	7246
758.111	7200
758.221	7940
758.331	6995
758.441	8565
758.551	8574
758.661	8161
758.771	7833
758.880	8132
758.990	8012
759.100	8754
759.210	8129
759.320	8707
759.429	7959
759.539	9147
759.649	8481
759.758	8319
759.868	8936
759.978	8791
760.087	8768
760.197	9153
760.307	8999
760.416	8864
760.526	8279
760.635	9968
760.745	10467
760.854	10128
760.964	9438
761.073	10011
761.182	9668
761.292	11209
761.401	10423
761.511	10988
761.620	11145
761.729	11054
761.839	12069
761.948	12291
762.057	12508
762.166	12351
762.276	11191
762.385	13729
762.494	13231
762.603	14228
762.712	14832
762.822	14869
762.931	15748
763.040	16016
763.149	16025
763.258	17390
763.367	18664
763.476	19389
763.585	19232
763.694	21610
763.803	21950
763.912	22571
764.021	24340
764.130	26202
764.238	27147
764.347	29343
764.456	31444
764.565	33695
764.674	36680
764.783	40624
764.891	43256
765.000	50148
765.109	55867
765.217	64473
765.326	74980
765.435	90463
765.543	109334
765.652	135125
765.761	173118
765.869	236839
765.978	338288
766.086	507667
766.195	802979
766.303	1239394
766.412	1283334
766.520	1180093
766.629	1115634
766.737	721400
766.846	463680
766.954	313417
767.062	224851
767.171	173255
767.279	131093
767.387	104875
767.496	88021
767.604	75760
767.712	65266
767.820	58763
767.928	54417
768.037	51126
768.145	48525
768.253	46356
768.361	43285
768.469	44452
768.577	45308
768.685	48907
768.793	49875
768.901	56951
769.009	64432
769.117	78327
769.225	100007
769.333	138706
769.441	208953
769.549	345774
769.657	633374
769.765	1106149
769.873	1119850
769.981	992116
770.088	577791
770.196	322005
770.304	203867
770.412	144589
770.519	108846
770.627	84702
770.735	68523
770.842	56834
770.950	50534
771.058	44253
771.165	39559
771.273	34144
771.380	31641
771.488	29297
771.595	26772
771.703	25251
771.810	23874
771.918	20502
772.025	19750
772.133	19517
772.240	17798
772.348	17425
772.455	16908
772.562	15776
772.670	15427
772.777	15447
772.884	13877
772.991	13960
773.099	13476
773.206	12937
773.313	12884
773.420	12379
773.528	10891
773.635	11293
773.742	10870
773.849	10389
773.956	10642
774.063	10539
774.170	9629
774.277	11169
774.384	9683
774.491	9988
774.598	10184
774.705	9716
774.812	9873
774.919	10625
775.026	9142
775.133	10056
775.239	8267
775.346	8830
775.453	8129
775.560	7999
775.667	8638
775.773	8796
775.880	8516
775.987	8546
776.093	8457
776.200	7567
776.307	7389
776.413	8764
776.520	6210
776.627	7234
776.733	7670
776.840	5804
776.946	7571
777.053	8412
777.159	10279
777.266	7552
777.372	10416
777.478	9102
777.585	7620
777.691	6839
777.798	5955
777.904	6867
778.010	9222
778.117	8686
778.223	5919
778.329	6555
778.435	5561
778.542	6998
778.648	5555
778.754	5966
778.860	5569
778.966	6604
779.072	5540
779.178	5947
779.284	6549
779.391	5761
779.497	5463
779.603	10406
779.708	13172
779.815	28634
779.920	102206
780.026	209372
780.132	36081
780.238	9224
780.344	7467
780.450	7508
780.556	5852
780.661	5172
780.767	5373
780.873	6076
780.979	5198
781.085	4572
781.190	4337
781.296	5300
781.402	4798
781.507	4599
781.613	4181
781.719	5208
781.824	4626
781.930	5336
782.035	4201
782.141	4486
782.246	4382
782.352	4557
782.457	4329
782.563	4335
782.668	4533
782.773	5004
782.879	4780
782.984	4956
783.090	5639
783.195	6727
783.300	5316
783.405	4438
783.511	4693
783.616	5381
783.721	3806
783.826	4809
783.932	4973
784.037	4775
784.142	4289
784.247	4718
784.352	4143
784.457	4927
784.562	3882
784.667	4337
784.772	3251
784.877	4502
784.982	3388
785.087	3760
785.192	5033
785.297	4114
785.402	4325
785.507	3872
785.611	3754
785.716	4016
785.821	3496
785.926	3812
786.031	4692
786.135	3815
786.240	3584
786.345	2510
786.450	3560
786.554	3992
786.659	3356
786.763	3097
786.868	4288
786.973	4587
787.077	2858
787.182	3875
787.286	4071
787.391	3948
787.495	2749
787.600	3603
787.704	3089
787.809	4074
787.913	3380
788.017	4568
788.122	3078
788.226	3267
788.330	3258
788.435	3846
788.539	3406
788.643	2811
788.747	2293
788.852	2833
788.956	2984
789.060	3630
789.164	3250
789.268	2916
789.372	2775
789.476	3514
789.580	2998
789.684	3301
789.788	2848
789.892	2971
789.996	2987
790.100	2564
790.204	2813
790.308	2856
790.412	2650
790.516	3596
790.620	3234
790.724	3805
790.828	3291
790.931	3196
791.035	4089
791.139	3484
791.242	2487
791.346	3544
791.450	2367
791.554	3297
791.657	1851
791.761	3741
791.864	3718
791.968	3391
792.072	3368
792.175	3440
792.279	2574
792.382	3285
792.486	2586
792.589	3092
792.693	2660
792.796	2056
792.899	3306
793.003	2748
793.106	1573
793.209	2745
793.313	3374
793.416	2012
793.519	3989
793.623	4444
793.726	4719
793.829	4051
793.932	2847
794.035	2165
794.138	4025
794.242	4147
794.345	4995
794.448	8011
794.551	16271
794.654	53930
794.757	113012
794.860	22257
794.963	5113
795.066	3279
795.169	4222
795.272	2707
795.375	3357
795.477	2270
795.580	2922
795.683	1338
795.786	2604
795.889	2157
795.991	3689
796.094	3323
796.197	1955
796.300	2701
796.402	2000
796.505	2687
796.608	1328
796.710	3983
796.813	2656
796.915	2420
797.018	2011
797.120	2869
797.223	1093
797.326	3360
797.428	2885
797.530	2557
797.633	2168
797.735	3261
797.838	2751
797.940	3484
798.042	1032
798.145	2582
798.247	3415
798.349	1194
798.452	2428
798.554	1589
798.656	1079
798.758	2569
798.860	1409
798.962	2224
799.065	1713
799.167	1575
799.269	3214
799.371	3112
799.473	2189
799.575	1760
799.677	1996
799.779	3911
799.881	2824
799.983	3051
800.085	1782
800.187	2363
800.289	1323
800.390	2148
800.492	1597
800.594	2317
800.696	1664
800.798	2137
800.899	1097
801.001	1644
801.103	1074
801.205	2182
801.306	1550
801.408	465
801.509	1220
801.611	1636
801.713	2106
801.814	1679
801.916	1644
802.017	2245
802.119	526
802.220	1336
802.322	653
802.423	4004
802.525	2090
802.626	2493
802.727	1660
802.829	2643
802.930	-72
803.031	2877
803.133	1036
803.234	1249
803.335	1525
803.436	1106
803.538	712
803.639	1264
803.740	2244
803.841	489
803.942	929
804.043	1244
804.144	1432
804.245	1394
804.346	1119
804.447	1031
804.548	2240
804.649	3531
804.750	1324
804.851	1703
804.952	408
805.053	760
805.154	771
805.255	2652
805.355	929
805.456	1400
805.557	156
805.658	557
805.758	1891
805.859	2210
805.960	1386
806.061	1310
806.161	807
806.262	1817
806.362	1271
806.463	1044
806.564	739
806.664	1090
806.765	1374
806.865	2323
806.966	1711
807.066	1068
807.166	885
807.267	2107
807.367	464
807.468	1889
807.568	267
807.668	1410
807.769	1474
807.869	987
807.969	871
808.069	737
808.170	1475
808.270	892
808.370	1507
808.470	2222
808.570	679
808.670	484
808.770	1178
808.870	1360
808.970	264
809.070	667
809.170	301
809.271	1719
809.370	822
809.470	1697
809.570	996
809.670	911
809.770	1542
809.870	1409
809.970	827
810.070	1881
810.169	1727
810.269	368
810.369	1492
810.469	1378
810.568	854
810.668	270
810.768	809
810.867	1244
810.967	1036
811.066	1268
811.166	40
811.265	1682
811.365	599
811.464	568
811.564	745
811.663	2333
811.763	-33
811.862	1664
811.962	1355
812.061	638
812.160	598
812.260	1392
812.359	2108
812.458	2432
812.557	8685
812.657	12588
812.756	3984
812.855	1605
812.954	1127
813.053	1237
813.153	782
813.252	844
813.351	870
813.450	741
813.549	75
813.648	1185
813.747	-155
813.846	1467
813.945	853
814.044	442
814.143	1324
814.242	868
814.341	-120
814.439	1824
814.538	500
814.637	667
814.736	1307
814.835	1293
814.933	108
815.032	1637
815.131	529
815.229	1128
815.328	709
815.427	630
815.525	931
815.624	358
815.722	187
815.821	734
815.919	912
816.018	617
816.116	1112
816.215	1224
816.313	1077
816.412	1358
816.510	748
816.609	1893
816.707	488
816.805	1544
816.904	-257
817.002	2000
817.100	1409
817.198	1263
817.296	1008
817.395	1487
817.493	2108
817.591	1302
817.689	1989
817.787	2260
817.885	3965
817.983	8066
818.081	17082
818.179	41997
818.277	108946
818.375	105111
818.473	25570
818.571	8971
818.669	6360
818.767	5379
818.865	4984
818.963	6863
819.061	9292
819.158	15835
819.256	36447
819.354	88963
819.452	213916
819.549	149299
819.647	34003
819.745	12221
819.842	6988
819.940	5563
820.038	3473
820.135	3714
820.233	3560
820.330	2461
820.428	1120
820.525	3240
820.623	1135
820.720	1222
820.818	1469
820.915	1430
821.012	1197
821.110	40
821.207	2023
821.304	642
821.402	1280
821.499	1378
821.596	2785
821.693	2089
821.791	1628
821.888	1818
821.985	3395
822.082	2613
822.179	1878
822.276	1359
822.373	789
822.470	1091
822.567	1464
822.664	479
822.761	714
822.858	-239
822.955	459
823.052	590
823.149	519
823.246	414
823.343	741
823.440	678
823.536	144
823.633	302
823.730	753
823.827	1278
823.923	396
824.020	2432
824.117	428
824.213	244
824.310	1422
824.407	975
824.503	394
824.600	1184
824.696	389
824.793	1543
824.889	-365
824.986	376
825.082	568
825.179	1193
825.275	188
825.371	394
825.468	841
825.564	292
825.660	774
825.757	498
825.853	1049
825.949	863
826.045	-374
826.142	-388
826.238	338
826.334	903
826.430	-490
826.526	1144
826.622	264
826.718	283
826.814	-674
826.910	634
827.006	955
827.102	62
827.198	1245
827.294	355
827.390	-162
827.486	1313
827.582	-648
827.678	449
827.774	60
827.869	54
827.965	1511
828.061	-518
828.157	-380
828.252	974
828.348	-341
828.444	1348
828.539	-654
828.635	911
828.731	1129
828.826	-10
828.922	428
829.017	391
829.113	270
829.208	723
829.304	-331
829.399	713
829.495	-124
829.590	1031
829.685	297
829.781	342
829.876	-439
829.971	45
830.066	-112
830.162	-127
830.257	-404
830.352	-228
830.447	1859
830.543	1649
830.638	-838
830.733	1183
830.828	-25
830.923	1429
831.018	-59
831.113	269
831.208	-98
831.303	1342
831.398	100
831.493	340
831.588	-179
831.683	205
831.778	-338
831.873	-63
831.967	-104
832.062	-315
832.157	-732
832.252	1277
832.346	25
832.441	1263
832.536	718
832.631	4756
832.725	4202
832.820	-3
832.914	194
833.009	-268
833.104	1018
833.198	1283
833.293	-401
833.387	916
833.482	-479
833.576	381
833.670	925
833.765	16
833.859	8
833.954	257
834.048	89
834.142	226
834.237	-757
834.331	786
834.425	416
834.519	298
834.613	587
834.708	668
834.802	225
834.896	98
834.990	-492
835.084	763
835.178	487
835.272	716
835.366	-389
835.460	1915
835.554	326
835.648	333
835.742	-313
835.836	1302
835.930	-469
836.024	1625
836.117	897
836.211	805
836.305	1004
836.399	2344
836.493	-470
836.586	636
836.680	-469
836.774	-439
836.867	619
836.961	-246
837.055	-1226
837.148	193
837.242	19
837.335	-19
837.429	346
837.522	-67
837.616	1032
837.709	2541
837.803	548
837.896	1589
837.989	416
838.083	1469
838.176	2333
838.269	1771
838.363	651
838.456	950
838.549	1279
838.642	1899
838.735	5357
838.829	2556
838.922	-703
839.015	-66
839.108	-479
839.201	455
839.294	313
839.387	1154
839.480	-739
839.573	1583
839.666	1111
839.759	602
839.852	269
839.945	14
840.038	-653
840.131	378
840.223	-874
840.316	1140
840.409	-268
840.502	-496
840.594	1226
840.687	271
840.780	771
840.873	480
840.965	0
841.058	538
841.150	1329
841.243	935
841.336	1131
841.428	1098
841.521	294
841.613	833
841.706	659
841.798	150
841.890	1150
841.983	-194
842.075	877
842.167	12
842.260	108
842.352	1336
842.444	1114
842.537	2421
842.629	4168
842.721	1048
842.813	557
842.905	-727
842.997	597
843.090	900
843.182	467
843.274	2578
843.366	5961
843.458	12900
843.550	7181
843.642	1715
843.734	259
843.826	1035
843.918	483
844.009	770
844.101	-533
844.193	109
844.285	366
844.377	546
844.469	1310
844.560	152
844.652	1054
844.744	615
844.835	-48
844.927	-8
845.019	297
845.110	680
845.202	1134
845.293	-192
845.385	-1209
845.476	356
845.568	551
845.659	103
845.751	395
845.842	277
845.934	-1016
846.025	-318
846.116	408
846.208	-95
846.299	268
846.390	214
846.482	337
846.573	2195
846.664	686
846.755	1254
846.846	1676
846.937	-921
847.029	-348
847.120	-71
847.211	-560
847.302	1512
847.393	-779
847.484	257
847.575	735
847.666	-369
847.757	-15
847.847	777
847.938	-235
848.029	-358
848.120	-771
848.211	194
848.302	-98
848.392	239
848.483	726
848.574	50
848.664	-670
848.755	280
848.846	15
848.936	568
849.027	-92
849.118	374
849.208	-851
849.299	129
849.389	176
849.480	-12
849.570	-93
849.661	1135
849.751	0
849.841	823
849.932	464
850.022	-140
850.112	542
850.203	398
850.293	-782
850.383	1143
850.474	-290
850.564	-17
850.654	811
850.744	473
850.834	143
850.924	491
851.014	-112
851.104	-46
851.194	-867
851.284	482
851.374	1460
851.464	876
851.554	540
851.644	220
851.734	1038
851.824	989
851.914	-317
852.004	3157
852.094	2639
852.183	977
852.273	-416
852.363	700
852.452	450
852.542	566
852.632	-420
852.721	544
852.811	-476
852.901	-83
852.990	-139
853.080	994
853.169	168
853.259	-303
853.348	-612
853.438	-104
853.527	6
853.617	-525
853.706	364
853.795	-22
853.885	819
853.974	1344
854.063	2158
854.152	2225
854.242	801
854.331	758
854.420	-61
854.509	125
854.598	422
854.687	321
854.777	-128
854.866	-544
854.955	289
855.044	-341
855.133	-837
855.222	613
855.311	108
855.400	55
855.488	107
855.577	1346
855.666	72
855.755	301
855.844	596
855.933	689
856.021	-400
856.110	-115
856.199	-925
856.288	-597
856.376	-496
856.465	-857
856.554	244
856.642	-521
856.731	-113
856.819	135
856.908	-684
856.996	-212
857.085	-191
857.173	-407
857.262	-515
857.350	741
857.438	-528
857.527	-531
857.615	-69
857.703	-1099
857.792	-138
857.880	106
857.968	-773
858.056	10
858.145	-388
858.233	650
858.321	-213
858.409	177
858.497	-583
858.585	320
858.673	-106
858.761	-702
858.849	11
858.937	78
859.025	364
859.113	-92
859.201	-47
859.289	1433
859.377	-945
859.465	309
859.552	414
859.640	-78
859.728	569
859.816	-74
859.903	54
859.991	-411
860.079	-570
860.166	152
860.254	-441
860.342	-122
860.429	-371
860.517	-584
860.604	255
860.692	400
860.779	-857
860.867	-231
860.954	174
861.042	344
861.129	89
861.216	-366
861.304	-843
861.391	121
861.478	-71
861.565	-158
861.653	404
861.740	-1015
861.827	-956
861.914	307
862.001	-990
862.089	713
862.176	-1116
862.263	-9
862.350	-405
862.437	-236
862.524	-157
862.611	326
862.698	425
862.785	-127
862.871	-456
862.958	402
863.045	-616
863.132	-421
863.219	-195
863.306	-155
863.392	-571
863.479	178
863.566	-191
863.652	437
863.739	-1032
863.826	176
863.912	-221
863.999	-622
864.086	-689
864.172	-260
864.259	-164
864.345	-347
864.432	-586
864.518	176
864.604	-773
864.691	-165
864.777	-402
864.863	414
864.950	-659
865.036	-748
865.122	-477
865.209	206
865.295	-524
865.381	-124
865.467	112
865.553	-375
865.639	-1114
865.726	420
865.812	-602
865.898	757
865.984	833
866.070	4012
866.156	3676
866.242	619
866.328	4
866.414	-845
866.499	-370
866.585	-356
866.671	-1152
866.757	-24
866.843	-208
866.928	-527
867.014	-1051
867.100	704
867.186	-332
867.271	-170
867.357	90
867.442	534
867.528	-22
867.614	-17
867.699	-17
867.785	744
867.870	279
867.956	831
868.041	111
868.127	1277
868.212	254
868.297	1106
868.383	-3
868.468	2091
868.553	1787
868.639	3053
868.724	4752
868.809	5294
868.894	859
868.979	-11
869.065	-149
869.150	-960
869.235	-882
869.320	-313
869.405	-890
869.490	-582
869.575	-1105
869.660	-155
869.745	-668
869.830	-665
869.915	-901
870.000	-375
870.085	-317
870.169	598
870.254	-306
870.339	-132
870.424	-547
870.509	-49
870.593	-891
870.678	-680
870.763	-1096
870.847	-562
870.932	-1355
871.016	368
871.101	-867
871.186	-269
871.270	-674
871.355	-135
871.439	346
871.523	-62
871.608	-454
871.692	-457
871.777	-502
871.861	440
871.945	-758
872.030	-106
872.114	9
872.198	-278
872.282	-825
872.367	-496
872.451	-1297
872.535	-552
872.619	-1005
872.703	-720
872.787	-843
872.871	-669
872.955	-1191
873.039	-443
873.123	-706
873.207	55
873.291	-859
873.375	-417
873.459	-1255
873.543	-896
873.627	-814
873.711	-151
873.794	-687
873.878	-1073
873.962	-1133
874.045	131
874.129	-591
874.137	-561
874.213	-258
874.245	-339
874.296	-477
874.352	-707
874.380	-815
874.460	-701
874.464	-697
874.547	-1347
874.568	-1155
874.631	-586
874.676	-420
874.714	-291
874.784	-655
874.798	-727
874.881	830
874.892	655
874.965	-498
874.999	-251
875.048	40
875.107	-498
875.131	-708
875.215	-22
875.215	-23
875.298	-1233
875.323	-973
875.381	-351
875.430	-446
875.465	-502
875.538	-454
875.548	-463
875.631	-675
875.646	-676
875.714	-569
875.753	-412
875.798	-251
875.861	-320
875.881	-345
875.964	-991
875.968	-950
876.047	-197
876.076	-556
876.130	-1230
876.183	-505
876.213	-139
876.291	-283
876.296	-280
876.379	-56
876.398	-69
876.462	-257
876.506	-280
876.545	-225
876.613	5
876.628	30
876.711	-1238
876.721	-1147
876.794	-300
876.828	-328
876.877	-457
876.935	28
876.960	257
877.043	57
877.043	57
877.125	74
877.150	-20
877.208	-165
877.258	-87
877.291	-49
877.365	552
877.374	625
877.456	180
877.472	217
877.539	222
877.579	-83
877.622	-275
877.687	238
877.704	362
877.787	-26
877.794	-55
877.869	-381
877.901	-285
877.952	-163
878.008	45
878.034	147
878.115	-133
878.117	-136
878.199	-488
878.222	-437
878.282	-345
878.329	-240
878.364	-233
878.437	-551
878.447	-568
878.529	-535
878.544	-469
878.611	-129
878.651	-170
878.694	-241
878.758	-484
878.776	-615
878.858	-466
878.865	-491
878.941	-473
878.972	-310
879.023	-145
879.078	-446
879.105	-523
879.185	-95
879.187	-88
879.269	-675
879.292	-454
879.351	121
879.399	-215
879.433	-523
879.506	-208
879.516	-161
879.598	-678
879.613	-704
879.680	-610
879.720	-427
879.762	-324
879.827	-528
879.844	-628
879.926	-665
879.933	-661
880.007	-192
880.040	-162
880.089	-371
880.147	-360
880.171	-301
880.253	-676
880.254	-671
880.335	652
880.360	677
880.417	681
880.467	1213
880.499	1528
880.574	1760
880.580	1770
880.662	311
880.680	152
880.744	-536
880.787	-624
880.825	-572
880.893	-1076
880.907	-1234
880.989	-552
881.000	-636
881.070	-478
881.106	-363
881.152	-586
881.213	-867
881.233	-830
881.315	82
881.319	89
881.396	-139
881.426	-178
881.478	-190
881.532	-380
881.559	-582
881.639	-887
881.641	-878
881.722	-250
881.745	-203
881.803	-221
881.852	-301
881.885	-542
881.958	-810
881.966	-820
882.047	-405
882.064	-459
882.129	-347
882.171	-112
882.210	-25
882.277	627
882.291	823
882.372	224
882.383	264
882.454	157
882.489	-97
882.535	-233
882.596	91
882.616	64
882.697	-990
882.702	-972
882.778	43
882.808	84
882.859	-489
882.914	-767
882.940	-512
883.020	-83
883.021	-84
883.102	-397
883.127	-478
883.183	-420
883.233	-596
883.264	-532
883.339	60
883.345	46
883.426	-611
883.445	-687
883.507	-312
883.551	79
883.587	53
883.657	-705
883.668	-746
883.749	-340
883.763	-386
883.830	-382
883.869	63
883.910	-23
883.975	-1071
883.991	-1149
884.072	-529
884.081	-501
884.152	-360
884.187	-420
884.233	-530
884.292	-268
884.314	-154
884.394	81
884.398	90
884.475	210
884.504	189
884.555	-298
884.610	-879
884.636	-700
884.716	68
884.716	74
884.797	377
884.821	373
884.877	259
884.927	13
884.958	-251
885.033	-152
885.038	-129
885.118	-666
885.139	-612
885.199	-105
885.244	-1
885.279	-205
885.350	-564
885.359	-595
885.439	-685
885.456	-744
885.520	-230
885.561	99
885.600	-113
885.667	-304
885.680	-279
885.760	-447
885.773	-403
885.840	-74
885.878	-98
885.920	-359
885.984	-634
886.000	-553
886.080	-338
886.089	-283
886.160	-200
886.195	-204
886.240	-150
886.300	-73
886.320	-15
886.400	-155
886.406	-131
886.480	-153
886.511	-272
886.560	-119
886.616	138
886.640	155
886.720	-14
886.722	-16
886.800	34
886.827	19
886.879	-238
886.932	-468
886.959	-237
887.038	404
887.039	406
887.119	348
887.143	360
887.198	15
887.248	-168
887.278	-116
887.354	-498
887.358	-477
887.437	465
887.459	637
887.517	392
887.564	160
887.596	-92
887.669	-753
887.676	-750
887.755	-534
887.774	-482
887.835	-327
887.880	-259
887.914	-73
887.985	288
887.994	201
888.073	-569
888.090	-752
888.153	-772
888.195	-732
888.232	-659
888.300	-472
888.311	-408
888.391	-83
888.405	-8
888.470	107
888.510	139
888.549	-334
888.615	-1057
888.628	-918
888.708	-117
888.720	-1
888.787	-301
888.825	-414
888.866	-414
888.930	-521
888.945	-431
889.024	176
889.035	246
889.103	397
889.140	499
889.182	188
889.245	-306
889.261	-286
889.340	-120
889.349	-104
889.419	-419
889.454	-564
889.498	-318
889.559	30
889.577	-12
889.656	-182
889.664	-196
889.735	120
889.768	275
889.814	-270
889.873	-987
889.978	278
890.083	504
890.187	-793
890.292	-786
890.397	261
890.501	-167
890.606	-515
890.710	-355
890.815	62
890.919	-517
891.024	451
891.128	222
891.233	325
891.337	216
891.442	-541
891.546	-879
891.650	-17
891.755	-304
891.859	792
891.963	-184
892.068	480
892.172	569
892.276	-519
892.380	132
892.484	-793
892.589	-775
892.693	-312
892.797	-621
892.901	-82
893.005	-509
893.109	30
893.213	269
893.317	653
893.421	-215
893.525	-871
893.629	-56
893.733	524
893.837	55
893.941	60
894.045	94
894.148	-272
894.252	506
894.356	-97
894.460	450
894.564	-102
894.667	-487
894.771	391
894.875	-199
894.978	-125
895.082	277
895.186	-110
895.289	60
895.393	1094
895.496	-172
895.600	-707
895.703	-266
895.807	-7
895.910	-764
896.014	80
896.117	-457
896.221	145
896.324	-1233
896.427	-60
896.531	-345
896.634	130
896.737	105
896.840	-757
896.944	-395
897.047	316
897.150	-28
897.253	-195
897.356	-143
897.460	-50
897.563	-448
897.666	-108
897.769	-421
897.872	424
897.975	399
898.078	-288
898.181	396
898.284	-671
898.387	-183
898.490	-192
898.593	184
898.695	-394
898.798	-469
898.901	860
899.004	-212
899.107	83
899.209	-602
899.312	-316
899.415	124
899.518	235
899.620	364
899.723	-129
899.826	-94
899.928	300
900.031	-444
900.133	-241
900.236	-900
900.338	682
900.441	-1015
900.543	723
900.646	-202
900.748	35
900.851	-318
900.953	98
901.055	-1188
901.158	275
901.260	57
901.362	-511
901.465	-873
901.567	273
901.669	-770
901.771	-78
901.873	-133
901.976	446
902.078	-208
902.180	649
902.282	-1430
902.384	-500
902.486	155
902.588	283
902.690	127
902.792	-418
902.894	23
902.996	-851
903.098	-854
903.200	-97
903.302	-812
903.404	220
903.505	-270
903.607	82
903.709	-429
903.811	-233
903.913	-814
904.014	640
904.116	-1373
904.218	-1183
904.319	-727
904.421	241
904.523	-123
904.624	-23
904.726	-437
904.827	-586
904.929	180
905.030	274
905.132	-491
905.233	439
905.335	23
905.436	-173
905.537	-866
905.639	-99
905.740	-466
905.841	307
905.943	-72
906.044	-122
906.145	-389
906.247	-470
906.348	-331
906.449	522
906.550	-444
906.651	639
906.752	-343
906.854	-377
906.955	-273
907.056	-308
907.157	-560
907.258	-332
907.359	-938
907.460	-282
907.561	-48
907.662	-463
907.762	-436
907.863	-39
907.964	-1076
908.065	674
908.166	-388
908.267	-253
908.367	-571
908.468	-193
908.569	-172
908.670	-702
908.770	-147
908.871	-405
908.971	-198
909.072	-278
909.173	-841
909.273	-234
909.374	-560
909.474	-192
909.575	17
909.675	545
909.776	-685
909.876	-670
909.977	-137
910.077	-998
910.177	-368
910.278	-657
910.378	-794
910.478	-124
910.579	-168
910.679	238
910.779	-534
910.879	782
910.980	-503
911.080	-144
911.180	-411
911.280	-330
911.380	-753
911.480	-205
911.580	-679
911.680	-600
911.780	-696
911.880	-582
911.980	214
912.080	-556
912.180	-623
912.280	-960
912.380	-487
912.480	-699
912.580	-621
912.679	-605
912.779	-448
912.879	-835
912.979	-181
913.078	-193
913.178	-942
913.278	-215
913.377	-612
913.477	-680
913.577	-722
913.676	-195
913.776	-192
913.875	-116
913.975	-258
914.074	-408
914.174	-555
914.273	-1205
914.373	-404
914.472	183
914.572	-134
914.671	353
914.770	-354
914.870	-401
914.969	-1474
915.068	-1173
915.167	-617
915.267	-232
915.366	-636
915.465	-105
915.564	-716
915.663	31
915.763	-822
915.862	-8
915.961	543
916.060	-277
916.159	-192
916.258	-873
916.357	-742
916.456	1326
916.555	-61
916.654	-745
916.752	-436
916.851	-226
916.950	-10
917.049	-164
917.148	-762
917.247	604
917.345	-1033
917.444	-709
917.543	-1064
917.642	-651
917.740	-573
917.839	-638
917.937	-706
918.036	111
918.135	-1067
918.233	166
918.332	-207
918.430	35
918.529	-740
918.627	421
918.726	-501
918.824	-344
918.923	-171
919.021	-918
919.119	218
919.218	89
919.316	-93
919.414	11
919.512	-338
919.611	696
919.709	-69
919.807	-589
919.905	-1041
920.003	-119
920.102	-312
920.200	-753
920.298	-172
920.396	-501
920.494	-469
920.592	-953
920.690	-765
920.788	-369
920.886	-329
920.984	109
921.082	-393
921.180	272
921.277	-321
921.375	-329
921.473	-372
921.571	-660
921.669	-254
921.766	-376
921.864	359
921.962	70
922.060	-948
922.157	75
922.255	-1064
922.352	-81
922.450	-194
922.548	-776
922.645	-1033
922.743	-350
922.840	-891
922.938	-439
923.035	-805
923.133	-309
923.230	-381
923.327	-872
923.425	-745
923.522	-513
923.619	-487
923.717	46
923.814	-668
923.911	223
924.008	-104
924.106	-63
924.203	-447
924.300	-359
924.397	-353
924.494	-278
924.591	-486
924.688	-463
924.786	133
924.883	-365
924.979	-272
925.077	-379
925.173	-714
925.270	-277
925.367	-263
925.464	-552
925.561	185
925.658	-25
925.755	-494
925.852	-592
925.948	-390
926.045	-67
926.142	-279
926.239	446
926.335	-563
926.432	32
926.529	-369
926.625	-594
926.722	-638
926.818	-127
926.915	-352
927.011	-172
927.108	-458
927.204	-151
927.301	-1288
927.397	38
927.494	-253
927.590	-623
927.687	-365
927.783	93
927.879	-69
927.976	-1352
928.072	-1150
928.168	-80
928.264	-854
928.361	-269
928.457	-691
928.553	-702
928.649	-1610
928.745	-202
928.841	-1209
928.937	-1119
929.033	85
929.129	-463
929.225	-640
929.321	-18
929.417	-1003
929.513	-305
929.609	-569
929.705	-208
929.801	-886
929.897	-131
929.993	-1109
930.089	-46
930.184	-1308
930.280	-650
930.376	-479
930.471	-1106
930.567	-774
930.663	59
930.758	-774
930.854	-4
930.950	-1160
931.045	-2
931.141	-798
931.236	-639
931.332	-632
931.427	-86
931.523	-355
931.618	-718
931.714	-1610
931.809	-132
931.905	-1022
932.000	107
932.095	-1358
932.191	-739
932.286	-800
932.381	-732
932.476	-1218
932.572	-189
932.667	-255
932.762	47
932.857	-223
932.952	-365
933.047	-20
933.142	-707
933.237	-643
933.332	-562
933.427	-781
933.522	-637
933.617	-551
933.712	-249
933.807	-1545
933.902	-952
933.997	-1097
934.092	-1122
934.187	-515
934.282	-1500
934.376	-564
934.471	-195
934.566	-1048
934.661	-722
934.755	-814
934.850	-446
934.945	-503
935.039	-1065
935.134	-832
935.228	-501
935.323	-987
935.417	-237
935.512	41
935.606	-497
935.701	-606
935.795	-461
935.890	-289
935.984	-396
936.079	-1125
936.173	-32
936.267	-950
936.362	-292
936.456	-441
936.550	-451
936.644	-45
936.738	-991
936.833	-1272
936.927	-379
937.021	-384
937.115	-148
937.209	-1571
937.303	103
937.397	-1441
937.491	-478
937.585	-1203
937.679	-749
937.773	-514
937.867	-1161
937.961	-915
938.055	-867
938.149	-723
938.243	-594
938.337	-807
938.430	-738
938.524	-884
938.618	-622
938.712	-646
938.805	-1131
938.899	-846
938.993	-867
939.086	-850
939.180	-561
939.274	-347
939.367	-648
939.461	-1002
939.554	-780
939.648	-701
939.741	-355
939.835	-603
939.928	-1035
940.022	-891
940.115	-896
940.208	-957
940.302	-368
940.395	-1029
940.488	-1720
940.582	127
940.675	-474
940.768	-1261
940.861	-340
940.954	-177
941.048	-1274
941.141	-1054
941.234	-618
941.327	-1275
941.420	-11
941.513	-236
941.606	-88
941.699	-390
941.792	-902
941.885	-1286
941.978	-803
942.071	-997
942.164	-580
942.257	-881
942.349	-572
942.442	-954
942.535	-902
942.628	-1480
942.721	-670
942.813	-1182
942.906	-80
942.999	-424
943.091	-1138
943.184	-1291
943.277	-836
943.369	-708
943.462	-538
943.554	-235
943.647	-1160
943.739	-1012
943.832	-1175
943.924	-837
944.017	-556
944.109	-1776
944.201	-1093
944.294	-403
944.386	-478
944.478	-2201
944.571	-858
944.663	-1403
944.755	-1151
944.847	-681
944.940	-193
945.032	-2249
945.124	-49
945.216	-132
945.308	-947
945.400	-533
945.492	-920
945.584	-436
945.676	-255
945.768	-1013
945.860	-559
945.952	-886
946.044	-661
946.136	-740
946.228	235
946.320	-1600
946.412	-251
946.503	-891
946.595	222
946.687	-510
946.779	-675
946.870	-802
946.962	-1017
947.054	-895
947.145	691
947.237	-1010
947.329	-931
947.420	-887
947.512	-537
947.603	-1392
947.695	-929
947.786	-1050
947.878	-832
947.969	214
948.061	-1231
948.152	-812
948.243	-694
948.335	-1058
948.426	-166
948.517	-1621
948.609	-657
948.700	-1108
948.791	-417
948.882	-607
948.973	-964
949.065	-1419
949.156	-478
949.247	-1622
949.338	-471
949.429	-1877
949.520	-1260
949.611	-1340
949.702	-567
949.793	-798
949.884	-707
949.975	-526
950.066	-1034
950.157	-1093
950.247	-1185
950.338	-896
950.429	-1415
950.520	-860
950.611	26
950.701	-1615
950.792	-1179
950.883	-1031
950.973	-457
951.064	-1481
951.155	-1510
951.245	285
951.336	-405
951.427	-1790
951.517	657
951.608	-1346
951.698	-1063
951.788	-295
951.879	-568
951.969	-1298
952.060	-1319
952.150	-911
952.240	6
952.331	-1607
952.421	-123
952.511	-486
952.602	-875
952.692	-775
952.782	-470
952.872	-930
952.962	-1015
953.052	-815
953.143	-878
953.233	-571
953.323	771
953.413	-1325
953.503	45
953.593	-832
953.683	-748
953.773	-1629
953.863	-969
953.953	-1134
954.042	-487
954.132	-736
954.222	-565
954.312	-815
954.402	-791
954.492	-1289
954.581	-1275
954.671	-1491
954.761	-1189
954.850	-824
954.940	-603
955.030	-394
955.119	-1035
955.209	-1013
955.298	-773
955.388	-402
955.477	-1431
955.567	-1400
955.656	-934
955.746	-419
955.835	-432
955.925	-1081
956.014	-683
956.103	-1168
956.193	-1226
956.282	-551
956.371	-706
956.461	-1373
956.550	-1131
956.639	-1539
956.728	-1267
956.817	-1290
956.906	-1485
956.995	-212
957.085	-192
957.174	-1825
957.263	-1086
957.352	-686
957.441	-1035
957.530	-590
957.619	-599
957.708	-1019
957.796	-957
957.885	-408
957.974	-1049
958.063	-991
958.152	-1186
958.241	-745
958.329	-721
958.418	-1294
958.507	-745
958.596	-946
958.684	-1087
958.773	-1186
958.861	-461
958.950	-876
959.039	223
959.127	-829
959.216	-615
959.304	-1525
959.393	-441
959.481	-1319
959.570	-992
959.658	-1221
959.746	-654
959.835	-786
959.923	-1009
960.011	-1329
960.100	-769
960.188	-713
960.276	-1401
960.365	-1303
960.453	-713
960.541	-1904
960.629	-524
960.717	-1532
960.805	-1086
960.893	-920
960.981	-1502
961.069	-1063
961.158	-1296
961.245	-1131
961.333	-121
961.421	-1913
961.509	-808
961.597	-1293
961.685	-1286
961.773	-1531
961.861	-1449
961.949	-1404
962.036	-1542
962.124	-963
962.212	-1023
962.299	-2131
962.387	-537
962.475	-1748
962.562	-876
962.650	-1408
962.738	-1019
962.825	-1929
962.913	-823
963.000	-1758
963.088	-835
963.175	-800
963.263	-797
963.350	-1226
963.438	-680
963.525	-1337
963.612	-618
963.700	-704
963.787	849
963.874	-701
963.962	-912
964.049	-1233
964.136	-2008
964.223	-1434
964.310	-1123
964.398	-1206
964.485	-1226
964.572	-1414
964.659	-116
964.746	-872
964.833	-700
964.920	-2054
965.007	-1267
965.094	-1834
965.181	-658
965.268	-610
965.355	-1345
965.441	-1183
965.528	-951
965.615	-587
965.702	-1087
965.789	-1788
965.875	-1635
965.962	-465
966.049	-1506
966.136	-787
966.222	-1877
966.309	-1471
966.395	-1757
966.482	-1916
966.569	-861
966.655	-1641
966.742	-751
966.828	-1671
966.915	-1110
967.001	-721
967.087	-1909
967.174	-1746
967.260	-1602
967.347	-778
967.433	-1348
967.519	-537
967.605	-979
967.692	-1702
967.778	-489
967.864	-1269
967.950	-619
968.036	-2009
968.123	-769
968.209	-904
968.295	-1981
968.381	-438
968.467	-761
968.553	-2299
968.639	-1164
968.725	-1735
968.811	-318
968.897	-1259
968.983	-1257
969.069	-1449
969.154	-934
969.240	-730
969.326	-2037
969.412	-1932
969.497	-1988
969.583	-1209
969.669	-529
969.755	-1525
969.840	-1282
969.926	-865
970.012	-1381
970.097	-1196
970.183	-1465
970.268	-2118
970.354	-628
970.439	-1985
970.525	361
970.610	-823
970.696	-616
970.781	-710
970.866	-1299
970.952	-780
971.037	-1146
971.122	-2104
971.208	-1031
971.293	-2395
971.378	-2201
971.463	-1373
971.549	-1294
971.634	-1686
971.719	-1656
971.804	-911
971.889	-823
971.974	-2079
972.059	-1529
972.144	-1582
972.229	-1101
972.314	-1809
972.399	-786
972.484	-2118
972.569	-330
972.654	-2570
972.739	-261
972.824	-1217
972.908	-839
972.993	-1436
973.078	-1244
973.163	-1518
973.247	-1576
973.332	-2587
973.417	-462
973.501	-2042
973.586	-780
973.671	-1292
973.755	-936
973.840	-1686
973.924	-1003
974.009	-1576
974.093	-2229
974.178	-535
974.262	-795
974.346	-2108
974.431	-462
974.515	-1381
974.600	-1064
974.684	-1386
974.768	-1366
974.852	-1100
974.937	-2178
975.021	-1026
975.105	-1701
975.189	-1828
975.273	-821
975.358	-1795
975.442	-1602
975.526	-1121
975.610	-1695
975.694	-1939
975.778	-156
975.862	-877
975.946	-1980
976.030	-833
976.114	-1736
976.198	-1946
976.281	-930
976.365	-1453
976.449	-1689
976.533	-2003
976.617	-1416
976.700	-1589
976.784	-1233
976.868	-1325
976.951	-762
977.035	-1177
977.119	-1710
977.202	-1533
977.286	-1095
977.369	-1615
977.453	-957
977.536	-2088
977.620	-1226
977.703	-1781
977.787	-1912
977.870	-418
977.953	-700
978.037	-2051
978.120	-138
978.203	-2130
978.287	-1172
978.370	-1032
978.453	-1816
978.536	-1547
978.620	-767
978.703	-1672
978.786	-934
978.869	-1725
978.952	-1256
979.035	-100
979.118	-1457
979.201	-2076
979.284	-763
979.367	-1736
979.450	-1188
979.533	-1607
979.616	-1493
979.699	-1845
979.782	-996
979.865	-1608
979.948	-1495
980.030	-1567
980.113	-812
980.196	-1899
980.279	-1711
980.361	-1510
980.444	-1870
980.526	-1247
980.609	-2336
980.692	-2023
980.774	-1729
980.857	-2811
980.939	-949
981.022	-1999
981.104	-1662
981.187	-2092
981.269	-1113
981.352	-1419
981.434	-2314
981.516	-1522
981.599	-992
981.681	-1536
981.763	-1021
981.846	-1262
981.928	-995
982.010	-1997
982.092	-1527
982.174	-1131
982.256	-1314
982.339	-2157
982.421	-961
982.503	-1524
982.585	-2437
982.667	-2000
982.749	-1931
982.831	-601
982.913	-2048
982.995	-646
983.077	-2309
983.158	-970
983.240	-2139
983.322	-688
983.404	-838
983.486	-2989
983.568	-622
983.649	-1201
983.731	-1624
983.813	-2595
983.894	-1504
983.976	-2837
984.058	-1944
984.139	-1575
984.221	-1823
984.302	-1319
984.384	-923
984.465	-2278
984.547	-1738
984.628	-3243
984.710	-1253
984.791	-1710
984.872	-1411
984.954	-1275
985.035	-1362
985.116	-2282
985.198	-1501
985.279	-961
985.360	-1919
985.441	-1258
985.522	-1332
985.604	-1484
985.685	-2998
985.766	-1268
985.847	-646
985.928	-3100
986.009	-1959
986.090	-1908
986.171	-845
986.252	-1950
986.333	-1890
986.414	-1673
986.495	-1512
986.576	-2191
986.656	-1695
986.737	-1397
986.818	-839
986.899	-1000
986.980	-1737
987.060	-1768
987.141	-1830
987.222	-1926
987.302	-1942
987.383	-1792
987.464	-2185
987.544	-1555
987.625	-1239
987.705	-1923
987.786	-1648
987.866	-1735
987.947	-1624
988.027	-1524
988.108	-2007
988.188	-1657
988.268	-1425
988.349	-2690
988.429	-1845
988.509	-1210
988.589	-1693
988.670	-3760
988.750	-25
988.830	-1978
988.910	-1769
988.990	-1304
989.070	-1895
989.151	-2245
989.231	-1728
989.311	-1466
989.391	-700
989.471	-2351
989.551	-1454
989.631	-2081
989.711	-1108
989.791	-2855
989.870	-1731
989.950	-1368
990.030	-1808
990.110	-1734
990.190	-2201
990.269	-2044
990.349	-1104
990.429	-1850
990.509	-612
990.588	-2930
990.668	-2168
990.747	-2204
990.827	-1758
990.907	-1605
990.986	-1645
991.066	-1650
991.145	-2562
991.225	-1466
991.304	-2001
991.383	-2246
991.463	-1790
991.542	-1352
991.622	-1307
991.701	-2463
991.780	-1718
991.859	-2030
991.939	-1338
992.018	-1905
992.097	-417
992.176	-1978
992.256	-1669
992.335	-1785
992.414	-567
992.493	-1659
992.572	-2173
992.651	-514
992.730	-2832
992.809	-1277
992.888	-2070
992.967	-1804
993.046	-1396
993.125	-2393
993.203	-1627
993.282	-2222
993.361	-1318
993.440	-1182
993.519	-2237
993.597	-1870
993.676	-2910
993.755	-986
993.834	-1534
993.912	-2047
993.991	-623
994.069	-2247
994.148	-1840
994.226	-2321
994.305	-1417
994.384	-2132
994.462	-918
994.540	-2493
994.619	-1097
994.697	-1641
994.776	-1708
994.854	-1992
994.932	-2034
995.011	-1073
995.089	-1336
995.167	-2044
995.245	-2418
995.324	-3055
995.402	-825
995.480	-2864
995.558	-1895
995.636	-2796
995.714	-1612
995.792	-852
995.870	-2016
995.948	-1745
996.026	-1355
996.104	-2701
996.182	-780
996.260	-2753
996.338	-1310
996.416	-2630
996.494	-2332
996.572	-1810
996.649	-1474
996.727	-1954
996.805	-1683
996.883	-2595
996.960	-1796
997.038	-2076
997.116	-1258
997.193	-2165
997.271	-2099
997.348	-2590
997.426	-1391
997.504	-2108
997.581	-1671
997.658	-1544
997.736	-2416
997.813	-2822
997.891	-1278
997.968	-2199
998.046	-1874
998.123	-2459
998.200	-1836
998.277	-2357
998.355	-1847
998.432	-2389
998.509	-2310
998.586	-1610
998.663	-1653
998.741	-1308
998.818	-1504
998.895	-1922
998.972	-1406
999.049	-1945
999.126	-1875
999.203	-1686
999.280	-1710
999.357	-2560
999.434	-1785
999.511	-2288
999.587	-1493
999.664	-2716
999.741	-1701
999.818	-1512
999.895	-2714
999.971	-2756
1000.048	-1229
1000.125	-1386
1000.202	-2642
1000.278	-1842
1000.355	-1355
1000.431	-1779
1000.508	-1527
1000.584	-1514
1000.661	-1521
1000.738	-2522
1000.814	-2090
1000.890	-2453
1000.967	-1484
1001.043	-1776
1001.120	-3054
1001.196	-1961
1001.272	-2058
1001.349	-2126
1001.425	-1160
1001.501	-1720
1001.577	-2289
1001.654	-1598
1001.730	-2324
1001.806	-2827
1001.882	-2101
1001.958	-2000
1002.034	-2046
1002.110	-1662
1002.186	-1720
1002.262	-1618
1002.338	-1493
1002.414	-1864
1002.490	-1885
1002.566	-2861
1002.642	-2171
1002.718	-1921
1002.794	-1902
1002.870	-2714
1002.945	-1469
1003.021	-1411
1003.097	-1534
1003.173	-1971
1003.248	-1702
1003.324	-1769
1003.400	-2073
1003.475	-2335
1003.551	-2500
1003.626	-2287
1003.702	-2178
1003.777	-2080
1003.853	-2071
1003.928	-2543
1004.004	-1806
1004.079	-1913
1004.155	-1902
1004.230	-2659
1004.305	-710
1004.381	-1659
1004.456	-1814
1004.531	-1942
1004.607	-1991
1004.682	-1736
1004.757	-2375
1004.832	-1835
1004.907	-2514
1004.982	-1194
1005.057	-2123
1005.133	-2114
1005.208	-2174
1005.283	-2455
1005.358	-2126
1005.433	-2421
1005.508	-1605
1005.583	-2404
1005.657	-2425
1005.732	-1285
1005.807	-1584
1005.882	-2490
1005.957	-2046
1006.032	-1820
1006.106	-1812
1006.181	-2147
1006.256	-1199
1006.331	-2611
1006.405	-1582
1006.480	-2491
1006.554	-1787
1006.629	-2256
1006.704	-2247
1006.778	-1829
1006.853	-1519
1006.927	-3089
1007.002	-2091
1007.076	-1370
1007.150	-2983
1007.225	-2273
1007.299	-1855
1007.373	-2637
1007.448	-1571
1007.522	-1982
1007.596	-1570
1007.671	-2091
1007.745	-1913
1007.819	-2844
1007.893	-2760
1007.967	-1738
1008.041	-2518
1008.115	-1315
1008.190	-2253
1008.264	-1303
1008.338	-2755
1008.412	-2373
1008.486	-1610
1008.560	-2393
1008.633	-2045
1008.707	-2674
1008.781	-1655
1008.855	-2509
1008.929	-2422
1009.003	-2771
1009.076	-2297
1009.150	-2654
1009.224	-2100
1009.298	-1861
1009.371	-2298
1009.445	-1773
1009.519	-2322
1009.592	-2400
1009.666	-1725
1009.739	-2480
1009.813	-2148
1009.886	-1916
1009.960	-2945
1010.033	-2279
1010.107	-1856
1010.180	-2665
1010.253	-1821
1010.327	-2369
1010.400	-2093
1010.473	-2435
1010.547	-851
1010.620	-1919
1010.693	-2051
1010.766	-2887
1010.840	-1646
1010.913	-1949
1010.986	-2389
1011.059	-1636
1011.132	-1690
1011.205	-833
1011.278	-1301
1011.351	-2075
1011.424	-1611
1011.497	-2182
1011.570	-2376
1011.643	-1650
1011.716	-2615
1011.789	-3169
1011.862	-1573
1011.934	-1638
1012.007	-2915
1012.080	-1917
1012.153	-2107
1012.225	-1473
1012.298	-1939
1012.371	-2529
1012.443	-1264
1012.516	-2925
1012.588	-2047
1012.661	-2099
1012.733	-2380
1012.806	-2101
1012.879	-2148
1012.951	-2126
1013.023	-2825
1013.096	-2518
1013.168	-2398
1013.241	-1242
1013.313	-2284
1013.385	-2960
1013.458	-2040
1013.530	-2566
1013.602	-2035
1013.674	-1669
1013.746	-2772
1013.819	-2757
1013.891	-1363
1013.963	-2499
1014.035	-2406
1014.107	-1551
1014.179	-2039
1014.251	-2692
1014.323	-2220
1014.395	-2599
1014.467	-1938
1014.539	-2631
1014.611	-2143
1014.683	-1885
1014.754	-2595
1014.826	-2398
1014.898	-1499
1014.970	-3045
1015.042	-1437
1015.113	-2227
1015.185	-2494
1015.257	-2798
1015.328	-2517
1015.400	-2783
1015.471	-1861
1015.543	-2698
1015.615	-2226
1015.686	-2237
1015.757	-1639
1015.829	-1887
1015.901	-2456
1015.972	-2151
1016.043	-2369
1016.115	-2596
1016.186	-2007
1016.257	-2594
1016.328	-1535
1016.400	-1858
1016.471	-2511
1016.542	-2653
1016.613	-2218
1016.685	-2109
1016.756	-1656
1016.827	-2482
1016.898	-2425
1016.969	-1794
1017.040	-1914
1017.111	-2110
1017.182	-1636
1017.253	-1803
1017.324	-2084
1017.395	-2726
1017.466	-2220
1017.537	-2793
1017.608	-1877
1017.678	-2607
1017.749	-2917
1017.820	-2742
1017.891	-3146
1017.961	-2420
1018.032	-2154
1018.103	-2721
1018.173	-1979
1018.244	-1779
1018.315	-2134
1018.385	-2131
1018.456	-2699
1018.526	-3119
1018.597	-2097
1018.667	-2312
1018.738	-2355
1018.808	-2286
1018.878	-1999
1018.949	-2459
1019.019	-2110
1019.089	-2880
1019.160	-2814
1019.230	-3070
1019.300	-1637
1019.371	-2712
1019.441	-1694
1019.511	-2528
1019.581	-1329
1019.651	-2310
1019.721	-2404
1019.791	-3464
1019.861	-1480
1019.931	-1461
1020.001	-2335
1020.071	-2658
1020.141	-2155
1020.211	-2876
1020.281	-2199
1020.351	-2594
1020.421	-1892
1020.491	-1629
1020.560	-2531
1020.630	-2638
1020.700	-1536
1020.770	-3087
1020.839	-2070
1020.909	-2413
1020.979	-2027
1021.048	-2802
1021.118	-2642
1021.187	-2465
1021.257	-2231
1021.326	-2028
1021.396	-2701
1021.465	-2410
1021.535	-2468
1021.604	-2987
1021.674	-2253
1021.743	-2122
1021.812	-2244
1021.882	-2494
1021.951	-2767
1022.020	-2451
1022.089	-1730
1022.159	-2267
1022.228	-2396
1022.297	-2029
1022.366	-2493
1022.435	-2792
1022.504	-2359
1022.573	-2009
1022.642	-2450
1022.711	-2603
1022.781	-2232
1022.849	-1817
1022.918	-2803
1022.987	-2178
1023.056	-2247
1023.125	-2305
1023.194	-1920
1023.263	-1745
1023.331	-846
1023.400	-2676
1023.469	-3446
1023.538	-2510
1023.606	-1951
1023.675	-2377
1023.744	-2922
1023.812	-2892
1023.881	-2085
1023.949	-2729
1024.018	-1955
1024.086	-2965
1024.155	-2447
1024.223	-2573
1024.292	-2154
1024.360	-1902
1024.429	-2779
1024.497	-3111
1024.565	-2765
1024.634	-2363
1024.702	-2189
1024.770	-2451
1024.838	-2348
1024.907	-1881
1024.975	-2296
1025.043	-1985
1025.111	-3290
1025.179	-2392
1025.247	-1633
1025.315	-2744
1025.383	-2155
1025.451	-2214
1025.519	-2706
1025.587	-2587
1025.655	-2347
1025.723	-2607
1025.791	-2326
1025.859	-2338
1025.927	-1443
1025.995	-2774
1026.062	-1786
1026.130	-2891
1026.198	-2585
1026.266	-2711
1026.333	-1688
1026.401	-2745
1026.469	-2346
1026.536	-2004
1026.604	-2456
1026.671	-2377
1026.739	-2903
1026.806	-2067
1026.874	-2452
1026.941	-2654
1027.009	-2003
1027.076	-2969
1027.144	-1996
1027.211	-2652
1027.278	-2848
1027.345	-2542
1027.413	-2345
1027.480	-2487
1027.547	-1787
1027.614	-2355
1027.682	-2022
1027.749	-2810
1027.816	-2330
1027.883	-2127
1027.950	-2740
1028.017	-3119
1028.084	-1938
1028.151	-3340
1028.218	-2610
1028.285	-2212
1028.352	-2346
1028.419	-2474
1028.486	-2043
1028.553	-2204
1028.619	-2731
1028.686	-3212
1028.753	-3204
1028.820	-2711
1028.886	-2564
1028.953	-2272
1029.020	-2764
1029.086	-3193
1029.153	-3274
1029.220	-2594
1029.286	-2142
1029.353	-2960
1029.419	-2749
1029.486	-2596
1029.552	-2598
1029.619	-2455
1029.685	-3104
1029.751	-2503
1029.818	-2131
1029.884	-2623
1029.951	-1394
1030.017	-2835
1030.083	-2732
1030.149	-2604
1030.216	-1707
1030.282	-2595
1030.348	-2507
1030.414	-3371
1030.480	-2430
1030.546	-2928
1030.612	-2503
1030.678	-2797
1030.744	-1684
1030.810	-3179
1030.876	-2304
1030.942	-3101
1031.008	-2715
1031.074	-2769
1031.140	-3203
1031.206	-2160
1031.272	-3315
1031.337	-2328
1031.403	-1650
1031.469	-2209
1031.534	-2280
1031.600	-2137
1031.666	-2547
1031.731	-3320
1031.797	-2664
1031.863	-2413
1031.928	-2730
1031.994	-2150
1032.059	-2181
1032.125	-2948
1032.190	-2691
1032.256	-3367
1032.321	-2198
1032.386	-3238
1032.452	-1639
1032.517	-2508
1032.582	-2947
1032.647	-1892
1032.713	-2295
1032.778	-2514
1032.843	-2633
1032.908	-3165
1032.974	-2399
1033.039	-2542
1033.104	-2661
1033.169	-2793
1033.234	-2254
1033.299	-2163
1033.364	-2765
1033.429	-2907
1033.494	-2667
1033.559	-3109
1033.624	-2766
1033.688	-2115
1033.753	-3009
1033.818	-2870
1033.883	-2267
1033.948	-2461
1034.013	-3356
1034.077	-2890
1034.142	-2024
1034.207	-3026
1034.271	-1982
1034.336	-1993
1034.400	-2820
1034.465	-2750
1034.530	-2503
1034.594	-3281
1034.658	-2463
1034.723	-3321
1034.787	-2065
1034.852	-2676
1034.916	-3235
1034.981	-2603
1035.045	-2450
1035.109	-3499
1035.173	-2701
1035.238	-3459
1035.302	-1673
1035.366	-2891
1035.430	-2781
1035.495	-3136
1035.559	-2206
1035.623	-2125
1035.687	-2647
1035.751	-2726
1035.815	-2207
1035.879	-2329
1035.943	-2853
1036.007	-2778
1036.071	-1698
1036.135	-3027
1036.198	-1379
1036.262	-3282
1036.326	-2361
1036.390	-2135
1036.454	-2645
1036.517	-2569
1036.581	-2981
1036.645	-2258
1036.709	-1859
1036.772	-2583
1036.836	-1867
1036.900	-2702
1036.963	-2444
1037.026	-2775
1037.090	-2176
1037.154	-3259
1037.217	-2477
1037.280	-2527
1037.344	-1828
1037.407	-2928
1037.471	-2520
1037.534	-2497
1037.597	-2446
1037.661	-2847
1037.724	-2481
1037.787	-2489
1037.850	-2308
1037.913	-3209
1037.977	-1871
1038.040	-3240
1038.103	-2393
1038.166	-2429
1038.229	-2408
1038.292	-2742
1038.355	-1688
1038.418	-2653
1038.481	-2667
1038.544	-2240
1038.607	-2637
1038.670	-3494
1038.732	-2788
1038.795	-2688
1038.858	-3302
1038.921	-3030
1038.984	-2449
1039.046	-2472
1039.109	-2071
1039.172	-2518
1039.234	-2296
1039.297	-2479
1039.360	-2479
1039.422	-2003
1039.485	-3005
1039.547	-2479
1039.610	-2519
1039.672	-3038
1039.734	-1512
1039.797	-2624
1039.859	-2454
1039.922	-2607
1039.984	-2389
1040.046	-2694
1040.109	-2361
1040.171	-1794
1040.233	-2305
1040.295	-2727
1040.358	-2370
1040.420	-2177
1040.482	-2002
1040.544	-3028
1040.606	-2513
1040.668	-2833
1040.730	-2132
1040.792	-2572
1040.854	-1841
1040.916	-2617
1040.978	-2513
1041.040	-2184
1041.102	-2280
1041.164	-2912
1041.225	-2535
1041.287	-2844
1041.349	-3222
1041.411	-2139
1041.472	-2261
1041.534	-2234
1041.596	-2430
1041.657	-2725
1041.719	-1815
1041.781	-3257
1041.842	-2656
1041.904	-3219
1041.965	-2647
1042.027	-2064
1042.088	-1931
1042.150	-2796
1042.211	-1963
1042.272	-2172
1042.334	-1842
1042.395	-2508
1042.456	-3284
1042.518	-2616
1042.579	-1692
1042.640	-2405
1042.701	-2243
1042.763	-2119
1042.824	-2968
1042.885	-3205
1042.946	-2210
1043.007	-2863
1043.068	-2756
1043.129	-2858
1043.190	-2580
1043.251	-1529
1043.312	-2279
1043.373	-2065
1043.434	-2235
1043.495	-2894
1043.556	-1934
1043.616	-2596
1043.677	-2779
1043.738	-2516
1043.799	-3037
1043.859	-2785
1043.920	-2771
1043.981	-2726
1044.041	-2654
1044.102	-2356
1044.162	-2712
1044.223	-2631
1044.284	-1300
1044.344	-2320
1044.405	-2162
1044.465	-2187
1044.525	-2242
1044.586	-2766
1044.646	-1708
1044.707	-2464
1044.767	-2283
1044.827	-2906
1044.887	-1924
1044.948	-2332
1045.008	-1956
1045.068	-2663
1045.128	-878
1045.188	-2827
1045.249	-1714
1045.309	-2670
1045.369	-2734
1045.429	-2530
1045.489	-2579
1045.549	-2332
1045.609	-2295
1045.669	-2835
1045.729	-2006
1045.789	-1790
1045.848	-1925
1045.908	-2105
1045.968	-2148
1046.028	-3029
1046.088	-1942
1046.147	-2793
1046.207	-2109
1046.267	-1998
1046.326	-1041
1046.386	-2484
1046.446	-655
1046.505	-1422
1046.565	-650
1046.624	-1309
1046.684	-1300
1046.743	-1463
1046.803	-1318
1046.862	-1853
1046.922	0
