'Start Wavelength	183.907
'End Wavelength	1046.922
'Gate Delay	5.000
'Gate Width (ms)	1.050
'Laser Output Level	0.000
'X Position	0.000
'Y Position	0.000
'Z Position	0.000
'Grid Point Number	1.000
'Shot Number	100.000
183.907	522.000
183.977	-105.000
184.047	-691
184.116	171
184.186	-419
184.256	587
184.325	-145
184.395	-250
184.465	805
184.534	146
184.604	142
184.674	711
184.743	219
184.813	587
184.883	897
184.952	761
185.022	1095
185.092	690
185.161	727
185.231	270
185.301	434
185.370	103
185.440	-90
185.509	-417
185.579	229
185.649	-204
185.718	568
185.788	297
185.857	-186
185.927	708
185.996	352
186.066	174
186.136	632
186.205	447
186.275	271
186.344	-374
186.414	-250
186.483	273
186.553	1088
186.622	-322
186.692	84
186.761	420
186.831	116
186.900	-179
186.970	852
187.039	-260
187.109	576
187.178	305
187.248	541
187.317	399
187.387	-270
187.456	1017
187.526	529
187.595	1037
187.664	542
187.734	520
187.803	433
187.873	-29
187.942	171
188.012	115
188.081	236
188.150	641
188.220	-15
188.289	611
188.358	382
188.428	408
188.497	-320
188.567	955
188.636	-291
188.705	614
188.775	81
188.844	-224
188.913	883
188.983	-79
189.052	-224
189.121	488
189.191	371
189.260	-214
189.329	600
189.399	1068
189.468	603
189.537	-87
189.606	261
189.676	1149
189.745	22
189.814	590
189.883	-151
189.953	704
190.022	387
190.091	678
190.161	67
190.230	569
190.299	114
190.368	-192
190.437	979
190.507	-295
190.576	-42
190.645	30
190.714	322
190.783	-181
190.853	698
190.922	518
190.991	477
191.060	358
191.129	325
191.198	619
191.268	413
191.337	160
191.406	374
191.475	747
191.544	471
191.613	472
191.682	285
191.752	363
191.821	148
191.890	-498
191.959	-92
192.028	-286
192.097	126
192.166	90
192.235	305
192.304	710
192.373	362
192.442	585
192.511	332
192.580	57
192.650	143
192.719	35
192.788	77
192.857	354
192.926	-139
192.995	327
193.064	287
193.133	893
193.202	-118
193.271	1063
193.340	118
193.409	446
193.478	1113
193.547	691
193.615	896
193.684	1211
193.753	873
193.822	425
193.891	758
193.960	927
194.029	-52
194.098	616
194.167	132
194.236	626
194.305	614
194.374	404
194.443	-88
194.512	293
194.580	377
194.649	811
194.718	1281
194.787	1175
194.856	-305
194.925	937
194.994	508
195.062	302
195.131	450
195.200	525
195.269	72
195.338	784
195.407	-151
195.475	297
195.544	141
195.613	429
195.682	701
195.751	357
195.819	242
195.888	103
195.957	1342
196.026	-186
196.094	1343
196.163	1160
196.232	344
196.301	699
196.369	566
196.438	261
196.507	239
196.576	814
196.644	-213
196.713	120
196.782	466
196.850	335
196.919	504
196.988	752
197.056	-283
197.125	-117
197.194	-204
197.262	143
197.331	89
197.400	751
197.468	-297
197.537	-171
197.606	520
197.674	809
197.743	868
197.812	411
197.880	1040
197.949	330
198.017	598
198.086	187
198.155	710
198.223	420
198.292	662
198.360	551
198.429	540
198.497	127
198.566	1036
198.635	1166
198.703	1184
198.772	725
198.840	984
198.909	1686
198.977	558
199.046	587
199.114	679
199.183	431
199.251	991
199.320	-276
199.388	705
199.457	537
199.525	269
199.594	368
199.662	432
199.731	1053
199.799	639
199.867	424
199.936	574
200.004	1354
200.073	321
200.141	155
200.210	407
200.278	-74
200.346	628
200.415	469
200.483	113
200.552	482
200.620	337
200.688	300
200.757	626
200.825	1090
200.893	-10
200.962	311
201.030	331
201.098	42
201.167	987
201.235	241
201.303	211
201.372	921
201.440	561
201.508	236
201.577	975
201.645	-14
201.713	489
201.781	-350
201.850	45
201.918	455
201.986	753
202.055	977
202.123	106
202.191	634
202.259	260
202.327	480
202.396	670
202.464	324
202.532	191
202.600	1013
202.669	548
202.737	361
202.805	275
202.873	611
202.941	582
203.009	606
203.078	454
203.146	82
203.214	909
203.282	72
203.350	555
203.418	-59
203.487	761
203.555	621
203.623	37
203.691	714
203.759	5
203.827	231
203.895	-190
203.963	417
204.031	535
204.099	238
204.168	260
204.236	937
204.304	-154
204.372	284
204.440	347
204.508	334
204.576	225
204.644	121
204.712	-1
204.780	873
204.848	845
204.916	-37
204.984	965
205.052	875
205.120	0
205.188	372
205.256	290
205.324	579
205.392	488
205.460	555
205.528	114
205.596	369
205.664	381
205.732	917
205.799	1312
205.867	1843
205.935	-128
206.003	1439
206.071	661
206.139	-91
206.207	395
206.275	691
206.343	-4
206.411	581
206.478	562
206.546	469
206.614	601
206.682	-40
206.750	-57
206.818	116
206.885	906
206.953	-534
207.021	935
207.089	916
207.157	254
207.225	502
207.292	381
207.360	257
207.428	579
207.496	552
207.563	878
207.631	1052
207.699	-102
207.767	293
207.834	-95
207.902	-227
207.970	549
208.038	232
208.105	472
208.173	487
208.241	882
208.309	1150
208.376	870
208.444	2408
208.512	867
208.579	297
208.647	984
208.715	690
208.782	803
208.850	-16
208.918	553
208.985	288
209.053	1421
209.120	624
209.188	102
209.256	830
209.323	7
209.391	916
209.459	1696
209.526	318
209.594	565
209.661	457
209.729	844
209.796	1401
209.864	631
209.932	-383
209.999	1311
210.067	1076
210.134	1516
210.202	630
210.269	1658
210.337	1193
210.404	459
210.472	686
210.539	273
210.607	498
210.674	1032
210.742	822
210.809	911
210.877	967
210.944	1082
211.012	24
211.079	1821
211.146	1128
211.214	658
211.281	447
211.349	1008
211.416	1372
211.484	946
211.551	1342
211.618	21
211.686	1072
211.753	414
211.821	1616
211.888	979
211.955	699
212.023	988
212.090	584
212.157	828
212.225	1264
212.292	1193
212.359	1586
212.427	5612
212.494	2884
212.561	1216
212.629	993
212.696	794
212.763	1331
212.831	236
212.898	1149
212.965	1543
213.032	1385
213.100	503
213.167	1123
213.234	1542
213.301	1488
213.369	1299
213.436	1752
213.503	502
213.570	1562
213.638	1177
213.705	805
213.772	819
213.839	1727
213.906	1440
213.973	1120
214.041	498
214.108	1504
214.175	484
214.242	894
214.309	583
214.376	862
214.444	544
214.511	1252
214.578	1186
214.645	1057
214.712	1457
214.779	1374
214.846	916
214.913	1547
214.980	1224
215.048	914
215.115	1591
215.182	1032
215.249	1279
215.316	1641
215.383	1293
215.450	1748
215.517	423
215.584	765
215.651	494
215.718	675
215.785	971
215.852	1227
215.919	1460
215.986	1512
216.053	652
216.120	176
216.187	811
216.254	1249
216.321	711
216.388	933
216.455	928
216.522	1147
216.589	1548
216.656	1565
216.722	2253
216.789	2751
216.856	2261
216.923	2216
216.990	1392
217.057	2335
217.124	1108
217.191	845
217.258	2012
217.324	2706
217.391	3049
217.458	2092
217.525	1493
217.592	1287
217.659	541
217.725	1650
217.792	1525
217.859	1835
217.926	357
217.993	1021
218.059	899
218.126	610
218.193	648
218.260	1232
218.327	536
218.393	330
218.460	1061
218.527	93
218.594	1050
218.660	1536
218.727	1023
218.794	299
218.860	1296
218.927	385
218.994	1861
219.061	99
219.127	643
219.194	314
219.261	692
219.327	1281
219.394	939
219.461	399
219.527	642
219.594	1134
219.661	85
219.727	-38
219.794	1366
219.860	579
219.927	1247
219.994	918
220.060	1640
220.127	1154
220.193	1456
220.260	1062
220.326	2056
220.393	3367
220.460	4672
220.526	2444
220.593	1388
220.659	2742
220.726	2159
220.792	3919
220.859	3391
220.925	4860
220.992	7335
221.058	6098
221.125	5170
221.191	3171
221.258	2194
221.324	1803
221.391	239
221.457	701
221.524	647
221.590	1616
221.657	4110
221.723	2571
221.789	2562
221.856	2596
221.922	1826
221.989	1725
222.055	951
222.121	421
222.188	1905
222.254	1878
222.321	1173
222.387	-50
222.453	662
222.520	752
222.586	900
222.652	1075
222.719	254
222.785	1104
222.851	70
222.918	954
222.984	718
223.050	692
223.116	333
223.183	957
223.249	-228
223.315	-23
223.382	517
223.448	770
223.514	-159
223.580	530
223.647	254
223.713	-48
223.779	606
223.845	1202
223.911	1380
223.978	222
224.044	1066
224.110	456
224.176	1028
224.242	601
224.309	119
224.375	789
224.441	724
224.507	247
224.573	205
224.639	1734
224.705	718
224.772	69
224.838	784
224.904	1301
224.970	704
225.036	182
225.102	78
225.168	1288
225.234	1400
225.300	243
225.366	1016
225.432	605
225.499	730
225.565	335
225.631	1152
225.697	760
225.763	1125
225.829	1494
225.895	1451
225.961	1241
226.027	1640
226.093	1551
226.159	2527
226.225	2207
226.291	5948
226.357	9128
226.423	5327
226.489	2387
226.554	2179
226.620	2011
226.686	2878
226.752	2690
226.818	4174
226.884	11584
226.950	10277
227.016	3552
227.082	2891
227.148	2153
227.214	1650
227.279	1517
227.345	1531
227.411	533
227.477	1104
227.543	1419
227.609	1030
227.674	1614
227.740	629
227.806	1158
227.872	1174
227.938	1804
228.003	2153
228.069	707
228.135	571
228.201	1058
228.267	1037
228.332	849
228.398	647
228.464	1311
228.530	37
228.595	667
228.661	748
228.727	847
228.792	1618
228.858	116
228.924	197
228.990	2563
229.055	-163
229.121	903
229.187	814
229.252	713
229.318	628
229.384	1212
229.449	965
229.515	-298
229.581	-185
229.646	2680
229.712	760
229.777	2249
229.843	1489
229.909	1833
229.974	2272
230.040	1815
230.105	711
230.171	1249
230.236	2261
230.302	2745
230.368	924
230.433	1372
230.499	1565
230.564	2227
230.630	1415
230.695	1595
230.761	2019
230.826	15
230.892	2282
230.957	-247
231.023	605
231.088	626
231.154	1278
231.219	1339
231.284	1303
231.350	2024
231.415	971
231.481	1693
231.546	1040
231.612	574
231.677	982
231.742	-367
231.808	1523
231.873	480
231.939	-390
232.004	1790
232.069	1633
232.135	703
232.200	1150
232.265	1585
232.331	927
232.396	1191
232.461	556
232.527	715
232.592	-123
232.657	615
232.723	1043
232.788	1443
232.853	646
232.918	1707
232.984	206
233.049	578
233.114	897
233.179	944
233.245	1315
233.310	1993
233.375	-383
233.440	1350
233.506	613
233.571	580
233.636	446
233.701	1267
233.766	848
233.832	1210
233.897	1123
233.962	365
234.027	2398
234.092	1256
234.157	1246
234.222	157
234.288	1047
234.353	3927
234.418	3257
234.483	2405
234.548	2076
234.613	1179
234.678	1727
234.743	1827
234.808	4415
234.873	2832
234.938	2598
235.004	1082
235.069	978
235.134	1019
235.199	1636
235.264	733
235.329	936
235.394	1740
235.459	2174
235.524	236
235.589	1241
235.654	1566
235.719	685
235.784	2048
235.849	1408
235.913	2601
235.978	2669
236.043	1705
236.108	1972
236.173	816
236.238	2418
236.303	984
236.368	1015
236.433	2092
236.498	2694
236.563	2366
236.627	3592
236.692	15346
236.757	11933
236.822	4269
236.887	2589
236.952	3359
237.017	1345
237.081	3773
237.146	3501
237.211	7546
237.276	13910
237.341	20547
237.405	10157
237.470	4260
237.535	3679
237.600	1568
237.664	2707
237.729	1083
237.794	2225
237.859	5789
237.923	1932
237.988	1270
238.053	3174
238.118	2589
238.182	4769
238.247	5214
238.312	1599
238.376	1817
238.441	810
238.506	2345
238.570	-418
238.635	1708
238.700	1481
238.764	999
238.829	3471
238.893	2525
238.958	2288
239.023	918
239.087	953
239.152	1085
239.216	629
239.281	2341
239.346	1177
239.410	1596
239.475	945
239.539	4758
239.604	2921
239.668	2151
239.733	970
239.797	1197
239.862	692
239.926	2675
239.991	1555
240.055	1725
240.120	450
240.184	796
240.249	257
240.313	601
240.378	389
240.442	2176
240.507	4688
240.571	1088
240.635	1965
240.700	2625
240.764	1180
240.829	84
240.893	130
240.957	1242
241.022	2955
241.086	4351
241.151	1260
241.215	-211
241.279	2371
241.344	1484
241.408	2034
241.472	1272
241.537	2903
241.601	1748
241.665	940
241.730	1416
241.794	2831
241.858	1450
241.922	1555
241.987	1852
242.051	1729
242.115	558
242.179	1202
242.244	542
242.308	2315
242.372	1733
242.436	1583
242.501	1796
242.565	766
242.629	319
242.693	2088
242.757	31
242.822	1267
242.886	1722
242.950	2083
243.014	857
243.078	1630
243.142	1692
243.206	479
243.271	2177
243.335	1247
243.399	3404
243.463	7295
243.527	18940
243.591	5916
243.655	3064
243.719	1345
243.783	2324
243.847	3691
243.911	4948
243.975	4037
244.040	2691
244.104	2770
244.168	670
244.232	2052
244.296	3295
244.360	3864
244.424	963
244.488	1570
244.552	1660
244.615	-48
244.679	2014
244.743	2063
244.807	632
244.871	1368
244.935	1596
244.999	-470
245.063	650
245.127	2205
245.191	2751
245.255	2731
245.319	2186
245.383	739
245.446	2443
245.510	-18
245.574	684
245.638	1481
245.702	252
245.766	3394
245.829	3046
245.893	1183
245.957	943
246.021	2177
246.085	1953
246.149	1787
246.212	5127
246.276	5658
246.340	2408
246.404	2454
246.467	2609
246.531	1489
246.595	2430
246.659	2527
246.722	854
246.786	2276
246.850	2799
246.913	3314
246.977	200
247.041	1482
247.104	2151
247.168	1998
247.232	4252
247.295	7309
247.359	3876
247.423	2201
247.486	3979
247.550	2946
247.614	2145
247.677	2369
247.741	1462
247.804	1311
247.868	2322
247.932	2929
247.995	7561
248.059	2442
248.122	-8
248.186	2684
248.249	3169
248.313	11752
248.376	12811
248.440	7607
248.503	1674
248.567	3842
248.630	3801
248.694	5182
248.757	7445
248.821	13517
248.884	8431
248.948	6506
249.011	10763
249.075	15232
249.138	12835
249.202	5062
249.265	3224
249.328	4355
249.392	2999
249.455	3480
249.519	2674
249.582	3087
249.645	4442
249.709	3294
249.772	2376
249.835	2578
249.899	2447
249.962	2603
250.025	2597
250.089	6266
250.152	7774
250.215	3694
250.279	2636
250.342	3681
250.405	3167
250.468	1841
250.532	3530
250.595	6067
250.658	18939
250.721	30702
250.785	10696
250.848	6898
250.911	3368
250.974	3978
251.038	5013
251.101	8050
251.164	4198
251.227	5514
251.290	5226
251.354	7879
251.417	27758
251.480	25721
251.543	17610
251.606	48263
251.669	34989
251.732	13745
251.795	12114
251.859	13205
251.922	30410
251.985	17818
252.048	7137
252.111	5576
252.174	3822
252.237	8317
252.300	16177
252.363	17938
252.426	38556
252.489	14710
252.552	8009
252.615	4687
252.678	5363
252.741	12091
252.804	17665
252.867	39781
252.930	22188
252.993	11217
253.056	6951
253.119	3543
253.182	3040
253.245	7030
253.308	5904
253.371	3582
253.434	2897
253.497	4202
253.559	7969
253.622	4396
253.685	5482
253.748	5852
253.811	3426
253.874	3815
253.937	2808
254.000	2511
254.062	4694
254.125	7366
254.188	8109
254.251	5792
254.314	2772
254.376	4488
254.439	6031
254.502	5167
254.565	4962
254.628	9277
254.690	5062
254.753	2244
254.816	2196
254.878	2510
254.941	4542
255.004	4057
255.067	2159
255.129	1543
255.192	1593
255.255	609
255.317	2009
255.380	1221
255.443	520
255.505	312
255.568	599
255.631	434
255.693	1173
255.756	-291
255.819	1558
255.881	581
255.944	663
256.006	836
256.069	570
256.132	218
256.194	1278
256.257	3114
256.319	2175
256.382	2031
256.444	2054
256.507	1373
256.569	1151
256.632	1082
256.694	2171
256.757	8474
256.819	24326
256.882	8253
256.944	3131
257.007	3602
257.069	2996
257.132	2082
257.194	2641
257.257	1280
257.319	1471
257.381	2284
257.444	6496
257.506	28017
257.569	27887
257.631	11828
257.693	6448
257.756	2775
257.818	2237
257.880	1978
257.943	1927
258.005	1432
258.067	2183
258.130	1093
258.192	1467
258.254	3568
258.317	2398
258.379	1778
258.441	4568
258.503	4331
258.566	4016
258.628	7456
258.690	1008
258.753	2431
258.815	4145
258.877	1986
258.939	2054
259.001	2602
259.064	702
259.126	1926
259.188	1542
259.250	2546
259.312	1649
259.375	4131
259.437	2460
259.499	2166
259.561	1512
259.623	1701
259.685	1470
259.747	2473
259.809	5133
259.872	8671
259.934	13525
259.996	12982
260.058	4194
260.120	1003
260.182	1622
260.244	1520
260.306	832
260.368	1481
260.430	433
260.492	3358
260.554	5919
260.616	2726
260.678	6110
260.740	8437
260.802	2313
260.864	1947
260.926	1234
260.988	1617
261.050	1567
261.112	4707
261.174	12225
261.236	7363
261.298	2765
261.359	3807
261.421	5810
261.483	1098
261.545	2297
261.607	784
261.669	1518
261.731	2155
261.793	6192
261.854	2206
261.916	2289
261.978	1731
262.040	2211
262.102	1622
262.164	1966
262.225	1719
262.287	1238
262.349	3666
262.411	2593
262.472	1327
262.534	2377
262.596	4292
262.658	1325
262.719	802
262.781	2304
262.843	3897
262.904	1853
262.966	1928
263.028	2069
263.090	11064
263.151	30555
263.213	9330
263.275	4347
263.336	1913
263.398	1502
263.459	557
263.521	1214
263.583	3564
263.644	2663
263.706	804
263.767	-381
263.829	179
263.891	590
263.952	-63
264.014	619
264.075	1807
264.137	5455
264.198	1938
264.260	492
264.321	178
264.383	2881
264.444	9243
264.506	2468
264.567	1191
264.629	3526
264.690	6512
264.752	2685
264.813	760
264.875	838
264.936	1532
264.998	939
265.059	750
265.120	770
265.182	1832
265.243	13751
265.305	12326
265.366	2283
265.427	2003
265.489	1517
265.550	-41
265.611	1222
265.673	195
265.734	1258
265.795	571
265.857	525
265.918	324
265.979	3486
266.040	22686
266.102	16657
266.163	4134
266.224	2819
266.286	1179
266.347	-60
266.408	848
266.469	1401
266.530	555
266.592	102
266.653	2426
266.714	4504
266.775	1060
266.836	874
266.898	298
266.959	1636
267.020	1010
267.081	820
267.142	585
267.203	221
267.264	-492
267.326	1514
267.387	-79
267.448	198
267.509	72
267.570	296
267.631	250
267.692	-221
267.753	499
267.814	205
267.875	1641
267.936	5083
267.997	2759
268.058	2144
268.119	1118
268.180	1127
268.241	630
268.302	743
268.363	766
268.424	167
268.485	655
268.546	412
268.607	12
268.668	298
268.729	-90
268.790	25
268.851	1004
268.912	3226
268.972	4236
269.033	1454
269.094	-1197
269.155	1318
269.216	678
269.277	743
269.338	898
269.398	270
269.459	643
269.520	1293
269.581	1322
269.642	2416
269.702	1577
269.763	978
269.824	602
269.885	199
269.945	2699
270.006	1534
270.067	-348
270.128	532
270.188	460
270.249	521
270.310	-31
270.370	953
270.431	-175
270.492	293
270.553	780
270.613	1597
270.674	4930
270.734	2269
270.795	890
270.856	1414
270.916	658
270.977	674
271.038	1194
271.098	851
271.159	2132
271.219	1351
271.280	1451
271.340	657
271.401	511
271.462	1838
271.522	1178
271.583	1080
271.643	353
271.704	84
271.764	1480
271.825	3363
271.885	12539
271.946	15459
272.006	4631
272.066	6352
272.127	11667
272.187	2809
272.248	1375
272.308	1283
272.369	8176
272.429	4010
272.489	2962
272.550	2904
272.610	4046
272.671	1920
272.731	2592
272.791	3764
272.852	1171
272.912	1516
272.972	781
273.033	1329
273.093	1190
273.153	2553
273.214	1301
273.274	1470
273.334	5520
273.394	13164
273.455	4158
273.515	4387
273.575	11995
273.635	4079
273.696	5555
273.756	9774
273.816	4029
273.876	2169
273.936	5164
273.997	8579
274.057	1128
274.117	2005
274.177	3113
274.237	15449
274.297	12055
274.358	6787
274.418	9528
274.478	7427
274.538	1848
274.598	1497
274.658	7001
274.718	8196
274.778	2798
274.838	1154
274.898	2901
274.958	10108
275.018	10554
275.078	7068
275.138	2282
275.198	1651
275.258	696
275.318	1223
275.378	2523
275.438	3468
275.498	1672
275.558	5122
275.618	11328
275.678	8267
275.738	4973
275.798	3547
275.858	927
275.918	252
275.978	1308
276.038	921
276.098	771
276.157	2724
276.217	9315
276.277	4141
276.337	1608
276.397	766
276.457	1214
276.517	680
276.576	950
276.636	620
276.696	870
276.756	5059
276.815	2391
276.875	948
276.935	718
276.995	954
277.055	213
277.114	-224
277.174	288
277.234	7082
277.293	1625
277.353	1333
277.413	1589
277.472	559
277.532	330
277.592	541
277.651	4666
277.711	7592
277.771	1775
277.830	11341
277.890	8498
277.950	4639
278.009	18260
278.069	5584
278.128	5547
278.188	7621
278.248	3127
278.307	8356
278.367	5837
278.426	1415
278.486	924
278.545	710
278.605	221
278.664	854
278.724	887
278.783	3967
278.843	11957
278.902	2907
278.962	1473
279.021	1567
279.081	1422
279.140	1398
279.199	706
279.259	1791
279.318	2117
279.378	2701
279.437	3820
279.496	16318
279.556	44139
279.615	31904
279.675	8158
279.734	3469
279.793	7688
279.853	13250
279.912	3692
279.971	2487
280.031	1997
280.090	5577
280.149	10745
280.208	6185
280.268	31648
280.327	30363
280.386	6419
280.445	5318
280.505	5053
280.564	2424
280.623	1495
280.682	2838
280.742	5973
280.801	1660
280.860	1158
280.919	713
280.978	488
281.037	-201
281.097	-52
281.156	1131
281.215	37
281.274	742
281.333	8175
281.392	5456
281.451	52
281.510	-161
281.569	-21
281.628	329
281.688	-4
281.747	493
281.806	182
281.865	432
281.924	-733
281.983	144
282.042	-627
282.101	-478
282.160	560
282.219	-407
282.278	174
282.337	3766
282.396	2173
282.454	1258
282.513	1560
282.572	6875
282.631	4194
282.690	394
282.749	-628
282.808	1455
282.867	445
282.926	1112
282.985	-313
283.043	287
283.102	219
283.161	235
283.220	3100
283.279	7593
283.338	1785
283.396	996
283.455	796
283.514	861
283.573	1826
283.631	659
283.690	764
283.749	705
283.808	2370
283.866	3195
283.925	36
283.984	197
284.043	953
284.101	1312
284.160	271
284.219	913
284.277	398
284.336	1277
284.395	10015
284.453	6815
284.512	1633
284.570	2603
284.629	2220
284.688	973
284.746	1171
284.805	1509
284.863	2254
284.922	3422
284.981	3281
285.039	5480
285.098	9851
285.156	26596
285.215	63915
285.273	58608
285.332	28308
285.390	14391
285.449	7360
285.507	5361
285.566	3350
285.624	1623
285.683	1308
285.741	1030
285.799	1182
285.858	1389
285.916	1487
285.975	1187
286.033	620
286.091	126
286.150	-5
286.208	-130
286.267	430
286.325	1369
286.383	1127
286.442	1148
286.500	643
286.558	532
286.616	222
286.675	953
286.733	754
286.791	-72
286.850	875
286.908	912
286.966	2129
287.024	199
287.083	561
287.141	48
287.199	-489
287.257	1448
287.315	993
287.374	622
287.432	3296
287.490	1935
287.548	-180
287.606	599
287.664	809
287.723	993
287.781	2106
287.839	358
287.897	490
287.955	2463
288.013	3512
288.071	9147
288.129	38338
288.187	99787
288.245	42809
288.303	13433
288.361	6811
288.419	4838
288.477	2834
288.535	1910
288.593	1323
288.651	1804
288.709	-226
288.767	535
288.825	556
288.883	-102
288.941	44
288.999	530
289.057	631
289.115	-424
289.173	-123
289.231	-268
289.289	-430
289.346	-460
289.404	-75
289.462	1300
289.520	1130
289.578	-552
289.636	86
289.694	-734
289.751	11
289.809	-104
289.867	-649
289.925	691
289.983	284
290.040	561
290.098	-148
290.156	657
290.214	1089
290.271	-319
290.329	381
290.387	-975
290.444	-933
290.502	-478
290.560	-282
290.617	-794
290.675	691
290.733	-931
290.790	760
290.848	-70
290.906	-354
290.963	-1285
291.021	-167
291.078	-247
291.136	-273
291.194	3213
291.251	7868
291.309	1827
291.366	-227
291.424	-290
291.481	-460
291.539	-516
291.596	-330
291.654	-379
291.711	-18
291.769	-122
291.826	1025
291.884	810
291.941	-323
291.999	-392
292.056	878
292.114	60
292.171	-617
292.228	-14
292.286	125
292.343	866
292.401	1954
292.458	797
292.515	529
292.573	815
292.630	24
292.687	43
292.745	731
292.802	1126
292.859	4370
292.917	7790
292.974	3784
293.031	1173
293.089	484
293.146	-47
293.203	421
293.260	-62
293.318	718
293.375	1278
293.432	79
293.489	-219
293.546	-65
293.604	-24
293.661	3612
293.718	12719
293.775	5875
293.832	1806
293.889	819
293.947	1335
294.004	168
294.061	791
294.118	2733
294.175	8126
294.232	11004
294.289	2578
294.346	1370
294.403	862
294.460	492
294.517	465
294.574	685
294.631	-414
294.688	479
294.745	3194
294.802	14369
294.859	17882
294.916	5183
294.973	2227
295.030	1575
295.087	1319
295.144	674
295.201	1527
295.258	64
295.315	563
295.372	5020
295.429	10099
295.486	3869
295.542	1930
295.599	7734
295.656	13423
295.713	8426
295.770	11240
295.827	3041
295.883	1825
295.940	792
295.997	2366
296.054	2325
296.111	672
296.167	633
296.224	365
296.281	-259
296.338	-747
296.394	995
296.451	1037
296.508	4417
296.564	8484
296.621	5827
296.678	11122
296.734	15484
296.791	5349
296.848	2797
296.904	3127
296.961	6928
297.018	12363
297.074	8356
297.131	3692
297.187	2102
297.244	2978
297.301	11190
297.357	20289
297.414	5845
297.470	2443
297.527	799
297.583	289
297.640	350
297.696	-629
297.753	284
297.809	532
297.866	-472
297.922	-46
297.979	-576
298.035	-69
298.092	501
298.148	6340
298.204	6053
298.261	1563
298.317	4657
298.374	14443
298.430	6985
298.486	3099
298.543	1168
298.599	1276
298.656	1117
298.712	3736
298.768	13760
298.824	9343
298.881	2115
298.937	785
298.993	911
299.050	761
299.106	1439
299.162	99
299.218	930
299.275	470
299.331	57
299.387	2139
299.443	11414
299.500	11125
299.556	3407
299.612	1275
299.668	1954
299.724	151
299.780	-73
299.837	392
299.893	1772
299.949	10481
300.005	10252
300.061	8597
300.117	16521
300.173	6658
300.229	2620
300.285	2539
300.341	4704
300.397	1301
300.453	905
300.510	-756
300.566	412
300.622	244
300.678	1638
300.734	6857
300.790	9356
300.845	11444
300.901	5901
300.957	9227
301.013	7482
301.069	1553
301.125	1625
301.181	1537
301.237	372
301.293	-64
301.349	24
301.405	403
301.461	545
301.516	23
301.572	262
301.628	2778
301.684	2026
301.740	3465
301.796	6659
301.851	4146
301.907	8150
301.963	7350
302.019	11584
302.074	33893
302.130	32768
302.186	12774
302.242	5568
302.297	3569
302.353	3042
302.409	6742
302.464	5025
302.520	4398
302.576	12271
302.631	14192
302.687	7075
302.743	2554
302.798	1959
302.854	1354
302.910	1693
302.965	1870
303.021	3391
303.076	3419
303.132	4569
303.187	5076
303.243	1642
303.299	680
303.354	422
303.410	245
303.465	483
303.521	-270
303.576	1104
303.632	181
303.687	2084
303.743	10499
303.798	8535
303.853	2996
303.909	1727
303.964	1102
304.020	2311
304.075	4234
304.130	3331
304.186	6818
304.241	8631
304.297	5889
304.352	2077
304.358	1960
304.407	1009
304.449	967
304.463	953
304.518	1259
304.539	888
304.573	286
304.629	528
304.630	563
304.684	2290
304.720	6122
304.739	7982
304.794	12120
304.811	10229
304.850	5707
304.902	2443
304.905	2241
304.960	566
304.992	931
305.015	1176
305.071	1273
305.083	1064
305.126	317
305.173	707
305.181	782
305.236	457
305.264	670
305.292	857
305.347	386
305.354	448
305.402	921
305.445	893
305.457	882
305.512	1362
305.535	1808
305.567	2402
305.622	1445
305.626	1605
305.678	5526
305.716	11412
305.733	13214
305.788	13497
305.807	11264
305.843	7967
305.897	11881
305.898	11914
305.953	11048
305.988	6496
306.008	4219
306.063	2618
306.078	2110
306.118	822
306.168	700
306.173	708
306.228	293
306.259	292
306.283	304
306.338	1073
306.349	992
306.393	658
306.440	1148
306.448	1224
306.503	1213
306.530	1342
306.558	2169
306.613	5538
306.620	6027
306.668	9238
306.711	12788
306.723	12969
306.778	9033
306.801	6526
306.833	4161
306.888	1762
306.892	1680
306.943	1168
306.982	1435
306.997	1508
307.052	836
307.072	745
307.107	1169
307.162	2699
307.163	2708
307.217	3568
307.253	4433
307.272	4561
307.327	4683
307.343	4056
307.381	2976
307.434	2793
307.436	2934
307.491	8045
307.524	12245
307.546	12969
307.600	11905
307.614	10336
307.655	5839
307.704	2767
307.710	2713
307.765	3565
307.795	4686
307.819	5758
307.874	10218
307.885	10206
307.929	7810
307.975	5509
307.984	5721
308.038	8640
308.065	10980
308.093	21236
308.148	46928
308.156	52523
308.202	76074
308.246	87531
308.257	84226
308.312	43511
308.336	29203
308.366	22230
308.421	13440
308.426	12649
308.475	7931
308.517	5098
308.530	4606
308.585	3927
308.607	3597
308.639	3457
308.694	3516
308.697	3571
308.748	8450
308.787	13598
308.803	13467
308.857	9237
308.877	7441
308.912	6311
308.967	5748
308.967	5749
309.021	9274
309.058	12040
309.076	15924
309.130	29141
309.148	34573
309.185	65158
309.238	117023
309.239	117243
309.293	116372
309.328	100488
309.348	85066
309.402	38293
309.418	26922
309.457	18723
309.508	11172
309.511	10970
309.566	9209
309.598	8641
309.620	9844
309.674	13513
309.688	14552
309.729	13017
309.778	9485
309.783	9288
309.837	7202
309.868	6245
309.892	8908
309.946	16110
309.959	18230
310.001	23013
310.049	26664
310.055	25603
310.109	13215
310.139	6695
310.163	5380
310.218	3689
310.229	3344
310.272	2570
310.319	2158
310.326	2194
310.381	2148
310.409	2316
310.435	2204
310.489	1725
310.499	1669
310.543	1737
310.589	1820
310.598	1838
310.652	1987
310.679	1969
310.706	1706
310.760	1277
310.769	1171
310.814	886
310.859	716
310.868	778
310.923	1166
310.948	1408
310.977	1411
311.031	1108
311.038	1103
311.085	1248
311.128	1154
311.139	1109
311.193	1077
311.218	971
311.247	1154
311.301	1523
311.308	1573
311.356	1206
311.398	895
311.410	965
311.464	1201
311.488	1301
311.518	1335
311.572	1372
311.578	1379
311.626	2132
311.668	2808
311.680	2755
311.734	2402
311.758	2243
311.788	2048
311.842	1691
311.847	1656
311.896	3080
311.937	4281
311.950	4140
312.004	3497
312.027	3192
312.058	2804
312.112	2126
312.117	2056
312.165	2035
312.207	2012
312.297	2377
312.386	3037
312.476	2246
312.566	5161
312.656	2107
312.745	1587
312.835	2242
312.925	2140
313.015	1735
313.104	1986
313.194	1368
313.284	1146
313.374	3044
313.463	1097
313.553	2048
313.643	1402
313.732	539
313.822	935
313.912	1090
314.001	1596
314.091	1951
314.180	3192
314.270	2771
314.360	3153
314.449	2832
314.539	1165
314.628	896
314.718	1644
314.808	1979
314.897	740
314.987	1126
315.076	1805
315.166	2502
315.255	3076
315.345	1478
315.434	1954
315.524	2270
315.613	2067
315.703	2786
315.792	2304
315.881	2184
315.971	1836
316.060	4938
316.150	7477
316.239	7631
316.328	2015
316.418	1092
316.507	1705
316.597	1969
316.686	1043
316.775	3290
316.865	8015
316.954	1396
317.043	821
317.133	730
317.222	659
317.311	141
317.400	609
317.490	2960
317.579	1818
317.668	1300
317.757	2145
317.847	2315
317.936	4193
318.025	5648
318.114	2316
318.203	1689
318.293	3396
318.382	6849
318.471	6387
318.560	9464
318.649	23002
318.738	3399
318.828	3027
318.917	2107
319.006	3530
319.095	9985
319.184	32574
319.273	15248
319.362	7672
319.451	2039
319.540	2454
319.629	6553
319.718	9764
319.807	4009
319.896	9572
319.985	38835
320.074	10392
320.163	2292
320.252	3751
320.341	3591
320.430	3335
320.519	5166
320.608	2010
320.697	1838
320.786	1496
320.875	2997
320.964	3326
321.053	6370
321.142	10714
321.230	9250
321.319	7250
321.408	19219
321.497	5745
321.586	6981
321.675	9428
321.764	6465
321.852	5294
321.941	10791
322.030	5584
322.119	7284
322.207	20395
322.296	11379
322.385	5278
322.474	6565
322.562	24582
322.651	8691
322.740	7965
322.829	9531
322.917	10203
323.006	5718
323.095	5516
323.183	2602
323.272	5271
323.361	12353
323.449	35376
323.538	9897
323.626	26222
323.715	11504
323.804	6188
323.892	23553
323.981	9976
324.069	2922
324.158	12539
324.246	9401
324.335	3815
324.424	6010
324.512	1992
324.601	2405
324.689	4665
324.778	7749
324.866	7501
324.954	1449
325.043	2246
325.131	4699
325.220	9884
325.308	8721
325.397	8061
325.485	3406
325.574	1842
325.662	338
325.750	1020
325.839	1291
325.927	867
326.015	2154
326.104	3205
326.192	4571
326.280	914
326.369	1457
326.457	3030
326.545	5632
326.634	1422
326.722	1051
326.810	977
326.898	1304
326.987	1320
327.075	4472
327.163	4842
327.251	1277
327.340	2921
327.428	2988
327.516	542
327.604	-133
327.692	1413
327.781	2195
327.869	2856
327.957	2030
328.045	1647
328.133	716
328.221	1729
328.309	1406
328.397	978
328.485	1886
328.574	3028
328.662	11627
328.750	4428
328.838	1458
328.926	1496
329.014	523
329.102	2115
329.190	7325
329.278	3272
329.366	850
329.454	768
329.542	994
329.630	896
329.718	621
329.806	2372
329.893	1171
329.981	1547
330.069	1570
330.157	9464
330.245	29843
330.333	12685
330.421	1853
330.509	4043
330.597	15143
330.684	7665
330.772	2802
330.860	3830
330.948	5641
331.036	2150
331.123	473
331.211	556
331.299	635
331.387	5432
331.475	8266
331.562	2249
331.650	1239
331.738	1165
331.825	1367
331.913	671
332.001	496
332.089	1686
332.176	3766
332.264	11924
332.352	6809
332.439	1471
332.527	800
332.614	841
332.702	1747
332.790	694
332.877	5046
332.965	9699
333.052	1661
333.140	2246
333.228	4379
333.315	190
333.403	1552
333.490	6153
333.578	4247
333.665	4700
333.753	2644
333.840	829
333.928	2257
334.015	6226
334.103	11955
334.190	38023
334.278	6569
334.365	2482
334.452	414
334.540	585
334.627	1544
334.715	2143
334.802	5895
334.889	44587
334.977	33965
335.064	2141
335.151	826
335.239	2190
335.326	2758
335.413	21093
335.501	22399
335.588	2119
335.675	949
335.762	2883
335.850	3995
335.937	2055
336.024	8524
336.111	42473
336.199	11245
336.286	964
336.373	1209
336.460	71
336.547	314
336.635	1890
336.722	1110
336.809	1454
336.896	1974
336.983	11029
337.070	28461
337.157	38208
337.245	28585
337.332	15822
337.419	785
337.506	652
337.593	1144
337.680	9569
337.767	26852
337.854	6481
337.941	6827
338.028	8767
338.115	1200
338.202	3557
338.289	7786
338.376	26803
338.463	6964
338.550	16512
338.637	13337
338.724	5517
338.811	7312
338.898	1608
338.984	9
339.071	1971
339.158	1804
339.245	7150
339.332	2661
339.419	5438
339.506	4294
339.593	-169
339.679	708
339.766	458
339.853	1810
339.940	4712
340.027	361
340.113	737
340.200	1685
340.287	840
340.374	1381
340.460	3807
340.547	-382
340.634	3454
340.720	15514
340.807	6792
340.894	438
340.980	1010
341.067	-130
341.154	1296
341.240	2352
341.327	6183
341.414	1968
341.500	1027
341.587	796
341.674	1473
341.760	4749
341.847	5289
341.933	1029
342.020	-736
342.106	551
342.193	2328
342.279	2952
342.366	1859
342.452	3646
342.539	2118
342.625	5949
342.712	14935
342.798	5472
342.885	1679
342.971	-570
343.058	-147
343.144	36
343.230	340
343.317	300
343.403	312
343.490	153
343.576	250
343.662	308
343.749	814
343.835	1032
343.921	4080
344.008	29214
344.094	61922
344.180	10804
344.267	4183
344.353	18474
344.439	17095
344.525	6970
344.612	3432
344.698	2640
344.784	1033
344.870	43
344.957	1094
345.043	2723
345.129	1443
345.215	4047
345.301	2115
345.387	-307
345.474	19
345.560	290
345.646	178
345.732	886
345.818	1573
345.904	726
345.990	1319
346.076	828
346.162	2164
346.249	1150
346.335	398
346.421	819
346.507	7093
346.593	25185
346.679	3730
346.765	1081
346.851	959
346.937	-226
347.023	1545
347.108	1547
347.194	87
347.280	506
347.366	1067
347.452	6275
347.538	29058
347.624	21741
347.710	16572
347.796	1064
347.882	950
347.967	637
348.053	1233
348.139	391
348.225	115
348.311	-13
348.397	-128
348.482	903
348.568	1248
348.654	-340
348.740	-255
348.825	-1186
348.911	3129
348.997	14260
349.083	25976
349.168	2427
349.254	1343
349.340	1500
349.425	-275
349.511	1088
349.597	1210
349.682	4192
349.768	18286
349.854	5783
349.939	762
350.025	303
350.110	363
350.196	100
350.282	-302
350.367	272
350.453	814
350.538	942
350.624	401
350.709	854
350.795	48
350.880	-183
350.966	783
351.051	1790
351.137	462
351.222	820
351.308	5331
351.393	14103
351.479	2095
351.564	-103
351.649	697
351.735	-69
351.820	629
351.906	-5
351.991	967
352.076	10348
352.162	14560
352.247	1159
352.332	1359
352.418	1436
352.503	3900
352.588	23550
352.673	16253
352.759	2406
352.844	-178
352.929	1092
353.014	1366
353.100	1331
353.185	2812
353.270	4149
353.355	4412
353.441	136
353.526	1229
353.611	3526
353.696	4241
353.781	2624
353.866	211
353.952	1469
354.037	3734
354.122	10674
354.207	9108
354.292	2056
354.377	502
354.462	535
354.547	616
354.632	298
354.717	1979
354.802	1201
354.887	-173
354.972	637
355.057	343
355.142	-195
355.227	818
355.312	1852
355.397	6363
355.482	16646
355.567	6348
355.652	5295
355.737	5546
355.822	21586
355.907	15305
355.991	1905
356.076	-680
356.161	1104
356.246	-147
356.331	69
356.416	3611
356.501	35122
356.585	32277
356.670	1841
356.755	3134
356.840	2804
356.924	23545
357.009	79128
357.094	25986
357.179	4655
357.263	2221
357.348	2696
357.433	3333
357.517	2152
357.602	1741
357.687	52
357.771	1887
357.856	6099
357.941	4387
358.025	17635
358.110	73893
358.195	30621
358.279	3398
358.364	2483
358.448	15061
358.533	40168
358.617	27971
358.702	26219
358.787	7897
358.871	4046
358.956	3273
359.040	104
359.125	-372
359.209	-300
359.294	2729
359.378	4003
359.462	2300
359.547	1321
359.631	354
359.716	-726
359.800	520
359.885	2294
359.969	69
360.053	938
360.138	468
360.222	1596
360.306	3455
360.391	2468
360.475	5103
360.559	11140
360.644	13398
360.728	7295
360.812	19535
360.896	49601
360.981	19063
361.065	7687
361.149	2026
361.233	1967
361.318	37
361.402	1252
361.486	1324
361.570	302
361.654	1632
361.739	5584
361.823	33326
361.907	48098
361.991	5261
362.075	3217
362.159	8398
362.243	5156
362.327	1962
362.411	2131
362.495	1419
362.580	510
362.664	482
362.748	-851
362.832	89
362.916	-1708
363.000	4530
363.084	29052
363.168	52435
363.252	9710
363.336	2856
363.420	5097
363.503	27039
363.587	28108
363.671	3865
363.755	1470
363.839	4276
363.923	261
364.007	3873
364.091	4301
364.175	7822
364.258	40549
364.342	15104
364.426	3980
364.510	876
364.594	3986
364.677	10176
364.761	43100
364.845	27730
364.929	7923
365.013	5800
365.096	5246
365.180	6051
365.264	11754
365.347	43028
365.431	15608
365.515	1635
365.598	393
365.682	1703
365.766	1182
365.849	3508
365.933	1319
366.017	2804
366.100	1000
366.184	-578
366.267	458
366.351	288
366.435	-396
366.518	-603
366.602	118
366.685	163
366.769	1
366.852	2511
366.936	6116
367.019	2459
367.103	1166
367.186	5073
367.270	5
367.353	-206
367.436	-425
367.520	-254
367.603	671
367.687	854
367.770	4304
367.853	3059
367.937	13668
368.020	19526
368.104	2262
368.187	3659
368.270	5654
368.353	4930
368.437	6690
368.520	16078
368.603	9632
368.687	15268
368.770	28277
368.853	5181
368.936	5863
369.020	5300
369.103	-84
369.186	-299
369.269	-80
369.352	3552
369.436	4481
369.519	2244
369.602	-1094
369.685	973
369.768	246
369.851	1257
369.934	259
370.018	568
370.101	2448
370.184	4309
370.267	1167
370.350	2659
370.433	7014
370.516	20841
370.599	23049
370.682	4630
370.765	14573
370.848	19372
370.931	33391
371.014	12555
371.097	58
371.180	679
371.263	-608
371.346	-369
371.429	-88
371.511	-743
371.594	1132
371.677	4034
371.760	5576
371.843	4137
371.926	27189
372.009	55835
372.091	16599
372.174	12568
372.257	30653
372.340	10477
372.423	7910
372.505	8345
372.588	2414
372.671	11112
372.754	34299
372.836	16269
372.919	12538
373.002	22903
373.085	5009
373.167	4062
373.250	14203
373.332	31608
373.415	43193
373.498	79317
373.580	27703
373.663	34002
373.746	43619
373.828	9130
373.911	4364
373.993	5148
374.076	23038
374.159	19689
374.241	9686
374.324	28049
374.406	18711
374.489	25033
374.571	66246
374.654	25712
374.736	12602
374.819	40553
374.901	61806
374.983	58167
375.066	8236
375.148	3126
375.231	19129
375.313	36093
375.395	9687
375.478	976
375.560	150
375.643	1938
375.725	13226
375.807	53746
375.890	41024
375.972	14746
376.054	8028
376.136	12670
376.219	4198
376.301	17026
376.383	46905
376.465	16108
376.548	8773
376.630	13680
376.712	40838
376.794	16454
376.877	835
376.959	-181
377.041	1464
377.123	3464
377.205	3913
377.287	-456
377.369	831
377.452	166
377.534	322
377.616	-819
377.698	-188
377.780	-1601
377.862	-546
377.944	499
378.026	-1162
378.108	497
378.190	-43
378.272	-17
378.354	83
378.436	-1470
378.518	1418
378.600	8278
378.682	8749
378.764	20016
378.846	14642
378.928	3288
379.010	3990
379.091	1933
379.173	531
379.255	-916
379.337	844
379.419	9439
379.501	28346
379.583	9484
379.664	2209
379.746	5482
379.828	20313
379.910	27030
379.991	22148
380.073	2110
380.155	1388
380.237	398
380.318	-1061
380.400	196
380.482	2893
380.564	5077
380.645	3632
380.727	4028
380.809	1864
380.890	526
380.972	-641
381.053	185
381.135	1095
381.217	5945
381.298	19978
381.380	8353
381.461	7114
381.543	40923
381.624	46911
381.706	6772
381.787	1816
381.869	3310
381.951	17134
382.032	60893
382.113	38223
382.195	4615
382.276	3239
382.358	11027
382.439	31672
382.521	39966
382.602	57813
382.684	25557
382.765	47329
382.846	42038
382.928	42583
383.009	21393
383.090	14861
383.172	65411
383.253	96733
383.334	38498
383.416	50298
383.497	23931
383.578	5695
383.659	12202
383.741	58336
383.822	152166
383.903	74607
383.984	34106
384.066	66334
384.147	38889
384.228	5377
384.309	3420
384.390	1424
384.471	1258
384.553	1173
384.634	2990
384.715	3270
384.796	657
384.877	1787
384.958	17559
385.039	19062
385.120	5306
385.201	2039
385.282	3187
385.363	2417
385.444	915
385.525	5573
385.606	25146
385.687	20501
385.768	3605
385.849	4998
385.930	29831
386.011	45781
386.092	10205
386.173	613
386.254	1150
386.335	1385
386.416	1555
386.496	11458
386.577	18467
386.658	4897
386.739	2382
386.820	2497
386.901	786
386.981	682
387.062	486
387.143	4037
387.224	18911
387.304	16094
387.385	4804
387.466	280
387.547	2519
387.627	528
387.708	7273
387.789	34982
387.869	39860
387.950	10010
388.031	-548
388.111	-1238
388.192	5127
388.273	7284
388.353	3565
388.434	1694
388.514	6053
388.595	30812
388.676	39952
388.756	18936
388.837	17138
388.917	8831
388.998	-228
389.078	496
389.159	-64
389.239	-891
389.320	2616
389.400	-176
389.480	7658
389.561	18943
389.641	9571
389.722	1525
389.802	3581
389.883	8100
389.963	24568
390.043	12826
390.124	2594
390.204	6135
390.284	21524
390.365	11935
390.445	20513
390.525	56637
390.605	47801
390.686	10345
390.766	2363
390.846	860
390.927	-162
391.007	-633
391.087	1431
391.167	-358
391.247	-1844
391.328	1669
391.408	4350
391.488	1887
391.568	-2079
391.648	379
391.728	2780
391.808	2137
391.888	2217
391.969	9705
392.049	16601
392.129	6193
392.209	7535
392.289	21627
392.369	11439
392.449	7350
392.529	3799
392.609	2593
392.689	4440
392.769	20896
392.849	16634
392.929	10880
393.009	27738
393.089	15770
393.169	3115
393.248	10405
393.328	70491
393.408	72707
393.488	11378
393.568	2260
393.648	1325
393.728	321
393.807	-101
393.887	622
393.967	1703
394.047	1958
394.127	3383
394.206	9291
394.286	45257
394.366	177048
394.446	183353
394.525	41807
394.605	8538
394.685	7094
394.764	14639
394.844	22932
394.924	15250
395.003	3215
395.083	2028
395.163	1700
395.242	1244
395.322	1829
395.402	-55
395.481	2389
395.561	9052
395.640	25855
395.720	18727
395.799	28559
395.879	24074
395.958	16300
396.038	68588
396.117	231841
396.197	243453
396.276	71680
396.356	20619
396.435	11197
396.515	7825
396.594	4196
396.673	5789
396.753	18550
396.832	64595
396.912	59830
396.991	17784
397.070	3399
397.150	204
397.229	1149
397.308	-558
397.388	-312
397.467	877
397.546	-61
397.625	-1698
397.705	1493
397.784	1634
397.863	-685
397.942	-382
398.022	-88
398.101	8273
398.180	24916
398.259	12030
398.338	1673
398.417	-7
398.497	-217
398.576	678
398.655	-1381
398.734	-139
398.813	-54
398.892	7957
398.971	27717
399.050	11680
399.129	-578
399.208	-619
399.287	295
399.366	-1071
399.445	-148
399.524	-548
399.603	-1627
399.682	1562
399.761	8402
399.840	29573
399.919	22746
399.998	1601
400.077	-1210
400.156	-1748
400.235	1495
400.313	-994
400.392	-214
400.471	10181
400.550	16570
400.629	2315
400.708	930
400.786	177
400.865	3893
400.944	4229
401.023	2559
401.102	-946
401.180	-1311
401.259	-80
401.338	-1406
401.416	621
401.495	-366
401.574	441
401.652	-758
401.731	1266
401.810	-1433
401.888	-483
401.967	-2178
402.046	-551
402.124	548
402.203	-185
402.281	-302
402.360	622
402.438	5773
402.517	3050
402.596	448
402.674	390
402.753	-422
402.831	38
402.910	394
402.988	5858
403.066	19474
403.145	11905
403.223	6346
403.302	16182
403.380	12539
403.459	11031
403.537	2954
403.615	-34
403.694	-2084
403.772	79
403.850	-853
403.929	-1308
404.007	-1141
404.085	2033
404.164	788
404.242	-127
404.320	4596
404.398	18070
404.477	21796
404.555	52417
404.633	45498
404.711	14731
404.789	7168
404.868	522
404.946	-1044
405.024	-187
405.102	-1148
405.180	-812
405.258	-2904
405.336	144
405.415	-761
405.493	1578
405.571	1371
405.649	-873
405.727	-1250
405.805	491
405.883	280
405.961	327
406.039	671
406.117	-1039
406.195	735
406.273	11542
406.351	44496
406.429	26482
406.507	1873
406.585	-1037
406.663	677
406.740	408
406.818	-316
406.896	-179
406.974	1017
407.052	2577
407.130	24963
407.208	33893
407.285	5489
407.363	-1973
407.441	-432
407.519	-1019
407.596	-425
407.674	1584
407.752	3880
407.830	6140
407.907	2752
407.985	-192
408.063	347
408.141	-1300
408.218	1325
408.296	-204
408.373	-91
408.451	-760
408.529	-467
408.606	-1871
408.684	-1115
408.762	-856
408.839	-1134
408.917	-607
408.994	-1530
409.072	-1743
409.149	-1291
409.227	-193
409.304	-1182
409.382	-1059
409.459	-1957
409.537	-1146
409.614	-292
409.692	-1077
409.769	-1489
409.846	-1143
409.924	705
410.001	-2058
410.079	-1665
410.156	582
410.233	-205
410.311	-1163
410.388	-889
410.465	-930
410.543	-651
410.620	-887
410.697	-452
410.775	8
410.852	-2222
410.929	266
411.006	435
411.083	-1107
411.161	56
411.238	657
411.315	107
411.392	-765
411.469	113
411.547	442
411.624	-2232
411.701	-1044
411.778	-196
411.855	1564
411.932	-383
412.009	-971
412.086	-349
412.163	-376
412.240	-918
412.317	649
412.394	-274
412.471	-134
412.548	-585
412.625	-1239
412.702	53
412.779	822
412.856	-52
412.933	-1551
413.010	-82
413.087	418
413.164	7882
413.241	12742
413.318	1001
413.395	604
413.471	928
413.548	-459
413.625	-423
413.702	-682
413.779	-793
413.855	-294
413.932	-1915
414.009	-1841
414.086	-1350
414.162	-869
414.239	458
414.316	8434
414.393	20249
414.469	4940
414.546	-1001
414.623	-841
414.699	-48
414.776	-139
414.853	-825
414.929	-829
415.006	-727
415.082	-225
415.159	-334
415.236	159
415.312	-565
415.389	523
415.465	1068
415.542	144
415.618	-1121
415.695	951
415.771	-642
415.848	-627
415.924	-41
416.000	-609
416.077	-828
416.153	-1549
416.230	-2285
416.306	-1683
416.383	-1808
416.459	-327
416.535	-1924
416.612	-880
416.688	-1084
416.764	-1455
416.841	-1239
416.917	-1331
416.993	-998
417.069	-334
417.146	-19
417.222	-54
417.298	-168
417.374	-1322
417.451	-104
417.527	-45
417.603	-62
417.679	-402
417.755	-781
417.831	-1391
417.908	-1276
417.984	-1076
418.060	-1443
418.136	1379
418.212	1433
418.288	-23
418.364	-209
418.440	-1072
418.516	-43
418.592	376
418.668	1567
418.744	4650
418.820	3060
418.896	53
418.972	-1642
419.048	-316
419.124	1550
419.200	-70
419.276	-1074
419.352	-1585
419.428	-1042
419.504	-1268
419.579	-630
419.655	-1104
419.731	-1082
419.807	2118
419.883	5197
419.959	3133
420.034	-136
420.110	1904
420.186	11294
420.262	9294
420.337	-505
420.413	-324
420.489	-240
420.565	-485
420.640	-1434
420.716	-643
420.792	-1919
420.867	-367
420.943	-2108
421.019	482
421.094	-860
421.170	-565
421.245	-2371
421.321	-1061
421.397	-1256
421.472	607
421.548	297
421.623	1780
421.699	-908
421.774	-500
421.850	-1501
421.925	891
422.001	-439
422.076	-1163
422.152	-1242
422.227	-39
422.302	-46
422.378	-366
422.453	-562
422.529	3280
422.604	22811
422.679	54588
422.755	26221
422.830	3352
422.905	-585
422.981	-1242
423.056	-1413
423.131	-993
423.207	-1482
423.282	-83
423.357	1411
423.432	376
423.508	713
423.583	3848
423.658	3291
423.733	-1077
423.808	-85
423.883	47
423.959	-469
424.034	-1269
424.109	-1361
424.184	-1459
424.259	-2223
424.334	-1307
424.409	-2207
424.484	-1232
424.559	-1091
424.634	-1706
424.709	-107
424.784	567
424.859	-1082
424.934	503
425.009	7866
425.084	14425
425.159	3644
425.234	-696
425.309	-1323
425.384	235
425.459	195
425.534	165
425.609	-876
425.683	-1285
425.758	-1552
425.833	-501
425.908	28
425.983	4073
426.058	14692
426.132	5064
426.207	-432
426.282	814
426.357	-315
426.431	-623
426.506	-696
426.581	-711
426.655	-379
426.730	-986
426.805	-1683
426.879	-455
426.954	-646
427.029	1760
427.103	14575
427.178	35869
427.253	15513
427.327	69
427.402	-33
427.476	1692
427.551	-297
427.625	-516
427.700	45
427.774	-1695
427.849	-937
427.923	-1659
427.998	-1781
428.072	-816
428.147	548
428.221	2743
428.296	4438
428.370	349
428.444	-876
428.519	865
428.593	3600
428.667	2732
428.742	3718
428.816	1972
428.890	5419
428.965	6107
429.039	3494
429.113	3958
429.188	800
429.262	-1278
429.336	711
429.410	4953
429.485	2927
429.559	2781
429.633	1970
429.707	-836
429.781	1125
429.855	9265
429.930	13726
430.004	12774
430.078	23105
430.152	14906
430.226	4751
430.300	3529
430.374	-721
430.448	857
430.522	6889
430.596	22722
430.670	12078
430.744	20396
430.818	34609
430.892	6311
430.966	-427
431.040	-758
431.114	-1373
431.188	-1309
431.262	-1473
431.336	-1160
431.410	646
431.484	4774
431.557	3324
431.631	-1604
431.705	-1456
431.779	-1121
431.853	1901
431.927	705
432.000	-1085
432.074	-679
432.148	-778
432.222	-814
432.295	-297
432.369	-512
432.443	77
432.516	14376
432.590	36725
432.664	12820
432.737	-414
432.811	-1213
432.885	-1679
432.958	-1028
433.032	-2155
433.106	-1192
433.179	-1544
433.253	-1007
433.326	-1576
433.400	-1586
433.473	-675
433.547	-1266
433.620	-1348
433.694	-455
433.767	-475
433.841	-1660
433.914	-1386
433.988	-1119
434.061	-769
434.134	-1508
434.208	-1833
434.281	-2044
434.355	-2112
434.428	-1335
434.501	-1641
434.575	-1523
434.648	-1638
434.721	-1602
434.795	-1758
434.868	-1645
434.941	-1778
435.014	-1209
435.088	-1292
435.161	-1069
435.234	-872
435.307	-417
435.381	-899
435.454	-1897
435.527	-1815
435.600	-1653
435.673	-1759
435.746	-1421
435.819	-2044
435.892	-1274
435.966	-1914
436.039	-1343
436.112	-1039
436.185	-1166
436.258	-1407
436.331	-2708
436.404	-1979
436.477	-1336
436.550	-1382
436.623	-734
436.696	-1089
436.769	-80
436.842	-1497
436.915	-804
436.987	-1266
437.060	-1422
437.133	-1492
437.206	-1505
437.279	-1164
437.352	-1425
437.425	-1411
437.498	-352
437.570	487
437.643	44
437.716	-1215
437.789	-1061
437.861	-888
437.934	798
438.007	-1173
438.080	-1344
438.152	-780
438.225	1232
438.298	20445
438.370	50441
438.443	18469
438.516	880
438.588	-1448
438.661	-1850
438.734	-1068
438.806	-1324
438.879	-1278
438.951	-862
439.024	-456
439.096	-1103
439.169	-1304
439.241	-2008
439.314	-1551
439.386	-917
439.459	-664
439.531	632
439.604	-1648
439.676	-1183
439.749	-2078
439.821	-1512
439.893	-723
439.966	-1234
440.038	-1375
440.110	-960
440.183	-1945
440.255	-1648
440.327	-436
440.400	7773
440.472	31758
440.544	18429
440.617	160
440.689	-104
440.761	-38
440.833	65
440.905	-768
440.978	-1410
441.050	-1156
441.122	-730
441.194	-1731
441.266	-1496
441.338	-864
441.411	-75
441.483	8732
441.555	12603
441.627	1461
441.699	-46
441.771	177
441.843	-1078
441.915	-1674
441.987	-1365
442.059	-1706
442.131	-1006
442.203	-717
442.275	-201
442.347	-573
442.419	-1296
442.491	-730
442.563	175
442.635	279
442.706	3949
442.778	4045
442.850	-1157
442.922	-2328
442.994	-813
443.066	-790
443.137	-1164
443.209	-1508
443.281	-1207
443.353	-148
443.425	-182
443.496	2268
443.568	1575
443.640	-1462
443.711	-1399
443.783	-1648
443.855	-2202
443.926	-2059
443.998	-1062
444.070	-1301
444.141	-1193
444.213	-443
444.285	362
444.356	-484
444.428	-819
444.499	-1375
444.571	-1611
444.642	-933
444.714	-1451
444.785	-1197
444.857	-62
444.928	2072
445.000	25
445.071	987
445.143	366
445.214	-862
445.285	22
445.357	3781
445.428	3857
445.500	6918
445.571	5583
445.642	1347
445.714	2773
445.785	4055
445.856	212
445.928	-241
445.999	-825
446.070	-1485
446.141	-364
446.213	-230
446.284	-1451
446.355	-1154
446.426	-1524
446.497	-1541
446.569	-225
446.640	167
446.711	409
446.782	-961
446.853	-958
446.924	-1149
446.995	-1682
447.066	-1864
447.138	-45
447.209	-806
447.280	-1796
447.351	-1718
447.422	-2072
447.493	-984
447.564	-1105
447.635	-1383
447.706	-1388
447.777	-1315
447.847	-1125
447.918	-1762
447.989	-857
448.060	288
448.131	894
448.202	435
448.273	515
448.344	-1290
448.414	-1552
448.485	-1784
448.556	-1876
448.627	-1338
448.698	-895
448.768	-1610
448.839	-2021
448.910	-1089
448.981	-413
449.051	-1292
449.122	-818
449.193	-1497
449.263	-1485
449.334	-1224
449.405	-633
449.475	-98
449.546	-175
449.616	-411
449.687	-1129
449.758	-1758
449.828	-962
449.899	-1440
449.969	-1324
450.040	-1541
450.110	-393
450.181	-1122
450.251	-1358
450.322	-684
450.392	-1230
450.463	-1012
450.533	-1884
450.604	-1489
450.674	-1182
450.744	-1428
450.815	-2358
450.885	-914
450.955	-1971
451.026	-2195
451.096	-1828
451.166	-1768
451.237	296
451.307	3305
451.377	122
451.447	-2239
451.518	-1235
451.588	-1257
451.658	-1016
451.728	-1050
451.799	3184
451.869	3353
451.939	121
452.009	-1312
452.079	-1249
452.149	-1477
452.219	311
452.289	4136
452.360	1462
452.430	-942
452.500	-730
452.570	-1081
452.640	-167
452.710	927
452.780	3222
452.850	1417
452.920	2177
452.990	-625
453.060	-1881
453.129	-931
453.199	-354
453.269	6577
453.339	12009
453.409	17487
453.479	19276
453.549	27760
453.619	28991
453.688	7408
453.758	-262
453.828	-819
453.898	-1300
453.968	-1145
454.037	-1783
454.087	-1500
454.107	-1395
454.168	-1722
454.177	-1779
454.247	-1269
454.249	-1236
454.316	-807
454.330	-798
454.386	-829
454.411	-86
454.456	1061
454.492	1801
454.525	2481
454.574	650
454.595	-152
454.655	-1151
454.665	-1307
454.734	-389
454.736	-374
454.804	-997
454.817	-31
454.873	3848
454.898	3713
454.943	3439
454.979	1920
455.013	589
455.060	-777
455.082	-1374
455.141	-451
455.152	-313
455.221	2495
455.222	2569
455.291	6045
455.303	6193
455.360	6688
455.384	10112
455.430	15953
455.465	11015
455.499	6448
455.546	4640
455.569	3740
455.627	1522
455.638	1126
455.707	-607
455.708	-598
455.777	-652
455.789	-634
455.846	-676
455.869	-862
455.916	-1241
455.950	-1066
455.985	-873
456.031	-1344
456.054	-1650
456.112	-914
456.124	-727
456.193	-1258
456.193	-1275
456.262	-904
456.274	-848
456.332	-498
456.355	-366
456.401	-318
456.436	-796
456.470	-1247
456.516	-803
456.540	-598
456.597	-1193
456.609	-1261
456.678	-786
456.678	-795
456.747	-1168
456.759	-1119
456.817	-612
456.840	-666
456.886	-1022
456.920	-545
456.955	-12
457.001	-718
457.024	-1124
457.082	-826
457.093	-728
457.162	-210
457.163	-198
457.232	-266
457.243	-385
457.301	-746
457.324	-910
457.370	-1113
457.405	-655
457.439	-385
457.485	-583
457.508	-627
457.566	-323
457.577	-292
457.646	-267
457.647	-264
457.715	-313
457.727	-289
457.784	-412
457.808	-334
457.853	-126
457.889	-91
457.922	-55
457.969	-269
457.991	-527
458.050	-673
458.060	-647
458.129	-561
458.130	-539
458.198	347
458.211	186
458.267	-702
458.292	-518
458.336	-23
458.372	-48
458.405	-107
458.453	-120
458.474	-242
458.533	-467
458.543	-426
458.611	390
458.614	404
458.680	22
458.694	31
458.749	263
458.775	228
458.818	20
458.855	-29
458.887	56
458.936	-252
458.955	-446
459.016	-158
459.024	-56
459.093	105
459.097	145
459.162	100
459.177	27
459.230	-75
459.257	141
459.299	524
459.338	366
459.368	134
459.418	398
459.437	457
459.499	-179
459.505	-218
459.574	147
459.579	145
459.643	-439
459.659	-470
459.711	59
459.740	376
459.780	483
459.820	469
459.849	431
459.900	176
459.917	181
459.981	620
459.986	628
460.054	305
460.061	341
460.123	750
460.141	657
460.191	773
460.222	1179
460.260	1321
460.302	1290
460.328	1150
460.382	979
460.397	945
460.462	168
460.465	180
460.534	1601
460.543	1666
460.602	2690
460.623	3392
460.671	5480
460.703	7011
460.739	5784
460.783	3863
460.808	3433
460.864	900
460.876	628
460.944	737
460.945	737
461.013	737
461.024	797
461.081	340
461.104	80
461.150	134
461.184	382
461.218	572
461.264	588
461.286	645
461.345	579
461.355	514
461.423	506
461.425	502
461.491	135
461.505	141
461.559	1927
461.585	2567
461.628	3496
461.665	4847
461.696	5150
461.745	6067
461.764	5547
461.825	1495
461.832	1362
461.901	1263
461.905	1252
461.969	518
461.985	399
462.037	1165
462.065	1616
462.105	1269
462.145	857
462.173	1531
462.225	2656
462.241	2740
462.305	4141
462.310	4063
462.378	1912
462.385	1562
462.446	631
462.465	590
462.514	549
462.545	674
462.582	686
462.625	599
462.650	817
462.705	1029
462.718	980
462.785	1114
462.786	1122
462.854	1363
462.865	1436
462.922	1970
462.945	2082
462.990	1524
463.025	1017
463.058	1121
463.104	1483
463.126	1394
463.184	1059
463.194	1036
463.262	655
463.264	648
463.330	1010
463.344	1074
463.398	1446
463.424	1639
463.466	1464
463.504	1292
463.533	1597
463.583	2090
463.601	1987
463.663	1663
463.669	1690
463.737	2045
463.743	2059
463.805	3656
463.823	4147
463.873	5764
463.903	6838
463.940	6768
463.982	6702
464.008	5578
464.062	2617
464.076	2357
464.142	1261
464.144	1264
464.211	1375
464.221	1404
464.279	1340
464.301	1277
464.347	1959
464.381	2544
464.414	2101
464.461	1520
464.482	1682
464.540	2160
464.550	2232
464.617	2462
464.620	2465
464.685	3528
464.699	3801
464.753	4103
464.779	4139
464.820	4327
464.859	4612
464.888	4296
464.938	3744
464.956	3988
465.018	4639
465.023	4618
465.091	4179
465.098	4139
465.158	3751
465.177	3640
465.226	3721
465.257	3776
465.293	3994
465.336	4131
465.361	4360
465.416	4835
465.428	5052
465.495	6193
465.496	6217
465.563	8227
465.575	8554
465.631	9443
465.654	9873
465.698	6553
465.734	3478
465.765	3528
465.813	3663
465.833	3587
465.893	3529
465.900	3586
465.968	4094
465.972	4108
466.035	3498
466.052	3350
466.102	3243
466.131	3135
466.170	3140
466.210	3240
466.237	3791
466.290	4787
466.304	4639
466.369	3902
466.372	3920
466.439	4227
466.449	4249
466.506	4403
466.528	4481
466.573	6946
466.607	8767
466.641	10268
466.687	12310
466.708	13199
466.766	15708
466.775	14626
466.842	6108
466.845	5694
466.909	5159
466.925	5039
466.977	4775
467.004	4632
467.044	5330
467.083	6023
467.111	6572
467.163	7557
467.178	7633
467.242	7875
467.245	7862
467.312	7269
467.321	7177
467.379	6856
467.400	6720
467.446	6934
467.480	7067
467.559	6563
467.638	5282
467.717	7303
467.796	6403
467.875	5879
467.955	6042
468.034	10075
468.113	15450
468.192	19761
468.271	5104
468.350	3938
468.429	5198
468.508	5299
468.588	4967
468.667	4544
468.746	5554
468.825	4701
468.904	4857
468.983	6359
469.062	6954
469.141	7352
469.220	4862
469.299	5296
469.378	5330
469.456	8395
469.535	6950
469.614	5962
469.693	6127
469.772	8013
469.851	8435
469.930	5896
470.009	5401
470.088	4725
470.166	6209
470.245	7044
470.324	6355
470.403	5733
470.482	5887
470.560	5691
470.639	4471
470.718	5874
470.797	4731
470.875	6334
470.954	5665
471.033	6267
471.111	3720
471.190	4488
471.269	4060
471.347	4493
471.426	5050
471.505	6012
471.583	6689
471.662	6496
471.740	4886
471.819	4939
471.898	5219
471.976	5006
472.055	5138
472.133	5639
472.212	6625
472.290	6001
472.369	3962
472.447	5140
472.526	4558
472.604	4880
472.683	3853
472.761	4255
472.839	4422
472.918	4230
472.996	4705
473.075	5396
473.153	5204
473.231	4287
473.310	4808
473.388	5221
473.466	4288
473.545	5697
473.623	6933
473.701	5919
473.780	4295
473.858	3661
473.936	5565
474.014	3656
474.093	4727
474.171	6106
474.249	8271
474.327	5457
474.405	4289
474.484	3910
474.562	3862
474.640	3982
474.718	4448
474.796	4501
474.874	4318
474.952	3937
475.030	3108
475.108	4230
475.187	3349
475.265	4792
475.343	5512
475.421	6006
475.499	3848
475.577	4145
475.655	6050
475.733	8414
475.811	11986
475.889	9624
475.966	6965
476.044	4217
476.122	4577
476.200	5548
476.278	4167
476.356	3584
476.434	4584
476.512	5376
476.590	5286
476.667	4890
476.745	3065
476.823	4653
476.901	3690
476.979	4177
477.056	4600
477.134	4564
477.212	3986
477.290	3696
477.367	4008
477.445	4085
477.523	4257
477.601	3687
477.678	3713
477.756	4402
477.834	5389
477.911	3802
477.989	3302
478.066	3426
478.144	3752
478.222	4364
478.299	4322
478.377	5013
478.454	3171
478.532	3270
478.609	2934
478.687	4155
478.764	2651
478.842	3721
478.919	2649
478.997	3485
479.074	2684
479.152	3868
479.229	4215
479.307	3184
479.384	3286
479.461	2586
479.539	2582
479.616	3522
479.694	2790
479.771	3286
479.848	3422
479.926	3891
480.003	4620
480.080	2270
480.157	2447
480.235	3051
480.312	3053
480.389	3849
480.467	3707
480.544	6170
480.621	4044
480.698	3321
480.775	4349
480.853	4298
480.930	2882
481.007	4367
481.084	3206
481.161	4556
481.238	3554
481.315	3043
481.392	3420
481.470	2519
481.547	2932
481.624	3090
481.701	3210
481.778	2891
481.855	3078
481.932	4892
482.009	7103
482.086	4835
482.163	2312
482.240	4092
482.317	6135
482.393	3843
482.470	3195
482.547	3143
482.624	3473
482.701	2997
482.778	3078
482.855	2331
482.932	1951
483.009	2778
483.085	2930
483.162	3130
483.239	3197
483.316	1767
483.393	2891
483.469	2652
483.546	2362
483.623	3573
483.699	3128
483.776	3162
483.853	2746
483.930	6430
484.006	12516
484.083	21446
484.160	18019
484.236	28353
484.313	19522
484.389	13889
484.466	13435
484.543	11893
484.619	12648
484.696	12809
484.772	12635
484.849	12906
484.925	10883
485.002	11460
485.078	12291
485.155	10902
485.231	11321
485.308	10309
485.384	11434
485.461	13143
485.537	15481
485.614	17011
485.690	10982
485.766	9971
485.843	10749
485.919	12382
485.995	12762
486.072	9411
486.148	9074
486.224	9430
486.301	9911
486.377	11331
486.453	9560
486.530	12381
486.606	16010
486.682	17110
486.758	17241
486.835	15724
486.911	14177
486.987	20027
487.063	19752
487.139	22155
487.215	15996
487.292	12292
487.368	10543
487.444	11387
487.520	11534
487.596	9163
487.672	10489
487.748	11881
487.824	12992
487.900	9097
487.976	9506
488.052	9318
488.128	10682
488.204	9549
488.280	9063
488.356	12551
488.432	16856
488.508	20907
488.584	10761
488.660	8301
488.736	8596
488.812	9309
488.888	11785
488.964	14557
489.039	23156
489.115	29580
489.191	16276
489.267	9057
489.343	9146
489.418	7724
489.494	7669
489.570	6095
489.646	8635
489.722	7967
489.797	7775
489.873	10764
489.949	17135
490.024	13846
490.100	7155
490.176	7693
490.251	7168
490.327	9358
490.403	5445
490.478	6919
490.554	5982
490.629	6816
490.705	6053
490.781	6914
490.856	5737
490.932	7118
491.007	6380
491.083	6241
491.158	5930
491.234	8464
491.309	12701
491.385	11643
491.460	5498
491.536	7104
491.611	5472
491.686	7620
491.762	8429
491.837	13843
491.913	21552
491.988	28180
492.063	31782
492.139	9608
492.214	7048
492.289	4870
492.365	4494
492.440	5941
492.515	4873
492.590	5382
492.666	4686
492.741	7075
492.816	7648
492.891	4771
492.967	5030
493.042	4578
493.117	4548
493.192	5558
493.267	11335
493.342	24629
493.418	29789
493.493	5814
493.568	3834
493.643	4272
493.718	5283
493.793	6645
493.868	7260
493.943	4609
494.018	4610
494.093	4648
494.168	3879
494.243	2715
494.318	4193
494.393	4391
494.468	3516
494.543	3116
494.618	4323
494.693	3119
494.768	3631
494.842	4665
494.917	2819
494.992	3676
495.067	2867
495.142	3006
495.217	3491
495.292	3518
495.366	4483
495.441	4836
495.516	6238
495.591	9911
495.665	29821
495.740	55885
495.815	18496
495.890	5320
495.964	2153
496.039	7327
496.114	4779
496.188	5014
496.263	4552
496.338	3604
496.412	3485
496.487	6511
496.561	5676
496.636	5212
496.710	4390
496.785	5292
496.860	5689
496.934	4786
497.009	4557
497.083	4852
497.158	4988
497.232	5765
497.307	6231
497.381	5188
497.455	6647
497.530	8030
497.604	5982
497.679	6226
497.753	9335
497.827	9930
497.902	8533
497.976	13338
498.050	41219
498.125	116218
498.199	96168
498.273	13660
498.348	10889
498.422	8783
498.496	7627
498.570	7543
498.645	5509
498.719	4996
498.793	7222
498.867	10635
498.941	17967
499.016	55401
499.090	113846
499.164	29656
499.238	5458
499.312	5066
499.386	6383
499.460	5751
499.534	5405
499.609	6042
499.683	7609
499.757	9492
499.831	27270
499.905	80278
499.979	60741
500.053	9724
500.127	9219
500.201	6543
500.275	4544
500.349	4990
500.422	5293
500.496	8735
500.570	19453
500.644	49188
500.718	72707
500.792	12086
500.866	5611
500.940	6429
501.013	5559
501.087	6434
501.161	9623
501.235	12254
501.309	30732
501.382	69864
501.456	51214
501.530	13228
501.603	19471
501.677	6685
501.751	2975
501.825	5647
501.898	11820
501.972	26234
502.046	13840
502.119	4826
502.193	14185
502.266	27192
502.340	11970
502.413	14724
502.487	22853
502.561	11257
502.634	4547
502.708	4342
502.781	3064
502.855	4168
502.928	2352
503.002	3310
503.075	1980
503.149	3383
503.222	3051
503.295	3120
503.369	4793
503.442	6563
503.516	22093
503.589	45266
503.662	24711
503.736	9813
503.809	21591
503.882	16725
503.956	28640
504.029	20068
504.102	6179
504.175	5708
504.249	2379
504.322	4278
504.395	3055
504.468	2526
504.542	2540
504.615	2455
504.688	2040
504.761	1446
504.834	4021
504.907	4285
504.980	6294
505.053	3655
505.127	3243
505.200	6700
505.273	4156
505.346	2453
505.419	1939
505.492	3447
505.565	1671
505.638	1476
505.711	1462
505.784	1153
505.857	2031
505.930	3682
506.003	1635
506.076	4128
506.149	2098
506.221	3019
506.294	5260
506.367	13887
506.440	37906
506.513	15854
506.586	4288
506.659	2141
506.731	2788
506.804	2985
506.877	3351
506.950	3159
507.022	2697
507.095	2864
507.168	3486
507.241	3864
507.313	953
507.386	2323
507.459	4309
507.531	2315
507.604	1190
507.677	3084
507.749	506
507.822	4199
507.894	8762
507.967	11008
508.040	5799
508.112	4539
508.185	4347
508.257	3840
508.330	6592
508.402	4518
508.475	3506
508.547	4602
508.620	4392
508.692	5796
508.765	4503
508.837	3466
508.909	3971
508.982	3976
509.054	4155
509.127	3953
509.199	3233
509.271	2716
509.344	2455
509.416	2776
509.488	2718
509.560	4069
509.633	3460
509.705	3424
509.777	3807
509.849	6226
509.922	3099
509.994	3254
510.066	3864
510.138	5107
510.210	13148
510.283	7933
510.355	7119
510.427	6147
510.499	5801
510.571	4534
510.643	5333
510.715	8865
510.787	4595
510.859	6944
510.931	5714
511.003	7740
511.076	6586
511.148	4085
511.219	4520
511.291	7433
511.363	6946
511.435	4777
511.507	3727
511.579	4958
511.651	5834
511.723	4287
511.795	3518
511.867	3638
511.939	5574
512.010	7376
512.082	5854
512.154	3300
512.226	4794
512.298	8801
512.369	10851
512.441	8590
512.513	7895
512.585	4058
512.656	6764
512.728	5454
512.800	4924
512.871	5258
512.943	4881
513.015	3610
513.086	5202
513.158	5949
513.230	5297
513.301	6037
513.373	7328
513.444	4429
513.516	4113
513.588	4447
513.659	5380
513.731	5939
513.802	4240
513.874	11342
513.945	12273
514.016	4989
514.088	4708
514.159	3810
514.231	7570
514.302	9954
514.374	7072
514.445	5481
514.516	11379
514.588	7001
514.659	6002
514.730	9361
514.802	7099
514.873	3692
514.944	7559
515.016	6759
515.087	6002
515.158	7148
515.229	9239
515.301	4389
515.372	6391
515.443	3819
515.514	3900
515.585	2832
515.656	4374
515.728	4794
515.799	3989
515.870	4877
515.941	4382
516.012	4484
516.083	8167
516.154	5772
516.225	8147
516.296	6923
516.367	5512
516.438	5065
516.509	6402
516.580	10249
516.651	32376
516.722	78716
516.793	31904
516.864	8788
516.935	8403
517.006	9845
517.077	13541
517.148	32084
517.219	87899
517.289	107621
517.360	41323
517.431	14548
517.502	4412
517.573	6588
517.643	5554
517.714	6877
517.785	7235
517.856	5875
517.926	8174
517.997	8189
518.068	7787
518.138	10770
518.209	17591
518.280	69741
518.350	184471
518.421	51547
518.492	7917
518.562	6016
518.633	5785
518.703	3622
518.774	7206
518.845	6607
518.915	5739
518.986	5714
519.056	8053
519.127	13264
519.197	21310
519.268	43936
519.338	23535
519.408	7596
519.479	8491
519.549	5495
519.620	5806
519.690	4607
519.760	4710
519.831	3867
519.901	3629
519.971	3879
520.042	3510
520.112	3868
520.182	5136
520.253	5618
520.323	3656
520.393	4717
520.463	7873
520.534	3201
520.604	9530
520.674	6048
520.744	5378
520.814	8220
520.885	9285
520.955	18785
521.025	50559
521.095	14835
521.165	5152
521.235	3669
521.305	2753
521.375	4140
521.445	4328
521.515	4918
521.585	6753
521.655	4062
521.725	4971
521.795	4593
521.865	1884
521.935	7580
522.005	3245
522.075	2992
522.145	4227
522.215	2406
522.285	5603
522.355	7725
522.424	12079
522.494	7912
522.564	6229
522.634	13725
522.704	32447
522.774	9413
522.843	4174
522.913	3797
522.983	4127
523.053	1720
523.122	3923
523.192	5469
523.262	16673
523.331	11723
523.401	3536
523.471	3122
523.540	2598
523.610	1655
523.680	2297
523.749	3288
523.819	4145
523.888	2235
523.958	2185
524.027	2610
524.097	3112
524.166	3245
524.236	2289
524.305	4513
524.375	2329
524.444	2193
524.514	4236
524.583	2163
524.653	2686
524.722	4631
524.791	1227
524.861	3371
524.930	1143
524.999	1826
525.069	5017
525.138	2952
525.207	3271
525.277	2979
525.346	2436
525.415	2267
525.484	2161
525.554	2036
525.623	2163
525.692	2545
525.761	1617
525.830	2282
525.900	1704
525.969	3877
526.038	2907
526.107	1319
526.176	5123
526.245	3602
526.314	5256
526.383	5586
526.452	2696
526.522	9086
526.591	12164
526.660	12000
526.729	4507
526.797	8805
526.867	26716
526.935	94629
527.004	50130
527.073	13223
527.142	2872
527.211	2235
527.280	3863
527.349	3204
527.418	1447
527.487	2791
527.555	575
527.624	964
527.693	294
527.762	2960
527.831	489
527.899	2766
527.968	1304
528.037	681
528.106	3384
528.174	5323
528.243	3953
528.312	5558
528.380	5630
528.449	1529
528.518	2335
528.586	584
528.655	1485
528.723	1228
528.792	1660
528.861	985
528.929	1036
528.998	2727
529.066	1417
529.135	940
529.203	473
529.272	-380
529.340	1285
529.409	3079
529.477	464
529.545	701
529.614	3826
529.682	1668
529.751	2028
529.819	4907
529.887	813
529.956	901
530.024	2325
530.092	263
530.161	2128
530.229	3188
530.297	142
530.365	1615
530.434	1260
530.502	478
530.570	1026
530.638	-597
530.707	1922
530.775	3672
530.843	1261
530.911	185
530.979	1232
531.047	531
531.115	2011
531.183	1467
531.252	963
531.320	1642
531.388	287
531.456	2204
531.524	-310
531.592	2017
531.660	3193
531.728	260
531.796	767
531.864	1306
531.932	1514
532.000	997
532.067	1329
532.135	1410
532.203	2544
532.271	1407
532.339	6364
532.407	12472
532.475	5542
532.542	3055
532.610	3430
532.678	6572
532.746	36838
532.814	63472
532.881	10866
532.949	2030
533.017	1720
533.084	1349
533.152	1315
533.220	767
533.287	1366
533.355	624
533.423	1328
533.490	577
533.558	1763
533.625	2551
533.693	1407
533.761	2213
533.828	1814
533.896	1713
533.963	6875
534.031	7014
534.098	8384
534.166	2179
534.233	1205
534.300	2745
534.368	2380
534.435	1015
534.503	1714
534.570	1340
534.637	959
534.705	844
534.772	1699
534.840	714
534.907	3595
534.974	1580
535.041	1895
535.109	2222
535.176	1166
535.243	2325
535.310	1591
535.378	755
535.445	624
535.512	1673
535.579	1663
535.646	1537
535.714	2029
535.781	3800
535.848	2831
535.915	3333
535.982	2543
536.049	3071
536.116	3768
536.183	1969
536.250	1527
536.317	1264
536.384	2723
536.451	4544
536.518	3439
536.585	1652
536.652	4162
536.719	6559
536.786	2121
536.853	2348
536.920	5871
536.987	7895
537.053	9880
537.120	37980
537.187	22620
537.254	1994
537.321	1600
537.388	2715
537.454	997
537.521	1035
537.588	2015
537.654	3091
537.721	3054
537.788	2363
537.855	1910
537.921	1222
537.988	1813
538.055	2764
538.121	1528
538.188	2713
538.254	3435
538.321	8243
538.388	3900
538.454	1895
538.521	1736
538.587	2050
538.654	631
538.720	1365
538.787	2370
538.853	1732
538.920	2457
538.986	2662
539.053	2132
539.119	2345
539.185	2005
539.252	3783
539.318	3855
539.385	4669
539.451	2764
539.517	3793
539.583	5454
539.650	12109
539.716	23447
539.782	4902
539.849	1311
539.915	3355
539.981	1317
540.047	2333
540.114	2886
540.180	3920
540.246	1506
540.312	3402
540.378	7650
540.444	8307
540.510	12990
540.576	26919
540.643	5339
540.709	1534
540.775	1476
540.841	2273
540.907	4075
540.973	6559
541.039	4835
541.105	5472
541.171	3092
541.237	1841
541.303	3452
541.369	4557
541.435	4583
541.500	6611
541.566	2167
541.632	1324
541.698	1673
541.764	2835
541.830	2086
541.896	830
541.961	3128
542.027	1434
542.093	3174
542.159	1993
542.224	1645
542.290	5759
542.356	8161
542.421	8012
542.487	3818
542.553	3038
542.618	3021
542.684	2677
542.750	2330
542.815	3876
542.881	7966
542.947	26522
543.012	14252
543.078	2508
543.143	1926
543.209	3213
543.274	2142
543.340	4278
543.405	11559
543.471	12671
543.536	2810
543.602	1998
543.667	1145
543.732	2930
543.798	1446
543.863	2374
543.928	1787
543.994	1010
544.059	1727
544.124	1968
544.190	1786
544.255	3288
544.320	2003
544.386	2225
544.451	4226
544.516	4159
544.581	4706
544.646	18598
544.712	23174
544.777	4623
544.842	3210
544.907	3538
544.972	2952
545.037	3958
545.102	4152
545.168	3093
545.233	3726
545.298	4296
545.363	4405
545.428	5595
545.493	11935
545.558	18810
545.623	6018
545.688	2804
545.753	4435
545.818	3572
545.883	3366
545.947	1375
546.012	3397
546.077	2895
546.142	3403
546.207	2794
546.272	4926
546.337	4223
546.401	3777
546.466	3579
546.531	1902
546.596	3538
546.661	3676
546.725	4339
546.790	3268
546.855	3892
546.919	1399
546.984	3098
547.049	2283
547.113	3660
547.178	3303
547.243	4421
547.307	3182
547.372	4027
547.436	3821
547.501	2906
547.565	3050
547.630	4932
547.695	2735
547.759	4393
547.823	2817
547.888	3106
547.952	2511
548.017	3158
548.081	3469
548.146	4998
548.210	3910
548.274	2343
548.339	2926
548.403	2937
548.468	1769
548.532	1460
548.596	2893
548.660	2533
548.725	3444
548.789	3489
548.853	4172
548.917	3981
548.982	4347
549.046	4916
549.110	1455
549.174	2748
549.238	2241
549.303	2178
549.367	2924
549.431	2344
549.495	2473
549.559	2270
549.623	2866
549.687	3927
549.751	5784
549.815	2890
549.879	3436
549.943	2375
550.007	3234
550.071	2871
550.135	5302
550.199	2437
550.263	3515
550.327	4568
550.391	4560
550.455	2613
550.519	3582
550.582	4074
550.646	4837
550.710	4710
550.774	3252
550.838	2894
550.901	2715
550.965	3235
551.029	2712
551.093	4341
551.156	4810
551.220	11401
551.284	9179
551.347	6016
551.411	14322
551.475	11106
551.538	3565
551.602	2964
551.666	2658
551.729	2305
551.793	2331
551.856	2717
551.920	2504
551.983	3201
552.047	2178
552.110	2543
552.174	2414
552.237	1976
552.301	1909
552.364	2506
552.428	1524
552.491	2135
552.554	3209
552.618	2356
552.681	3176
552.745	3465
552.808	5781
552.871	6756
552.934	3813
552.998	2497
553.061	3372
553.124	3381
553.187	2675
553.251	3570
553.314	3461
553.377	3401
553.440	8141
553.503	26574
553.567	30175
553.630	3745
553.693	2576
553.756	3459
553.819	1758
553.882	1677
553.945	3467
554.008	2287
554.071	1735
554.134	2225
554.197	1895
554.260	2795
554.323	2846
554.386	2501
554.449	2080
554.512	3539
554.575	1674
554.638	3109
554.701	1870
554.764	2533
554.827	2703
554.889	1188
554.952	1830
555.015	1299
555.078	2610
555.141	2509
555.203	2477
555.266	1842
555.329	2124
555.391	2110
555.454	2410
555.517	2679
555.580	1682
555.642	2017
555.705	1391
555.768	2765
555.830	2043
555.893	2028
555.955	2229
556.018	1730
556.080	2137
556.143	2080
556.206	1780
556.268	2997
556.330	2385
556.393	2751
556.455	2478
556.518	4178
556.580	2772
556.643	2117
556.705	2035
556.767	1350
556.830	2788
556.892	2540
556.955	4258
557.017	3502
557.079	2308
557.142	2040
557.204	2482
557.266	7290
557.328	4644
557.391	1032
557.453	1953
557.515	2850
557.577	2842
557.639	3253
557.701	2031
557.764	1572
557.826	1755
557.888	2982
557.950	1779
558.012	2234
558.074	1725
558.136	2895
558.198	3083
558.260	2820
558.322	1592
558.384	2133
558.446	3110
558.508	3475
558.570	4182
558.632	7961
558.694	10608
558.756	4723
558.818	7493
558.880	12253
558.942	3512
559.003	4181
559.065	2377
559.127	1779
559.189	2186
559.251	1690
559.312	1877
559.374	4268
559.436	7835
559.498	4763
559.559	1209
559.621	1510
559.683	3039
559.744	5211
559.806	7746
559.868	6596
559.929	2315
559.991	3664
560.052	3585
560.114	4352
560.176	3622
560.237	5046
560.299	4049
560.360	2531
560.422	2050
560.483	1978
560.545	2857
560.606	2934
560.667	2456
560.729	1423
560.790	2641
560.852	3141
560.913	2887
560.974	2892
561.036	2874
561.097	3341
561.158	3430
561.220	3272
561.281	2106
561.342	2733
561.403	4035
561.465	5366
561.526	13614
561.587	12662
561.648	2441
561.709	2566
561.771	3502
561.832	2316
561.893	1882
561.954	3347
562.015	2142
562.076	3067
562.137	2995
562.198	2684
562.259	2696
562.320	2518
562.381	3441
562.442	4297
562.503	2786
562.564	3087
562.625	2819
562.686	2734
562.747	2405
562.808	3263
562.869	3407
562.930	4204
562.991	3679
563.051	3413
563.112	3302
563.173	2544
563.234	2330
563.294	3702
563.355	2292
563.416	2702
563.477	2570
563.537	1995
563.598	3385
563.659	2956
563.720	2293
563.780	4214
563.841	3414
563.901	2981
563.962	2500
564.023	2365
564.083	3598
564.144	3837
564.204	2659
564.265	3006
564.325	4726
564.386	7359
564.446	4902
564.507	3098
564.567	2817
564.628	3037
564.688	2544
564.749	3025
564.809	3904
564.869	3826
564.930	1989
564.990	3579
565.050	2894
565.111	2872
565.171	2622
565.231	2783
565.292	3636
565.352	2896
565.412	2681
565.472	2628
565.532	3128
565.593	3035
565.653	2163
565.713	3217
565.773	3066
565.833	3717
565.893	4596
565.953	3388
566.013	2670
566.074	3503
566.134	4825
566.194	6775
566.254	7054
566.314	3840
566.374	2338
566.434	2856
566.494	2897
566.554	2328
566.614	3574
566.673	2939
566.733	4404
566.793	3639
566.853	3242
566.913	3377
566.973	4027
567.033	4508
567.092	3433
567.152	4215
567.212	3191
567.272	3159
567.331	3003
567.391	2948
567.451	3809
567.511	6096
567.570	5115
567.630	4250
567.690	4397
567.749	3741
567.809	3609
567.868	4285
567.928	3558
567.988	4397
568.047	4568
568.107	6350
568.166	9385
568.226	14170
568.285	17908
568.345	12333
568.404	8942
568.464	7777
568.523	7007
568.582	7443
568.642	8186
568.701	12512
568.761	21052
568.820	32106
568.879	25925
568.939	16398
568.998	9943
569.057	7455
569.116	6093
569.176	5393
569.235	4649
569.294	4933
569.353	4783
569.413	3841
569.472	3736
569.531	3735
569.590	1916
569.649	3321
569.708	1642
569.767	3830
569.827	3410
569.886	2638
569.945	2401
570.004	3222
570.063	2501
570.122	2203
570.181	2825
570.240	3439
570.299	3015
570.358	3221
570.417	2111
570.475	2617
570.534	2786
570.593	3131
570.652	2466
570.711	2531
570.770	2961
570.829	3503
570.887	2681
570.946	3248
571.005	2471
571.064	2149
571.122	2809
571.181	2365
571.240	2197
571.299	2591
571.357	2959
571.416	3213
571.475	2889
571.533	3107
571.592	2352
571.650	2235
571.709	1676
571.768	2983
571.826	2691
571.885	2047
571.943	2075
572.002	1256
572.060	2118
572.119	2498
572.177	2412
572.236	2362
572.294	1680
572.352	2827
572.411	1231
572.469	2445
572.528	2422
572.586	1997
572.644	1964
572.703	2505
572.761	860
572.819	2013
572.877	1795
572.936	2029
572.994	1307
573.052	1850
573.110	1104
573.169	2128
573.227	1756
573.285	1640
573.343	1755
573.401	1512
573.459	1908
573.517	987
573.576	2004
573.634	1800
573.692	1921
573.750	2202
573.808	1495
573.866	2075
573.924	2635
573.982	2636
574.040	1337
574.098	1964
574.155	1580
574.213	1848
574.271	1858
574.329	1722
574.387	1017
574.445	962
574.503	1910
574.560	1267
574.618	1101
574.676	1267
574.734	1154
574.792	1973
574.849	464
574.907	1561
574.965	910
575.022	971
575.080	1301
575.138	1457
575.195	783
575.253	784
575.311	2098
575.368	1524
575.426	1608
575.483	1410
575.541	1824
575.598	941
575.656	1065
575.713	1103
575.771	1168
575.828	1583
575.886	1635
575.943	2064
576.001	1795
576.058	2035
576.115	1543
576.173	2820
576.230	2359
576.287	2454
576.345	2962
576.402	996
576.459	1462
576.517	1708
576.574	2113
576.631	2916
576.688	1982
576.746	2381
576.803	2286
576.860	1644
576.917	1799
576.974	2018
577.031	1767
577.089	1883
577.146	1618
577.203	2145
577.260	1958
577.317	2245
577.374	2941
577.431	2268
577.488	2488
577.545	1394
577.602	1722
577.659	684
577.716	2176
577.773	1843
577.830	1345
577.886	2053
577.943	1294
578.000	1965
578.057	1818
578.114	2183
578.171	2962
578.227	5087
578.284	2625
578.341	2501
578.398	2012
578.454	1601
578.511	1903
578.568	2824
578.625	2046
578.681	1873
578.738	2147
578.794	1974
578.851	2326
578.908	1443
578.964	2100
579.021	1778
579.077	1407
579.134	1832
579.190	1215
579.247	2069
579.303	2105
579.360	1118
579.416	2479
579.473	1392
579.529	1102
579.586	2210
579.642	2431
579.698	1825
579.755	2200
579.811	1333
579.867	2489
579.924	2073
579.980	1751
580.036	2929
580.093	4839
580.149	6791
580.205	6868
580.261	3627
580.317	2710
580.374	1919
580.430	2901
580.486	2551
580.542	1647
580.598	1704
580.619	1779
580.654	1910
580.692	1730
580.710	1642
580.765	1288
580.767	1276
580.823	1642
580.838	1644
580.879	1640
580.911	1832
580.935	1987
580.984	1858
580.991	1842
581.047	2514
581.057	2457
581.103	2197
581.130	2321
581.159	2438
581.203	3366
581.215	3625
581.270	2882
581.276	2844
581.326	2387
581.349	2282
581.382	2198
581.422	1849
581.438	1689
581.494	1585
581.494	1584
581.550	1498
581.567	1847
581.606	2549
581.640	2105
581.661	1864
581.713	2273
581.717	2300
581.773	2440
581.786	2441
581.829	2523
581.859	2315
581.885	2096
581.932	2420
581.940	2491
581.996	2641
582.004	2583
582.052	2169
582.077	1897
582.107	1653
582.150	1657
582.163	1640
582.219	2483
582.223	2460
582.274	2289
582.296	2221
582.330	1959
582.368	2248
582.386	2467
582.441	1857
582.441	1855
582.497	2807
582.514	2488
582.552	2035
582.587	2446
582.608	2573
582.659	2289
582.663	2275
582.719	1975
582.732	2104
582.774	2637
582.805	2237
582.830	1830
582.877	2337
582.885	2403
582.941	2292
582.950	2315
582.996	2603
583.023	2832
583.052	3167
583.095	3638
583.107	3764
583.162	4258
583.168	4315
583.218	4575
583.240	3990
583.273	3180
583.313	3481
583.328	3622
583.384	3138
583.385	3126
583.439	2409
583.458	2416
583.494	2611
583.531	2570
583.549	2609
583.603	2745
583.605	2734
583.660	2674
583.676	2488
583.715	2379
583.748	2587
583.770	2658
583.820	2664
583.825	2676
583.881	2603
583.893	2531
583.936	2171
583.965	2092
583.991	2018
584.038	2523
584.046	2615
584.101	2465
584.110	2569
584.156	3162
584.183	2791
584.211	2259
584.255	2564
584.266	2751
584.321	2749
584.328	2757
584.376	2434
584.400	2717
584.431	3202
584.472	2864
584.486	2710
584.541	3145
584.545	3121
584.596	2625
584.617	2362
584.651	2296
584.689	3034
584.706	3252
584.761	2896
584.762	2895
584.816	3078
584.834	3150
584.871	3270
584.906	3298
584.926	3219
584.978	2827
584.980	2834
585.035	3486
585.051	3550
585.090	3477
585.123	3904
585.145	4171
585.195	3497
585.200	3473
585.254	3510
585.267	3864
585.309	5076
585.340	5276
585.364	5317
585.412	4525
585.419	4336
585.473	4607
585.484	4348
585.528	3801
585.556	4100
585.583	4326
585.628	4377
585.637	4503
585.692	5873
585.700	5989
585.747	6164
585.772	5851
585.801	4999
585.845	3847
585.856	3748
585.910	4166
585.917	4125
585.965	3964
585.989	4061
586.019	4075
586.061	4197
586.074	4261
586.128	4628
586.133	4636
586.183	4977
586.205	5056
586.237	4940
586.277	4985
586.292	5112
586.346	5146
586.349	5142
586.401	4572
586.421	4609
586.455	4937
586.493	5217
586.509	5873
586.564	7596
586.565	7684
586.618	12017
586.637	11870
586.672	8809
586.709	6939
586.727	6587
586.781	5836
586.781	5840
586.835	5133
586.853	5353
586.889	6105
586.925	6314
586.944	6209
586.996	6049
586.998	6071
587.052	6528
587.068	6759
587.106	6822
587.140	6458
587.161	6389
587.212	6946
587.215	6981
587.269	7217
587.284	7203
587.323	7125
587.356	6940
587.377	6998
587.427	7856
587.431	7912
587.485	8373
587.499	8352
587.539	8462
587.571	8681
587.593	8856
587.643	9909
587.648	10032
587.702	10268
587.715	10498
587.755	11563
587.786	12273
587.810	12404
587.858	12403
587.864	12524
587.917	14081
587.930	14267
587.971	15149
588.001	16325
588.025	17211
588.073	18837
588.079	19107
588.133	21138
588.145	21695
588.187	24318
588.217	26176
588.241	28041
588.288	31582
588.295	32181
588.348	37486
588.360	38692
588.402	43869
588.431	47694
588.456	51597
588.503	59429
588.510	60838
588.564	72708
588.575	75734
588.617	90632
588.646	101675
588.671	115474
588.718	147227
588.725	155603
588.778	230033
588.789	248601
588.832	378088
588.861	478891
588.886	593005
588.932	794232
588.939	802683
588.993	795055
589.004	786890
589.047	621227
589.075	497305
589.100	391955
589.147	225967
589.154	216651
589.207	157241
589.218	146237
589.261	135884
589.290	131420
589.314	138072
589.361	156489
589.368	164637
589.421	241921
589.433	261363
589.475	412190
589.504	527429
589.528	614916
589.576	739111
589.582	722778
589.635	517151
589.647	471468
589.689	284586
589.718	168751
589.742	137090
589.790	81082
589.795	78774
589.849	59172
589.861	54897
589.902	47901
589.932	42080
589.955	38078
590.004	30566
590.009	30244
590.062	26613
590.075	25682
590.115	23320
590.146	21557
590.168	21013
590.218	19690
590.222	19563
590.275	17540
590.289	16952
590.328	16674
590.360	16458
590.381	16087
590.431	15367
590.435	15307
590.488	13516
590.503	13023
590.541	13188
590.574	13278
590.594	13017
590.645	12470
590.647	12467
590.700	11564
590.716	11286
590.753	11020
590.787	10634
590.806	10499
590.859	10378
590.859	10398
590.912	10138
590.930	10054
590.965	10100
591.001	10153
591.018	10345
591.071	10792
591.072	10768
591.124	9483
591.143	8980
591.177	9121
591.214	9376
591.230	9462
591.283	9425
591.285	9405
591.336	10032
591.356	10269
591.389	9846
591.427	9254
591.442	9187
591.495	8938
591.498	8890
591.547	8356
591.569	8110
591.600	8432
591.640	8835
591.653	8651
591.706	7751
591.711	7640
591.759	8297
591.782	8592
591.811	8677
591.853	8741
591.864	8708
591.917	8410
591.924	8351
591.969	8566
591.995	8665
592.022	8686
592.066	8662
592.075	8766
592.127	9267
592.137	9347
592.180	10011
592.208	10373
592.233	9476
592.279	7739
592.285	7756
592.338	7776
592.350	7764
592.390	7274
592.421	6893
592.443	7311
592.491	8186
592.495	8149
592.548	7428
592.562	7216
592.600	7694
592.633	8096
592.653	7860
592.704	7174
592.705	7224
592.775	7685
592.846	6805
592.916	8096
592.987	7571
593.058	7818
593.128	7614
593.199	7570
593.270	6550
593.341	7108
593.411	6661
593.482	7545
593.553	7420
593.623	6581
593.694	5995
593.764	7339
593.835	6013
593.906	6729
593.976	5387
594.047	6691
594.117	7745
594.188	8246
594.258	6019
594.329	5995
594.399	6203
594.470	6123
594.540	5131
594.611	6493
594.681	5225
594.751	5429
594.822	7099
594.892	7004
594.963	7006
595.033	6719
595.103	6053
595.174	6874
595.244	9479
595.314	11261
595.384	6581
595.455	5610
595.525	6217
595.595	5814
595.665	6317
595.736	5783
595.806	4999
595.876	6140
595.946	5298
596.016	5410
596.087	5861
596.157	5322
596.227	5549
596.297	5590
596.367	5521
596.437	6777
596.507	8650
596.577	10988
596.647	6034
596.717	4830
596.787	5623
596.857	6170
596.927	5180
596.997	5843
597.067	6147
597.137	7305
597.207	5886
597.277	5756
597.347	5536
597.417	5677
597.487	5640
597.557	5739
597.626	5384
597.696	7302
597.766	7538
597.836	10267
597.906	6138
597.975	5950
598.045	4581
598.115	5835
598.185	5412
598.254	6604
598.324	5830
598.394	5488
598.464	6041
598.533	5222
598.603	5150
598.672	5705
598.742	5254
598.812	5129
598.881	5108
598.951	5145
599.020	5223
599.090	5391
599.159	5466
599.229	4604
599.299	4918
599.368	4699
599.437	4599
599.507	4288
599.576	5063
599.646	6333
599.715	6397
599.785	5185
599.854	5368
599.924	5972
599.993	4952
600.062	5278
600.132	4061
600.201	5670
600.270	5783
600.340	5517
600.409	4240
600.478	4393
600.547	4855
600.617	5301
600.686	3692
600.755	4853
600.824	5340
600.894	5583
600.963	4428
601.032	4834
601.101	4483
601.170	4918
601.239	3848
601.308	5324
601.378	5124
601.447	4927
601.516	3292
601.585	5380
601.654	5554
601.723	5204
601.792	3972
601.861	4952
601.930	6495
601.999	5536
602.068	4561
602.137	4617
602.206	5178
602.275	4898
602.343	5356
602.412	5557
602.481	4796
602.550	4134
602.619	3891
602.688	4280
602.756	4321
602.825	4679
602.894	3613
602.963	3339
603.032	4001
603.100	4162
603.169	3680
603.238	4278
603.307	3491
603.375	4208
603.444	4384
603.513	3708
603.581	3262
603.650	4260
603.719	3849
603.787	3853
603.856	4150
603.924	3657
603.993	3953
604.061	3154
604.130	3787
604.198	4272
604.267	4960
604.335	4026
604.404	3300
604.472	3596
604.541	4163
604.609	4147
604.678	4226
604.746	4309
604.815	3704
604.883	3410
604.951	4115
605.020	3931
605.088	3487
605.156	3578
605.225	3178
605.293	3903
605.361	3527
605.429	3914
605.498	5127
605.566	3834
605.634	3549
605.702	4141
605.771	3977
605.839	3393
605.907	4055
605.975	4154
606.043	3854
606.111	4331
606.180	4023
606.248	5062
606.316	5482
606.384	4048
606.452	5943
606.520	5605
606.588	4040
606.656	2673
606.724	3602
606.792	3528
606.860	3412
606.928	2558
606.996	3391
607.064	3857
607.132	2796
607.200	3272
607.267	3668
607.335	3116
607.403	2697
607.471	3011
607.539	3512
607.607	3616
607.674	2800
607.742	3182
607.810	3106
607.878	3845
607.946	2994
608.013	3793
608.081	3085
608.149	2752
608.216	2352
608.284	4140
608.352	3204
608.419	3368
608.487	6664
608.555	4193
608.622	3697
608.690	3963
608.757	2642
608.825	3262
608.893	3518
608.960	4401
609.028	4895
609.095	6685
609.163	4206
609.230	4018
609.298	4317
609.365	2823
609.432	3577
609.500	3113
609.567	3805
609.635	3312
609.702	3212
609.769	5003
609.837	4403
609.904	3434
609.971	3135
610.039	5231
610.106	6444
610.173	9319
610.241	22842
610.308	37897
610.375	27222
610.442	6183
610.509	3708
610.577	4677
610.644	3760
610.711	3833
610.778	4321
610.845	3343
610.912	3844
610.980	4578
611.047	6917
611.114	5395
611.181	3264
611.248	2360
611.315	3756
611.382	3728
611.449	2901
611.516	3858
611.583	2965
611.650	3220
611.717	3292
611.784	3131
611.851	3112
611.918	4279
611.984	3396
612.051	4709
612.118	8168
612.185	17347
612.252	11039
612.319	3707
612.386	3590
612.452	3085
612.519	4163
612.586	6429
612.653	4993
612.719	3373
612.786	3296
612.853	3388
612.919	2968
612.986	4366
613.053	2382
613.120	2335
613.186	2275
613.253	4904
613.319	2957
613.386	3409
613.453	2618
613.519	3741
613.586	5056
613.652	8621
613.719	6381
613.785	5013
613.852	3562
613.918	2922
613.985	5245
614.051	8661
614.118	20743
614.184	19894
614.250	4352
614.317	3621
614.383	2974
614.449	3564
614.516	2709
614.582	3829
614.648	2892
614.715	3304
614.781	2475
614.847	3176
614.914	3119
614.980	3390
615.046	4092
615.112	2881
615.179	2987
615.245	2851
615.311	4768
615.377	7501
615.443	7139
615.509	4445
615.575	3740
615.642	3331
615.708	3836
615.774	4290
615.840	4123
615.906	5020
615.972	8559
616.038	15085
616.104	19271
616.170	25023
616.236	18667
616.302	7736
616.368	4184
616.434	3827
616.500	4469
616.565	4512
616.631	3990
616.697	3627
616.763	3302
616.829	4516
616.895	6581
616.961	5563
617.026	5160
617.092	3828
617.158	3964
617.224	3822
617.289	3249
617.355	3412
617.421	2284
617.487	4260
617.552	3648
617.618	2648
617.684	2655
617.749	5537
617.815	3982
617.880	3098
617.946	3748
618.012	3424
618.077	3282
618.143	3500
618.208	3351
618.274	4162
618.339	3659
618.405	3041
618.470	5019
618.536	4415
618.601	5112
618.667	4262
618.732	4866
618.798	4488
618.863	3579
618.928	3797
618.994	4247
619.059	5582
619.124	7714
619.190	4649
619.255	4061
619.320	3527
619.386	3722
619.451	3534
619.516	4033
619.581	4154
619.647	4172
619.712	3120
619.777	3958
619.842	3934
619.907	3578
619.972	4230
620.038	4352
620.103	4689
620.168	2844
620.233	3768
620.298	3382
620.363	3723
620.428	4758
620.493	3515
620.558	2928
620.623	3788
620.688	3914
620.753	3951
620.818	3476
620.883	3979
620.948	4067
621.013	2902
621.078	3447
621.143	2789
621.207	5393
621.272	4554
621.337	4107
621.402	5016
621.467	6117
621.532	6165
621.596	4471
621.661	5262
621.726	4674
621.791	4839
621.855	4767
621.920	4949
621.985	5530
622.049	6746
622.114	5278
622.179	4689
622.243	5065
622.308	3463
622.373	6167
622.437	4916
622.502	4213
622.566	4838
622.631	3438
622.695	6007
622.760	4741
622.824	5269
622.889	5046
622.953	5138
623.018	8522
623.082	8245
623.147	5182
623.211	5438
623.276	5168
623.340	4353
623.404	4300
623.469	5275
623.533	5056
623.597	4471
623.662	4486
623.726	4621
623.790	3935
623.854	4173
623.919	5185
623.983	4383
624.047	4093
624.111	4332
624.176	4274
624.240	4531
624.304	5702
624.368	3727
624.432	4510
624.496	4481
624.560	5571
624.625	4256
624.689	4698
624.753	4203
624.817	4613
624.881	3739
624.945	3818
625.009	3867
625.073	4528
625.137	3827
625.201	6003
625.265	6379
625.329	4875
625.393	4030
625.456	4291
625.520	4317
625.584	5188
625.648	6124
625.712	9817
625.776	25235
625.839	28398
625.903	10701
625.967	5661
626.031	10126
626.095	15522
626.158	5388
626.222	2440
626.286	4381
626.349	3782
626.413	3418
626.477	5858
626.540	4061
626.604	2897
626.668	4719
626.731	4039
626.795	3301
626.858	3783
626.922	3376
626.986	3675
627.049	2643
627.113	3861
627.176	3691
627.240	3055
627.303	2884
627.366	3073
627.430	4048
627.493	3642
627.557	2859
627.620	4871
627.684	3181
627.747	3239
627.810	2196
627.874	4096
627.937	1695
628.000	4732
628.064	4097
628.127	1613
628.190	3700
628.253	3365
628.317	3089
628.380	3075
628.443	3122
628.506	2654
628.569	3674
628.632	2629
628.696	3021
628.759	2351
628.822	2661
628.885	3005
628.948	3168
629.011	3202
629.074	3019
629.137	1861
629.200	2183
629.263	3500
629.326	1038
629.389	3023
629.452	4099
629.515	3749
629.578	2310
629.641	4023
629.704	3114
629.767	3300
629.830	3037
629.892	3062
629.955	2307
630.018	3730
630.081	2725
630.144	4104
630.207	2332
630.269	4083
630.332	3169
630.395	2944
630.458	2854
630.520	1458
630.583	3679
630.646	2628
630.708	1851
630.771	1537
630.834	3121
630.896	3222
630.959	1989
631.021	2369
631.084	2921
631.146	1569
631.209	3550
631.272	1741
631.334	2785
631.397	2352
631.459	1389
631.522	2080
631.584	2466
631.646	2525
631.709	3397
631.771	3455
631.834	2707
631.896	2680
631.958	1387
632.021	1785
632.083	1003
632.145	3491
632.208	1653
632.270	3336
632.332	1152
632.395	1557
632.457	4269
632.519	2045
632.581	2959
632.643	2147
632.706	3132
632.768	1353
632.830	2386
632.892	1164
632.954	1114
633.016	2751
633.078	1969
633.141	1180
633.203	1734
633.265	1612
633.327	2734
633.389	1673
633.451	3043
633.513	2949
633.575	2992
633.637	2132
633.698	1901
633.760	1889
633.822	1469
633.884	1364
633.946	1850
634.008	1697
634.070	2743
634.132	2451
634.193	2315
634.255	867
634.317	1173
634.379	2992
634.441	1913
634.502	1659
634.564	1855
634.626	2002
634.687	2056
634.749	1722
634.811	3003
634.873	1230
634.934	1759
634.996	2646
635.057	1246
635.119	1212
635.181	1503
635.242	1736
635.304	307
635.365	3241
635.427	1587
635.488	1234
635.550	1492
635.611	2189
635.673	-502
635.734	2470
635.796	1394
635.857	3319
635.918	219
635.980	2278
636.041	1719
636.102	1646
636.164	1383
636.225	2557
636.286	-637
636.348	1444
636.409	2058
636.470	996
636.531	1861
636.593	1521
636.654	2935
636.715	1911
636.776	1525
636.838	652
636.899	1937
636.960	-101
637.021	856
637.082	1323
637.143	1009
637.204	738
637.265	605
637.326	1893
637.387	2210
637.448	-444
637.509	1941
637.570	1339
637.631	2209
637.692	174
637.753	-51
637.814	1350
637.875	939
637.936	1626
637.997	1283
638.058	257
638.119	1742
638.179	468
638.240	686
638.301	1155
638.362	542
638.423	723
638.483	2030
638.544	-115
638.605	2232
638.666	465
638.726	680
638.787	1094
638.848	676
638.908	858
638.969	1223
639.030	1074
639.090	-436
639.151	360
639.211	2379
639.272	1886
639.332	4345
639.393	2133
639.453	472
639.514	578
639.574	2031
639.635	776
639.695	1206
639.756	-322
639.816	1685
639.877	1674
639.937	3637
639.997	4312
640.058	313
640.118	-87
640.178	1893
640.239	1469
640.299	643
640.359	93
640.420	316
640.480	858
640.540	991
640.600	63
640.661	1169
640.721	-89
640.781	2524
640.841	136
640.901	1714
640.961	381
641.021	1448
641.082	32
641.142	2185
641.202	2237
641.262	-233
641.322	1960
641.382	-919
641.442	1307
641.502	257
641.562	549
641.622	88
641.682	601
641.742	21
641.802	892
641.861	1240
641.921	640
641.981	1449
642.041	1967
642.101	1559
642.161	-240
642.221	685
642.280	798
642.340	688
642.400	17
642.460	1266
642.519	-126
642.579	495
642.639	726
642.698	-1952
642.758	3281
642.818	629
642.877	-775
642.937	783
642.997	635
643.056	1806
643.116	-1017
643.175	2481
643.235	-112
643.294	135
643.354	354
643.414	907
643.473	822
643.532	408
643.592	680
643.651	1388
643.711	2819
643.770	3102
643.830	6469
643.889	14494
643.948	3371
644.008	1000
644.067	-279
644.126	-461
644.186	-226
644.245	392
644.304	-1009
644.363	1895
644.423	-703
644.482	138
644.541	709
644.600	-1726
644.659	490
644.719	-517
644.778	-68
644.837	430
644.896	1582
644.955	2910
645.014	790
645.073	1176
645.132	2
645.191	785
645.250	-734
645.309	1781
645.368	228
645.427	648
645.486	-645
645.545	925
645.604	-257
645.663	1129
645.722	-704
645.781	301
645.840	231
645.898	-373
645.957	1417
646.016	-912
646.075	1155
646.134	1700
646.192	5776
646.251	8930
646.310	251
646.369	450
646.427	565
646.486	-1019
646.545	429
646.603	801
646.662	-350
646.721	252
646.779	-943
646.838	-693
646.896	-596
646.955	-186
647.014	782
647.072	-1104
647.131	1193
647.189	-439
647.248	-1413
647.306	561
647.365	165
647.423	-1189
647.481	1343
647.540	-881
647.598	-446
647.657	194
647.715	232
647.773	-610
647.832	596
647.890	-414
647.948	-430
648.007	395
648.065	-1129
648.123	-169
648.181	1635
648.240	1319
648.298	-222
648.356	-614
648.414	96
648.472	345
648.531	362
648.589	-94
648.647	-621
648.705	-50
648.763	-1097
648.821	-222
648.879	-814
648.937	797
648.995	-248
649.053	-790
649.111	155
649.169	-522
649.227	1099
649.285	2045
649.343	4092
649.401	3269
649.459	5069
649.516	4692
649.574	1500
649.632	8741
649.690	10056
649.748	2209
649.806	1583
649.863	4312
649.921	1745
649.979	192
650.037	238
650.094	-2345
650.152	563
650.210	-572
650.268	323
650.325	-486
650.383	-339
650.440	-506
650.498	206
650.556	-252
650.613	-991
650.671	252
650.728	-203
650.786	-20
650.843	252
650.901	-1150
650.958	381
651.016	-139
651.073	-643
651.131	-528
651.188	-667
651.246	-45
651.303	-1061
651.360	716
651.418	-526
651.475	402
651.532	-1311
651.590	243
651.647	-412
651.704	-583
651.762	-475
651.819	-379
651.876	-1056
651.933	-38
651.990	556
652.048	-1093
652.105	-1149
652.162	-355
652.219	-686
652.276	-193
652.333	-26
652.390	-775
652.448	-197
652.505	-272
652.562	-622
652.619	-295
652.676	1276
652.733	1885
652.790	-558
652.847	-861
652.904	-349
652.961	-1578
653.017	-1019
653.074	779
653.131	-554
653.188	-1095
653.245	-1060
653.302	-303
653.359	-732
653.415	-167
653.472	-1172
653.529	1546
653.586	-1498
653.642	-301
653.699	-111
653.756	-782
653.813	-364
653.869	-138
653.926	-567
653.983	-925
654.039	-420
654.096	-481
654.152	221
654.209	-1432
654.266	5
654.322	-960
654.379	-353
654.435	266
654.492	-1018
654.548	243
654.605	80
654.661	695
654.717	-280
654.774	-604
654.830	-584
654.887	-573
654.943	-656
655.000	278
655.056	80
655.112	-121
655.168	-1600
655.225	-599
655.281	-117
655.337	-158
655.394	725
655.450	436
655.506	-149
655.562	1447
655.618	958
655.675	-685
655.731	-411
655.787	-196
655.843	-69
655.899	-1565
655.955	-258
656.011	-772
656.067	-2020
656.123	241
656.179	-1133
656.235	872
656.291	-1472
656.347	1073
656.403	-1243
656.459	-575
656.515	-607
656.571	-210
656.627	-1169
656.683	-307
656.739	46
656.795	-52
656.850	-935
656.906	68
656.962	151
657.018	-1482
657.074	-801
657.129	-860
657.185	-569
657.241	-735
657.297	-1326
657.352	-589
657.408	-304
657.464	624
657.519	-606
657.575	-1522
657.630	-576
657.686	359
657.742	-1221
657.797	-993
657.853	-1115
657.908	112
657.964	-1867
658.019	-199
658.075	-447
658.130	-892
658.186	-1158
658.241	343
658.297	-1022
658.352	-627
658.407	-182
658.463	-1242
658.518	-63
658.573	-74
658.629	-1442
658.684	-654
658.739	-68
658.795	-1002
658.850	-1067
658.905	-1481
658.960	-772
659.016	-1029
659.071	-243
659.126	-719
659.181	-757
659.236	884
659.291	1138
659.346	-441
659.401	-160
659.457	442
659.512	269
659.567	761
659.622	-872
659.677	-688
659.732	-1465
659.787	-414
659.842	-175
659.897	489
659.952	219
660.007	-784
660.061	-1224
660.116	-1295
660.171	-1573
660.226	-448
660.281	-177
660.336	-999
660.391	-327
660.445	-777
660.500	-90
660.555	-42
660.610	-979
660.664	-126
660.719	-659
660.774	-373
660.828	127
660.883	153
660.938	-373
660.992	-762
661.047	-402
661.101	-828
661.156	-650
661.211	-1339
661.265	84
661.320	-1200
661.374	-968
661.429	-626
661.483	-121
661.538	-1142
661.592	-1176
661.647	-314
661.701	-414
661.755	-479
661.810	-629
661.864	-1430
661.919	-1184
661.973	-696
662.027	-1264
662.081	-876
662.136	-1267
662.190	-295
662.244	92
662.299	-985
662.353	-625
662.407	-951
662.461	-303
662.515	-852
662.569	76
662.624	152
662.678	-960
662.732	-494
662.786	-1075
662.840	-169
662.894	-943
662.948	-487
663.002	-554
663.056	-452
663.110	-710
663.164	-299
663.218	-151
663.272	-360
663.326	-908
663.380	-693
663.434	-619
663.488	-1536
663.542	-751
663.595	-341
663.649	-843
663.703	-221
663.757	-914
663.811	-745
663.864	-1073
663.918	-584
663.972	-1226
664.026	-825
664.079	-938
664.133	328
664.187	-888
664.240	-511
664.294	-22
664.348	31
664.401	-654
664.455	-658
664.508	-822
664.562	-932
664.615	-936
664.669	-580
664.722	-379
664.776	-980
664.829	-640
664.883	-20
664.936	-1342
664.990	-1146
665.043	39
665.097	-748
665.150	352
665.203	-866
665.257	-1305
665.310	-884
665.363	-584
665.417	-189
665.470	-15
665.523	-781
665.576	-990
665.630	-1168
665.683	-598
665.736	-366
665.789	-709
665.842	-850
665.895	-724
665.949	-792
666.002	-871
666.055	-507
666.108	-565
666.161	-1024
666.214	-222
666.267	-72
666.320	-427
666.373	95
666.426	-684
666.479	-1346
666.532	-1269
666.585	-210
666.638	-310
666.691	-1245
666.744	-364
666.796	-953
666.849	-928
666.902	204
666.955	-1518
667.008	-362
667.060	-1195
667.113	-1165
667.166	-352
667.219	-79
667.271	-944
667.324	-1583
667.377	-798
667.430	-657
667.482	-536
667.535	147
667.587	-631
667.640	29
667.693	-281
667.745	1214
667.798	999
667.850	-846
667.903	-913
667.955	-1119
668.008	-990
668.060	-62
668.113	-702
668.165	-652
668.218	-90
668.270	-143
668.322	-261
668.375	18
668.427	-530
668.479	-1269
668.532	-932
668.584	-93
668.636	-530
668.689	-83
668.741	-617
668.793	-347
668.845	119
668.898	-561
668.950	-1031
669.002	-411
669.054	-952
669.106	-1362
669.158	-949
669.211	209
669.263	-262
669.315	434
669.367	829
669.419	-257
669.471	330
669.523	718
669.575	370
669.627	498
669.679	-327
669.731	385
669.783	-348
669.835	781
669.886	167
669.938	73
669.990	-1189
670.042	-154
670.094	-573
670.146	626
670.197	794
670.249	1555
670.301	1405
670.353	2409
670.404	4847
670.456	7575
670.508	13129
670.560	23113
670.611	40403
670.663	72117
670.715	170974
670.766	270396
670.818	90768
670.869	14699
670.921	6335
670.972	4090
671.024	2435
671.075	1513
671.127	1745
671.178	1593
671.230	277
671.281	939
671.333	-235
671.384	-550
671.436	88
671.487	-105
671.538	73
671.590	190
671.641	-201
671.692	-362
671.744	-367
671.795	392
671.846	310
671.897	-605
671.949	-184
672.000	-391
672.051	-126
672.102	-172
672.153	51
672.204	-618
672.256	-146
672.307	-344
672.358	439
672.409	-438
672.460	-19
672.511	-771
672.562	168
672.613	-898
672.664	-552
672.715	-308
672.766	-909
672.817	-143
672.868	-260
672.919	-27
672.970	-747
673.021	-780
673.071	-749
673.122	-11
673.173	-198
673.224	-988
673.275	-599
673.326	-1090
673.376	-989
673.427	-593
673.478	224
673.528	308
673.579	-862
673.630	-1198
673.680	469
673.731	-571
673.782	-738
673.832	-636
673.883	-520
673.934	-669
673.984	-567
674.035	-354
674.085	-361
674.136	28
674.186	-1517
674.237	-178
674.287	1007
674.338	-59
674.388	-1111
674.438	-500
674.489	-548
674.539	-552
674.589	-445
674.640	-327
674.690	-518
674.740	-752
674.791	234
674.841	-237
674.891	-955
674.942	-37
674.992	-412
675.042	-1053
675.092	-668
675.142	-1186
675.193	-781
675.243	-805
675.293	-40
675.343	-791
675.393	-732
675.443	160
675.493	-700
675.543	-643
675.593	-846
675.643	-225
675.693	-310
675.743	-287
675.793	-135
675.843	-573
675.893	-1178
675.943	-357
675.993	246
676.043	3
676.093	-154
676.142	-986
676.192	-412
676.242	-1080
676.292	-491
676.341	-1255
676.391	-1193
676.441	-1068
676.491	-224
676.540	-284
676.590	-426
676.640	-589
676.689	-1681
676.739	-1015
676.789	-238
676.838	-1273
676.888	-619
676.937	-1087
676.987	-1066
677.037	-22
677.086	-860
677.136	-1355
677.185	-688
677.235	-532
677.284	-1048
677.333	-1048
677.383	-968
677.432	-999
677.482	-524
677.531	-1003
677.580	-1246
677.630	-199
677.679	-303
677.728	-763
677.778	-444
677.827	-479
677.876	-376
677.925	-730
677.975	-789
678.024	-673
678.073	-1240
678.122	-607
678.171	-872
678.220	-387
678.269	617
678.319	-104
678.368	-1258
678.417	-712
678.466	-1643
678.515	-523
678.564	-903
678.613	-783
678.662	-790
678.711	-859
678.760	-1281
678.809	-663
678.857	-588
678.906	-644
678.955	-870
679.004	-352
679.053	-723
679.102	-737
679.151	-1339
679.199	-464
679.248	-744
679.297	-535
679.346	-1035
679.394	-430
679.443	-1344
679.492	-917
679.540	-916
679.589	-243
679.638	-1010
679.686	-1314
679.735	202
679.784	-838
679.832	-1045
679.881	-965
679.929	-728
679.978	-1051
680.026	-510
680.075	-832
680.123	-642
680.172	-779
680.220	-804
680.268	-639
680.317	-1022
680.365	-910
680.414	-1230
680.462	-1378
680.510	-820
680.559	-710
680.607	-707
680.655	-1221
680.703	-1732
680.752	-724
680.800	-1616
680.848	-948
680.896	-932
680.945	-443
680.993	-1207
681.041	-186
681.089	-452
681.137	-1280
681.185	-1928
681.233	-1065
681.258	-928
681.281	-811
681.329	-962
681.377	-632
681.380	-595
681.425	-104
681.473	20
681.502	-124
681.521	-248
681.569	-41
681.617	-494
681.624	-513
681.665	-716
681.713	21
681.745	-366
681.761	-570
681.809	-300
681.857	-623
681.867	-542
681.904	-286
681.952	-1540
681.989	-367
682.000	-34
682.048	-1227
682.096	-621
682.111	-494
682.143	-263
682.191	-598
682.233	-353
682.239	-328
682.286	-511
682.334	-732
682.354	-592
682.382	-418
682.430	-395
682.476	363
682.477	369
682.525	-780
682.572	-1156
682.598	-1150
682.620	-1119
682.667	190
682.715	-125
682.720	-66
682.763	300
682.810	-212
682.841	-402
682.857	-494
682.905	-197
682.952	-38
682.963	61
683.000	305
683.047	-590
683.085	272
683.095	508
683.142	-307
683.190	-42
683.206	28
683.237	96
683.284	478
683.328	-289
683.332	-355
683.379	288
683.426	-536
683.449	-67
683.473	397
683.521	796
683.568	43
683.571	78
683.615	360
683.662	-23
683.693	576
683.709	918
683.757	72
683.804	1091
683.814	912
683.851	178
683.898	937
683.936	284
683.945	114
683.992	765
684.039	376
684.057	335
684.086	309
684.133	591
684.179	669
684.180	665
684.227	1888
684.274	706
684.300	849
684.321	906
684.368	503
684.415	1020
684.422	949
684.462	539
684.509	351
684.543	567
684.556	645
684.603	483
684.649	434
684.665	437
684.696	341
684.743	775
684.786	1155
684.790	1201
684.837	191
684.883	1011
684.908	974
684.930	849
684.977	683
685.023	1135
685.029	1125
685.070	1004
685.117	948
685.150	1016
685.164	1057
685.210	832
685.257	1432
685.272	1384
685.303	1199
685.350	937
685.393	1225
685.396	1246
685.443	1209
685.490	1281
685.514	1072
685.536	917
685.583	1753
685.629	953
685.636	964
685.675	905
685.722	1005
685.757	1153
685.768	1194
685.815	954
685.861	1657
685.878	1417
685.908	1038
685.954	1068
686.000	1207
686.000	1209
686.047	1079
686.093	2158
686.121	2018
686.139	1810
686.185	1823
686.232	1272
686.242	1261
686.278	1366
686.324	1683
686.363	1290
686.370	1190
686.416	1532
686.463	1718
686.484	1507
686.509	1421
686.555	1563
686.601	1859
686.606	1854
686.647	1653
686.693	1926
686.727	1966
686.739	1960
686.785	2155
686.831	1983
686.848	1830
686.877	1526
686.923	1374
686.969	1349
686.969	1350
687.015	1516
687.061	1866
687.090	2069
687.107	2102
687.153	2098
687.199	1702
687.211	1620
687.245	1593
687.291	1608
687.332	1995
687.336	2017
687.382	1902
687.428	2000
687.453	1932
687.474	1876
687.520	1839
687.565	2174
687.574	2127
687.611	2014
687.657	1999
687.695	2146
687.702	2158
687.748	2062
687.794	2613
687.816	2222
687.839	1844
687.885	2433
687.931	1782
687.937	1838
687.976	2129
688.022	1467
688.058	2169
688.067	2347
688.113	1664
688.158	1733
688.179	1791
688.204	1932
688.249	2204
688.295	2073
688.300	2132
688.340	2559
688.386	2571
688.421	2422
688.431	2357
688.477	2205
688.522	2655
688.542	2605
688.567	2538
688.613	2437
688.658	1912
688.663	1920
688.703	2348
688.749	2964
688.784	2850
688.794	2689
688.839	2871
688.884	2639
688.905	2434
688.930	2365
688.975	2430
689.020	2259
689.026	2310
689.065	2680
689.110	2324
689.146	2131
689.155	2115
689.201	2479
689.246	2867
689.267	2940
689.291	2906
689.336	2793
689.381	2664
689.388	2621
689.426	2622
689.471	2787
689.509	3135
689.516	3160
689.561	2628
689.606	2684
689.630	2496
689.651	2425
689.696	2697
689.741	2557
689.750	2637
689.785	2952
689.830	2616
689.871	2851
689.875	2875
689.920	2912
689.965	3123
689.992	3023
690.010	3016
690.054	3108
690.099	3018
690.112	3160
690.144	3387
690.189	3364
690.233	3235
690.233	3241
690.278	3181
690.323	3098
690.354	3056
690.367	3051
690.412	3688
690.457	3052
690.474	3218
690.501	3508
690.546	3980
690.590	3562
690.595	3570
690.635	4050
690.680	4426
690.716	4915
690.724	5087
690.769	5996
690.813	7313
690.836	7480
690.857	8642
690.902	11254
690.946	14766
690.957	15331
690.991	21231
691.035	30438
691.077	38369
691.080	38358
691.124	36415
691.168	33755
691.198	32296
691.213	29539
691.257	21568
691.301	13061
691.318	9951
691.346	9134
691.390	7631
691.434	6053
691.439	5899
691.478	5899
691.522	5479
691.559	5243
691.567	5229
691.611	4781
691.655	4921
691.680	4422
691.699	4027
691.743	4290
691.787	4028
691.800	3826
691.831	3651
691.875	3944
691.919	4261
691.921	4253
691.964	4053
692.008	3624
692.041	3707
692.052	3782
692.096	3705
692.139	3696
692.162	3893
692.183	4137
692.227	3880
692.271	3824
692.282	3849
692.315	3928
692.359	4339
692.402	4005
692.403	4012
692.447	4098
692.490	3896
692.523	3668
692.534	3673
692.578	3786
692.622	4063
692.643	4187
692.666	4228
692.709	4147
692.753	3978
692.763	3963
692.797	4196
692.840	4278
692.884	4537
692.884	4550
692.928	4394
692.971	4802
693.004	4679
693.015	4703
693.059	4888
693.102	5184
693.124	5171
693.146	5119
693.189	5249
693.233	5314
693.245	5313
693.276	5554
693.320	6029
693.363	6331
693.365	6326
693.407	7521
693.450	8777
693.485	9840
693.493	10247
693.537	12065
693.580	14040
693.605	15036
693.624	17733
693.667	24580
693.710	31376
693.725	33614
693.753	46661
693.797	67090
693.840	88458
693.845	90702
693.883	85599
693.926	79101
693.966	73803
693.970	72115
694.013	53087
694.056	33812
694.086	20683
694.099	19611
694.142	15917
694.185	12055
694.206	10202
694.229	9619
694.272	8801
694.315	7746
694.326	7464
694.358	7035
694.401	6433
694.444	5894
694.446	5847
694.487	5898
694.530	5953
694.566	5829
694.573	5738
694.616	5243
694.659	4956
694.686	4499
694.702	4504
694.745	4645
694.787	4716
694.806	4849
694.830	5002
694.873	5019
694.916	5001
694.926	5010
694.959	4998
695.002	4942
695.044	4882
695.046	4860
695.087	4462
695.130	4276
695.166	3884
695.172	3970
695.215	4566
695.258	5225
695.286	5584
695.301	5407
695.343	4704
695.386	4325
695.406	4095
695.428	4185
695.471	4017
695.514	4066
695.526	4108
695.556	4228
695.599	4172
695.641	4246
695.646	4208
695.684	4056
695.726	4318
695.766	4320
695.769	4328
695.811	4179
695.854	4171
695.886	4028
695.896	4021
695.938	4024
695.981	4152
696.005	4151
696.023	4307
696.065	4643
696.108	4948
696.125	5073
696.150	5035
696.192	4882
696.235	4891
696.245	4825
696.277	4685
696.319	4615
696.361	4492
696.365	4471
696.404	5186
696.446	5948
696.485	6621
696.488	6595
696.530	5852
696.572	5230
696.604	4696
696.614	4749
696.656	5020
696.698	5249
696.724	5320
696.740	5164
696.783	4703
696.825	4412
696.844	4179
696.867	4409
696.909	4927
696.951	5310
696.964	5489
696.992	5430
697.034	5107
697.076	4810
697.083	4736
697.118	4697
697.160	4819
697.202	4707
697.203	4692
697.244	4659
697.286	4609
697.323	4461
697.327	4495
697.369	4720
697.411	4887
697.442	4959
697.453	4923
697.494	4808
697.536	4790
697.562	4679
697.578	4724
697.620	4824
697.661	4885
697.682	4907
697.703	4958
697.744	5081
697.786	5185
697.801	5187
697.828	5186
697.869	5161
697.911	5095
697.921	5090
697.952	5056
697.994	4947
698.035	4781
698.040	4751
698.077	4788
698.118	4743
698.160	4801
698.160	4785
698.201	4730
698.243	4667
698.279	4599
698.284	4642
698.325	4903
698.367	5159
698.399	5345
698.408	5284
698.449	4897
698.491	4564
698.518	4292
698.532	4390
698.573	4667
698.614	4929
698.638	5067
698.656	5140
698.697	5261
698.738	5405
698.757	5433
698.779	5320
698.820	5106
698.862	4892
698.877	4793
698.903	5013
698.944	5339
698.985	5668
698.996	5742
699.026	5715
699.067	5651
699.116	5559
699.235	4652
699.354	4857
699.474	5154
699.593	6305
699.713	5442
699.832	5190
699.951	5136
700.070	5610
700.190	3934
700.309	5137
700.428	5136
700.547	5109
700.667	4135
700.786	5676
700.905	4709
701.024	5225
701.143	4442
701.262	4915
701.381	4752
701.500	4453
701.619	4442
701.738	4579
701.857	4798
701.976	4616
702.095	4766
702.214	5075
702.333	5396
702.452	4474
702.571	3560
702.690	4568
702.809	3725
702.928	4237
703.047	4257
703.165	4359
703.284	3395
703.403	4566
703.522	3597
703.640	5256
703.759	4535
703.878	5198
703.997	3668
704.115	4705
704.234	4124
704.353	4225
704.471	4348
704.590	4140
704.708	3664
704.827	4285
704.946	4533
705.064	4424
705.183	4622
705.301	4884
705.420	6696
705.538	6141
705.656	5200
705.775	6668
705.893	11145
706.012	17473
706.130	5705
706.249	6531
706.367	5200
706.485	5737
706.604	4907
706.722	5976
706.840	5205
706.958	5787
707.077	5200
707.195	5162
707.313	5408
707.431	4531
707.549	4324
707.668	5536
707.786	4654
707.904	5205
708.022	4507
708.140	4385
708.258	3933
708.376	5090
708.494	5089
708.612	5633
708.730	6270
708.848	6098
708.966	5614
709.084	5272
709.202	5605
709.320	5960
709.438	5487
709.556	6424
709.674	4741
709.791	5469
709.909	5544
710.027	6245
710.145	4545
710.263	5592
710.380	4556
710.498	5823
710.616	4736
710.733	5189
710.851	5247
710.969	4951
711.086	5467
711.204	5694
711.322	5603
711.439	4555
711.557	4938
711.674	5546
711.792	4768
711.909	5790
712.027	6248
712.144	5365
712.262	4540
712.379	6372
712.497	6199
712.614	7792
712.732	6771
712.849	6214
712.966	6026
713.084	6878
713.201	5833
713.318	6301
713.436	5129
713.553	5427
713.670	5611
713.787	6559
713.905	6167
714.022	6090
714.139	5765
714.256	6511
714.373	5612
714.490	5598
714.608	6133
714.725	9405
714.842	9617
714.959	5180
715.076	5181
715.193	4816
715.310	5132
715.427	5365
715.544	5021
715.661	5377
715.778	4760
715.895	5583
716.011	5234
716.128	5478
716.245	4729
716.362	6568
716.479	4999
716.596	5539
716.713	4991
716.829	5614
716.946	4435
717.063	5369
717.180	4423
717.296	4447
717.413	4546
717.530	5033
717.646	4071
717.763	4401
717.880	3919
717.996	4284
718.113	4228
718.229	4585
718.346	4360
718.462	4178
718.579	5528
718.695	6790
718.812	6041
718.928	5602
719.045	4962
719.161	4136
719.277	3616
719.394	4581
719.510	4481
719.626	4428
719.743	4640
719.859	4262
719.975	4536
720.092	5636
720.208	7055
720.324	4433
720.440	3667
720.557	5205
720.673	6054
720.789	5868
720.905	11323
721.021	6134
721.137	3744
721.253	3636
721.369	4128
721.486	4440
721.602	5057
721.718	4169
721.834	3441
721.950	3525
722.066	3640
722.181	3934
722.297	4122
722.413	3525
722.529	3837
722.645	3134
722.761	2904
722.877	3249
722.993	3394
723.108	3560
723.224	3092
723.340	3773
723.456	2943
723.571	3650
723.687	3543
723.803	3705
723.918	2831
724.034	3620
724.150	3248
724.265	3595
724.381	4174
724.497	6466
724.612	2696
724.728	2567
724.843	2676
724.959	3259
725.074	4506
725.190	5888
725.305	3394
725.421	2612
725.536	2633
725.651	3346
725.767	3196
725.882	3149
725.997	1850
726.113	3528
726.228	2401
726.343	3328
726.459	3240
726.574	3339
726.689	2220
726.804	2270
726.920	2373
727.035	3952
727.150	2804
727.265	3255
727.380	3145
727.495	2669
727.610	2906
727.725	2272
727.841	3400
727.956	7448
728.071	6080
728.186	3412
728.301	1645
728.416	2514
728.531	2367
728.645	2408
728.760	2567
728.875	2606
728.990	1693
729.105	2738
729.220	1969
729.335	2978
729.449	2713
729.564	2472
729.679	2637
729.794	2460
729.908	2582
730.023	3197
730.138	2178
730.253	2431
730.367	2008
730.482	3334
730.596	1807
730.711	2506
730.826	1882
730.940	2490
731.055	2012
731.169	2779
731.284	2090
731.398	2367
731.513	2056
731.627	2897
731.742	2102
731.856	2903
731.970	1650
732.085	2685
732.199	2430
732.313	2361
732.428	1903
732.542	3518
732.656	1627
732.771	2559
732.885	2050
732.999	2284
733.113	3193
733.227	3474
733.342	1993
733.456	2495
733.570	1721
733.684	1733
733.798	1923
733.912	1935
734.026	1848
734.140	2403
734.254	2112
734.368	3475
734.482	2774
734.596	2745
734.710	2358
734.824	2395
734.938	2013
735.052	2314
735.166	1883
735.280	2584
735.393	1495
735.507	2129
735.621	1551
735.735	4590
735.849	2108
735.962	2744
736.076	1636
736.190	2582
736.303	2017
736.417	3128
736.531	2094
736.644	2068
736.758	1892
736.872	2373
736.985	1724
737.099	1717
737.212	1824
737.326	2385
737.439	2111
737.553	2624
737.666	1739
737.780	1849
737.893	1700
738.007	2266
738.120	1834
738.233	2405
738.347	2248
738.460	2551
738.573	2077
738.687	2200
738.800	2122
738.913	2312
739.026	2287
739.140	1815
739.253	2171
739.366	2257
739.479	1969
739.592	2451
739.705	1762
739.818	2117
739.932	1979
740.045	1626
740.158	1977
740.271	2218
740.384	2109
740.497	1637
740.610	2064
740.723	2349
740.836	1969
740.949	2109
741.062	2399
741.174	2356
741.287	2100
741.400	1681
741.513	1928
741.626	2401
741.739	1832
741.851	2992
741.964	2083
742.077	2126
742.189	1530
742.302	2370
742.415	2203
742.527	2088
742.640	2139
742.753	1729
742.865	2082
742.978	2402
743.090	1631
743.203	2088
743.316	1941
743.428	2015
743.541	2185
743.653	1789
743.766	1304
743.878	1464
743.990	2021
744.103	3539
744.215	738
744.327	2084
744.440	2377
744.552	2842
744.664	1571
744.777	1879
744.889	1024
745.001	2892
745.113	1712
745.226	1282
745.338	1667
745.450	2287
745.562	2105
745.674	1930
745.786	1294
745.898	2326
746.010	1612
746.122	1992
746.234	1358
746.347	3093
746.459	2033
746.570	1109
746.682	2079
746.794	2303
746.906	1925
747.018	2276
747.130	1622
747.242	2524
747.354	1333
747.466	2407
747.577	1806
747.689	1636
747.801	1272
747.913	1919
748.024	1026
748.136	1969
748.248	1054
748.359	2311
748.471	1915
748.583	1770
748.694	1281
748.806	3001
748.918	1344
749.029	2205
749.141	1465
749.252	2486
749.364	1029
749.475	2777
749.587	2064
749.698	2087
749.809	2786
749.921	2201
750.032	1631
750.144	2171
750.255	1492
750.366	1559
750.478	1661
750.589	2715
750.700	1164
750.811	1689
750.923	2567
751.034	2662
751.145	3463
751.256	1606
751.367	1983
751.479	1784
751.590	1235
751.701	1854
751.812	1999
751.923	2324
752.034	1355
752.145	2478
752.256	1934
752.367	2239
752.478	2011
752.589	2089
752.700	1990
752.811	2468
752.922	1773
753.032	1779
753.143	2020
753.254	1906
753.365	1915
753.476	2170
753.586	1809
753.697	1947
753.808	1846
753.919	2165
754.029	1626
754.140	1611
754.251	1734
754.361	1595
754.472	1904
754.582	2449
754.693	2099
754.804	1716
754.914	1476
755.025	2113
755.135	988
755.246	1555
755.356	997
755.466	2047
755.577	1913
755.687	1971
755.798	1717
755.908	2222
756.018	2172
756.129	2688
756.239	1801
756.349	2234
756.460	2034
756.570	1877
756.680	2000
756.790	3331
756.900	2412
757.011	1929
757.121	1811
757.231	2702
757.341	2362
757.451	2022
757.561	1837
757.671	2933
757.781	1645
757.891	3121
758.001	1449
758.111	2748
758.221	2311
758.331	3041
758.441	2210
758.551	2853
758.661	2348
758.771	2678
758.880	3095
758.990	3384
759.100	2795
759.210	3079
759.320	2924
759.429	3467
759.539	2611
759.649	2874
759.758	2100
759.868	3289
759.978	2194
760.087	3609
760.197	3392
760.307	3110
760.416	3755
760.526	3523
760.635	4287
760.745	4242
760.854	3739
760.964	4936
761.073	3660
761.182	4856
761.292	4807
761.401	5014
761.511	4222
761.620	5902
761.729	4375
761.839	5158
761.948	5435
762.057	5166
762.166	4796
762.276	5416
762.385	6535
762.494	6483
762.603	5600
762.712	7398
762.822	6383
762.931	7197
763.040	7100
763.149	8091
763.258	6777
763.367	8927
763.476	8399
763.585	10273
763.694	10106
763.803	10038
763.912	12047
764.021	13241
764.130	12984
764.238	14322
764.347	14034
764.456	16231
764.565	17435
764.674	19297
764.783	20662
764.891	22761
765.000	25315
765.109	29897
765.217	34379
765.326	40459
765.435	48007
765.543	58826
765.652	73379
765.761	94537
765.869	128431
765.978	181268
766.086	270630
766.195	411259
766.303	594135
766.412	568861
766.520	498297
766.629	564871
766.737	394352
766.846	257047
766.954	174838
767.062	127243
767.171	94268
767.279	73942
767.387	58783
767.496	49375
767.604	41629
767.712	36056
767.820	31509
767.928	30061
768.037	26391
768.145	25430
768.253	24558
768.361	23963
768.469	22782
768.577	23760
768.685	25566
768.793	27325
768.901	28787
769.009	34494
769.117	41678
769.225	52310
769.333	73810
769.441	111943
769.549	182268
769.657	324812
769.765	528035
769.873	493673
769.981	490186
770.088	321271
770.196	182359
770.304	114304
770.412	80228
770.519	59967
770.627	46042
770.735	38254
770.842	32645
770.950	26658
771.058	23392
771.165	21527
771.273	18664
771.380	16926
771.488	14024
771.595	13955
771.703	12347
771.810	12143
771.918	10641
772.025	11122
772.133	9211
772.240	9203
772.348	8669
772.455	8722
772.562	7109
772.670	7384
772.777	6798
772.884	6212
772.991	5395
773.099	6568
773.206	4617
773.313	6016
773.420	4745
773.528	4808
773.635	4327
773.742	6016
773.849	4912
773.956	4287
774.063	3640
774.170	5061
774.277	4969
774.384	3683
774.491	3609
774.598	4378
774.705	3484
774.812	4405
774.919	3935
775.026	4593
775.133	2725
775.239	3353
775.346	3444
775.453	3188
775.560	2408
775.667	3649
775.773	1360
775.880	3249
775.987	2832
776.093	3285
776.200	2729
776.307	3798
776.413	2667
776.520	2411
776.627	2889
776.733	2769
776.840	1713
776.946	3109
777.053	2380
777.159	3720
777.266	908
777.372	3895
777.478	1721
777.585	2826
777.691	1834
777.798	3041
777.904	1804
778.010	3151
778.117	2157
778.223	1543
778.329	2160
778.435	2441
778.542	2575
778.648	1668
778.754	1817
778.860	1544
778.966	1546
779.072	1796
779.178	697
779.284	1982
779.391	794
779.497	2411
779.603	4728
779.708	4777
779.815	13634
779.920	49020
780.026	113610
780.132	18528
780.238	3039
780.344	2865
780.450	3237
780.556	2621
780.661	992
780.767	1546
780.873	1403
780.979	1598
781.085	599
781.190	1601
781.296	801
781.402	1391
781.507	796
781.613	1060
781.719	401
781.824	750
781.930	1529
782.035	753
782.141	816
782.246	784
782.352	534
782.457	1470
782.563	1528
782.668	673
782.773	1048
782.879	1192
782.984	148
783.090	1147
783.195	1305
783.300	1206
783.405	332
783.511	928
783.616	1152
783.721	924
783.826	364
783.932	1475
784.037	1127
784.142	1188
784.247	30
784.352	954
784.457	123
784.562	1151
784.667	296
784.772	1528
784.877	-21
784.982	841
785.087	-497
785.192	1918
785.297	338
785.402	525
785.507	116
785.611	1016
785.716	-198
785.821	513
785.926	-97
786.031	152
786.135	541
786.240	723
786.345	-602
786.450	1130
786.554	-4
786.659	633
786.763	-712
786.868	1127
786.973	587
787.077	889
787.182	109
787.286	261
787.391	410
787.495	607
787.600	2
787.704	-34
787.809	189
787.913	-206
788.017	56
788.122	159
788.226	-430
788.330	-548
788.435	337
788.539	572
788.643	-349
788.747	399
788.852	-674
788.956	219
789.060	-127
789.164	-433
789.268	-397
789.372	793
789.476	39
789.580	574
789.684	-248
789.788	760
789.892	-498
789.996	1608
790.100	-181
790.204	1288
790.308	-25
790.412	536
790.516	495
790.620	-856
790.724	883
790.828	236
790.931	-616
791.035	1764
791.139	-543
791.242	-832
791.346	447
791.450	329
791.554	-113
791.657	-1282
791.761	-7
791.864	291
791.968	636
792.072	447
792.175	-461
792.279	-210
792.382	316
792.486	392
792.589	-450
792.693	651
792.796	-610
792.899	439
793.003	-310
793.106	-661
793.209	-779
793.313	1427
793.416	-1414
793.519	1944
793.623	186
793.726	634
793.829	442
793.932	869
794.035	-955
794.138	1454
794.242	825
794.345	1048
794.448	2147
794.551	5876
794.654	25346
794.757	63989
794.860	11735
794.963	1329
795.066	143
795.169	2017
795.272	-348
795.375	881
795.477	-105
795.580	1121
795.683	-1560
795.786	471
795.889	-884
795.991	906
796.094	51
796.197	-1055
796.300	910
796.402	652
796.505	-235
796.608	-1059
796.710	-52
796.813	-35
796.915	-709
797.018	840
797.120	170
797.223	-1605
797.326	1341
797.428	224
797.530	-594
797.633	470
797.735	445
797.838	-257
797.940	798
798.042	-268
798.145	-218
798.247	506
798.349	-1491
798.452	1023
798.554	-91
798.656	-209
798.758	587
798.860	23
798.962	-163
799.065	44
799.167	-893
799.269	1012
799.371	754
799.473	-364
799.575	-1052
799.677	-780
799.779	1110
799.881	-885
799.983	118
800.085	579
800.187	23
800.289	-731
800.390	-170
800.492	1016
800.594	394
800.696	681
800.798	-712
800.899	-470
801.001	-967
801.103	30
801.205	-793
801.306	671
801.408	-239
801.509	77
801.611	-611
801.713	17
801.814	-329
801.916	660
802.017	-701
802.119	-377
802.220	-119
802.322	-2023
802.423	389
802.525	-1247
802.626	-320
802.727	823
802.829	-602
802.930	-1929
803.031	705
803.133	-216
803.234	-661
803.335	-312
803.436	-1296
803.538	516
803.639	-1464
803.740	466
803.841	-897
803.942	148
804.043	-555
804.144	-1063
804.245	-129
804.346	394
804.447	-904
804.548	-700
804.649	-19
804.750	-120
804.851	-482
804.952	-266
805.053	-202
805.154	-817
805.255	149
805.355	396
805.456	-89
805.557	-201
805.658	-1419
805.758	1407
805.859	-335
805.960	404
806.061	-778
806.161	-186
806.262	-626
806.362	-818
806.463	-442
806.564	1059
806.664	-40
806.765	-273
806.865	-782
806.966	-240
807.066	-933
807.166	-119
807.267	303
807.367	-463
807.468	-412
807.568	-1822
807.668	33
807.769	-234
807.869	-212
807.969	-66
808.069	-685
808.170	249
808.270	-772
808.370	551
808.470	-75
808.570	94
808.670	-157
808.770	-237
808.870	-1291
808.970	-133
809.070	-704
809.170	-842
809.271	525
809.370	-659
809.470	-458
809.570	-612
809.670	-162
809.770	-91
809.870	-567
809.970	-818
810.070	-797
810.169	419
810.269	-1702
810.369	273
810.469	-413
810.568	-1208
810.668	-1069
810.768	-812
810.867	-1591
810.967	-820
811.066	-730
811.166	-964
811.265	-2
811.365	-1299
811.464	-1619
811.564	-721
811.663	-1039
811.763	-1331
811.862	-62
811.962	-395
812.061	-654
812.160	-666
812.260	-67
812.359	468
812.458	21
812.557	1824
812.657	1533
812.756	874
812.855	-995
812.954	-541
813.053	-776
813.153	-1003
813.252	-1319
813.351	-755
813.450	-679
813.549	-1505
813.648	150
813.747	-947
813.846	-173
813.945	-846
814.044	-746
814.143	-954
814.242	-296
814.341	-778
814.439	-865
814.538	-116
814.637	-470
814.736	-497
814.835	-466
814.933	-855
815.032	-798
815.131	-522
815.229	-1747
815.328	-324
815.427	-799
815.525	131
815.624	-543
815.722	-188
815.821	-826
815.919	-740
816.018	-1735
816.116	-160
816.215	-634
816.313	-1009
816.412	-841
816.510	-1332
816.609	724
816.707	396
816.805	-917
816.904	-482
817.002	-1523
817.100	7
817.198	-246
817.296	-768
817.395	-961
817.493	364
817.591	-640
817.689	-144
817.787	218
817.885	2193
817.983	3406
818.081	11051
818.179	28200
818.277	77010
818.375	71059
818.473	14608
818.571	4092
818.669	3782
818.767	2008
818.865	1893
818.963	3534
819.061	5012
819.158	9156
819.256	24830
819.354	59529
819.452	143309
819.549	92517
819.647	20548
819.745	5779
819.842	4277
819.940	1007
820.038	939
820.135	1223
820.233	1831
820.330	-442
820.428	-368
820.525	711
820.623	-552
820.720	-1021
820.818	169
820.915	451
821.012	571
821.110	-1373
821.207	48
821.304	-1312
821.402	-822
821.499	-316
821.596	-311
821.693	-900
821.791	247
821.888	-623
821.985	10
822.082	-532
822.179	72
822.276	-1059
822.373	-804
822.470	-1582
822.567	-559
822.664	-1171
822.761	114
822.858	-1950
822.955	-522
823.052	-920
823.149	-560
823.246	-1117
823.343	-959
823.440	-210
823.536	29
823.633	-563
823.730	-309
823.827	-1291
823.923	-991
824.020	-731
824.117	-1156
824.213	-1770
824.310	151
824.407	-256
824.503	-478
824.600	-127
824.696	-984
824.793	-656
824.889	-1568
824.986	-824
825.082	-917
825.179	-839
825.275	-964
825.371	-896
825.468	-261
825.564	-1429
825.660	174
825.757	-689
825.853	855
825.949	-2265
826.045	-852
826.142	-1941
826.238	257
826.334	-454
826.430	-1396
826.526	-733
826.622	-1130
826.718	-911
826.814	-720
826.910	25
827.006	-727
827.102	-1625
827.198	311
827.294	-1492
827.390	-1080
827.486	-720
827.582	-1718
827.678	-1980
827.774	-122
827.869	-1799
827.965	524
828.061	-1378
828.157	-1333
828.252	-781
828.348	-1454
828.444	-373
828.539	-1097
828.635	-1499
828.731	86
828.826	-1678
828.922	-823
829.017	-1030
829.113	-106
829.208	-1340
829.304	-1690
829.399	-328
829.495	-413
829.590	-38
829.685	-1108
829.781	-1167
829.876	-1290
829.971	-644
830.066	-834
830.162	-1259
830.257	-998
830.352	-1648
830.447	578
830.543	-957
830.638	-2362
830.733	-328
830.828	-403
830.923	-312
831.018	-538
831.113	-1643
831.208	-1808
831.303	-906
831.398	-576
831.493	-1881
831.588	-457
831.683	-2529
831.778	-596
831.873	-653
831.967	76
832.062	-1287
832.157	-1891
832.252	528
832.346	-694
832.441	-785
832.536	-869
832.631	182
832.725	582
832.820	-765
832.914	-278
833.009	-951
833.104	-926
833.198	-647
833.293	-1074
833.387	-885
833.482	-395
833.576	-1982
833.670	-315
833.765	-1082
833.859	-1131
833.954	-677
834.048	-1257
834.142	-1150
834.237	-258
834.331	-1387
834.425	-2155
834.519	-2085
834.613	-523
834.708	-795
834.802	-845
834.896	-2327
834.990	-726
835.084	-846
835.178	-355
835.272	-2264
835.366	-963
835.460	-746
835.554	-892
835.648	-1051
835.742	-1210
835.836	-1334
835.930	-1113
836.024	-937
836.117	-563
836.211	-1756
836.305	-499
836.399	-1263
836.493	-1395
836.586	-498
836.680	-2156
836.774	-1373
836.867	-482
836.961	-1457
837.055	-1883
837.148	-766
837.242	-960
837.335	-1489
837.429	-447
837.522	-1610
837.616	-1342
837.709	-45
837.803	-1266
837.896	-1263
837.989	-1284
838.083	-22
838.176	-727
838.269	-1714
838.363	-962
838.456	-1623
838.549	-193
838.642	-1258
838.735	189
838.829	-1149
838.922	-1214
839.015	-1646
839.108	-692
839.201	-921
839.294	-597
839.387	-1453
839.480	-1435
839.573	-1239
839.666	-1373
839.759	-1109
839.852	-884
839.945	-1222
840.038	-891
840.131	-1815
840.223	-1084
840.316	-559
840.409	-554
840.502	-2475
840.594	143
840.687	-2659
840.780	-534
840.873	-2107
840.965	-1000
841.058	-860
841.150	-223
841.243	-1314
841.336	-949
841.428	-502
841.521	-1300
841.613	-2159
841.706	-176
841.798	-675
841.890	-551
841.983	-2024
842.075	-350
842.167	-990
842.260	-1184
842.352	-353
842.444	-1583
842.537	-1226
842.629	426
842.721	-1344
842.813	-987
842.905	-2401
842.997	-817
843.090	-1117
843.182	-1646
843.274	-1835
843.366	1277
843.458	2004
843.550	836
843.642	-1009
843.734	-164
843.826	-1766
843.918	-460
844.009	-1997
844.101	-1119
844.193	-1446
844.285	-1610
844.377	-1982
844.469	-863
844.560	-2167
844.652	-1559
844.744	-764
844.835	-1457
844.927	-1166
845.019	-1179
845.110	-1023
845.202	-267
845.293	-1905
845.385	-1064
845.476	-1499
845.568	137
845.659	-1875
845.751	-742
845.842	-1477
845.934	-1087
846.025	-1054
846.116	-873
846.208	-1443
846.299	-405
846.390	-814
846.482	-799
846.573	-1956
846.664	-903
846.755	-684
846.846	-264
846.937	-2062
847.029	-1473
847.120	-1187
847.211	-697
847.302	-837
847.393	-1891
847.484	-691
847.575	-1356
847.666	-1360
847.757	-1081
847.847	-1345
847.938	-668
848.029	-1435
848.120	-1740
848.211	-1635
848.302	-1103
848.392	-1282
848.483	-1276
848.574	-1152
848.664	-693
848.755	-1250
848.846	-618
848.936	-1600
849.027	-655
849.118	-1764
849.208	-801
849.299	-713
849.389	-1000
849.480	-1229
849.570	-1661
849.661	-1104
849.751	-1308
849.841	-986
849.932	-1348
850.022	-1297
850.112	-461
850.203	-1674
850.293	-712
850.383	-1363
850.474	-1275
850.564	-1692
850.654	-605
850.744	-1327
850.834	-122
850.924	-1324
851.014	-1359
851.104	-1009
851.194	-1247
851.284	-1853
851.374	-490
851.464	-1521
851.554	-988
851.644	-1641
851.734	-129
851.824	-1264
851.914	-1010
852.004	486
852.094	-107
852.183	-1505
852.273	-889
852.363	-1769
852.452	-1095
852.542	-1479
852.632	-470
852.721	-1097
852.811	-1292
852.901	-1520
852.990	-694
853.080	-1960
853.169	-1059
853.259	-1511
853.348	-971
853.438	-1671
853.527	-1543
853.617	-1680
853.706	-1132
853.795	-1871
853.885	-631
853.974	-900
854.063	1303
854.152	-682
854.242	-863
854.331	-925
854.420	-1450
854.509	-1163
854.598	-367
854.687	-389
854.777	-1097
854.866	-1501
854.955	-821
855.044	-1837
855.133	-753
855.222	-1652
855.311	-1243
855.400	-611
855.488	-1118
855.577	-1382
855.666	-1011
855.755	-1025
855.844	-289
855.933	-1731
856.021	300
856.110	-1224
856.199	-333
856.288	-1151
856.376	-992
856.465	-1551
856.554	-1524
856.642	-2072
856.731	-602
856.819	-1419
856.908	-1908
856.996	-1947
857.085	-1380
857.173	-2306
857.262	-1420
857.350	-1073
857.438	-1580
857.527	-714
857.615	-1268
857.703	-1254
857.792	-1369
857.880	-2193
857.968	-383
858.056	-1042
858.145	-1756
858.233	-1368
858.321	-1372
858.409	-1655
858.497	-1271
858.585	-1727
858.673	-1065
858.761	-1780
858.849	-1114
858.937	-1668
859.025	-661
859.113	-937
859.201	-2155
859.289	-896
859.377	-632
859.465	-1419
859.552	-1143
859.640	-1181
859.728	-1079
859.816	-1538
859.903	-131
859.991	-1742
860.079	-1021
860.166	-1038
860.254	-838
860.342	-1060
860.429	-1837
860.517	-1944
860.604	-988
860.692	-1224
860.779	-1695
860.867	-690
860.954	-1093
861.042	-1554
861.129	-1361
861.216	-1220
861.304	-1687
861.391	-2377
861.478	-1015
861.565	-1386
861.653	-830
861.740	-1666
861.827	-1080
861.914	-490
862.001	-757
862.089	-1008
862.176	-918
862.263	-1532
862.350	-977
862.437	-1611
862.524	-1876
862.611	-1978
862.698	-641
862.785	-963
862.871	-1497
862.958	-1922
863.045	-1965
863.132	-1900
863.219	-1899
863.306	-2257
863.392	-1655
863.479	-2166
863.566	-1049
863.652	-1688
863.739	-1328
863.826	-1801
863.912	-1703
863.999	-1897
864.086	-1290
864.172	-1150
864.259	-1141
864.345	-1680
864.432	-1022
864.518	-1562
864.604	-1528
864.691	-2034
864.777	-1303
864.863	-1382
864.950	-894
865.036	-1972
865.122	-1251
865.209	-1949
865.295	-1151
865.381	-1420
865.467	-1794
865.553	-2088
865.639	-2180
865.726	-2049
865.812	-1603
865.898	-974
865.984	-789
866.070	42
866.156	492
866.242	-1321
866.328	-882
866.414	-1850
866.499	-980
866.585	-1075
866.671	-1195
866.757	-2395
866.843	-1294
866.928	-2094
867.014	-983
867.100	-946
867.186	-1999
867.271	-2260
867.357	-435
867.442	-2098
867.528	-1872
867.614	-2726
867.699	-1825
867.785	-2151
867.870	-1572
867.956	-2168
868.041	-1670
868.127	-1399
868.212	-1260
868.297	-1713
868.383	-857
868.468	-1344
868.553	-239
868.639	-1676
868.724	-571
868.809	-324
868.894	-656
868.979	-1021
869.065	-1223
869.150	-2102
869.235	-1087
869.320	-1748
869.405	-1104
869.490	-1590
869.575	-1163
869.660	-2510
869.745	-898
869.830	-2288
869.915	-1477
870.000	-1040
870.085	-1570
870.169	-2098
870.254	-1320
870.339	-2605
870.424	-1868
870.509	-2042
870.593	-1679
870.678	-1548
870.763	-1782
870.847	-1841
870.932	-1399
871.016	-1869
871.101	-1344
871.186	-1482
871.270	-1332
871.355	-2066
871.439	-1541
871.523	-1379
871.608	-1374
871.692	-1046
871.777	-1601
871.861	-1335
871.945	-1486
872.030	-1576
872.114	-996
872.198	-1868
872.282	-1410
872.367	-1245
872.451	-1988
872.535	-1193
872.619	-870
872.703	-1677
872.787	-1005
872.871	-1180
872.955	-927
873.039	-1740
873.123	-1633
873.207	-1059
873.291	-977
873.375	-1556
873.459	-1598
873.543	-1420
873.627	-812
873.711	-2574
873.794	-1406
873.878	-2006
873.962	-1273
874.045	-1183
874.129	-1696
874.137	-1705
874.213	-1804
874.245	-1550
874.296	-1137
874.352	-1892
874.380	-2263
874.460	-1104
874.464	-1060
874.547	-1493
874.568	-1445
874.631	-1296
874.676	-1107
874.714	-944
874.784	-1084
874.798	-1111
874.881	-1189
874.892	-1280
874.965	-1924
874.999	-1880
875.048	-1846
875.107	-1527
875.131	-1374
875.215	-1795
875.215	-1794
875.298	-1479
875.323	-1449
875.381	-1303
875.430	-837
875.465	-538
875.538	-1262
875.548	-1355
875.631	-858
875.646	-938
875.714	-1399
875.753	-1341
875.798	-1228
875.861	-1824
875.881	-2011
875.964	-1566
875.968	-1572
876.047	-1712
876.076	-1369
876.130	-775
876.183	-1734
876.213	-2203
876.291	-868
876.296	-789
876.379	-1494
876.398	-1472
876.462	-1301
876.506	-1177
876.545	-1153
876.613	-1259
876.628	-1242
876.711	-1688
876.721	-1653
876.794	-1399
876.828	-1438
876.877	-1569
876.935	-784
876.960	-426
877.043	-330
877.043	-331
877.125	-480
877.150	-635
877.208	-1104
877.258	-1141
877.291	-1016
877.365	-1029
877.374	-1045
877.456	-927
877.472	-976
877.539	-1400
877.579	-1302
877.622	-1123
877.687	-1304
877.704	-1293
877.787	-542
877.794	-615
877.869	-1616
877.901	-1256
877.952	-615
878.008	-991
878.034	-1221
878.115	-990
878.117	-982
878.199	-1550
878.222	-1543
878.282	-1304
878.329	-702
878.364	-397
878.437	-499
878.447	-508
878.529	-1492
878.544	-1374
878.611	-894
878.651	-835
878.694	-634
878.758	-349
878.776	-285
878.858	-512
878.865	-547
878.941	-1236
878.972	-1317
879.023	-1256
879.078	-907
879.105	-824
879.185	-1570
879.187	-1578
879.269	-765
879.292	-897
879.351	-1275
879.399	-932
879.433	-658
879.506	-587
879.516	-574
879.598	-546
879.613	-667
879.680	-1383
879.720	-1163
879.762	-931
879.827	-1272
879.844	-1297
879.926	-579
879.933	-632
880.007	-1260
880.040	-995
880.089	-560
880.147	-1055
880.171	-1290
880.253	-347
880.254	-353
880.335	-1038
880.360	-703
880.417	-100
880.467	-280
880.499	-350
880.574	17
880.580	49
880.662	-917
880.680	-873
880.744	-895
880.787	-1197
880.825	-1318
880.893	-986
880.907	-960
880.989	-1319
881.000	-1271
881.070	-450
881.106	-410
881.152	-512
881.213	-593
881.233	-658
881.315	-334
881.319	-322
881.396	-50
881.426	-365
881.478	-878
881.532	-463
881.559	-213
881.639	-439
881.641	-446
881.722	-227
881.745	-333
881.803	-649
881.852	-846
881.885	-931
881.958	-1034
881.966	-1030
882.047	-580
882.064	-585
882.129	-684
882.171	-743
882.210	-636
882.277	-55
882.291	-42
882.372	-927
882.383	-964
882.454	-604
882.489	-487
882.535	-577
882.596	-499
882.616	-427
882.697	-321
882.702	-340
882.778	-611
882.808	-553
882.859	-282
882.914	-117
882.940	-221
883.020	-789
883.021	-785
883.102	-626
883.127	-423
883.183	-41
883.233	-138
883.264	-403
883.339	-495
883.345	-464
883.426	-452
883.445	-495
883.507	-449
883.551	-237
883.587	-261
883.657	-426
883.668	-388
883.749	-230
883.763	-203
883.830	-580
883.869	-710
883.910	-585
883.975	-576
883.991	-521
884.072	-249
884.081	-203
884.152	-333
884.187	-649
884.233	-655
884.292	8
884.314	98
884.394	-158
884.398	-169
884.475	-24
884.504	-105
884.555	-142
884.610	318
884.636	190
884.716	-1013
884.716	-1010
884.797	-630
884.821	-544
884.877	-368
884.927	-311
884.958	-377
885.033	-407
885.038	-393
885.118	-188
885.139	-210
885.199	-199
885.244	8
885.279	54
885.350	-112
885.359	-117
885.439	-85
885.456	-153
885.520	-694
885.561	-734
885.600	-393
885.667	-226
885.680	-282
885.760	-321
885.773	-393
885.840	-145
885.878	209
885.920	332
885.984	-62
886.000	-209
886.080	-52
886.089	-135
886.160	-502
886.195	-346
886.240	-68
886.300	-210
886.320	-282
886.400	-32
886.406	-46
886.480	69
886.511	162
886.560	47
886.616	-235
886.640	-317
886.720	-253
886.722	-265
886.800	-234
886.827	-89
886.879	246
886.932	292
886.959	118
887.038	-107
887.039	-101
887.119	-231
887.143	-203
887.198	-26
887.248	-2
887.278	57
887.354	311
887.358	299
887.437	-205
887.459	-278
887.517	337
887.564	662
887.596	752
887.669	1122
887.676	1059
887.755	29
887.774	-218
887.835	-275
887.880	-254
887.914	1
887.985	404
887.994	328
888.073	-324
888.090	-478
888.153	187
888.195	605
888.232	112
888.300	-700
888.311	-469
888.391	1082
888.405	1351
888.470	501
888.510	-21
888.549	241
888.615	710
888.628	650
888.708	174
888.720	105
888.787	14
888.825	-90
888.866	211
888.930	725
888.945	593
889.024	-139
889.035	-231
889.103	37
889.140	105
889.182	256
889.245	541
889.261	450
889.340	-22
889.349	-78
889.419	371
889.454	577
889.498	272
889.559	-131
889.577	-0
889.656	555
889.664	608
889.735	428
889.768	337
889.814	783
889.873	1372
889.978	806
890.083	1529
890.187	647
890.292	442
890.397	549
890.501	41
890.606	115
890.710	627
890.815	611
890.919	708
891.024	139
891.128	1098
891.233	651
891.337	1110
891.442	-104
891.546	732
891.650	509
891.755	511
891.859	1269
891.963	889
892.068	423
892.172	699
892.276	7
892.380	310
892.484	279
892.589	432
892.693	-40
892.797	646
892.901	-3
893.005	92
893.109	62
893.213	567
893.317	256
893.421	-23
893.525	525
893.629	-93
893.733	434
893.837	239
893.941	417
894.045	1829
894.148	13
894.252	1114
894.356	622
894.460	1616
894.564	378
894.667	1041
894.771	-112
894.875	69
894.978	26
895.082	363
895.186	1023
895.289	924
895.393	78
895.496	144
895.600	564
895.703	965
895.807	250
895.910	385
896.014	197
896.117	356
896.221	244
896.324	621
896.427	70
896.531	-77
896.634	583
896.737	1119
896.840	-882
896.944	673
897.047	540
897.150	851
897.253	-413
897.356	577
897.460	578
897.563	-158
897.666	-301
897.769	1453
897.872	564
897.975	-5
898.078	774
898.181	569
898.284	790
898.387	1056
898.490	573
898.593	688
898.695	-460
898.798	161
898.901	730
899.004	887
899.107	-315
899.209	420
899.312	393
899.415	903
899.518	-82
899.620	265
899.723	81
899.826	385
899.928	168
900.031	897
900.133	-94
900.236	-350
900.338	663
900.441	369
900.543	301
900.646	254
900.748	-274
900.851	420
900.953	-126
901.055	328
901.158	708
901.260	683
901.362	550
901.465	1074
901.567	324
901.669	462
901.771	-98
901.873	608
901.976	170
902.078	369
902.180	167
902.282	-200
902.384	-543
902.486	504
902.588	426
902.690	281
902.792	945
902.894	403
902.996	879
903.098	389
903.200	-618
903.302	1192
903.404	152
903.505	1261
903.607	8
903.709	1088
903.811	429
903.913	446
904.014	864
904.116	462
904.218	720
904.319	677
904.421	113
904.523	438
904.624	824
904.726	1147
904.827	528
904.929	148
905.030	145
905.132	739
905.233	704
905.335	-238
905.436	905
905.537	577
905.639	909
905.740	489
905.841	222
905.943	976
906.044	-74
906.145	288
906.247	654
906.348	577
906.449	662
906.550	527
906.651	845
906.752	1104
906.854	251
906.955	-158
907.056	378
907.157	352
907.258	312
907.359	785
907.460	152
907.561	305
907.662	386
907.762	993
907.863	141
907.964	574
908.065	923
908.166	555
908.267	113
908.367	676
908.468	170
908.569	171
908.670	486
908.770	657
908.871	866
908.971	996
909.072	956
909.173	95
909.273	172
909.374	15
909.474	18
909.575	841
909.675	226
909.776	937
909.876	-49
909.977	53
910.077	-368
910.177	-92
910.278	512
910.378	862
910.478	23
910.579	1055
910.679	325
910.779	374
910.879	426
910.980	633
911.080	73
911.180	290
911.280	269
911.380	-105
911.480	20
911.580	727
911.680	369
911.780	911
911.880	163
911.980	227
912.080	-438
912.180	327
912.280	-185
912.380	391
912.480	-349
912.580	266
912.679	73
912.779	779
912.879	257
912.979	-11
913.078	471
913.178	296
913.278	-627
913.377	1046
913.477	742
913.577	712
913.676	912
913.776	-390
913.875	638
913.975	523
914.074	416
914.174	642
914.273	-237
914.373	540
914.472	160
914.572	-115
914.671	114
914.770	541
914.870	-134
914.969	298
915.068	-239
915.167	642
915.267	-10
915.366	21
915.465	100
915.564	579
915.663	388
915.763	417
915.862	-192
915.961	654
916.060	-478
916.159	115
916.258	-84
916.357	806
916.456	1140
916.555	-118
916.654	320
916.752	270
916.851	-490
916.950	627
917.049	-175
917.148	-848
917.247	210
917.345	-160
917.444	-82
917.543	-652
917.642	406
917.740	597
917.839	-437
917.937	979
918.036	-137
918.135	454
918.233	-697
918.332	-335
918.430	-38
918.529	156
918.627	-173
918.726	256
918.824	-960
918.923	-12
919.021	-662
919.119	-63
919.218	-599
919.316	14
919.414	-99
919.512	375
919.611	-774
919.709	156
919.807	296
919.905	75
920.003	-465
920.102	267
920.200	-806
920.298	-243
920.396	-34
920.494	878
920.592	-1018
920.690	339
920.788	-450
920.886	346
920.984	-22
921.082	465
921.180	-52
921.277	-259
921.375	609
921.473	334
921.571	-590
921.669	308
921.766	-384
921.864	235
921.962	-251
922.060	573
922.157	-151
922.255	137
922.352	-317
922.450	868
922.548	-549
922.645	382
922.743	-219
922.840	707
922.938	-146
923.035	6
923.133	-421
923.230	503
923.327	276
923.425	431
923.522	-184
923.619	-400
923.717	31
923.814	905
923.911	-1176
924.008	619
924.106	507
924.203	-139
924.300	-548
924.397	-194
924.494	6
924.591	331
924.688	-546
924.786	675
924.883	-421
924.979	-86
925.077	-736
925.173	679
925.270	288
925.367	-33
925.464	34
925.561	-320
925.658	-623
925.755	384
925.852	96
925.948	221
926.045	-560
926.142	-590
926.239	-24
926.335	601
926.432	781
926.529	447
926.625	-155
926.722	25
926.818	-552
926.915	69
927.011	638
927.108	514
927.204	-33
927.301	216
927.397	-970
927.494	-481
927.590	-413
927.687	-934
927.783	-278
927.879	-362
927.976	118
928.072	-414
928.168	-460
928.264	-74
928.361	-301
928.457	-137
928.553	-369
928.649	795
928.745	262
928.841	-226
928.937	-63
929.033	-50
929.129	-343
929.225	190
929.321	-488
929.417	376
929.513	-432
929.609	284
929.705	-771
929.801	170
929.897	-687
929.993	1
930.089	108
930.184	792
930.280	-844
930.376	20
930.471	-1139
930.567	-311
930.663	267
930.758	-146
930.854	-581
930.950	-31
931.045	-402
931.141	308
931.236	-193
931.332	-477
931.427	-100
931.523	-615
931.618	704
931.714	-788
931.809	87
931.905	-146
932.000	13
932.095	-174
932.191	8
932.286	-485
932.381	-479
932.476	-900
932.572	303
932.667	-163
932.762	-647
932.857	-405
932.952	-646
933.047	154
933.142	-1000
933.237	-263
933.332	-446
933.427	57
933.522	-308
933.617	-338
933.712	-665
933.807	804
933.902	-786
933.997	-300
934.092	181
934.187	397
934.282	-434
934.376	122
934.471	-815
934.566	42
934.661	72
934.755	-876
934.850	-173
934.945	248
935.039	19
935.134	-261
935.228	-369
935.323	265
935.417	-634
935.512	-745
935.606	257
935.701	-402
935.795	-936
935.890	292
935.984	-60
936.079	369
936.173	-739
936.267	-1093
936.362	-258
936.456	803
936.550	-296
936.644	-350
936.738	-964
936.833	93
936.927	27
937.021	-804
937.115	-933
937.209	-1342
937.303	739
937.397	-840
937.491	-163
937.585	2
937.679	-586
937.773	-336
937.867	-157
937.961	77
938.055	-1044
938.149	173
938.243	-1599
938.337	875
938.430	-617
938.524	-462
938.618	403
938.712	-252
938.805	-633
938.899	-585
938.993	-683
939.086	-168
939.180	-354
939.274	-119
939.367	309
939.461	309
939.554	-99
939.648	-405
939.741	70
939.835	-677
939.928	-203
940.022	97
940.115	-1240
940.208	-710
940.302	-252
940.395	-583
940.488	-892
940.582	-485
940.675	-1072
940.768	-21
940.861	-601
940.954	174
941.048	-605
941.141	79
941.234	-1173
941.327	-932
941.420	229
941.513	-713
941.606	-212
941.699	-162
941.792	-921
941.885	-524
941.978	-286
942.071	35
942.164	-1755
942.257	-497
942.349	-399
942.442	-275
942.535	-1334
942.628	-257
942.721	-203
942.813	-811
942.906	-1148
942.999	-112
943.091	-676
943.184	146
943.277	-909
943.369	77
943.462	-884
943.554	242
943.647	-836
943.739	595
943.832	-1480
943.924	-742
944.017	-162
944.109	-800
944.201	-87
944.294	17
944.386	-848
944.478	-158
944.571	-99
944.663	-8
944.755	-1028
944.847	-481
944.940	-595
945.032	-1279
945.124	-669
945.216	-290
945.308	-507
945.400	-473
945.492	-124
945.584	-1113
945.676	-459
945.768	-511
945.860	-212
945.952	-116
946.044	-415
946.136	566
946.228	-475
946.320	283
946.412	-680
946.503	-245
946.595	216
946.687	270
946.779	-210
946.870	548
946.962	-649
947.054	-363
947.145	272
947.237	-189
947.329	104
947.420	140
947.512	268
947.603	-920
947.695	-296
947.786	-765
947.878	-387
947.969	-51
948.061	-690
948.152	-532
948.243	-959
948.335	222
948.426	-472
948.517	8
948.609	-523
948.700	-686
948.791	-563
948.882	-232
948.973	-1229
949.065	-315
949.156	-334
949.247	-388
949.338	501
949.429	-552
949.520	-73
949.611	-896
949.702	-752
949.793	769
949.884	-857
949.975	-959
950.066	-925
950.157	-625
950.247	-354
950.338	134
950.429	174
950.520	-385
950.611	135
950.701	-912
950.792	-473
950.883	-909
950.973	-665
951.064	214
951.155	-1006
951.245	-203
951.336	-480
951.427	-1298
951.517	-211
951.608	-121
951.698	-174
951.788	-118
951.879	-921
951.969	-687
952.060	-836
952.150	-840
952.240	29
952.331	-1633
952.421	-357
952.511	-179
952.602	-863
952.692	-632
952.782	226
952.872	-628
952.962	-375
953.052	-221
953.143	-829
953.233	-368
953.323	-596
953.413	-82
953.503	-38
953.593	29
953.683	-1490
953.773	-679
953.863	-546
953.953	-847
954.042	-326
954.132	-791
954.222	78
954.312	-891
954.402	-1513
954.492	-746
954.581	308
954.671	-953
954.761	-565
954.850	-377
954.940	-587
955.030	-263
955.119	-105
955.209	-647
955.298	-759
955.388	-849
955.477	410
955.567	-1027
955.656	-752
955.746	-263
955.835	-413
955.925	-817
956.014	-399
956.103	-739
956.193	55
956.282	-107
956.371	-52
956.461	-782
956.550	-397
956.639	-570
956.728	-1487
956.817	-69
956.906	-1116
956.995	-292
957.085	-1332
957.174	-134
957.263	-1572
957.352	-184
957.441	-839
957.530	-1078
957.619	-255
957.708	-747
957.796	-654
957.885	-109
957.974	-586
958.063	-270
958.152	-1474
958.241	-342
958.329	-829
958.418	-1453
958.507	-1398
958.596	190
958.684	-947
958.773	234
958.861	-1098
958.950	-145
959.039	-279
959.127	-468
959.216	-260
959.304	-388
959.393	-1055
959.481	-92
959.570	-321
959.658	-264
959.746	-252
959.835	-170
959.923	-439
960.011	-302
960.100	-723
960.188	-862
960.276	-661
960.365	-543
960.453	-760
960.541	-1053
960.629	-766
960.717	-272
960.805	-1354
960.893	-354
960.981	-1511
961.069	500
961.158	-977
961.245	-595
961.333	-13
961.421	-1000
961.509	-515
961.597	-431
961.685	-1330
961.773	-471
961.861	-1117
961.949	-78
962.036	-2307
962.124	-283
962.212	-787
962.299	-482
962.387	-314
962.475	-1192
962.562	-1103
962.650	-254
962.738	-283
962.825	-402
962.913	-527
963.000	-498
963.088	-1133
963.175	-764
963.263	-515
963.350	-1533
963.438	-1140
963.525	-904
963.612	214
963.700	-618
963.787	1370
963.874	-144
963.962	-456
964.049	510
964.136	-643
964.223	-753
964.310	-1311
964.398	-403
964.485	-1373
964.572	-1244
964.659	-133
964.746	-85
964.833	-1239
964.920	-153
965.007	-377
965.094	-179
965.181	-1161
965.268	-886
965.355	-792
965.441	-987
965.528	-1749
965.615	88
965.702	-1296
965.789	-1296
965.875	-1260
965.962	-776
966.049	-791
966.136	-79
966.222	-1171
966.309	76
966.395	-1274
966.482	567
966.569	-1358
966.655	-1328
966.742	-1691
966.828	-434
966.915	-1210
967.001	-258
967.087	-1694
967.174	-173
967.260	-617
967.347	-438
967.433	-223
967.519	1154
967.605	-621
967.692	-837
967.778	-1306
967.864	-1280
967.950	-819
968.036	-1325
968.123	-963
968.209	-799
968.295	-1107
968.381	276
968.467	-306
968.553	-1064
968.639	-330
968.725	-988
968.811	-876
968.897	-245
968.983	-452
969.069	-1061
969.154	163
969.240	-378
969.326	-1588
969.412	-1605
969.497	-1579
969.583	-1114
969.669	-394
969.755	-781
969.840	-986
969.926	-37
970.012	-1363
970.097	-516
970.183	-1390
970.268	-1405
970.354	-423
970.439	-1079
970.525	1206
970.610	-722
970.696	-32
970.781	-169
970.866	-1666
970.952	-785
971.037	-1354
971.122	-592
971.208	-497
971.293	-604
971.378	-1857
971.463	-680
971.549	-789
971.634	-334
971.719	-1252
971.804	-355
971.889	666
971.974	-1284
972.059	-1277
972.144	-464
972.229	-711
972.314	-1265
972.399	-23
972.484	-887
972.569	-1221
972.654	-1969
972.739	2
972.824	319
972.908	-635
972.993	-1480
973.078	-922
973.163	-1590
973.247	-771
973.332	-2033
973.417	-529
973.501	-1771
973.586	-908
973.671	-244
973.755	-548
973.840	-402
973.924	-348
974.009	-1078
974.093	-1899
974.178	64
974.262	-317
974.346	-974
974.431	-750
974.515	-800
974.600	-677
974.684	40
974.768	-1606
974.852	88
974.937	-1859
975.021	-21
975.105	-1097
975.189	-101
975.273	-785
975.358	-622
975.442	-1271
975.526	-617
975.610	-1167
975.694	-1360
975.778	-90
975.862	-564
975.946	-3143
976.030	536
976.114	-1367
976.198	-759
976.281	-958
976.365	-531
976.449	-383
976.533	-976
976.617	-1412
976.700	-1001
976.784	-657
976.868	-1177
976.951	-735
977.035	-152
977.119	-1500
977.202	-363
977.286	-634
977.369	-1186
977.453	-867
977.536	-183
977.620	-1589
977.703	-675
977.787	-2011
977.870	-148
977.953	417
978.037	-1878
978.120	-646
978.203	-774
978.287	-462
978.370	-860
978.453	-1791
978.536	-328
978.620	-643
978.703	-137
978.786	-1728
978.869	-1323
978.952	-2139
979.035	216
979.118	-1198
979.201	-944
979.284	-702
979.367	-1315
979.450	-1541
979.533	-762
979.616	-1130
979.699	-1603
979.782	-300
979.865	-899
979.948	-936
980.030	-973
980.113	-1484
980.196	-1224
980.279	-195
980.361	-258
980.444	-1065
980.526	-194
980.609	-434
980.692	-1298
980.774	-396
980.857	-2030
980.939	215
981.022	-755
981.104	-1340
981.187	-597
981.269	-625
981.352	-1130
981.434	-1577
981.516	-720
981.599	-184
981.681	-1107
981.763	-723
981.846	-125
981.928	-847
982.010	-1012
982.092	-2290
982.174	-324
982.256	-1067
982.339	-1045
982.421	-920
982.503	-721
982.585	-2130
982.667	-652
982.749	-1591
982.831	-1027
982.913	-2568
982.995	-592
983.077	-1648
983.158	-442
983.240	-2116
983.322	-393
983.404	-1260
983.486	-1752
983.568	-977
983.649	-1263
983.731	-886
983.813	-1733
983.894	-847
983.976	-775
984.058	-1023
984.139	-331
984.221	-1946
984.302	98
984.384	-797
984.465	-1850
984.547	-500
984.628	-1841
984.710	-1258
984.791	-1075
984.872	-859
984.954	-614
985.035	-1108
985.116	-1143
985.198	-1396
985.279	156
985.360	-694
985.441	-1389
985.522	-1032
985.604	174
985.685	-2852
985.766	837
985.847	-574
985.928	-1764
986.009	-815
986.090	-1617
986.171	-554
986.252	-1262
986.333	-1068
986.414	-896
986.495	-752
986.576	-1013
986.656	-1342
986.737	-882
986.818	-759
986.899	-1282
986.980	-1992
987.060	-878
987.141	-1827
987.222	-371
987.302	-1192
987.383	-778
987.464	-1053
987.544	-533
987.625	-1750
987.705	-334
987.786	-772
987.866	-1071
987.947	-1932
988.027	-895
988.108	-1489
988.188	-816
988.268	-804
988.349	-1415
988.429	-1288
988.509	-664
988.589	-1266
988.670	-1932
988.750	128
988.830	-1053
988.910	-605
988.990	-2059
989.070	-1580
989.151	-1007
989.231	-1722
989.311	-981
989.391	-632
989.471	-727
989.551	-1131
989.631	-1947
989.711	-814
989.791	-1441
989.870	-1964
989.950	46
990.030	-2623
990.110	-1002
990.190	-1666
990.269	-1914
990.349	-1049
990.429	-972
990.509	-842
990.588	-1797
990.668	-1815
990.747	-289
990.827	-1657
990.907	-1394
990.986	-1043
991.066	-845
991.145	-1175
991.225	-1159
991.304	-1632
991.383	-859
991.463	-1557
991.542	-1122
991.622	-1513
991.701	-1938
991.780	-1838
991.859	-724
991.939	-1128
992.018	-1205
992.097	-689
992.176	-1970
992.256	-1148
992.335	-1998
992.414	-737
992.493	-1287
992.572	-1368
992.651	-481
992.730	-1288
992.809	-512
992.888	-2191
992.967	-1332
993.046	-1881
993.125	-1424
993.203	-1528
993.282	-654
993.361	-1214
993.440	-479
993.519	-1692
993.597	-1193
993.676	-788
993.755	-49
993.834	-1513
993.912	-1808
993.991	-755
994.069	-1407
994.148	-1353
994.226	-921
994.305	-1746
994.384	-472
994.462	-603
994.540	-1422
994.619	-2060
994.697	-474
994.776	-2001
994.854	-1207
994.932	-2008
995.011	-743
995.089	-2066
995.167	-1647
995.245	-1532
995.324	-2271
995.402	-213
995.480	-1353
995.558	-1288
995.636	-2256
995.714	-1980
995.792	-216
995.870	-2133
995.948	-1558
996.026	-1851
996.104	-1813
996.182	-674
996.260	-1016
996.338	-826
996.416	-1725
996.494	-1731
996.572	-1061
996.649	-1504
996.727	-1882
996.805	-1725
996.883	-1695
996.960	-1393
997.038	-691
997.116	-1548
997.193	-1517
997.271	-1135
997.348	-1847
997.426	-761
997.504	-2016
997.581	-1101
997.658	-844
997.736	-1899
997.813	-1834
997.891	-1216
997.968	-1635
998.046	-1817
998.123	-1745
998.200	-855
998.277	-1577
998.355	-801
998.432	-1959
998.509	-1338
998.586	-547
998.663	-2025
998.741	-1938
998.818	-1365
998.895	-1524
998.972	-1390
999.049	-1419
999.126	-2126
999.203	-725
999.280	-2086
999.357	-1537
999.434	-1733
999.511	-1677
999.587	-1440
999.664	-2382
999.741	-1895
999.818	-423
999.895	-2166
999.971	-1958
1000.048	-2194
1000.125	-1478
1000.202	-2109
1000.278	-1926
1000.355	-1514
1000.431	-1916
1000.508	-1872
1000.584	-1543
1000.661	-1252
1000.738	-1348
1000.814	-1796
1000.890	-895
1000.967	-1409
1001.043	-1621
1001.120	-2588
1001.196	-455
1001.272	-1661
1001.349	-1717
1001.425	-1716
1001.501	-1917
1001.577	-2148
1001.654	-877
1001.730	-1851
1001.806	-1898
1001.882	-2057
1001.958	-830
1002.034	-1224
1002.110	-1793
1002.186	-1502
1002.262	-1333
1002.338	-1844
1002.414	-764
1002.490	-517
1002.566	-1663
1002.642	-2255
1002.718	-1413
1002.794	-1847
1002.870	-2184
1002.945	-1632
1003.021	-1575
1003.097	-2533
1003.173	-1848
1003.248	-1793
1003.324	-533
1003.400	-1050
1003.475	-2326
1003.551	-1760
1003.626	-1167
1003.702	-2534
1003.777	-1902
1003.853	-2302
1003.928	-1619
1004.004	-1555
1004.079	-700
1004.155	-2858
1004.230	-2321
1004.305	-263
1004.381	-2262
1004.456	-1482
1004.531	-1067
1004.607	-1693
1004.682	-1550
1004.757	-1453
1004.832	-1984
1004.907	-2046
1004.982	-1596
1005.057	-1998
1005.133	-1155
1005.208	-1589
1005.283	-1823
1005.358	-772
1005.433	-1734
1005.508	-1627
1005.583	-2313
1005.657	-1737
1005.732	-886
1005.807	-2279
1005.882	-1654
1005.957	-1157
1006.032	-892
1006.106	-2413
1006.181	-1664
1006.256	-1385
1006.331	-3122
1006.405	-1806
1006.480	-767
1006.554	-1058
1006.629	-1627
1006.704	-2124
1006.778	-1841
1006.853	-1355
1006.927	-1573
1007.002	-2583
1007.076	-1193
1007.150	-1154
1007.225	-2351
1007.299	-1917
1007.373	-2059
1007.448	-1788
1007.522	-1265
1007.596	-1793
1007.671	-1397
1007.745	-1815
1007.819	-2505
1007.893	-1567
1007.967	-1169
1008.041	-2402
1008.115	-658
1008.190	-2344
1008.264	-1481
1008.338	-3097
1008.412	-1657
1008.486	-1796
1008.560	-2081
1008.633	-2728
1008.707	-1808
1008.781	-1345
1008.855	-1864
1008.929	-1970
1009.003	-2203
1009.076	-1807
1009.150	-2312
1009.224	-2228
1009.298	-1775
1009.371	-2436
1009.445	-464
1009.519	-1606
1009.592	-2262
1009.666	-2333
1009.739	-2273
1009.813	-2465
1009.886	-907
1009.960	-2761
1010.033	-1719
1010.107	-1793
1010.180	-2072
1010.253	-1895
1010.327	-1914
1010.400	-2392
1010.473	-1136
1010.547	-288
1010.620	-964
1010.693	-1349
1010.766	-2040
1010.840	-973
1010.913	-1566
1010.986	-3016
1011.059	-1076
1011.132	-2101
1011.205	-956
1011.278	-2991
1011.351	-1975
1011.424	-1815
1011.497	-2162
1011.570	-2304
1011.643	-1902
1011.716	-2708
1011.789	-1451
1011.862	-1168
1011.934	-2073
1012.007	-2802
1012.080	-1273
1012.153	-1814
1012.225	-796
1012.298	-3147
1012.371	-1666
1012.443	-1363
1012.516	-2129
1012.588	-1240
1012.661	-1131
1012.733	-2255
1012.806	-434
1012.879	-1617
1012.951	-1734
1013.023	-1893
1013.096	-957
1013.168	-2525
1013.241	-883
1013.313	-1224
1013.385	-2251
1013.458	-2370
1013.530	-815
1013.602	-2379
1013.674	-651
1013.746	-2199
1013.819	-2242
1013.891	-1170
1013.963	-2956
1014.035	-2063
1014.107	-2090
1014.179	-1378
1014.251	-1884
1014.323	-1956
1014.395	-2146
1014.467	-1884
1014.539	-1073
1014.611	-2479
1014.683	-1726
1014.754	-1423
1014.826	-1842
1014.898	-2267
1014.970	-2334
1015.042	-1837
1015.113	-2011
1015.185	-1542
1015.257	-2199
1015.328	-1352
1015.400	-2033
1015.471	-2579
1015.543	-3141
1015.615	-2009
1015.686	-1462
1015.757	-1860
1015.829	-1849
1015.901	-1594
1015.972	-2358
1016.043	-1816
1016.115	-1083
1016.186	-1853
1016.257	-2320
1016.328	-2242
1016.400	-907
1016.471	-1975
1016.542	-1855
1016.613	-2135
1016.685	-1580
1016.756	-1506
1016.827	-1256
1016.898	-1989
1016.969	-1377
1017.040	-2446
1017.111	-1707
1017.182	-1984
1017.253	-1623
1017.324	-2111
1017.395	-1854
1017.466	-2096
1017.537	-1386
1017.608	-1421
1017.678	-1497
1017.749	-1445
1017.820	-1242
1017.891	-2591
1017.961	-1318
1018.032	-1399
1018.103	-1549
1018.173	-1974
1018.244	-1835
1018.315	-2143
1018.385	-283
1018.456	-2197
1018.526	-1455
1018.597	-2562
1018.667	-1648
1018.738	-2373
1018.808	-1769
1018.878	-1508
1018.949	-1804
1019.019	-1839
1019.089	-1987
1019.160	-1657
1019.230	-1931
1019.300	-2429
1019.371	-2855
1019.441	-828
1019.511	-2251
1019.581	-1867
1019.651	-1016
1019.721	-1672
1019.791	-1426
1019.861	-2002
1019.931	-1663
1020.001	-1826
1020.071	-2088
1020.141	-1737
1020.211	-1411
1020.281	-1876
1020.351	-1769
1020.421	-1832
1020.491	-1759
1020.560	-2326
1020.630	-1523
1020.700	-1593
1020.770	-1526
1020.839	-1564
1020.909	-1016
1020.979	-2239
1021.048	-1668
1021.118	-2002
1021.187	-1614
1021.257	-1615
1021.326	-1779
1021.396	-1118
1021.465	-1773
1021.535	-1194
1021.604	-2610
1021.674	-1926
1021.743	-1597
1021.812	-2562
1021.882	-1426
1021.951	-1185
1022.020	-2149
1022.089	-1267
1022.159	-1955
1022.228	-1894
1022.297	-1682
1022.366	-2125
1022.435	-1585
1022.504	-1621
1022.573	-1778
1022.642	-2012
1022.711	-1289
1022.781	-1801
1022.849	-1565
1022.918	-1806
1022.987	-1088
1023.056	-1503
1023.125	-1474
1023.194	-1589
1023.263	-1435
1023.331	-2706
1023.400	-2076
1023.469	-1718
1023.538	-1065
1023.606	-1705
1023.675	-2178
1023.744	-2531
1023.812	-2105
1023.881	-1622
1023.949	-1577
1024.018	-1397
1024.086	-1849
1024.155	-2435
1024.223	-1534
1024.292	-2253
1024.360	-1025
1024.429	-1279
1024.497	-2225
1024.565	-1878
1024.634	-1840
1024.702	-1527
1024.770	-1282
1024.838	-2512
1024.907	-1583
1024.975	-2221
1025.043	-1453
1025.111	-2807
1025.179	-1084
1025.247	-1708
1025.315	-1486
1025.383	-2038
1025.451	-2538
1025.519	-2018
1025.587	-2143
1025.655	-1754
1025.723	-1419
1025.791	-2556
1025.859	-1868
1025.927	-2139
1025.995	-1920
1026.062	-1987
1026.130	-1859
1026.198	-1492
1026.266	-1724
1026.333	-1340
1026.401	-1950
1026.469	-2419
1026.536	-1241
1026.604	-2090
1026.671	-2303
1026.739	-2343
1026.806	-2183
1026.874	-2140
1026.941	-1612
1027.009	-1898
1027.076	-1769
1027.144	-1608
1027.211	-1993
1027.278	-1873
1027.345	-1500
1027.413	-1306
1027.480	-2174
1027.547	-2337
1027.614	-2364
1027.682	-1166
1027.749	-1771
1027.816	-1887
1027.883	-1562
1027.950	-2177
1028.017	-2079
1028.084	-1518
1028.151	-2190
1028.218	-2992
1028.285	-2461
1028.352	-2005
1028.419	-1799
1028.486	-2275
1028.553	-1893
1028.619	-2096
1028.686	-1837
1028.753	-2052
1028.820	-1680
1028.886	-1645
1028.953	-2129
1029.020	-1951
1029.086	-2248
1029.153	-2324
1029.220	-1802
1029.286	-2035
1029.353	-1616
1029.419	-2132
1029.486	-1434
1029.552	-2138
1029.619	-1445
1029.685	-2887
1029.751	-1429
1029.818	-1445
1029.884	-1841
1029.951	-682
1030.017	-1158
1030.083	-1889
1030.149	-1214
1030.216	-2125
1030.282	-1680
1030.348	-1820
1030.414	-2451
1030.480	-2185
1030.546	-2003
1030.612	-1803
1030.678	-1925
1030.744	-1871
1030.810	-1930
1030.876	-2718
1030.942	-2783
1031.008	-2144
1031.074	-2335
1031.140	-1417
1031.206	-1489
1031.272	-2188
1031.337	-1620
1031.403	-2371
1031.469	-2013
1031.534	-3184
1031.600	-1460
1031.666	-2621
1031.731	-2249
1031.797	-1592
1031.863	-1820
1031.928	-2681
1031.994	-1733
1032.059	-878
1032.125	-1856
1032.190	-2188
1032.256	-2007
1032.321	-2189
1032.386	-2762
1032.452	-1822
1032.517	-1765
1032.582	-1834
1032.647	-1823
1032.713	-2145
1032.778	-1815
1032.843	-2398
1032.908	-2131
1032.974	-1580
1033.039	-2573
1033.104	-1092
1033.169	-2663
1033.234	-2444
1033.299	-2031
1033.364	-2348
1033.429	-2373
1033.494	-1992
1033.559	-2289
1033.624	-1913
1033.688	-967
1033.753	-2295
1033.818	-2190
1033.883	-1669
1033.948	-1790
1034.013	-1980
1034.077	-2019
1034.142	-2340
1034.207	-2015
1034.271	-2401
1034.336	-1584
1034.400	-2913
1034.465	-1763
1034.530	-2555
1034.594	-1841
1034.658	-2181
1034.723	-1863
1034.787	-2197
1034.852	-2321
1034.916	-2685
1034.981	-3187
1035.045	-1922
1035.109	-1269
1035.173	-2132
1035.238	-2195
1035.302	-2234
1035.366	-1701
1035.430	-2700
1035.495	-2232
1035.559	-1170
1035.623	-1123
1035.687	-2628
1035.751	-1958
1035.815	-1936
1035.879	-2056
1035.943	-2037
1036.007	-2192
1036.071	-2386
1036.135	-1636
1036.198	-2078
1036.262	-2630
1036.326	-1844
1036.390	-1924
1036.454	-2573
1036.517	-1532
1036.581	-2371
1036.645	-2443
1036.709	-1967
1036.772	-2159
1036.836	-2547
1036.900	-2046
1036.963	-2007
1037.026	-2105
1037.090	-2604
1037.154	-2092
1037.217	-2323
1037.280	-2556
1037.344	-2203
1037.407	-2526
1037.471	-2062
1037.534	-3059
1037.597	-2802
1037.661	-2778
1037.724	-2294
1037.787	-2636
1037.850	-2017
1037.913	-2174
1037.977	-1845
1038.040	-2362
1038.103	-2655
1038.166	-1822
1038.229	-2520
1038.292	-2733
1038.355	-2678
1038.418	-1952
1038.481	-1582
1038.544	-2897
1038.607	-1978
1038.670	-1956
1038.732	-2779
1038.795	-3027
1038.858	-2068
1038.921	-1746
1038.984	-2468
1039.046	-2850
1039.109	-2333
1039.172	-2480
1039.234	-1707
1039.297	-2162
1039.360	-2993
1039.422	-2609
1039.485	-3141
1039.547	-3377
1039.610	-2724
1039.672	-2436
1039.734	-3074
1039.797	-1668
1039.859	-2001
1039.922	-2165
1039.984	-2634
1040.046	-2942
1040.109	-2246
1040.171	-2037
1040.233	-2008
1040.295	-2845
1040.358	-1999
1040.420	-2150
1040.482	-2243
1040.544	-2064
1040.606	-2475
1040.668	-2197
1040.730	-1667
1040.792	-1516
1040.854	-2961
1040.916	-2656
1040.978	-2331
1041.040	-805
1041.102	-2819
1041.164	-2150
1041.225	-2129
1041.287	-2139
1041.349	-1890
1041.411	-1825
1041.472	-2141
1041.534	-2361
1041.596	-2226
1041.657	-1845
1041.719	-3022
1041.781	-2250
1041.842	-2876
1041.904	-2339
1041.965	-1891
1042.027	-2398
1042.088	-1913
1042.150	-2251
1042.211	-1846
1042.272	-1643
1042.334	-2965
1042.395	-2110
1042.456	-3175
1042.518	-2415
1042.579	-2530
1042.640	-2596
1042.701	-2218
1042.763	-2276
1042.824	-2406
1042.885	-2377
1042.946	-3015
1043.007	-2292
1043.068	-2313
1043.129	-2500
1043.190	-2285
1043.251	-2075
1043.312	-2351
1043.373	-1930
1043.434	-2712
1043.495	-2562
1043.556	-2092
1043.616	-1314
1043.677	-2694
1043.738	-1764
1043.799	-2482
1043.859	-1684
1043.920	-2914
1043.981	-2857
1044.041	-2259
1044.102	-2732
1044.162	-2550
1044.223	-2685
1044.284	-3123
1044.344	-2520
1044.405	-2646
1044.465	-2219
1044.525	-3591
1044.586	-2422
1044.646	-2209
1044.707	-1895
1044.767	-2153
1044.827	-2489
1044.887	-2484
1044.948	-2430
1045.008	-2238
1045.068	-2026
1045.128	-2118
1045.188	-2114
1045.249	-1858
1045.309	-2455
1045.369	-1839
1045.429	-1984
1045.489	-2893
1045.549	-1816
1045.609	-1115
1045.669	-1806
1045.729	-1791
1045.789	-2176
1045.848	-1539
1045.908	-2150
1045.968	-1572
1046.028	-1844
1046.088	-1369
1046.147	-924
1046.207	-2119
1046.267	-1579
1046.326	-1595
1046.386	-1442
1046.446	-1462
1046.505	-638
1046.565	-1374
1046.624	-849
1046.684	-1185
1046.743	-824
1046.803	-564
1046.862	-361
1046.922	0
