'Start Wavelength	183.907
'End Wavelength	1046.922
'Gate Delay	5.000
'Gate Width (ms)	1.050
'Laser Output Level	0.000
'X Position	0.000
'Y Position	0.000
'Z Position	0.000
'Grid Point Number	1.000
'Shot Number	100.000
183.907	-152.000
183.977	106.000
184.047	166
184.116	487
184.186	878
184.256	-10
184.325	-56
184.395	-198
184.465	740
184.534	199
184.604	-44
184.674	-364
184.743	556
184.813	-205
184.883	392
184.952	607
185.022	16
185.092	942
185.161	-502
185.231	185
185.301	677
185.370	672
185.440	-356
185.509	-26
185.579	309
185.649	-378
185.718	92
185.788	657
185.857	203
185.927	-415
185.996	-82
186.066	34
186.136	-488
186.205	-89
186.275	515
186.344	280
186.414	286
186.483	272
186.553	909
186.622	1191
186.692	-379
186.761	106
186.831	215
186.900	-257
186.970	201
187.039	434
187.109	549
187.178	541
187.248	86
187.317	507
187.387	-563
187.456	-210
187.526	-147
187.595	856
187.664	401
187.734	616
187.803	597
187.873	621
187.942	823
188.012	638
188.081	135
188.150	12
188.220	673
188.289	94
188.358	298
188.428	349
188.497	593
188.567	658
188.636	128
188.705	365
188.775	6
188.844	-577
188.913	962
188.983	487
189.052	508
189.121	248
189.191	457
189.260	714
189.329	427
189.399	-285
189.468	89
189.537	-28
189.606	736
189.676	558
189.745	1167
189.814	1514
189.883	-86
189.953	521
190.022	893
190.091	2887
190.161	3373
190.230	1341
190.299	716
190.368	396
190.437	-117
190.507	396
190.576	525
190.645	451
190.714	80
190.783	-121
190.853	455
190.922	599
190.991	121
191.060	1196
191.129	593
191.198	488
191.268	599
191.337	903
191.406	1470
191.475	739
191.544	57
191.613	808
191.682	412
191.752	-717
191.821	753
191.890	632
191.959	252
192.028	455
192.097	531
192.166	851
192.235	156
192.304	785
192.373	350
192.442	700
192.511	-126
192.580	358
192.650	1086
192.719	586
192.788	579
192.857	683
192.926	468
192.995	619
193.064	878
193.133	2083
193.202	1695
193.271	2623
193.340	1201
193.409	1161
193.478	2111
193.547	2917
193.615	3577
193.684	2898
193.753	1785
193.822	1921
193.891	777
193.960	1355
194.029	1135
194.098	635
194.167	262
194.236	1035
194.305	947
194.374	1160
194.443	516
194.512	827
194.580	933
194.649	1430
194.718	826
194.787	944
194.856	294
194.925	619
194.994	838
195.062	987
195.131	1676
195.200	1358
195.269	1640
195.338	1209
195.407	275
195.475	1089
195.544	1616
195.613	1203
195.682	119
195.751	1567
195.819	544
195.888	1077
195.957	1973
196.026	1307
196.094	1507
196.163	947
196.232	2023
196.301	704
196.369	1138
196.438	1464
196.507	840
196.576	862
196.644	965
196.713	715
196.782	145
196.850	1210
196.919	1373
196.988	924
197.056	505
197.125	1249
197.194	752
197.262	1114
197.331	689
197.400	715
197.468	1268
197.537	940
197.606	1072
197.674	2895
197.743	2868
197.812	1438
197.880	3105
197.949	2246
198.017	3854
198.086	2023
198.155	1447
198.223	2042
198.292	4013
198.360	1610
198.429	1406
198.497	2010
198.566	2817
198.635	3925
198.703	2092
198.772	2106
198.840	4614
198.909	4846
198.977	2244
199.046	1644
199.114	2539
199.183	1450
199.251	1130
199.320	345
199.388	908
199.457	785
199.525	1500
199.594	1937
199.662	1549
199.731	645
199.799	1802
199.867	934
199.936	460
200.004	1104
200.073	1027
200.141	678
200.210	826
200.278	1574
200.346	1177
200.415	1913
200.483	1996
200.552	1801
200.620	823
200.688	659
200.757	1308
200.825	1629
200.893	1736
200.962	1420
201.030	1243
201.098	1082
201.167	1448
201.235	1634
201.303	2237
201.372	1860
201.440	2103
201.508	1909
201.577	1543
201.645	1465
201.713	850
201.781	1546
201.850	2367
201.918	1608
201.986	1562
202.055	2105
202.123	1268
202.191	1528
202.259	1303
202.327	1531
202.396	1511
202.464	1483
202.532	1778
202.600	5007
202.669	2502
202.737	1840
202.805	809
202.873	1997
202.941	2147
203.009	1171
203.078	757
203.146	1463
203.214	761
203.282	1224
203.350	1588
203.418	1253
203.487	2172
203.555	1673
203.623	1588
203.691	1999
203.759	1174
203.827	1710
203.895	2023
203.963	1781
204.031	999
204.099	1509
204.168	1627
204.236	1683
204.304	2256
204.372	2364
204.440	2187
204.508	1807
204.576	1448
204.644	1773
204.712	1606
204.780	1852
204.848	1023
204.916	1511
204.984	2124
205.052	2244
205.120	1367
205.188	2250
205.256	1843
205.324	1503
205.392	1880
205.460	2366
205.528	1977
205.596	2345
205.664	1666
205.732	1767
205.799	5213
205.867	7188
205.935	2428
206.003	2736
206.071	2066
206.139	1819
206.207	2577
206.275	2245
206.343	2174
206.411	1620
206.478	2118
206.546	2078
206.614	2224
206.682	2333
206.750	1621
206.818	1905
206.885	2146
206.953	1262
207.021	2222
207.089	2260
207.157	1846
207.225	2205
207.292	1228
207.360	1831
207.428	2373
207.496	2476
207.563	2040
207.631	2418
207.699	1637
207.767	2164
207.834	1825
207.902	2938
207.970	2123
208.038	1537
208.105	1516
208.173	2894
208.241	3431
208.309	2780
208.376	2189
208.444	4496
208.512	2831
208.579	1489
208.647	1970
208.715	1954
208.782	2242
208.850	2694
208.918	1822
208.985	2387
209.053	2761
209.120	2282
209.188	1713
209.256	2457
209.323	2613
209.391	2738
209.459	3923
209.526	2495
209.594	2470
209.661	2704
209.729	2908
209.796	2797
209.864	2601
209.932	1528
209.999	3923
210.067	3367
210.134	2666
210.202	2828
210.269	3601
210.337	3427
210.404	2658
210.472	2492
210.539	3333
210.607	2891
210.674	3448
210.742	2801
210.809	2509
210.877	2626
210.944	3964
211.012	2189
211.079	4224
211.146	2860
211.214	2363
211.281	2902
211.349	3011
211.416	3395
211.484	3394
211.551	2643
211.618	3192
211.686	3630
211.753	2426
211.821	3478
211.888	2860
211.955	3058
212.023	3060
212.090	2620
212.157	3392
212.225	3443
212.292	5440
212.359	10471
212.427	22247
212.494	10643
212.561	5742
212.629	4919
212.696	4178
212.763	3795
212.831	2711
212.898	4057
212.965	3372
213.032	2691
213.100	3209
213.167	3519
213.234	4305
213.301	3583
213.369	3490
213.436	3291
213.503	3760
213.570	4315
213.638	3200
213.705	2258
213.772	2478
213.839	3644
213.906	4358
213.973	3892
214.041	2999
214.108	3609
214.175	3335
214.242	2970
214.309	2708
214.376	4020
214.444	3577
214.511	4249
214.578	3728
214.645	4032
214.712	4534
214.779	4353
214.846	3825
214.913	5305
214.980	4767
215.048	5118
215.115	5421
215.182	5503
215.249	4667
215.316	3991
215.383	3912
215.450	4221
215.517	3507
215.584	2984
215.651	3627
215.718	3266
215.785	4135
215.852	3322
215.919	4129
215.986	4812
216.053	2768
216.120	2540
216.187	3555
216.254	4402
216.321	3529
216.388	3764
216.455	3410
216.522	3958
216.589	4608
216.656	7503
216.722	6419
216.789	6335
216.856	5679
216.923	5251
216.990	4986
217.057	4767
217.124	6444
217.191	5618
217.258	6755
217.324	7622
217.391	8457
217.458	6030
217.525	5326
217.592	5214
217.659	4173
217.725	5145
217.792	5539
217.859	5368
217.926	3994
217.993	3618
218.059	3252
218.126	2874
218.193	3139
218.260	2616
218.327	2360
218.393	3647
218.460	2779
218.527	2745
218.594	3743
218.660	5799
218.727	5216
218.794	3325
218.860	3729
218.927	3238
218.994	3734
219.061	2388
219.127	4437
219.194	5422
219.261	2369
219.327	2742
219.394	2513
219.461	1422
219.527	3208
219.594	3619
219.661	2701
219.727	2555
219.794	2766
219.860	2337
219.927	2907
219.994	4488
220.060	6016
220.127	5057
220.193	3811
220.260	4797
220.326	6578
220.393	10535
220.460	13213
220.526	8988
220.593	6591
220.659	6705
220.726	7027
220.792	12914
220.859	12999
220.925	17208
220.992	19372
221.058	19061
221.125	17155
221.191	13020
221.258	7053
221.324	5081
221.391	4570
221.457	3217
221.524	3983
221.590	5239
221.657	15439
221.723	9910
221.789	9447
221.856	8179
221.922	4268
221.989	3663
222.055	3246
222.121	2697
222.188	5019
222.254	3906
222.321	2580
222.387	1146
222.453	2804
222.520	3063
222.586	2517
222.652	3387
222.719	3472
222.785	3581
222.851	2360
222.918	2181
222.984	3000
223.050	2902
223.116	2086
223.183	3606
223.249	1722
223.315	2149
223.382	2816
223.448	2489
223.514	1329
223.580	1742
223.647	1918
223.713	2489
223.779	2375
223.845	2802
223.911	3144
223.978	1888
224.044	2043
224.110	2514
224.176	2417
224.242	1041
224.309	989
224.375	2430
224.441	1173
224.507	2115
224.573	2131
224.639	3003
224.705	1554
224.772	1818
224.838	2308
224.904	3740
224.970	2022
225.036	2321
225.102	1807
225.168	2771
225.234	2443
225.300	1929
225.366	1905
225.432	2120
225.499	1979
225.565	2339
225.631	3131
225.697	3205
225.763	4049
225.829	4910
225.895	4474
225.961	6559
226.027	5407
226.093	5865
226.159	8149
226.225	10418
226.291	20639
226.357	27455
226.423	17352
226.489	10846
226.554	7451
226.620	7460
226.686	8770
226.752	13223
226.818	20544
226.884	34320
226.950	30092
227.016	15581
227.082	8509
227.148	6941
227.214	6938
227.279	7302
227.345	5295
227.411	4815
227.477	4193
227.543	4078
227.609	5666
227.674	6692
227.740	4244
227.806	4359
227.872	3846
227.938	4424
228.003	6626
228.069	4035
228.135	2740
228.201	2981
228.267	2548
228.332	3527
228.398	4689
228.464	3368
228.530	1903
228.595	3218
228.661	2501
228.727	4486
228.792	4398
228.858	2472
228.924	2079
228.990	4534
229.055	3315
229.121	4656
229.187	1882
229.252	3286
229.318	1576
229.384	3209
229.449	4057
229.515	1022
229.581	1458
229.646	3922
229.712	2359
229.777	6646
229.843	6148
229.909	5979
229.974	6246
230.040	6156
230.105	3731
230.171	4706
230.236	6844
230.302	9370
230.368	6617
230.433	4639
230.499	5235
230.564	6638
230.630	3606
230.695	3532
230.761	3400
230.826	2106
230.892	6371
230.957	3311
231.023	2263
231.088	3780
231.154	3157
231.219	4267
231.284	4086
231.350	4925
231.415	2414
231.481	3033
231.546	3308
231.612	2659
231.677	1564
231.742	1946
231.808	2977
231.873	2148
231.939	803
232.004	5408
232.069	5117
232.135	3800
232.200	3044
232.265	3071
232.331	1845
232.396	2502
232.461	1651
232.527	1262
232.592	1966
232.657	2461
232.723	4614
232.788	3277
232.853	3335
232.918	2570
232.984	1491
233.049	1854
233.114	4441
233.179	3381
233.245	6532
233.310	7409
233.375	1729
233.440	3266
233.506	2833
233.571	2256
233.636	1892
233.701	2177
233.766	4629
233.832	6407
233.897	2798
233.962	2776
234.027	5014
234.092	3521
234.157	2866
234.222	3326
234.288	5234
234.353	14477
234.418	11534
234.483	8158
234.548	5115
234.613	4815
234.678	4844
234.743	5393
234.808	15240
234.873	9719
234.938	5866
235.004	4558
235.069	4220
235.134	3715
235.199	3955
235.264	3366
235.329	1993
235.394	4048
235.459	5307
235.524	4222
235.589	4166
235.654	3483
235.719	1669
235.784	4038
235.849	3998
235.913	7929
235.978	7830
236.043	8948
236.108	4936
236.173	4443
236.238	4391
236.303	3972
236.368	3801
236.433	6633
236.498	10391
236.563	9602
236.627	16329
236.692	45545
236.757	38468
236.822	18378
236.887	12515
236.952	12242
237.017	9434
237.081	9693
237.146	12961
237.211	26395
237.276	47507
237.341	64047
237.405	36574
237.470	17203
237.535	12441
237.600	8436
237.664	7357
237.729	5097
237.794	8614
237.859	16943
237.923	10665
237.988	6442
238.053	9238
238.118	7743
238.182	20724
238.247	18524
238.312	8702
238.376	6879
238.441	5118
238.506	6007
238.570	2273
238.635	4280
238.700	3664
238.764	3657
238.829	9441
238.893	9941
238.958	5786
239.023	5545
239.087	4896
239.152	4443
239.216	2874
239.281	3943
239.346	3208
239.410	3581
239.475	3695
239.539	18489
239.604	13476
239.668	5575
239.733	3257
239.797	3294
239.862	4754
239.926	12766
239.991	5808
240.055	3531
240.120	2835
240.184	3591
240.249	3127
240.313	3266
240.378	3555
240.442	12029
240.507	17221
240.571	6338
240.635	7901
240.700	10138
240.764	3915
240.829	3198
240.893	1746
240.957	4620
241.022	10499
241.086	17965
241.151	8302
241.215	3035
241.279	6027
241.344	9570
241.408	5732
241.472	4050
241.537	5491
241.601	4492
241.665	3656
241.730	4566
241.794	6324
241.858	4981
241.922	5437
241.987	4880
242.051	3562
242.115	4030
242.179	3991
242.244	3764
242.308	3992
242.372	5564
242.436	5763
242.501	5124
242.565	3746
242.629	3409
242.693	4550
242.757	3503
242.822	4411
242.886	4370
242.950	5297
243.014	4005
243.078	5188
243.142	5248
243.206	4354
243.271	6614
243.335	4755
243.399	8901
243.463	27765
243.527	64294
243.591	19363
243.655	8091
243.719	5752
243.783	7552
243.847	10253
243.911	13129
243.975	14008
244.040	8697
244.104	7444
244.168	5292
244.232	7194
244.296	8905
244.360	10964
244.424	5549
244.488	5492
244.552	5606
244.615	2829
244.679	3351
244.743	5203
244.807	5026
244.871	4289
244.935	3748
244.999	3148
245.063	4173
245.127	5000
245.191	8710
245.255	6596
245.319	6106
245.383	4518
245.446	5289
245.510	2911
245.574	3649
245.638	4271
245.702	4200
245.766	10362
245.829	7078
245.893	5061
245.957	4317
246.021	5660
246.085	4812
246.149	6471
246.212	14648
246.276	20242
246.340	9374
246.404	6954
246.467	7237
246.531	9122
246.595	7649
246.659	7539
246.722	6207
246.786	7790
246.850	7842
246.913	9071
246.977	3826
247.041	4634
247.104	5508
247.168	5815
247.232	14038
247.295	27557
247.359	12670
247.423	7028
247.486	11298
247.550	7488
247.614	5643
247.677	7690
247.741	5462
247.804	5270
247.868	6640
247.932	11132
247.995	25138
248.059	9370
248.122	5840
248.186	8219
248.249	12546
248.313	43968
248.376	41971
248.440	26504
248.503	10344
248.567	10191
248.630	11793
248.694	16537
248.757	22356
248.821	45222
248.884	25892
248.948	25788
249.011	34946
249.075	52808
249.138	43253
249.202	18233
249.265	11565
249.328	15912
249.392	10715
249.455	9566
249.519	7925
249.582	9021
249.645	15307
249.709	12084
249.772	10635
249.835	9302
249.899	9651
249.962	7642
250.025	7518
250.089	17951
250.152	23408
250.215	12249
250.279	9170
250.342	9450
250.405	9313
250.468	8892
250.532	12054
250.595	18495
250.658	67036
250.721	96431
250.785	34383
250.848	18459
250.911	11350
250.974	11424
251.038	15140
251.101	28093
251.164	16535
251.227	18031
251.290	15542
251.354	23587
251.417	89735
251.480	82664
251.543	63285
251.606	156091
251.669	110240
251.732	46608
251.795	44539
251.859	44306
251.922	99137
251.985	54458
252.048	25261
252.111	17881
252.174	16771
252.237	29167
252.300	56144
252.363	63057
252.426	121150
252.489	51087
252.552	29400
252.615	19315
252.678	20250
252.741	43334
252.804	62833
252.867	124756
252.930	72385
252.993	38842
253.056	23239
253.119	18029
253.182	14761
253.245	24728
253.308	18254
253.371	15645
253.434	14438
253.497	16026
253.559	25770
253.622	17730
253.685	21258
253.748	20816
253.811	11320
253.874	13975
253.937	13094
254.000	10747
254.062	18398
254.125	26372
254.188	27839
254.251	20122
254.314	10536
254.376	18703
254.439	19096
254.502	16480
254.565	18112
254.628	29271
254.690	17540
254.753	10130
254.816	9183
254.878	9916
254.941	19738
255.004	18234
255.067	9347
255.129	8572
255.192	5727
255.255	4787
255.317	7285
255.380	4987
255.443	4236
255.505	4486
255.568	3877
255.631	4566
255.693	4995
255.756	5012
255.819	4593
255.881	3662
255.944	4354
256.006	4563
256.069	4287
256.132	4012
256.194	6341
256.257	16432
256.319	11671
256.382	9973
256.444	7998
256.507	6502
256.569	5988
256.632	6688
256.694	11452
256.757	29132
256.819	72288
256.882	31805
256.944	13741
257.007	10848
257.069	10896
257.132	8521
257.194	7444
257.257	6465
257.319	6939
257.381	9606
257.444	23542
257.506	84046
257.569	88823
257.631	41733
257.693	22622
257.756	11752
257.818	10579
257.880	7621
257.943	7056
258.005	6506
258.067	5953
258.130	5654
258.192	7245
258.254	12989
258.317	8498
258.379	6426
258.441	15750
258.503	14138
258.566	20723
258.628	23451
258.690	6849
258.753	7310
258.815	12252
258.877	8113
258.939	5990
259.001	6363
259.064	5237
259.126	7157
259.188	8655
259.250	6087
259.312	7715
259.375	18433
259.437	11101
259.499	5754
259.561	5578
259.623	6898
259.685	7659
259.747	7163
259.809	19950
259.872	32072
259.934	51964
259.996	49171
260.058	15334
260.120	6327
260.182	5814
260.244	4310
260.306	4275
260.368	4869
260.430	5213
260.492	14723
260.554	25043
260.616	13612
260.678	26593
260.740	32652
260.802	8943
260.864	7427
260.926	5610
260.988	7477
261.050	6868
261.112	21597
261.174	47595
261.236	27229
261.298	9960
261.359	16467
261.421	20577
261.483	7235
261.545	6650
261.607	3538
261.669	5781
261.731	10739
261.793	22950
261.854	9766
261.916	7571
261.978	8815
262.040	10425
262.102	5889
262.164	8622
262.225	7506
262.287	5511
262.349	13176
262.411	10202
262.472	5903
262.534	10517
262.596	20789
262.658	7376
262.719	3946
262.781	7487
262.843	20291
262.904	9736
262.966	7965
263.028	10229
263.090	44837
263.151	101991
263.213	35425
263.275	21827
263.336	8989
263.398	7050
263.459	4116
263.521	5180
263.583	12259
263.644	8871
263.706	4102
263.767	3759
263.829	3828
263.891	3128
263.952	3283
264.014	3770
264.075	10905
264.137	27113
264.198	10865
264.260	4725
264.321	4558
264.383	13759
264.444	36925
264.506	11705
264.567	7406
264.629	15831
264.690	31324
264.752	10718
264.813	6223
264.875	5538
264.936	6661
264.998	4790
265.059	3172
265.120	5285
265.182	7823
265.243	43117
265.305	40786
265.366	10203
265.427	6185
265.489	5477
265.550	2785
265.611	5521
265.673	5795
265.734	5263
265.795	4164
265.857	3892
265.918	4799
265.979	12765
266.040	65869
266.102	52103
266.163	16784
266.224	13909
266.286	7135
266.347	4528
266.408	5046
266.469	5213
266.530	4391
266.592	3658
266.653	8279
266.714	12961
266.775	3930
266.836	4278
266.898	2688
266.959	9613
267.020	5888
267.081	4609
267.142	2901
267.203	3250
267.264	2294
267.326	4480
267.387	2021
267.448	2931
267.509	3477
267.570	3623
267.631	2744
267.692	2503
267.753	3177
267.814	2647
267.875	7975
267.936	16319
267.997	11966
268.058	8167
268.119	4042
268.180	4102
268.241	2957
268.302	2750
268.363	2602
268.424	4064
268.485	4688
268.546	3713
268.607	1921
268.668	3168
268.729	2341
268.790	2862
268.851	5215
268.912	13113
268.972	12251
269.033	6765
269.094	3784
269.155	3370
269.216	2610
269.277	3761
269.338	2381
269.398	3141
269.459	3541
269.520	5677
269.581	7414
269.642	8595
269.702	5794
269.763	5014
269.824	4196
269.885	4764
269.945	8267
270.006	4137
270.067	2528
270.128	2558
270.188	2941
270.249	3279
270.310	2087
270.370	4265
270.431	4879
270.492	2484
270.553	3529
270.613	8042
270.674	15961
270.734	6992
270.795	4318
270.856	6621
270.916	5433
270.977	4619
271.038	5329
271.098	4547
271.159	7893
271.219	7257
271.280	3747
271.340	3248
271.401	5176
271.462	11072
271.522	7244
271.583	4434
271.643	4581
271.704	3953
271.764	5904
271.825	12918
271.885	40668
271.946	50192
272.006	16423
272.066	25268
272.127	39392
272.187	11189
272.248	7499
272.308	8062
272.369	26398
272.429	14515
272.489	12782
272.550	14065
272.610	12988
272.671	9526
272.731	10163
272.791	15700
272.852	7870
272.912	6113
272.972	4213
273.033	4396
273.093	8750
273.153	10164
273.214	6375
273.274	7811
273.334	27873
273.394	40809
273.455	16116
273.515	17977
273.575	36415
273.635	14459
273.696	19879
273.756	37265
273.816	14624
273.876	9910
273.936	21401
273.997	35529
274.057	10608
274.117	7997
274.177	12016
274.237	52417
274.297	41171
274.358	28175
274.418	31067
274.478	23118
274.538	9847
274.598	8274
274.658	29373
274.718	34357
274.778	13879
274.838	8093
274.898	18982
274.958	48748
275.018	41082
275.078	24135
275.138	11191
275.198	6724
275.258	4454
275.318	7198
275.378	12852
275.438	11997
275.498	9457
275.558	23606
275.618	43776
275.678	26412
275.738	18698
275.798	16732
275.858	11118
275.918	5222
275.978	5839
276.038	6173
276.098	4811
276.157	10369
276.217	26925
276.277	11674
276.337	9149
276.397	4700
276.457	6689
276.517	4687
276.576	2731
276.636	3818
276.696	7672
276.756	16860
276.815	11059
276.875	6047
276.935	6297
276.995	5732
277.055	3508
277.114	3581
277.174	6926
277.234	21541
277.293	8309
277.353	5000
277.413	4247
277.472	5655
277.532	4650
277.592	5954
277.651	15638
277.711	26312
277.771	10651
277.830	37161
277.890	26481
277.950	21806
278.009	55087
278.069	19318
278.128	20645
278.188	26190
278.248	11807
278.307	30504
278.367	17437
278.426	7107
278.486	5838
278.545	4090
278.605	4476
278.664	4865
278.724	5804
278.783	16133
278.843	36252
278.902	10574
278.962	6185
279.021	7443
279.081	10019
279.140	9556
279.199	6955
279.259	7404
279.318	8988
279.378	10466
279.437	18085
279.496	62282
279.556	175677
279.615	123688
279.675	33201
279.734	20701
279.793	30988
279.853	47018
279.912	17711
279.971	10826
280.031	9646
280.090	20694
280.149	32793
280.208	27509
280.268	133852
280.327	113766
280.386	28745
280.445	22542
280.505	19820
280.564	11918
280.623	9876
280.682	13992
280.742	18631
280.801	7659
280.860	6053
280.919	5776
280.978	5023
281.037	5085
281.097	4634
281.156	4770
281.215	2912
281.274	5773
281.333	25972
281.392	17228
281.451	4515
281.510	5386
281.569	3610
281.628	3564
281.688	3536
281.747	4733
281.806	4764
281.865	3010
281.924	3464
281.983	3631
282.042	2491
282.101	2770
282.160	3117
282.219	2456
282.278	3114
282.337	14377
282.396	9190
282.454	4554
282.513	5829
282.572	21244
282.631	11298
282.690	4243
282.749	3840
282.808	5249
282.867	5512
282.926	4486
282.985	3644
283.043	3468
283.102	3262
283.161	4843
283.220	12513
283.279	24938
283.338	7909
283.396	5269
283.455	4556
283.514	5286
283.573	8362
283.631	6227
283.690	4274
283.749	4285
283.808	10536
283.866	10405
283.925	3780
283.984	4701
284.043	6430
284.101	6842
284.160	5439
284.219	9567
284.277	6049
284.336	8765
284.395	28566
284.453	21256
284.512	7637
284.570	11481
284.629	9298
284.688	7341
284.746	7516
284.805	9082
284.863	11305
284.922	13484
284.981	16052
285.039	22686
285.098	39343
285.156	97494
285.215	205815
285.273	190216
285.332	96865
285.390	50219
285.449	30072
285.507	20164
285.566	14485
285.624	12885
285.683	9701
285.741	7808
285.799	7356
285.858	7276
285.916	7274
285.975	5183
286.033	5307
286.091	5357
286.150	4412
286.208	5207
286.267	6412
286.325	6366
286.383	8365
286.442	7617
286.500	3687
286.558	4160
286.616	3713
286.675	5927
286.733	4678
286.791	4314
286.850	4944
286.908	7678
286.966	11509
287.024	5420
287.083	4051
287.141	4014
287.199	2976
287.257	6794
287.315	4637
287.374	5576
287.432	13145
287.490	9413
287.548	5283
287.606	4781
287.664	4550
287.723	7080
287.781	12187
287.839	7728
287.897	8592
287.955	10565
288.013	16768
288.071	33636
288.129	128949
288.187	288955
288.245	136967
288.303	47637
288.361	26321
288.419	22112
288.477	14390
288.535	10246
288.593	8153
288.651	7521
288.709	5345
288.767	5295
288.825	5401
288.883	5411
288.941	5097
288.999	4666
289.057	4548
289.115	5191
289.173	3660
289.231	4269
289.289	3478
289.346	3897
289.404	3992
289.462	8632
289.520	7187
289.578	4499
289.636	2730
289.694	2332
289.751	2325
289.809	3160
289.867	3549
289.925	4900
289.983	5043
290.040	3653
290.098	2752
290.156	4031
290.214	4962
290.271	3180
290.329	2567
290.387	2617
290.444	3544
290.502	2858
290.560	3353
290.617	4602
290.675	3093
290.733	3341
290.790	4140
290.848	3438
290.906	3484
290.963	3420
291.021	3716
291.078	4107
291.136	5261
291.194	19164
291.251	35827
291.309	9853
291.366	4270
291.424	4431
291.481	3591
291.539	3377
291.596	3776
291.654	1998
291.711	3024
291.769	3470
291.826	8346
291.884	5087
291.941	3197
291.999	3313
292.056	3402
292.114	4828
292.171	3343
292.228	4059
292.286	4522
292.343	8322
292.401	9527
292.458	6915
292.515	4520
292.573	5737
292.630	4794
292.687	6493
292.745	5144
292.802	8640
292.859	26177
292.917	30468
292.974	15151
293.031	5995
293.089	5242
293.146	4102
293.203	3587
293.260	3686
293.318	6015
293.375	13472
293.432	7636
293.489	4326
293.546	3876
293.604	6638
293.661	17930
293.718	44948
293.775	25298
293.832	11531
293.889	7851
293.947	8902
294.004	6593
294.061	6191
294.118	13706
294.175	32259
294.232	48779
294.289	18837
294.346	10154
294.403	9774
294.460	7666
294.517	6505
294.574	5513
294.631	6080
294.688	7204
294.745	16998
294.802	58204
294.859	68711
294.916	25310
294.973	14267
295.030	10592
295.087	8236
295.144	6525
295.201	6455
295.258	5220
295.315	7147
295.372	20658
295.429	34289
295.486	15336
295.542	13028
295.599	35773
295.656	57498
295.713	37611
295.770	34998
295.827	14983
295.883	8641
295.940	8663
295.997	13334
296.054	11786
296.111	7878
296.167	6214
296.224	5420
296.281	4577
296.338	5711
296.394	5662
296.451	7016
296.508	18426
296.564	33581
296.621	24279
296.678	41802
296.734	58797
296.791	23899
296.848	14394
296.904	13583
296.961	25701
297.018	39710
297.074	31917
297.131	12941
297.187	10309
297.244	12486
297.301	38721
297.357	61242
297.414	21634
297.470	10757
297.527	8959
297.583	6612
297.640	7556
297.696	6332
297.753	5283
297.809	3996
297.866	4177
297.922	5167
297.979	5152
298.035	5247
298.092	7734
298.148	21867
298.204	20620
298.261	11447
298.317	23088
298.374	50473
298.430	27041
298.486	14076
298.543	10424
298.599	10282
298.656	11070
298.712	18125
298.768	43001
298.824	29697
298.881	10913
298.937	7894
298.993	6711
299.050	9437
299.106	7041
299.162	6747
299.218	6352
299.275	5729
299.331	6107
299.387	11592
299.443	39915
299.500	35674
299.556	12527
299.612	8570
299.668	6928
299.724	6339
299.780	5295
299.837	5542
299.893	9822
299.949	32974
300.005	33723
300.061	33632
300.117	56846
300.173	26772
300.229	12832
300.285	16375
300.341	16783
300.397	8855
300.453	5715
300.510	6063
300.566	5538
300.622	6903
300.678	9402
300.734	23546
300.790	29685
300.845	35912
300.901	20056
300.957	28645
301.013	23153
301.069	9013
301.125	6929
301.181	8874
301.237	6725
301.293	4887
301.349	4744
301.405	5420
301.461	6228
301.516	8144
301.572	7205
301.628	12080
301.684	11370
301.740	18063
301.796	24389
301.851	17469
301.907	27111
301.963	25405
302.019	42674
302.074	109737
302.130	101422
302.186	45929
302.242	21731
302.297	15142
302.353	14344
302.409	25482
302.464	20850
302.520	18263
302.576	40324
302.631	44454
302.687	25139
302.743	12527
302.798	9065
302.854	8201
302.910	8268
302.965	10867
303.021	16833
303.076	14706
303.132	17184
303.187	20915
303.243	11153
303.299	7315
303.354	6525
303.410	6272
303.465	6484
303.521	6595
303.576	6825
303.632	8320
303.687	13908
303.743	37828
303.798	29628
303.853	13825
303.909	9084
303.964	8336
304.020	10939
304.075	16633
304.130	13915
304.186	24393
304.241	24648
304.297	20537
304.352	12215
304.358	11895
304.407	9295
304.449	8682
304.463	8483
304.518	9436
304.539	8728
304.573	7608
304.629	8539
304.630	8623
304.684	12844
304.720	23798
304.739	29142
304.794	41116
304.811	35118
304.850	21007
304.902	11863
304.905	11287
304.960	9087
304.992	9930
305.015	10473
305.071	9063
305.083	8668
305.126	7266
305.173	6380
305.181	6256
305.236	5467
305.264	6121
305.292	6793
305.347	7666
305.354	7751
305.402	8363
305.445	9202
305.457	9387
305.512	11418
305.535	11168
305.567	11065
305.622	11877
305.626	12257
305.678	20859
305.716	38522
305.733	44536
305.788	44700
305.807	39108
305.843	30409
305.897	39463
305.898	39540
305.953	36156
305.988	24968
306.008	19143
306.063	13000
306.078	11751
306.118	8906
306.168	7283
306.173	7150
306.228	6607
306.259	6246
306.283	6042
306.338	7027
306.349	7154
306.393	7780
306.440	9198
306.448	9485
306.503	9939
306.530	11628
306.558	16036
306.613	36178
306.620	38240
306.668	45691
306.711	45928
306.723	44931
306.778	30523
306.801	23401
306.833	16159
306.888	9223
306.892	9039
306.943	8066
306.982	7129
306.997	6872
307.052	8264
307.072	8537
307.107	10441
307.162	16539
307.163	16635
307.217	26998
307.253	33165
307.272	33856
307.327	33030
307.343	29343
307.381	23219
307.434	19074
307.436	19362
307.491	37482
307.524	52863
307.546	55161
307.600	41332
307.614	35307
307.655	21795
307.704	14310
307.710	14480
307.765	20812
307.795	28056
307.819	33171
307.874	52461
307.885	52019
307.929	39449
307.975	25391
307.984	25154
308.038	32050
308.065	39187
308.093	66504
308.148	138032
308.156	152831
308.202	210103
308.246	234224
308.257	226453
308.312	129272
308.336	90848
308.366	68724
308.421	42118
308.426	39973
308.475	26739
308.517	19980
308.530	18709
308.585	16861
308.607	16166
308.639	17541
308.694	21616
308.697	22102
308.748	43786
308.787	66381
308.803	65505
308.857	44667
308.877	35586
308.912	29465
308.967	26126
308.967	26132
309.021	33461
309.058	39802
309.076	50200
309.130	88385
309.148	104065
309.185	179955
309.238	308715
309.239	309130
309.293	297908
309.328	260159
309.348	225998
309.402	114488
309.418	86357
309.457	60768
309.508	37486
309.511	36749
309.566	31149
309.598	29244
309.620	31004
309.674	38283
309.688	40410
309.729	37108
309.778	29062
309.783	28462
309.837	22220
309.868	19252
309.892	24254
309.946	39020
309.959	43563
310.001	53078
310.049	60014
310.055	58123
310.109	34302
310.139	21362
310.163	17399
310.218	12251
310.229	11401
310.272	10663
310.319	10276
310.326	10195
310.381	10152
310.409	10028
310.435	10106
310.489	10304
310.499	10357
310.543	11012
310.589	12220
310.598	12120
310.652	11253
310.679	10508
310.706	9382
310.760	6952
310.769	6618
310.814	5969
310.859	5560
310.868	5640
310.923	6136
310.948	6526
310.977	7314
311.031	8523
311.038	8734
311.085	8065
311.128	7084
311.139	7090
311.193	7350
311.218	7400
311.247	6878
311.301	5953
311.308	5839
311.356	6686
311.398	7661
311.410	7412
311.464	6007
311.488	5327
311.518	5617
311.572	6267
311.578	6359
311.626	7848
311.668	9096
311.680	9706
311.734	12434
311.758	13659
311.788	12743
311.842	10955
311.847	10768
311.896	16303
311.937	21306
311.950	20330
312.004	15871
312.027	13831
312.058	11545
312.112	7626
312.117	7247
312.165	7579
312.207	7890
312.297	15339
312.386	10237
312.476	9150
312.566	13240
312.656	6797
312.745	6652
312.835	8152
312.925	8584
313.015	9915
313.104	10816
313.194	6317
313.284	6974
313.374	8083
313.463	7653
313.553	6868
313.643	4970
313.732	5547
313.822	5011
313.912	6113
314.001	7635
314.091	10931
314.180	15119
314.270	10232
314.360	12558
314.449	8923
314.539	5308
314.628	6091
314.718	9513
314.808	12011
314.897	4700
314.987	5992
315.076	7343
315.166	11462
315.255	11522
315.345	11364
315.434	11473
315.524	10853
315.613	9394
315.703	10393
315.792	9142
315.881	7348
315.971	8043
316.060	24577
316.150	45477
316.239	44302
316.328	12698
316.418	6489
316.507	6615
316.597	8418
316.686	8703
316.775	24036
316.865	45962
316.954	7452
317.043	4897
317.133	5795
317.222	5387
317.311	5850
317.400	3718
317.490	8836
317.579	6701
317.668	5497
317.757	6986
317.847	8071
317.936	11403
318.025	14910
318.114	8038
318.203	8442
318.293	15240
318.382	23203
318.471	20090
318.560	38515
318.649	79241
318.738	13712
318.828	10193
318.917	11294
319.006	21458
319.095	53604
319.184	100128
319.273	40458
319.362	16850
319.451	7712
319.540	8340
319.629	17748
319.718	23821
319.807	13605
319.896	39937
319.985	113925
320.074	29994
320.163	16482
320.252	27677
320.341	22736
320.430	15367
320.519	16430
320.608	9649
320.697	9167
320.786	7955
320.875	9624
320.964	11139
321.053	16816
321.142	24513
321.230	23069
321.319	24625
321.408	52601
321.497	21437
321.586	22339
321.675	43382
321.764	34076
321.852	21552
321.941	28561
322.030	16106
322.119	26672
322.207	58557
322.296	58623
322.385	25430
322.474	23922
322.562	58322
322.651	29473
322.740	24224
322.829	43072
322.917	60373
323.006	21770
323.095	16948
323.183	20165
323.272	25788
323.361	61183
323.449	157481
323.538	49565
323.626	128410
323.715	55068
323.804	36142
323.892	117712
323.981	41863
324.069	19367
324.158	76383
324.246	47100
324.335	13575
324.424	17056
324.512	7216
324.601	8888
324.689	11075
324.778	23413
324.866	41205
324.954	10457
325.043	9611
325.131	30855
325.220	55927
325.308	56610
325.397	40997
325.485	17614
325.574	6226
325.662	5306
325.750	6250
325.839	6649
325.927	4922
326.015	10146
326.104	27384
326.192	29926
326.280	5813
326.369	7360
326.457	8911
326.545	14550
326.634	5744
326.722	4586
326.810	4944
326.898	5423
326.987	6483
327.075	16635
327.163	22257
327.251	10166
327.340	7243
327.428	7184
327.516	4639
327.604	5946
327.692	7689
327.781	14004
327.869	22937
327.957	11721
328.045	7182
328.133	6879
328.221	11174
328.309	6277
328.397	5366
328.485	6610
328.574	10281
328.662	30214
328.750	25133
328.838	11348
328.926	5672
329.014	4546
329.102	9161
329.190	30526
329.278	12481
329.366	4242
329.454	4772
329.542	5868
329.630	4130
329.718	5186
329.806	5222
329.893	8547
329.981	5601
330.069	5273
330.157	16508
330.245	41448
330.333	17978
330.421	5457
330.509	11027
330.597	35461
330.684	22788
330.772	13432
330.860	24495
330.948	31306
331.036	9318
331.123	4851
331.211	5986
331.299	10194
331.387	28309
331.475	40038
331.562	12233
331.650	6249
331.738	10539
331.825	14300
331.913	4460
332.001	5258
332.089	11168
332.176	28682
332.264	74304
332.352	39904
332.439	10400
332.527	8884
332.614	9378
332.702	11842
332.790	7811
332.877	33489
332.965	53583
333.052	9261
333.140	12829
333.228	22327
333.315	5931
333.403	10895
333.490	42182
333.578	23231
333.665	15790
333.753	8786
333.840	5762
333.928	11388
334.015	41141
334.103	59797
334.190	140481
334.278	27553
334.365	14195
334.452	7903
334.540	5557
334.627	12259
334.715	15130
334.802	43892
334.889	233686
334.977	148211
335.064	11975
335.151	7597
335.239	9227
335.326	14839
335.413	72082
335.501	70981
335.588	8846
335.675	6569
335.762	14304
335.850	22659
335.937	10748
336.024	53476
336.111	198640
336.199	52761
336.286	8475
336.373	5089
336.460	4359
336.547	5131
336.635	7892
336.722	7598
336.809	6122
336.896	11034
336.983	44660
337.070	102922
337.157	127509
337.245	141917
337.332	73468
337.419	9825
337.506	6760
337.593	9362
337.680	44586
337.767	99000
337.854	26234
337.941	38615
338.028	48460
338.115	13680
338.202	18454
338.289	47790
338.376	131049
338.463	32595
338.550	71622
338.637	54502
338.724	33134
338.811	43377
338.898	7809
338.984	5863
339.071	9562
339.158	8748
339.245	20129
339.332	13731
339.419	35368
339.506	24959
339.593	4170
339.679	4701
339.766	3025
339.853	7108
339.940	12427
340.027	5265
340.113	5280
340.200	7231
340.287	5338
340.374	7360
340.460	10649
340.547	4764
340.634	9950
340.720	33594
340.807	14974
340.894	4204
340.980	5428
341.067	4240
341.154	5043
341.240	8362
341.327	14609
341.414	5807
341.500	4522
341.587	5316
341.674	4453
341.760	11205
341.847	10991
341.933	4067
342.020	1455
342.106	2861
342.193	4316
342.279	7267
342.366	5911
342.452	9663
342.539	5079
342.625	15764
342.712	31879
342.798	12529
342.885	4955
342.971	2619
343.058	2458
343.144	3459
343.230	3044
343.317	3847
343.403	2489
343.490	2908
343.576	2739
343.662	2962
343.749	4166
343.835	6303
343.921	12221
344.008	77217
344.094	132562
344.180	24875
344.267	12127
344.353	48590
344.439	49059
344.525	18142
344.612	9915
344.698	10349
344.784	5986
344.870	3105
344.957	3846
345.043	6161
345.129	5594
345.215	10780
345.301	5861
345.387	4165
345.474	2047
345.560	4228
345.646	7325
345.732	4949
345.818	4264
345.904	4892
345.990	5130
346.076	10335
346.162	18743
346.249	5495
346.335	2681
346.421	4422
346.507	20276
346.593	53979
346.679	10803
346.765	4755
346.851	3568
346.937	3646
347.023	3560
347.108	4057
347.194	2927
347.280	3166
347.366	4132
347.452	19416
347.538	65607
347.624	49199
347.710	42867
347.796	7194
347.882	4426
347.967	5276
348.053	10160
348.139	5040
348.225	2383
348.311	3116
348.397	1902
348.482	4825
348.568	4990
348.654	1928
348.740	1682
348.825	2140
348.911	8286
348.997	39020
349.083	60774
349.168	10651
349.254	3928
349.340	4496
349.425	2374
349.511	4356
349.597	7682
349.682	12800
349.768	37776
349.854	15726
349.939	5037
350.025	3757
350.110	3354
350.196	2237
350.282	1179
350.367	4029
350.453	14281
350.538	12161
350.624	6084
350.709	6557
350.795	3617
350.880	3321
350.966	5375
351.051	13348
351.137	7813
351.222	4383
351.308	13812
351.393	30233
351.479	6575
351.564	3119
351.649	3809
351.735	2559
351.820	1666
351.906	4014
351.991	7309
352.076	25163
352.162	28015
352.247	5288
352.332	4129
352.418	8735
352.503	12452
352.588	49121
352.673	31733
352.759	7286
352.844	3699
352.929	4948
353.014	5259
353.100	4465
353.185	7485
353.270	11833
353.355	10807
353.441	4336
353.526	6493
353.611	11867
353.696	10824
353.781	6848
353.866	2417
353.952	5282
354.037	11240
354.122	22928
354.207	19553
354.292	6993
354.377	3525
354.462	3171
354.547	4893
354.632	6291
354.717	9677
354.802	7356
354.887	2602
354.972	2985
355.057	1840
355.142	1979
355.227	3127
355.312	6824
355.397	16935
355.482	37167
355.567	15115
355.652	14390
355.737	15901
355.822	47405
355.907	30703
355.991	5246
356.076	2250
356.161	3866
356.246	2130
356.331	3859
356.416	13737
356.501	80709
356.585	65759
356.670	8376
356.755	5716
356.840	10891
356.924	63487
357.009	174060
357.094	55233
357.179	13245
357.263	8581
357.348	10965
357.433	9944
357.517	9156
357.602	6067
357.687	5479
357.771	10478
357.856	29358
357.941	17012
358.025	51810
358.110	170099
358.195	64426
358.279	9178
358.364	8896
358.448	34785
358.533	80756
358.617	56560
358.702	55415
358.787	17606
358.871	10575
358.956	8605
359.040	3089
359.125	2684
359.209	4201
359.294	14922
359.378	22190
359.462	9299
359.547	6992
359.631	5891
359.716	3280
359.800	5504
359.885	9843
359.969	4560
360.053	4527
360.138	3459
360.222	5972
360.306	10814
360.391	9383
360.475	19415
360.559	36405
360.644	31361
360.728	21612
360.812	48861
360.896	106898
360.981	49358
361.065	25805
361.149	6940
361.233	5959
361.318	5777
361.402	7089
361.486	4518
361.570	3854
361.654	5193
361.739	18215
361.823	79735
361.907	98300
361.991	14959
362.075	10463
362.159	21264
362.243	13949
362.327	7348
362.411	7828
362.495	8181
362.580	4558
362.664	2753
362.748	2312
362.832	2941
362.916	2249
363.000	12185
363.084	70400
363.168	110099
363.252	23014
363.336	10188
363.420	21670
363.503	91825
363.587	88260
363.671	11808
363.755	8910
363.839	12101
363.923	4741
364.007	12113
364.091	16231
364.175	38668
364.258	125127
364.342	48255
364.426	12351
364.510	8392
364.594	15390
364.677	28308
364.761	97089
364.845	58250
364.929	18746
365.013	15087
365.096	13556
365.180	17091
365.264	45964
365.347	132416
365.431	54803
365.515	14073
365.598	4900
365.682	6202
365.766	19050
365.849	20454
365.933	8599
366.017	14534
366.100	11451
366.184	4149
366.267	5966
366.351	3170
366.435	2540
366.518	1886
366.602	2792
366.685	2551
366.769	4875
366.852	15159
366.936	20465
367.019	8244
367.103	12640
367.186	24839
367.270	5939
367.353	1322
367.436	3153
367.520	1728
367.603	4296
367.687	6353
367.770	12664
367.853	8451
367.937	30176
368.020	41749
368.104	8679
368.187	9914
368.270	14284
368.353	14601
368.437	40547
368.520	96396
368.603	41380
368.687	37628
368.770	56823
368.853	13328
368.936	20488
369.020	20475
369.103	6366
369.186	2969
369.269	5179
369.352	10358
369.436	14841
369.519	8079
369.602	3219
369.685	5384
369.768	5156
369.851	4796
369.934	3281
370.018	5757
370.101	11824
370.184	11079
370.267	9468
370.350	13249
370.433	22708
370.516	50720
370.599	50068
370.682	14417
370.765	33305
370.848	44065
370.931	75501
371.014	31190
371.097	5355
371.180	3443
371.263	2723
371.346	1111
371.429	3024
371.511	3302
371.594	8996
371.677	18192
371.760	23832
371.843	15756
371.926	70207
372.009	128381
372.091	38944
372.174	35872
372.257	69712
372.340	26867
372.423	32364
372.505	40266
372.588	14572
372.671	27326
372.754	71959
372.836	35064
372.919	48937
373.002	79703
373.085	18848
373.167	11963
373.250	33432
373.332	68394
373.415	105702
373.498	176467
373.580	62459
373.663	85203
373.746	100872
373.828	22298
373.911	12687
373.993	22278
374.076	86140
374.159	73048
374.241	28453
374.324	61607
374.406	38636
374.489	63797
374.571	145844
374.654	53811
374.736	35916
374.819	99625
374.901	141981
374.983	123249
375.066	20188
375.148	13565
375.231	72612
375.313	119022
375.395	41786
375.478	7002
375.560	4804
375.643	8544
375.725	41303
375.807	130545
375.890	129895
375.972	75292
376.054	44390
376.136	77484
376.219	28463
376.301	43427
376.383	97938
376.465	34446
376.548	21984
376.630	34262
376.712	83525
376.794	33982
376.877	4466
376.959	1821
377.041	7236
377.123	21843
377.205	23976
377.287	2999
377.369	3209
377.452	2773
377.534	3122
377.616	3172
377.698	2894
377.780	1364
377.862	3040
377.944	2860
378.026	2124
378.108	2858
378.190	2539
378.272	2346
378.354	1844
378.436	1417
378.518	13010
378.600	37805
378.682	27821
378.764	42485
378.846	31555
378.928	11406
379.010	12542
379.091	6910
379.173	3373
379.255	1516
379.337	5738
379.419	24088
379.501	58752
379.583	23347
379.664	7485
379.746	16309
379.828	44305
379.910	56553
379.991	45072
380.073	8101
380.155	5471
380.237	3441
380.318	2477
380.400	2702
380.482	9719
380.564	14034
380.645	13607
380.727	10950
380.809	7126
380.890	5144
380.972	3070
381.053	2753
381.135	5681
381.217	16844
381.298	41061
381.380	20876
381.461	24538
381.543	91944
381.624	96347
381.706	17337
381.787	10380
381.869	11699
381.951	50281
382.032	140558
382.113	79813
382.195	16968
382.276	12649
382.358	30372
382.439	74640
382.521	93428
382.602	125837
382.684	61690
382.765	107941
382.846	101600
382.928	103812
383.009	54515
383.090	47055
383.172	169848
383.253	230541
383.334	96232
383.416	112828
383.497	52220
383.578	20175
383.659	43139
383.741	167419
383.822	360987
383.903	173089
383.984	80550
384.066	137796
384.147	79122
384.228	15841
384.309	10020
384.390	7030
384.471	5491
384.553	9256
384.634	12362
384.715	11559
384.796	5565
384.877	11066
384.958	38611
385.039	42047
385.120	13046
385.201	8509
385.282	13438
385.363	15452
385.444	9560
385.525	19450
385.606	60353
385.687	46969
385.768	15114
385.849	22478
385.930	73684
386.011	105628
386.092	26137
386.173	7303
386.254	7329
386.335	9051
386.416	8327
386.496	28777
386.577	42734
386.658	21375
386.739	12977
386.820	16029
386.901	11607
386.981	9019
387.062	4680
387.143	11957
387.224	39658
387.304	37837
387.385	14556
387.466	10848
387.547	15409
387.627	7402
387.708	20154
387.789	76671
387.869	82332
387.950	20560
388.031	3680
388.111	9199
388.192	32353
388.273	43823
388.353	20532
388.434	7711
388.514	19529
388.595	72774
388.676	83613
388.756	41667
388.837	37540
388.917	21859
388.998	4514
389.078	5268
389.159	4294
389.239	3307
389.320	7397
389.400	6611
389.480	22463
389.561	46421
389.641	20005
389.722	8725
389.802	13236
389.883	24800
389.963	55458
390.043	42824
390.124	17368
390.204	19369
390.284	46019
390.365	35797
390.445	74689
390.525	156447
390.605	111593
390.686	26027
390.766	7386
390.846	4057
390.927	3002
391.007	2812
391.087	5976
391.167	6832
391.247	5591
391.328	18093
391.408	24859
391.488	15699
391.568	2450
391.648	4120
391.728	8158
391.808	7671
391.888	8911
391.969	25094
392.049	37316
392.129	22128
392.209	23545
392.289	45995
392.369	31991
392.449	39047
392.529	19892
392.609	10721
392.689	16970
392.769	45759
392.849	36678
392.929	37733
393.009	76384
393.089	39004
393.169	10346
393.248	38007
393.328	158228
393.408	149374
393.488	25126
393.568	7388
393.648	4906
393.728	5041
393.807	3684
393.887	5712
393.967	5500
394.047	8986
394.127	12944
394.206	30585
394.286	134202
394.366	430933
394.446	414650
394.525	103694
394.605	25858
394.685	26360
394.764	62170
394.844	94879
394.924	55336
395.003	13518
395.083	7739
395.163	7553
395.242	6286
395.322	7859
395.402	5133
395.481	11842
395.561	43141
395.640	92487
395.720	65886
395.799	104853
395.879	82021
395.958	52250
396.038	196989
396.117	565118
396.197	554114
396.276	189585
396.356	66800
396.435	46335
396.515	21635
396.594	14846
396.673	17969
396.753	49673
396.832	140055
396.912	116334
396.991	34815
397.070	9807
397.150	3951
397.229	4983
397.308	3255
397.388	4161
397.467	4069
397.546	3727
397.625	1507
397.705	6253
397.784	5561
397.863	2412
397.942	2935
398.022	7121
398.101	38877
398.180	97390
398.259	50747
398.338	11127
398.417	5559
398.497	4967
398.576	4892
398.655	1686
398.734	3017
398.813	6221
398.892	37826
398.971	100825
399.050	44821
399.129	4651
399.208	2317
399.287	3531
399.366	1829
399.445	2871
399.524	3299
399.603	2684
399.682	8769
399.761	35207
399.840	104676
399.919	75228
399.998	9289
400.077	2185
400.156	1766
400.235	5855
400.313	3976
400.392	6678
400.471	24663
400.550	34642
400.629	9113
400.708	6303
400.786	9787
400.865	28092
400.944	28977
401.023	10763
401.102	1703
401.180	2643
401.259	3985
401.338	6698
401.416	6199
401.495	5987
401.574	6259
401.652	5286
401.731	6355
401.810	4716
401.888	2371
401.967	1563
402.046	2926
402.124	7263
402.203	8011
402.281	5095
402.360	10924
402.438	34241
402.517	23044
402.596	7636
402.674	7095
402.753	3787
402.831	3358
402.910	6123
402.988	20079
403.066	48984
403.145	27307
403.223	18667
403.302	37696
403.380	28534
403.459	24801
403.537	11624
403.615	4764
403.694	779
403.772	2093
403.850	1705
403.929	1691
404.007	2112
404.085	6114
404.164	5697
404.242	3978
404.320	16369
404.398	46609
404.477	60392
404.555	116517
404.633	96465
404.711	36285
404.789	20127
404.868	4129
404.946	2273
405.024	1567
405.102	1990
405.180	1417
405.258	1509
405.336	2821
405.415	3801
405.493	9520
405.571	6848
405.649	1637
405.727	2296
405.805	6318
405.883	5729
405.961	6999
406.039	9598
406.117	2365
406.195	6509
406.273	32067
406.351	93553
406.429	55312
406.507	12603
406.585	4319
406.663	2369
406.740	4241
406.818	2676
406.896	2099
406.974	3691
407.052	10850
407.130	59217
407.208	71410
407.285	13586
407.363	2047
407.441	2395
407.519	1983
407.596	3741
407.674	10170
407.752	25081
407.830	32979
407.907	17871
407.985	4138
408.063	2697
408.141	1898
408.218	9637
408.296	6881
408.373	2582
408.451	3309
408.529	2834
408.606	1027
408.684	1365
408.762	331
408.839	1023
408.917	180
408.994	1367
409.072	-665
409.149	-180
409.227	1722
409.304	1451
409.382	528
409.459	453
409.537	1961
409.614	1630
409.692	424
409.769	365
409.846	1090
409.924	4266
410.001	1571
410.079	1743
410.156	2195
410.233	2076
410.311	2084
410.388	1193
410.465	2402
410.543	2035
410.620	1278
410.697	1993
410.775	1877
410.852	57
410.929	2776
411.006	4685
411.083	2213
411.161	6686
411.238	10255
411.315	6811
411.392	1620
411.469	2251
411.547	3075
411.624	719
411.701	1427
411.778	2594
411.855	6142
411.932	3866
412.009	1280
412.086	1615
412.163	4225
412.240	4386
412.317	6824
412.394	5164
412.471	1563
412.548	1094
412.625	1732
412.702	4895
412.779	7819
412.856	4703
412.933	197
413.010	2217
413.087	5723
413.164	21817
413.241	27699
413.318	6280
413.395	4113
413.471	5518
413.548	2482
413.625	2818
413.702	3055
413.779	3592
413.855	284
413.932	1335
414.009	588
414.086	1094
414.162	1348
414.239	6457
414.316	23237
414.393	43365
414.469	14024
414.546	1706
414.623	447
414.699	1779
414.776	2265
414.853	2317
414.929	2651
415.006	2064
415.082	4573
415.159	3842
415.236	1631
415.312	1650
415.389	5116
415.465	6103
415.542	2115
415.618	1757
415.695	4527
415.771	2871
415.848	1800
415.924	3538
416.000	2074
416.077	2694
416.153	-174
416.230	-384
416.306	1939
416.383	2262
416.459	1066
416.535	513
416.612	319
416.688	804
416.764	597
416.841	758
416.917	1198
416.993	2176
417.069	2413
417.146	5397
417.222	7010
417.298	2688
417.374	693
417.451	2627
417.527	2526
417.603	2026
417.679	1404
417.755	1773
417.831	501
417.908	649
417.984	362
418.060	625
418.136	5063
418.212	5807
418.288	1740
418.364	1647
418.440	1157
418.516	5130
418.592	10239
418.668	13540
418.744	13240
418.820	8278
418.896	1549
418.972	170
419.048	717
419.124	5604
419.200	2667
419.276	238
419.352	-1102
419.428	824
419.504	504
419.579	2026
419.655	1114
419.731	1373
419.807	8741
419.883	15270
419.959	9902
420.034	2983
420.110	8833
420.186	27523
420.262	19681
420.337	3816
420.413	2205
420.489	1004
420.565	688
420.640	725
420.716	1676
420.792	-114
420.867	1058
420.943	996
421.019	2625
421.094	1596
421.170	229
421.245	477
421.321	717
421.397	772
421.472	3050
421.548	9461
421.623	6234
421.699	1783
421.774	1650
421.850	470
421.925	3447
422.001	2958
422.076	-229
422.152	958
422.227	3273
422.302	2621
422.378	1749
422.453	3903
422.529	10432
422.604	50751
422.679	109620
422.755	52075
422.830	8684
422.905	1953
422.981	950
423.056	10
423.131	708
423.207	629
423.282	2627
423.357	6598
423.432	3414
423.508	4603
423.583	10863
423.658	8353
423.733	2800
423.808	5026
423.883	3578
423.959	2709
424.034	1134
424.109	1149
424.184	-430
424.259	-53
424.334	78
424.409	-154
424.484	2
424.559	1524
424.634	180
424.709	2369
424.784	2788
424.859	2418
424.934	5242
425.009	19605
425.084	29260
425.159	11061
425.234	1450
425.309	1100
425.384	6912
425.459	11218
425.534	3678
425.609	3364
425.683	1295
425.758	278
425.833	1366
425.908	3540
425.983	12810
426.058	32665
426.132	14640
426.207	5153
426.282	10673
426.357	9608
426.431	2487
426.506	1753
426.581	2484
426.655	2944
426.730	1239
426.805	816
426.879	1076
426.954	2163
427.029	7202
427.103	38675
427.178	77633
427.253	33609
427.327	4916
427.402	10155
427.476	22527
427.551	9184
427.625	3961
427.700	4074
427.774	3023
427.849	4204
427.923	981
427.998	1601
428.072	1983
428.147	7277
428.221	14541
428.296	17618
428.370	4867
428.444	5499
428.519	14625
428.593	28721
428.667	24927
428.742	29244
428.816	23303
428.890	36016
428.965	35414
429.039	26243
429.113	32397
429.188	10055
429.262	1767
429.336	6522
429.410	17352
429.485	14308
429.559	23530
429.633	18087
429.707	3966
429.781	13031
429.855	52661
429.930	62766
430.004	71137
430.078	120075
430.152	76928
430.226	18931
430.300	10521
430.374	2744
430.448	6607
430.522	42608
430.596	102077
430.670	51993
430.744	50028
430.818	72590
430.892	16893
430.966	2800
431.040	894
431.114	530
431.188	1149
431.262	1896
431.336	3345
431.410	14588
431.484	34103
431.557	18239
431.631	2069
431.705	1391
431.779	3239
431.853	11337
431.927	7453
432.000	1417
432.074	1987
432.148	5996
432.222	4528
432.295	2101
432.369	1473
432.443	7306
432.516	41575
432.590	80785
432.664	30309
432.737	3148
432.811	66
432.885	583
432.958	640
433.032	506
433.106	-564
433.179	631
433.253	-234
433.326	487
433.400	-41
433.473	697
433.547	509
433.620	1719
433.694	3319
433.767	4550
433.841	2152
433.914	523
433.988	-20
434.061	1663
434.134	1047
434.208	-167
434.281	-170
434.355	884
434.428	952
434.501	301
434.575	889
434.648	2531
434.721	428
434.795	358
434.868	143
434.941	182
435.014	85
435.088	370
435.161	1661
435.234	2975
435.307	2753
435.381	1518
435.454	1010
435.527	753
435.600	343
435.673	912
435.746	-205
435.819	-162
435.892	-30
435.966	422
436.039	1430
436.112	1818
436.185	36
436.258	558
436.331	-418
436.404	286
436.477	-301
436.550	233
436.623	100
436.696	76
436.769	1120
436.842	1867
436.915	2976
436.987	3900
437.060	850
437.133	595
437.206	1176
437.279	2057
437.352	881
437.425	486
437.498	1565
437.570	4000
437.643	3419
437.716	651
437.789	629
437.861	4381
437.934	8887
438.007	3869
438.080	28
438.152	1030
438.225	6587
438.298	50640
438.370	109702
438.443	41214
438.516	8245
438.588	1805
438.661	780
438.734	1312
438.806	1709
438.879	2306
438.951	3023
439.024	4985
439.096	955
439.169	992
439.241	488
439.314	1635
439.386	6214
439.459	10949
439.531	12463
439.604	3597
439.676	672
439.749	1304
439.821	245
439.893	1479
439.966	1873
440.038	3660
440.110	1804
440.183	1236
440.255	1015
440.327	4180
440.400	25987
440.472	76591
440.544	44328
440.617	5477
440.689	4100
440.761	5978
440.833	7604
440.905	5161
440.978	691
441.050	924
441.122	1143
441.194	880
441.266	1026
441.338	1186
441.411	4321
441.483	22666
441.555	29640
441.627	8948
441.699	9008
441.771	9802
441.843	2632
441.915	1039
441.987	440
442.059	1275
442.131	3499
442.203	6217
442.275	6390
442.347	4721
442.419	1840
442.491	3268
442.563	7242
442.635	14475
442.706	31875
442.778	24104
442.850	2745
442.922	1314
442.994	3362
443.066	5835
443.137	3955
443.209	1710
443.281	1749
443.353	7125
443.425	11585
443.496	10122
443.568	6205
443.640	3918
443.711	2815
443.783	1934
443.855	1014
443.926	1441
443.998	2534
444.070	5919
444.141	3590
444.213	4828
444.285	5132
444.356	7817
444.428	7551
444.499	2872
444.571	965
444.642	923
444.714	1262
444.785	3705
444.857	10763
444.928	29065
445.000	18788
445.071	19352
445.143	19859
445.214	7308
445.285	14132
445.357	38776
445.428	28975
445.500	31497
445.571	37773
445.642	16006
445.714	27532
445.785	41461
445.856	11722
445.928	4848
445.999	2904
446.070	2971
446.141	3135
446.213	5505
446.284	4263
446.355	6557
446.426	4047
446.497	3452
446.569	7918
446.640	12450
446.711	4933
446.782	3333
446.853	7879
446.924	6680
446.995	2860
447.066	6062
447.138	11406
447.209	6724
447.280	1186
447.351	1061
447.422	1777
447.493	4803
447.564	4592
447.635	3858
447.706	1772
447.777	1488
447.847	1235
447.918	1637
447.989	5147
448.060	9496
448.131	21238
448.202	16496
448.273	7342
448.344	4376
448.414	2278
448.485	1688
448.556	1292
448.627	1006
448.698	1815
448.768	887
448.839	3041
448.910	10592
448.981	10180
449.051	3194
449.122	614
449.193	792
449.263	1848
449.334	1971
449.405	2318
449.475	7012
449.546	5722
449.616	13056
449.687	10568
449.758	2838
449.828	2151
449.899	1165
449.969	1765
450.040	1695
450.110	4555
450.181	6697
450.251	1542
450.322	1792
450.392	2932
450.463	2432
450.533	1230
450.604	2576
450.674	1929
450.744	1747
450.815	1979
450.885	2742
450.955	283
451.026	1159
451.096	2100
451.166	4923
451.237	15501
451.307	35161
451.377	15756
451.447	2608
451.518	664
451.588	2285
451.658	3355
451.728	8229
451.799	36592
451.869	41378
451.939	10984
452.009	2229
452.079	1095
452.149	3129
452.219	11350
452.289	41996
452.360	33158
452.430	6672
452.500	2887
452.570	4275
452.640	6017
452.710	22207
452.780	34973
452.850	17562
452.920	9972
452.990	4798
453.060	3226
453.129	5372
453.199	8666
453.269	44550
453.339	86346
453.409	128192
453.479	133798
453.549	197544
453.619	210862
453.688	89058
453.758	13888
453.828	5640
453.898	4324
453.968	4687
454.037	2978
454.087	3162
454.107	3215
454.168	2603
454.177	2494
454.247	2472
454.249	2531
454.316	2845
454.330	3739
454.386	6376
454.411	12569
454.456	22093
454.492	27796
454.525	33076
454.574	17706
454.595	11177
454.655	5067
454.665	4149
454.734	6389
454.736	6780
454.804	14200
454.817	19906
454.873	40073
454.898	43376
454.943	48991
454.979	33646
455.013	20785
455.060	13031
455.082	9899
455.141	11946
455.152	12000
455.221	34678
455.222	35266
455.291	56121
455.303	53998
455.360	46032
455.384	52513
455.430	60620
455.465	49012
455.499	38346
455.546	39684
455.569	39108
455.627	27563
455.638	26073
455.707	5208
455.708	5235
455.777	4339
455.789	4360
455.846	4269
455.869	4253
455.916	4247
455.950	4431
455.985	4369
456.031	4347
456.054	4415
456.112	3562
456.124	3488
456.193	4578
456.193	4534
456.262	5799
456.274	6631
456.332	9816
456.355	10518
456.401	10035
456.436	7766
456.470	6299
456.516	4137
456.540	3116
456.597	2833
456.609	2836
456.678	2908
456.678	2886
456.747	2617
456.759	2616
456.817	2737
456.840	2649
456.886	2555
456.920	2894
456.955	3553
457.001	4553
457.024	5368
457.082	7972
457.093	8538
457.162	14437
457.163	14535
457.232	14014
457.243	12778
457.301	7712
457.324	5534
457.370	3139
457.405	3703
457.439	4209
457.485	3572
457.508	3297
457.566	3842
457.577	3849
457.646	3731
457.647	3751
457.715	4262
457.727	4222
457.784	3678
457.808	3667
457.853	3851
457.889	4003
457.922	4173
457.969	4984
457.991	5118
458.050	4537
458.060	4475
458.129	4632
458.130	4648
458.198	3892
458.211	3750
458.267	3541
458.292	3613
458.336	3745
458.372	3986
458.405	4388
458.453	4545
458.474	4558
458.533	6148
458.543	6335
458.611	6604
458.614	6658
458.680	6492
458.694	6080
458.749	5186
458.775	5081
458.818	4878
458.855	4875
458.887	5099
458.936	5621
458.955	5534
459.016	5663
459.024	5708
459.093	6176
459.097	6151
459.162	5451
459.177	5726
459.230	6874
459.257	7057
459.299	7028
459.338	6963
459.368	6937
459.418	7405
459.437	7247
459.499	6706
459.505	6744
459.574	6015
459.579	6025
459.643	5985
459.659	5921
459.711	6015
459.740	6324
459.780	7001
459.820	7660
459.849	8184
459.900	9385
459.917	9035
459.981	8042
459.986	8051
460.054	7608
460.061	7506
460.123	7064
460.141	7174
460.191	7786
460.222	7966
460.260	7975
460.302	8801
460.328	8748
460.382	7474
460.397	7391
460.462	7561
460.465	7698
460.534	11154
460.543	11589
460.602	18535
460.623	21420
460.671	30226
460.703	38854
460.739	33656
460.783	23415
460.808	21570
460.864	11008
460.876	9745
460.944	8427
460.945	8398
461.013	7974
461.024	7704
461.081	7001
461.104	7359
461.150	7797
461.184	7452
461.218	7056
461.264	6794
461.286	6986
461.345	7519
461.355	7558
461.423	8340
461.425	8348
461.491	12852
461.505	13892
461.559	30200
461.585	37940
461.628	55214
461.665	72783
461.696	71621
461.745	75392
461.764	66768
461.825	21867
461.832	21114
461.901	10339
461.905	10308
461.969	9158
461.985	8797
462.037	10070
462.065	10882
462.105	15922
462.145	21195
462.173	27244
462.225	38798
462.241	42155
462.305	59692
462.310	57673
462.378	24964
462.385	20185
462.446	11945
462.465	10427
462.514	9169
462.545	9377
462.582	9418
462.625	9812
462.650	10063
462.705	10260
462.718	11259
462.785	16760
462.786	16880
462.854	23515
462.865	24862
462.922	27694
462.945	28911
462.990	20908
463.025	12548
463.058	11413
463.104	10015
463.126	9294
463.184	9099
463.194	9315
463.262	10510
463.264	10554
463.330	11837
463.344	12010
463.398	13364
463.424	14158
463.466	13795
463.504	13686
463.533	14079
463.583	14103
463.601	14704
463.663	16884
463.669	17736
463.737	27867
463.743	28785
463.805	46690
463.823	51971
463.873	79439
463.903	96857
463.940	91832
463.982	88469
464.008	70411
464.062	24759
464.076	23219
464.142	12408
464.144	12244
464.211	11300
464.221	11282
464.279	11901
464.301	12148
464.347	14631
464.381	16748
464.414	19456
464.461	22985
464.482	22822
464.540	22937
464.550	21936
464.617	13667
464.620	13351
464.685	14567
464.699	14924
464.753	16901
464.779	18037
464.820	20119
464.859	22004
464.888	22901
464.938	24362
464.956	24331
465.018	24209
465.023	23778
465.091	17570
465.098	16835
465.158	16179
465.177	16107
465.226	16193
465.257	16304
465.293	16726
465.336	17177
465.361	19561
465.416	24686
465.428	28841
465.495	51354
465.496	51646
465.563	84294
465.575	90087
465.631	95020
465.654	97346
465.698	56706
465.734	20498
465.765	18270
465.813	14806
465.833	14245
465.893	14461
465.900	14471
465.968	14541
465.972	14518
466.035	14328
466.052	14270
466.102	14746
466.131	14954
466.170	14832
466.210	14603
466.237	14859
466.290	15454
466.304	15619
466.369	16079
466.372	16153
466.439	17636
466.449	17806
466.506	22786
466.528	24664
466.573	44694
466.607	59615
466.641	82825
466.687	115036
466.708	119989
466.766	133724
466.775	121698
466.842	29012
466.845	24558
466.909	19749
466.925	18835
466.977	18209
467.004	17993
467.044	19246
467.083	20466
467.111	22027
467.163	24851
467.178	25265
467.242	26794
467.245	26793
467.312	25803
467.321	25628
467.379	27311
467.400	27847
467.446	32296
467.480	35411
467.559	26377
467.638	22387
467.717	23430
467.796	24504
467.875	26128
467.955	31025
468.034	71928
468.113	138158
468.192	176541
468.271	27228
468.350	20461
468.429	20153
468.508	20592
468.588	21222
468.667	24408
468.746	23410
468.825	23849
468.904	22751
468.983	34584
469.062	53492
469.141	57216
469.220	21177
469.299	22874
469.378	22419
469.456	25384
469.535	23500
469.614	23958
469.693	30170
469.772	41139
469.851	61705
469.930	27619
470.009	21083
470.088	19022
470.166	20563
470.245	23449
470.324	23448
470.403	21266
470.482	18931
470.560	19212
470.639	20168
470.718	21455
470.797	22580
470.875	31158
470.954	44530
471.033	42199
471.111	17130
471.190	17356
471.269	16753
471.347	17642
471.426	20437
471.505	26542
471.583	21722
471.662	20850
471.740	17899
471.819	19756
471.898	17955
471.976	18981
472.055	19873
472.133	27046
472.212	36451
472.290	38809
472.369	20447
472.447	19153
472.526	16657
472.604	18251
472.683	18090
472.761	18992
472.839	18473
472.918	17905
472.996	22267
473.075	27447
473.153	22498
473.231	20498
473.310	24331
473.388	22102
473.466	21440
473.545	22107
473.623	22788
473.701	21773
473.780	18238
473.858	17542
473.936	20197
474.014	19991
474.093	26316
474.171	44507
474.249	65127
474.327	27321
474.405	15506
474.484	16708
474.562	16371
474.640	17974
474.718	19832
474.796	17943
474.874	15834
474.952	14522
475.030	15127
475.108	15437
475.187	15565
475.265	17475
475.343	21825
475.421	23122
475.499	17328
475.577	21673
475.655	41987
475.733	87322
475.811	145037
475.889	124601
475.966	53893
476.044	20654
476.122	23506
476.200	25772
476.278	22399
476.356	21085
476.434	22445
476.512	25435
476.590	28597
476.667	24385
476.745	18701
476.823	21290
476.901	21704
476.979	24217
477.056	21023
477.134	21998
477.212	20640
477.290	20083
477.367	18430
477.445	20221
477.523	19775
477.601	19951
477.678	21732
477.756	30272
477.834	30736
477.911	19994
477.989	20894
478.066	21364
478.144	26134
478.222	21661
478.299	25951
478.377	22985
478.454	16327
478.532	17190
478.609	17932
478.687	19127
478.764	17640
478.842	18111
478.919	18954
478.997	18751
479.074	18767
479.152	27178
479.229	35299
479.307	19568
479.384	15926
479.461	17602
479.539	21932
479.616	24923
479.694	20535
479.771	25023
479.848	27937
479.926	41854
480.003	34258
480.080	18238
480.157	17231
480.235	17252
480.312	19024
480.389	30981
480.467	51815
480.544	54150
480.621	24582
480.698	22904
480.775	27251
480.853	29051
480.930	21837
481.007	23856
481.084	28677
481.161	28630
481.238	25845
481.315	19402
481.392	19070
481.470	21054
481.547	20841
481.624	20990
481.701	20474
481.778	21692
481.855	28754
481.932	49787
482.009	81207
482.086	36915
482.163	19686
482.240	22699
482.317	30222
482.393	23982
482.470	20450
482.547	22690
482.624	19450
482.701	19214
482.778	18955
482.855	17098
482.932	16818
483.009	16784
483.085	18419
483.162	20690
483.239	18568
483.316	16417
483.393	17449
483.469	19654
483.546	24965
483.623	25308
483.699	18670
483.776	20582
483.853	25132
483.930	52857
484.006	125452
484.083	179451
484.160	53760
484.236	67775
484.313	50589
484.389	42941
484.466	38462
484.543	36083
484.619	37831
484.696	41534
484.772	49706
484.849	51797
484.925	36733
485.002	36683
485.078	39152
485.155	38467
485.231	36259
485.308	37000
485.384	40907
485.461	65010
485.537	114629
485.614	113518
485.690	36953
485.766	34290
485.843	35468
485.919	41580
485.995	38849
486.072	31010
486.148	31248
486.224	31285
486.301	36355
486.377	41795
486.453	37734
486.530	39339
486.606	46728
486.682	60536
486.758	87260
486.835	97129
486.911	80041
486.987	132969
487.063	75447
487.139	69286
487.215	50112
487.292	33648
487.368	34154
487.444	36844
487.520	37097
487.596	30766
487.672	32938
487.748	37949
487.824	38865
487.900	31943
487.976	34636
488.052	39626
488.128	40724
488.204	37297
488.280	36766
488.356	64525
488.432	142072
488.508	179482
488.584	38560
488.660	27914
488.736	28275
488.812	30658
488.888	36512
488.964	46182
489.039	75195
489.115	95323
489.191	53236
489.267	34369
489.343	32583
489.418	27567
489.494	26042
489.570	25970
489.646	28606
489.722	28962
489.797	36500
489.873	81734
489.949	162805
490.024	90280
490.100	26946
490.176	29355
490.251	31226
490.327	34373
490.403	23014
490.478	24525
490.554	20851
490.629	22760
490.705	22330
490.781	26786
490.856	26149
490.932	27469
491.007	25655
491.083	27514
491.158	30778
491.234	58994
491.309	123992
491.385	91821
491.460	27853
491.536	29353
491.611	22712
491.686	24551
491.762	31135
491.837	54563
491.913	91663
491.988	121612
492.063	114072
492.139	71610
492.214	39675
492.289	19393
492.365	20550
492.440	26316
492.515	30134
492.590	27900
492.666	23610
492.741	43306
492.816	63876
492.891	26084
492.967	19243
493.042	19020
493.117	19302
493.192	23788
493.267	53080
493.342	131757
493.418	138553
493.493	24390
493.568	16873
493.643	20338
493.718	32244
493.793	47494
493.868	32114
493.943	19162
494.018	19555
494.093	20656
494.168	19210
494.243	16999
494.318	16107
494.393	17691
494.468	14769
494.543	16287
494.618	17744
494.693	17607
494.768	20095
494.842	18190
494.917	15405
494.992	16646
495.067	14102
495.142	14723
495.217	15341
495.292	16152
495.366	20803
495.441	26968
495.516	33007
495.591	45689
495.665	109296
495.740	185157
495.815	64745
495.890	30345
495.964	25882
496.039	28426
496.114	26145
496.188	26957
496.263	26716
496.338	28031
496.412	34699
496.487	35061
496.561	30283
496.636	30600
496.710	27593
496.785	36407
496.860	38702
496.934	26133
497.009	25557
497.083	26378
497.158	29016
497.232	37497
497.307	41575
497.381	32875
497.455	48791
497.530	61052
497.604	33686
497.679	41594
497.753	69665
497.827	71542
497.902	48955
497.976	83873
498.050	282815
498.125	795838
498.199	523387
498.273	58140
498.348	40939
498.422	38161
498.496	35489
498.570	35189
498.645	31199
498.719	36513
498.793	52332
498.867	93195
498.941	143328
499.016	417120
499.090	801083
499.164	159760
499.238	30710
499.312	29460
499.386	33994
499.460	35037
499.534	34806
499.609	48693
499.683	75002
499.757	76630
499.831	226427
499.905	642832
499.979	395418
500.053	94147
500.127	71802
500.201	39767
500.275	33181
500.349	33723
500.422	37978
500.496	55717
500.570	131972
500.644	392493
500.718	552703
500.792	76983
500.866	41491
500.940	57966
501.013	40607
501.087	40118
501.161	57793
501.235	110066
501.309	312634
501.382	664257
501.456	366313
501.530	133677
501.603	209741
501.677	54505
501.751	31005
501.825	48416
501.898	121801
501.972	278538
502.046	109276
502.119	51979
502.193	143114
502.266	281538
502.340	104381
502.413	161242
502.487	246533
502.561	120256
502.634	30971
502.708	25584
502.781	22040
502.855	21908
502.928	20751
503.002	22197
503.075	22962
503.149	25646
503.222	25881
503.295	30169
503.369	38481
503.442	75746
503.516	265617
503.589	505674
503.662	238341
503.736	108647
503.809	246557
503.882	165641
503.956	270627
504.029	147141
504.102	36184
504.175	27912
504.249	22598
504.322	34794
504.395	27635
504.468	22638
504.542	24588
504.615	16300
504.688	17151
504.761	17610
504.834	22499
504.907	22312
504.980	27016
505.053	20456
505.127	22145
505.200	34874
505.273	43534
505.346	22965
505.419	18190
505.492	18195
505.565	14975
505.638	16003
505.711	16568
505.784	16536
505.857	16122
505.930	18837
506.003	16020
506.076	21801
506.149	32869
506.221	35492
506.294	41670
506.367	142001
506.440	337258
506.513	105282
506.586	37513
506.659	18896
506.731	16812
506.804	22021
506.877	26303
506.950	21243
507.022	18489
507.095	33156
507.168	28955
507.241	16258
507.313	13122
507.386	15260
507.459	17322
507.531	14452
507.604	12883
507.677	13752
507.749	10945
507.822	17683
507.894	28568
507.967	29769
508.040	18745
508.112	18419
508.185	18131
508.257	16439
508.330	21993
508.402	18883
508.475	21788
508.547	22542
508.620	28033
508.692	43416
508.765	19771
508.837	15722
508.909	14821
508.982	15744
509.054	16587
509.127	13865
509.199	14810
509.271	14299
509.344	13138
509.416	14079
509.488	15285
509.560	15113
509.633	15067
509.705	17894
509.777	17579
509.849	21825
509.922	14949
509.994	15027
510.066	15896
510.138	18112
510.210	30751
510.283	27463
510.355	21504
510.427	18786
510.499	17572
510.571	18366
510.643	18584
510.715	22929
510.787	18243
510.859	21835
510.931	25280
511.003	22962
511.076	21073
511.148	19442
511.219	23541
511.291	48088
511.363	41079
511.435	17867
511.507	15436
511.579	16033
511.651	16438
511.723	16262
511.795	15741
511.867	18644
511.939	32477
512.010	70868
512.082	35410
512.154	18073
512.226	17763
512.298	24802
512.369	29774
512.441	24860
512.513	22094
512.585	18430
512.656	21873
512.728	22123
512.800	16628
512.871	19260
512.943	18548
513.015	14473
513.086	16241
513.158	17579
513.230	18618
513.301	24331
513.373	22335
513.444	16579
513.516	14352
513.588	15090
513.659	16135
513.731	19095
513.802	18258
513.874	32767
513.945	38470
514.016	17896
514.088	15891
514.159	16733
514.231	21594
514.302	25884
514.374	23917
514.445	33050
514.516	73756
514.588	37260
514.659	35012
514.730	62980
514.802	27990
514.873	15889
514.944	19437
515.016	18762
515.087	23738
515.158	46436
515.229	49765
515.301	16262
515.372	18489
515.443	15059
515.514	14682
515.585	13719
515.656	15685
515.728	15398
515.799	13385
515.870	16286
515.941	16645
516.012	16591
516.083	21329
516.154	21656
516.225	24081
516.296	22023
516.367	19223
516.438	20946
516.509	24770
516.580	37921
516.651	110682
516.722	246576
516.793	87262
516.864	40631
516.935	41418
517.006	43411
517.077	56923
517.148	118419
517.219	330739
517.289	413545
517.360	319211
517.431	76148
517.502	28706
517.573	29393
517.643	28414
517.714	31644
517.785	30635
517.856	30671
517.926	32868
517.997	33708
518.068	35140
518.138	44391
518.209	74243
518.280	260145
518.350	598818
518.421	154944
518.492	34487
518.562	34140
518.633	33743
518.703	25916
518.774	32009
518.845	40133
518.915	34269
518.986	30388
519.056	38320
519.127	61913
519.197	133673
519.268	354095
519.338	141439
519.408	41878
519.479	33825
519.549	26326
519.620	23632
519.690	20676
519.760	21594
519.831	21398
519.901	20824
519.971	21440
520.042	26343
520.112	30879
520.182	25210
520.253	26324
520.323	21564
520.393	28749
520.463	33922
520.534	36256
520.604	52136
520.674	30235
520.744	36810
520.814	56924
520.885	59581
520.955	168492
521.025	398393
521.095	88642
521.165	27363
521.235	25646
521.305	21129
521.375	19563
521.445	20755
521.515	21737
521.585	23898
521.655	21294
521.725	22851
521.795	23276
521.865	20794
521.935	43706
522.005	28639
522.075	19007
522.145	22820
522.215	30876
522.285	44211
522.355	74907
522.424	128723
522.494	76815
522.564	30928
522.634	52936
522.704	85042
522.774	30134
522.843	20248
522.913	19417
522.983	19988
523.053	17351
523.122	18754
523.192	25886
523.262	58537
523.331	40387
523.401	17261
523.471	15536
523.540	15540
523.610	12806
523.680	15669
523.749	18096
523.819	27797
523.888	22614
523.958	15408
524.027	19471
524.097	19886
524.166	17186
524.236	16338
524.305	19941
524.375	16079
524.444	14920
524.514	19639
524.583	22882
524.653	29150
524.722	28973
524.791	16705
524.861	18108
524.930	15448
524.999	16560
525.069	23766
525.138	26346
525.207	29270
525.277	19047
525.346	17124
525.415	17260
525.484	17589
525.554	25035
525.623	18931
525.692	16829
525.761	16270
525.830	14908
525.900	15832
525.969	23191
526.038	19275
526.107	15214
526.176	21107
526.245	19843
526.314	28160
526.383	26115
526.452	20718
526.522	40288
526.591	63665
526.660	42177
526.729	22047
526.797	28946
526.867	72383
526.935	212275
527.004	111775
527.073	38548
527.142	17996
527.211	15571
527.280	16490
527.349	15494
527.418	12282
527.487	14396
527.555	11906
527.624	13077
527.693	11149
527.762	14471
527.831	11111
527.899	14143
527.968	14000
528.037	13105
528.106	16885
528.174	25914
528.243	28734
528.312	45462
528.380	34249
528.449	15147
528.518	13344
528.586	10158
528.655	13110
528.723	12469
528.792	13347
528.861	15883
528.929	13050
528.998	13419
529.066	10667
529.135	11732
529.203	10476
529.272	10506
529.340	12065
529.409	13647
529.477	13370
529.545	23439
529.614	21223
529.682	29605
529.751	27324
529.819	28240
529.887	14378
529.956	13444
530.024	13497
530.092	10500
530.161	13602
530.229	16262
530.297	10118
530.365	11482
530.434	9888
530.502	9993
530.570	10229
530.638	9207
530.707	11750
530.775	13610
530.843	10778
530.911	11358
530.979	10799
531.047	11209
531.115	12143
531.183	11070
531.252	12854
531.320	13190
531.388	10714
531.456	12565
531.524	9008
531.592	12695
531.660	12829
531.728	11606
531.796	9821
531.864	11659
531.932	12205
532.000	12200
532.067	12120
532.135	12106
532.203	13938
532.271	14244
532.339	24922
532.407	43563
532.475	21996
532.542	16352
532.610	16344
532.678	25588
532.746	92790
532.814	137392
532.881	29407
532.949	13238
533.017	13021
533.084	12464
533.152	10973
533.220	12001
533.287	11045
533.355	11117
533.423	11040
533.490	10998
533.558	12382
533.625	13216
533.693	14857
533.761	14555
533.828	15551
533.896	13280
533.963	24325
534.031	25039
534.098	29756
534.166	15969
534.233	12089
534.300	14823
534.368	14868
534.435	13081
534.503	12358
534.570	12462
534.637	10430
534.705	12009
534.772	11250
534.840	10675
534.907	14368
534.974	14206
535.041	17070
535.109	21101
535.176	12172
535.243	10968
535.310	11342
535.378	10856
535.445	9621
535.512	9833
535.579	11737
535.646	10797
535.714	12857
535.781	15526
535.848	15334
535.915	17119
535.982	16362
536.049	16615
536.116	15814
536.183	14246
536.250	14577
536.317	14532
536.384	16414
536.451	20355
536.518	18710
536.585	15286
536.652	21149
536.719	23331
536.786	17018
536.853	17023
536.920	28548
536.987	34232
537.053	32442
537.120	93081
537.187	50731
537.254	13036
537.321	13056
537.388	13681
537.454	10841
537.521	11436
537.588	12288
537.654	15607
537.721	15311
537.788	14645
537.855	12261
537.921	12707
537.988	11533
538.055	13883
538.121	13987
538.188	14362
538.254	19759
538.321	29407
538.388	18636
538.454	14283
538.521	11632
538.587	11384
538.654	11308
538.720	12203
538.787	12046
538.853	15517
538.920	19912
538.986	20607
539.053	15124
539.119	15819
539.185	13436
539.252	17170
539.318	18981
539.385	17521
539.451	15425
539.517	16485
539.583	20023
539.650	44568
539.716	62617
539.782	18883
539.849	13049
539.915	14307
539.981	13768
540.047	15705
540.114	14412
540.180	15602
540.246	13443
540.312	18938
540.378	32024
540.444	28058
540.510	36948
540.576	64546
540.643	20444
540.709	11927
540.775	13223
540.841	16156
540.907	27054
540.973	32555
541.039	21577
541.105	19930
541.171	13819
541.237	13251
541.303	13566
541.369	16413
541.435	19000
541.500	26535
541.566	14894
541.632	12777
541.698	10789
541.764	12869
541.830	12997
541.896	12380
541.961	12839
542.027	12767
542.093	12749
542.159	13772
542.224	16666
542.290	23157
542.356	30084
542.421	28281
542.487	16680
542.553	17059
542.618	17931
542.684	14459
542.750	14165
542.815	17973
542.881	33526
542.947	70826
543.012	33580
543.078	12754
543.143	12383
543.209	14504
543.274	12879
543.340	17470
543.405	30925
543.471	32615
543.536	14238
543.602	15188
543.667	13398
543.732	13915
543.798	12449
543.863	14490
543.928	11722
543.994	10952
544.059	11817
544.124	12424
544.190	12073
544.255	11965
544.320	12304
544.386	12268
544.451	17334
544.516	18689
544.581	21046
544.646	53391
544.712	51466
544.777	20526
544.842	23470
544.907	23943
544.972	18339
545.037	19418
545.102	22032
545.168	21366
545.233	21406
545.298	24505
545.363	26112
545.428	25970
545.493	38836
545.558	54965
545.623	27292
545.688	20839
545.753	19615
545.818	20408
545.883	21530
545.947	20860
546.012	25893
546.077	23848
546.142	20790
546.207	19957
546.272	23938
546.337	23032
546.401	21962
546.466	21039
546.531	19548
546.596	21842
546.661	19587
546.725	20166
546.790	17795
546.855	18817
546.919	17754
546.984	20138
547.049	21673
547.113	26114
547.178	19383
547.243	23569
547.307	23990
547.372	30180
547.436	30736
547.501	18533
547.565	19801
547.630	22857
547.695	26485
547.759	39529
547.823	22310
547.888	18392
547.952	17609
548.017	21287
548.081	29635
548.146	42169
548.210	26576
548.274	16133
548.339	16249
548.403	16996
548.468	15735
548.532	17413
548.596	18524
548.660	18067
548.725	19597
548.789	28108
548.853	25272
548.917	23538
548.982	43874
549.046	32530
549.110	18785
549.174	18573
549.238	15870
549.303	14976
549.367	18121
549.431	16734
549.495	16440
549.559	16677
549.623	16378
549.687	21835
549.751	24635
549.815	19991
549.879	18937
549.943	17527
550.007	20569
550.071	20491
550.135	23431
550.199	20595
550.263	20828
550.327	30640
550.391	38663
550.455	19643
550.519	19028
550.582	19294
550.646	23741
550.710	22832
550.774	19299
550.838	20023
550.901	20419
550.965	21653
551.029	22341
551.093	27592
551.156	45589
551.220	109346
551.284	71233
551.347	52791
551.411	153895
551.475	95361
551.538	21123
551.602	18793
551.666	18026
551.729	16532
551.793	17409
551.856	18270
551.920	18519
551.983	18292
552.047	16909
552.110	16485
552.174	16024
552.237	17045
552.301	16190
552.364	18033
552.428	17415
552.491	15860
552.554	16661
552.618	18146
552.681	18626
552.745	19511
552.808	26146
552.871	27867
552.934	19483
552.998	20729
553.061	21296
553.124	18214
553.187	18243
553.251	19795
553.314	21080
553.377	21984
553.440	35510
553.503	99197
553.567	99247
553.630	22415
553.693	18490
553.756	17396
553.819	15871
553.882	17629
553.945	16061
554.008	14878
554.071	15023
554.134	16297
554.197	14935
554.260	13946
554.323	16789
554.386	17266
554.449	15296
554.512	16748
554.575	15279
554.638	17806
554.701	14211
554.764	15412
554.827	15416
554.889	15700
554.952	13976
555.015	14070
555.078	15058
555.141	15606
555.203	13573
555.266	16044
555.329	15778
555.391	14974
555.454	14757
555.517	16225
555.580	14726
555.642	13748
555.705	15281
555.768	15978
555.830	14217
555.893	14798
555.955	14198
556.018	15489
556.080	14664
556.143	13778
556.206	15691
556.268	17458
556.330	16839
556.393	16877
556.455	21835
556.518	38447
556.580	26228
556.643	15311
556.705	14799
556.767	15682
556.830	15576
556.892	18052
556.955	21335
557.017	16880
557.079	15095
557.142	14941
557.204	18294
557.266	30724
557.328	21829
557.391	15489
557.453	14427
557.515	16915
557.577	19411
557.639	16151
557.701	14680
557.764	13731
557.826	15138
557.888	17975
557.950	14236
558.012	15019
558.074	14975
558.136	16873
558.198	18178
558.260	18494
558.322	16020
558.384	16171
558.446	15242
558.508	18303
558.570	20627
558.632	31632
558.694	32309
558.756	18938
558.818	25160
558.880	33547
558.942	17971
559.003	17071
559.065	13010
559.127	14665
559.189	13826
559.251	14312
559.312	13998
559.374	19366
559.436	27923
559.498	18286
559.559	14880
559.621	16446
559.683	19908
559.744	34016
559.806	40567
559.868	32804
559.929	23703
559.991	23327
560.052	21953
560.114	23992
560.176	20773
560.237	23281
560.299	23034
560.360	20188
560.422	21496
560.483	22669
560.545	20870
560.606	22549
560.667	20558
560.729	20785
560.790	19692
560.852	21263
560.913	20601
560.974	20716
561.036	19431
561.097	20825
561.158	19002
561.220	21613
561.281	19878
561.342	21011
561.403	23706
561.465	27730
561.526	46469
561.587	44207
561.648	22603
561.709	21158
561.771	20928
561.832	20622
561.893	20029
561.954	20194
562.015	19740
562.076	20840
562.137	20326
562.198	20358
562.259	20637
562.320	21477
562.381	22037
562.442	25211
562.503	19913
562.564	19257
562.625	18800
562.686	20302
562.747	19928
562.808	21307
562.869	24873
562.930	31224
562.991	26512
563.051	24598
563.112	22150
563.173	22732
563.234	21130
563.294	21785
563.355	21333
563.416	20702
563.477	21233
563.537	23899
563.598	24632
563.659	23610
563.720	22972
563.780	23829
563.841	22141
563.901	22225
563.962	21852
564.023	22446
564.083	22750
564.144	23388
564.204	22942
564.265	25951
564.325	36300
564.386	70634
564.446	40605
564.507	21583
564.567	20647
564.628	21002
564.688	20796
564.749	21563
564.809	28931
564.869	30877
564.930	20647
564.990	19916
565.050	18730
565.111	19516
565.171	19322
565.231	19098
565.292	18872
565.352	19314
565.412	20376
565.472	21341
565.532	20011
565.593	19724
565.653	18623
565.713	20073
565.773	20503
565.833	22182
565.893	22660
565.953	19142
566.013	21466
566.074	25195
566.134	38420
566.194	60192
566.254	44009
566.314	27750
566.374	21252
566.434	22704
566.494	20237
566.554	20199
566.614	19805
566.673	21057
566.733	21395
566.793	22840
566.853	22822
566.913	22351
566.973	21995
567.033	22261
567.092	21752
567.152	22936
567.212	22642
567.272	23596
567.331	24321
567.391	23226
567.451	28167
567.511	43475
567.570	32071
567.630	20445
567.690	20357
567.749	20014
567.809	18644
567.868	22876
567.928	24068
567.988	26325
568.047	21401
568.107	22080
568.166	23818
568.226	29415
568.285	34244
568.345	29312
568.404	26696
568.464	24756
568.523	23768
568.582	24799
568.642	25478
568.701	28851
568.761	36604
568.820	46445
568.879	48660
568.939	47123
568.998	31319
569.057	24884
569.116	22694
569.176	21370
569.235	19939
569.294	20844
569.353	18756
569.413	22319
569.472	21160
569.531	18819
569.590	19167
569.649	18311
569.708	17602
569.767	20291
569.827	21409
569.886	18398
569.945	17465
570.004	18488
570.063	18564
570.122	19876
570.181	22152
570.240	26562
570.299	23087
570.358	20069
570.417	17566
570.475	17568
570.534	18380
570.593	18769
570.652	18657
570.711	19855
570.770	20097
570.829	22770
570.887	18851
570.946	18866
571.005	16314
571.064	18249
571.122	20661
571.181	23977
571.240	18021
571.299	19244
571.357	22501
571.416	22458
571.475	27565
571.533	24497
571.592	20838
571.650	20308
571.709	17283
571.768	17170
571.826	17058
571.885	15968
571.943	16462
572.002	19630
572.060	18925
572.119	15640
572.177	15333
572.236	15532
572.294	15149
572.352	15437
572.411	15690
572.469	15168
572.528	14261
572.586	16186
572.644	17093
572.703	18902
572.761	16496
572.819	17457
572.877	15991
572.936	14960
572.994	15241
573.052	14733
573.110	16085
573.169	15194
573.227	14345
573.285	16015
573.343	14920
573.401	15351
573.459	14272
573.517	15478
573.576	14066
573.634	15297
573.692	14339
573.750	15386
573.808	16191
573.866	19283
573.924	26758
573.982	22986
574.040	15821
574.098	15881
574.155	13954
574.213	14741
574.271	13943
574.329	14123
574.387	13218
574.445	13534
574.503	13733
574.560	12415
574.618	12693
574.676	13213
574.734	12660
574.792	12617
574.849	12810
574.907	12362
574.965	12994
575.022	12361
575.080	12489
575.138	14053
575.195	13273
575.253	14996
575.311	13273
575.368	14144
575.426	12081
575.483	13733
575.541	13245
575.598	14560
575.656	14510
575.713	14282
575.771	13345
575.828	12902
575.886	14084
575.943	16191
576.001	16232
576.058	16557
576.115	18852
576.173	23181
576.230	23312
576.287	20506
576.345	17948
576.402	17054
576.459	17823
576.517	18398
576.574	21727
576.631	22194
576.688	17836
576.746	15897
576.803	16980
576.860	15960
576.917	16510
576.974	15458
577.031	15626
577.089	16585
577.146	17133
577.203	16591
577.260	18173
577.317	20950
577.374	23482
577.431	20686
577.488	16362
577.545	14969
577.602	15304
577.659	15289
577.716	15912
577.773	17453
577.830	15034
577.886	16386
577.943	14881
578.000	15671
578.057	16761
578.114	18089
578.171	17412
578.227	20461
578.284	19523
578.341	18424
578.398	17350
578.454	19344
578.511	23181
578.568	24488
578.625	17890
578.681	15532
578.738	13937
578.794	16116
578.851	13681
578.908	15034
578.964	14458
579.021	15074
579.077	14604
579.134	14711
579.190	13185
579.247	14126
579.303	14326
579.360	12731
579.416	12498
579.473	13021
579.529	12539
579.586	14109
579.642	13974
579.698	15994
579.755	14920
579.811	15071
579.867	14513
579.924	14704
579.980	15324
580.036	17589
580.093	20106
580.149	27414
580.205	26421
580.261	22244
580.317	20729
580.374	21834
580.430	22626
580.486	19115
580.542	15746
580.598	15595
580.619	15404
580.654	15085
580.692	14733
580.710	14586
580.765	13928
580.767	13921
580.823	15449
580.838	14996
580.879	13833
580.911	14375
580.935	14801
580.984	14395
580.991	14357
581.047	15056
581.057	15158
581.103	15679
581.130	16703
581.159	17809
581.203	19039
581.215	19367
581.270	18192
581.276	18075
581.326	17152
581.349	16688
581.382	16026
581.422	16196
581.438	16284
581.494	17709
581.494	17684
581.550	15989
581.567	16096
581.606	16382
581.640	15756
581.661	15406
581.713	16388
581.717	16475
581.773	15849
581.786	15973
581.829	16374
581.859	15749
581.885	15266
581.932	16477
581.940	16705
581.996	15509
582.004	15479
582.052	15242
582.077	15116
582.107	15066
582.150	16053
582.163	16341
582.219	15649
582.223	15668
582.274	16020
582.296	16836
582.330	18107
582.368	17248
582.386	16880
582.441	15421
582.441	15422
582.497	15049
582.514	15288
582.552	15859
582.587	16224
582.608	16425
582.659	15942
582.663	15904
582.719	16019
582.732	15814
582.774	15254
582.805	15571
582.830	15839
582.877	15280
582.885	15172
582.941	15728
582.950	15732
582.996	15748
583.023	16455
583.052	17585
583.095	18294
583.107	18414
583.162	21508
583.168	21531
583.218	21685
583.240	20637
583.273	18700
583.313	17315
583.328	16954
583.384	17065
583.385	17032
583.439	15748
583.458	15393
583.494	14825
583.531	14780
583.549	14815
583.603	15802
583.605	15832
583.660	15014
583.676	15116
583.715	15482
583.748	15618
583.770	15714
583.820	16751
583.825	16811
583.881	15433
583.893	15558
583.936	16242
583.965	15598
583.991	15039
584.038	15601
584.046	15715
584.101	15280
584.110	15380
584.156	15744
584.183	15593
584.211	15372
584.255	14980
584.266	14876
584.321	14773
584.328	14842
584.376	15788
584.400	15901
584.431	15867
584.472	15553
584.486	15410
584.541	14840
584.545	14864
584.596	15264
584.617	15349
584.651	16041
584.689	17193
584.706	17437
584.761	16578
584.762	16574
584.816	16436
584.834	16518
584.871	16733
584.906	16993
584.926	17027
584.978	16702
584.980	16707
585.035	17366
585.051	17695
585.090	18640
585.123	18714
585.145	18520
585.195	18567
585.200	18643
585.254	19341
585.267	19926
585.309	22052
585.340	23346
585.364	23811
585.412	20249
585.419	19657
585.473	19447
585.484	19164
585.528	19135
585.556	19838
585.583	20322
585.628	19854
585.637	19975
585.692	22077
585.700	22353
585.747	22874
585.772	22182
585.801	20893
585.845	19353
585.856	19101
585.910	19168
585.917	19080
585.965	18911
585.989	19093
586.019	19524
586.061	19964
586.074	20004
586.128	20768
586.133	20832
586.183	22029
586.205	22466
586.237	23213
586.277	23805
586.292	23844
586.346	23649
586.349	23666
586.401	24015
586.421	24557
586.455	26530
586.493	30166
586.509	33334
586.564	48404
586.565	48975
586.618	78799
586.637	75586
586.672	51717
586.709	34614
586.727	29418
586.781	23816
586.781	23827
586.835	22995
586.853	23002
586.889	22898
586.925	22034
586.944	21917
586.996	23751
586.998	23806
587.052	23863
587.068	23930
587.106	24254
587.140	24507
587.161	24461
587.212	24850
587.215	24951
587.269	25890
587.284	26201
587.323	26184
587.356	26044
587.377	26175
587.427	26736
587.431	26769
587.485	27116
587.499	27015
587.539	27687
587.571	28516
587.593	28780
587.643	29314
587.648	29470
587.702	30937
587.715	31355
587.755	32815
587.786	33548
587.810	33469
587.858	33212
587.864	33449
587.917	36171
587.930	36971
587.971	40185
588.001	41767
588.025	42559
588.073	43292
588.079	43542
588.133	46326
588.145	47117
588.187	50485
588.217	52625
588.241	55663
588.288	61750
588.295	62673
588.348	69771
588.360	71462
588.402	80328
588.431	86239
588.456	91541
588.503	102954
588.510	105247
588.564	123523
588.575	127814
588.617	149922
588.646	166385
588.671	186944
588.718	232508
588.725	245699
588.778	358864
588.789	386494
588.832	599443
588.861	760232
588.886	966742
588.932	1361654
588.939	1383887
588.993	1429320
589.004	1419334
589.047	1056224
589.075	809764
589.100	634720
589.147	352990
589.154	339701
589.207	248750
589.218	231452
589.261	218237
589.290	211928
589.314	222919
589.361	250442
589.368	263773
589.421	384438
589.433	414114
589.475	676895
589.504	878228
589.528	1051651
589.576	1328771
589.582	1297393
589.635	891872
589.647	805735
589.689	479476
589.718	270383
589.742	224784
589.790	142792
589.795	140252
589.849	117867
589.861	113474
589.902	109994
589.932	102114
589.955	89287
590.004	64922
590.009	64157
590.062	56884
590.075	55014
590.115	51659
590.146	49171
590.168	48513
590.218	46606
590.222	46522
590.275	45061
590.289	44516
590.328	43684
590.360	42702
590.381	41899
590.431	40028
590.435	39988
590.488	38390
590.503	37948
590.541	38058
590.574	37777
590.594	37210
590.645	35772
590.647	35807
590.700	35244
590.716	35027
590.753	34355
590.787	33775
590.806	33782
590.859	33570
590.859	33610
590.912	32698
590.930	32383
590.965	32801
591.001	33199
591.018	32871
591.071	31600
591.072	31536
591.124	31621
591.143	31549
591.177	31667
591.214	31757
591.230	32128
591.283	33285
591.285	33273
591.336	33561
591.356	33653
591.389	33644
591.427	33276
591.442	32808
591.495	31202
591.498	31022
591.547	31756
591.569	32053
591.600	31503
591.640	30691
591.653	30780
591.706	31061
591.711	31043
591.759	33327
591.782	34609
591.811	37018
591.853	39917
591.864	38719
591.917	32294
591.924	31346
591.969	32020
591.995	32418
592.022	32552
592.066	32555
592.075	33289
592.127	37703
592.137	38516
592.180	43363
592.208	46073
592.233	41966
592.279	34030
592.285	33694
592.338	30638
592.350	29886
592.390	29933
592.421	29904
592.443	29646
592.491	28952
592.495	29065
592.548	30049
592.562	30281
592.600	30159
592.633	29970
592.653	29861
592.704	29314
592.705	29495
592.775	30175
592.846	29624
592.916	29891
592.987	31044
593.058	30080
593.128	29424
593.199	28967
593.270	27612
593.341	27033
593.411	27478
593.482	27651
593.553	28293
593.623	27046
593.694	29091
593.764	31689
593.835	28719
593.906	27206
593.976	27297
594.047	29390
594.117	36661
594.188	37131
594.258	26897
594.329	25107
594.399	26162
594.470	24723
594.540	26105
594.611	25382
594.681	25581
594.751	25805
594.822	28642
594.892	29783
594.963	30133
595.033	28959
595.103	30144
595.174	32292
595.244	49832
595.314	63016
595.384	30573
595.455	27591
595.525	28316
595.595	27103
595.665	28787
595.736	27910
595.806	27101
595.876	26166
595.946	25877
596.016	25248
596.087	25776
596.157	26634
596.227	26446
596.297	27266
596.367	26588
596.437	31232
596.507	44134
596.577	57087
596.647	31337
596.717	25411
596.787	26149
596.857	26004
596.927	24861
596.997	26171
597.067	25862
597.137	28428
597.207	27664
597.277	26776
597.347	26594
597.417	25715
597.487	25693
597.557	27911
597.626	27850
597.696	30197
597.766	39382
597.836	54620
597.906	32784
597.975	25792
598.045	24910
598.115	24809
598.185	24913
598.254	25361
598.324	26338
598.394	25795
598.464	25586
598.533	24360
598.603	23910
598.672	24355
598.742	24403
598.812	24290
598.881	23998
598.951	22835
599.020	22861
599.090	22803
599.159	23089
599.229	21884
599.299	21749
599.368	22098
599.437	21483
599.507	22660
599.576	24790
599.646	25241
599.715	25471
599.785	24249
599.854	27649
599.924	29858
599.993	27951
600.062	23344
600.132	23425
600.201	23489
600.270	24983
600.340	23144
600.409	22357
600.478	23070
600.547	21631
600.617	23921
600.686	23580
600.755	22835
600.824	23668
600.894	23855
600.963	22643
601.032	21375
601.101	22500
601.170	22156
601.239	22093
601.308	23245
601.378	22666
601.447	22053
601.516	20672
601.585	22043
601.654	22865
601.723	22244
601.792	23089
601.861	22779
601.930	25302
601.999	23307
602.068	20953
602.137	23124
602.206	22600
602.275	21556
602.343	23441
602.412	24349
602.481	20912
602.550	20023
602.619	20331
602.688	20597
602.756	20716
602.825	19935
602.894	19994
602.963	20162
603.032	21559
603.100	19541
603.169	19980
603.238	20402
603.307	20048
603.375	18422
603.444	19364
603.513	19230
603.581	19474
603.650	19252
603.719	18585
603.787	19153
603.856	19143
603.924	18365
603.993	18940
604.061	17422
604.130	19276
604.198	19773
604.267	18537
604.335	17756
604.404	18021
604.472	17072
604.541	18484
604.609	17359
604.678	17520
604.746	17161
604.815	18771
604.883	17624
604.951	18502
605.020	16974
605.088	18988
605.156	19432
605.225	17923
605.293	17351
605.361	19353
605.429	17726
605.498	18171
605.566	18529
605.634	17777
605.702	18289
605.771	18813
605.839	17534
605.907	18288
605.975	19275
606.043	18142
606.111	18052
606.180	18470
606.248	21205
606.316	24070
606.384	20140
606.452	26565
606.520	22513
606.588	18936
606.656	16394
606.724	17481
606.792	16445
606.860	15871
606.928	14705
606.996	15990
607.064	14648
607.132	16185
607.200	15630
607.267	16338
607.335	15269
607.403	15871
607.471	16006
607.539	16100
607.607	15208
607.674	16249
607.742	17023
607.810	17132
607.878	15646
607.946	15290
608.013	17091
608.081	16692
608.149	15985
608.216	15344
608.284	16541
608.352	16519
608.419	18834
608.487	30721
608.555	21665
608.622	15470
608.690	14862
608.757	15198
608.825	16134
608.893	16901
608.960	18782
609.028	24413
609.095	34337
609.163	20591
609.230	17763
609.298	17582
609.365	13797
609.432	15493
609.500	16185
609.567	15652
609.635	16239
609.702	15899
609.769	17525
609.837	22178
609.904	18966
609.971	15976
610.039	19138
610.106	22684
610.173	31857
610.241	58599
610.308	100314
610.375	75991
610.442	25072
610.509	16941
610.577	16730
610.644	16905
610.711	15966
610.778	16607
610.845	15316
610.912	16228
610.980	18221
611.047	24791
611.114	19318
611.181	14920
611.248	13425
611.315	16771
611.382	14551
611.449	14297
611.516	14848
611.583	15678
611.650	14615
611.717	15125
611.784	13854
611.851	15324
611.918	16453
611.984	16407
612.051	18629
612.118	24355
612.185	37029
612.252	29229
612.319	15569
612.386	15520
612.452	15764
612.519	20311
612.586	35094
612.653	22701
612.719	14958
612.786	14539
612.853	13981
612.919	13790
612.986	13513
613.053	13369
613.120	13088
613.186	12319
613.253	14488
613.319	13621
613.386	12668
613.453	14289
613.519	14217
613.586	18522
613.652	24904
613.719	20794
613.785	17854
613.852	14451
613.918	14385
613.985	18058
614.051	28628
614.118	61655
614.184	60923
614.250	17301
614.317	13426
614.383	12790
614.449	12416
614.516	13446
614.582	15082
614.648	13354
614.715	12885
614.781	13739
614.847	15281
614.914	16981
614.980	15156
615.046	14628
615.112	13713
615.179	13805
615.245	13436
615.311	15191
615.377	18349
615.443	20186
615.509	16365
615.575	15962
615.642	14545
615.708	16611
615.774	16939
615.840	20835
615.906	23129
615.972	25464
616.038	33370
616.104	42982
616.170	57295
616.236	48939
616.302	25339
616.368	21530
616.434	20643
616.500	21489
616.565	20976
616.631	20609
616.697	19766
616.763	19324
616.829	20512
616.895	25026
616.961	24244
617.026	20275
617.092	18769
617.158	19546
617.224	18723
617.289	18608
617.355	20158
617.421	22443
617.487	22247
617.552	19337
617.618	18415
617.684	18829
617.749	20359
617.815	18475
617.880	18724
617.946	19042
618.012	18996
618.077	18884
618.143	18793
618.208	19480
618.274	20037
618.339	20692
618.405	20226
618.470	21471
618.536	22029
618.601	27618
618.667	25520
618.732	23147
618.798	22442
618.863	22602
618.928	21931
618.994	24701
619.059	25300
619.124	31082
619.190	25822
619.255	23172
619.320	24317
619.386	22337
619.451	20235
619.516	22612
619.581	22651
619.647	22268
619.712	21963
619.777	22237
619.842	22094
619.907	21944
619.972	22783
620.038	22224
620.103	21501
620.168	21072
620.233	21066
620.298	20508
620.363	20768
620.428	20829
620.493	21142
620.558	21769
620.623	19763
620.688	20724
620.753	20727
620.818	20703
620.883	20507
620.948	20889
621.013	21750
621.078	21451
621.143	22163
621.207	25676
621.272	23980
621.337	25649
621.402	29228
621.467	40352
621.532	42167
621.596	30413
621.661	28236
621.726	26175
621.791	27418
621.855	27651
621.920	29662
621.985	32753
622.049	37838
622.114	34808
622.179	31260
622.243	32798
622.308	31353
622.373	32364
622.437	30429
622.502	29274
622.566	29940
622.631	30412
622.695	30519
622.760	30852
622.824	28182
622.889	29040
622.953	31092
623.018	35917
623.082	35768
623.147	28700
623.211	27305
623.276	28171
623.340	26197
623.404	26767
623.469	26999
623.533	27132
623.597	25515
623.662	25984
623.726	25671
623.790	26794
623.854	27279
623.919	27431
623.983	26104
624.047	27393
624.111	26195
624.176	26378
624.240	27382
624.304	29765
624.368	25950
624.432	26065
624.496	26346
624.560	26344
624.625	27102
624.689	26771
624.753	24109
624.817	25202
624.881	23772
624.945	24435
625.009	24576
625.073	23725
625.137	24939
625.201	28405
625.265	28219
625.329	25094
625.393	25232
625.456	26090
625.520	26878
625.584	30472
625.648	38593
625.712	63718
625.776	150992
625.839	175077
625.903	66659
625.967	34032
626.031	59205
626.095	95721
626.158	33477
626.222	23284
626.286	22527
626.349	21330
626.413	20756
626.477	23829
626.540	21444
626.604	22439
626.668	23038
626.731	21325
626.795	23705
626.858	23931
626.922	21076
626.986	21570
627.049	18543
627.113	20866
627.176	20392
627.240	20584
627.303	19877
627.366	20710
627.430	20016
627.493	21798
627.557	22017
627.620	22177
627.684	21302
627.747	22835
627.810	18818
627.874	21016
627.937	19362
628.000	22413
628.064	20951
628.127	18843
628.190	20130
628.253	21649
628.317	19749
628.380	20057
628.443	18452
628.506	20500
628.569	19644
628.632	19197
628.696	18045
628.759	18880
628.822	16750
628.885	17441
628.948	18215
629.011	19171
629.074	17610
629.137	18102
629.200	17657
629.263	19998
629.326	17043
629.389	17123
629.452	17703
629.515	19443
629.578	17877
629.641	19814
629.704	18940
629.767	18463
629.830	17127
629.892	18193
629.955	16365
630.018	18213
630.081	17319
630.144	20692
630.207	17837
630.269	21472
630.332	21019
630.395	19271
630.458	15971
630.520	16025
630.583	16384
630.646	15316
630.708	15759
630.771	15590
630.834	15469
630.896	14282
630.959	14876
631.021	15801
631.084	15947
631.146	18500
631.209	21675
631.272	15345
631.334	14756
631.397	14604
631.459	13112
631.522	15165
631.584	13892
631.646	15371
631.709	15981
631.771	18014
631.834	16157
631.896	15250
631.958	12901
632.021	15439
632.083	13624
632.145	15428
632.208	14387
632.270	15065
632.332	13568
632.395	13614
632.457	15043
632.519	14246
632.581	14842
632.643	12612
632.706	13790
632.768	13317
632.830	14207
632.892	12577
632.954	12894
633.016	14951
633.078	12914
633.141	12944
633.203	13446
633.265	13681
633.327	12465
633.389	13010
633.451	15320
633.513	15721
633.575	17934
633.637	16125
633.698	13134
633.760	12809
633.822	13692
633.884	13122
633.946	12626
634.008	12877
634.070	13312
634.132	14387
634.193	13391
634.255	12179
634.317	11345
634.379	11958
634.441	11775
634.502	11962
634.564	11879
634.626	12861
634.687	13115
634.749	13624
634.811	12059
634.873	10154
634.934	10984
634.996	12957
635.057	11491
635.119	11423
635.181	12359
635.242	12000
635.304	10303
635.365	13261
635.427	10592
635.488	10857
635.550	10018
635.611	11259
635.673	9152
635.734	12889
635.796	11752
635.857	12733
635.918	9841
635.980	12124
636.041	10509
636.102	11605
636.164	10430
636.225	11511
636.286	10038
636.348	11718
636.409	10067
636.470	10933
636.531	11432
636.593	14413
636.654	13018
636.715	10292
636.776	10164
636.838	8976
636.899	11205
636.960	10693
637.021	9475
637.082	10643
637.143	10383
637.204	8947
637.265	9594
637.326	10828
637.387	9272
637.448	8896
637.509	9792
637.570	9982
637.631	9837
637.692	9088
637.753	8526
637.814	8745
637.875	9324
637.936	10068
637.997	8939
638.058	9620
638.119	11443
638.179	9246
638.240	9245
638.301	10755
638.362	9465
638.423	10132
638.483	10456
638.544	9374
638.605	9379
638.666	7805
638.726	9431
638.787	9278
638.848	8226
638.908	9346
638.969	9647
639.030	9498
639.090	7308
639.151	8664
639.211	9564
639.272	11132
639.332	14690
639.393	11690
639.453	8075
639.514	9119
639.574	8109
639.635	8338
639.695	9333
639.756	8379
639.816	8705
639.877	9707
639.937	14171
639.997	15971
640.058	9025
640.118	8171
640.178	9317
640.239	8157
640.299	8391
640.359	6936
640.420	7724
640.480	7803
640.540	7840
640.600	7826
640.661	8666
640.721	7386
640.781	10911
640.841	7981
640.901	9211
640.961	9207
641.021	8982
641.082	8086
641.142	11259
641.202	9926
641.262	6460
641.322	9312
641.382	7038
641.442	8782
641.502	8660
641.562	8082
641.622	7236
641.682	8213
641.742	7957
641.802	8710
641.861	9414
641.921	8598
641.981	10131
642.041	9370
642.101	10811
642.161	8373
642.221	7613
642.280	7314
642.340	7479
642.400	7181
642.460	8404
642.519	7682
642.579	7242
642.639	8691
642.698	6380
642.758	9368
642.818	8166
642.877	7926
642.937	7236
642.997	9463
643.056	10875
643.116	7248
643.175	8367
643.235	7511
643.294	6911
643.354	7700
643.414	7875
643.473	7656
643.532	6505
643.592	7381
643.651	7710
643.711	9694
643.770	11368
643.830	17167
643.889	32693
643.948	13087
644.008	7388
644.067	6136
644.126	6365
644.186	6270
644.245	7366
644.304	5197
644.363	7637
644.423	5266
644.482	6952
644.541	7162
644.600	5279
644.659	7907
644.719	6906
644.778	8311
644.837	7217
644.896	9360
644.955	11486
645.014	8553
645.073	8379
645.132	7499
645.191	8339
645.250	5957
645.309	7377
645.368	7103
645.427	6730
645.486	6278
645.545	7938
645.604	6180
645.663	7031
645.722	5856
645.781	7211
645.840	6571
645.898	6137
645.957	7943
646.016	5446
646.075	8154
646.134	9542
646.192	17134
646.251	22781
646.310	7938
646.369	5907
646.427	7013
646.486	5120
646.545	6118
646.603	6358
646.662	6232
646.721	6591
646.779	5499
646.838	4205
646.896	5612
646.955	5865
647.014	6876
647.072	5669
647.131	8752
647.189	5981
647.248	5356
647.306	6289
647.365	6893
647.423	4413
647.481	7636
647.540	4507
647.598	5950
647.657	5443
647.715	7164
647.773	5318
647.832	7433
647.890	4613
647.948	5834
648.007	6827
648.065	5373
648.123	5437
648.181	7411
648.240	7338
648.298	6683
648.356	6845
648.414	7159
648.472	6519
648.531	6335
648.589	6485
648.647	6680
648.705	5675
648.763	6677
648.821	6130
648.879	6373
648.937	5537
648.995	6191
649.053	5456
649.111	6600
649.169	7117
649.227	8128
649.285	8526
649.343	15756
649.401	12949
649.459	17434
649.516	15511
649.574	13324
649.632	26584
649.690	33481
649.748	12982
649.806	10886
649.863	15668
649.921	9497
649.979	5960
650.037	6330
650.094	5044
650.152	6046
650.210	4714
650.268	6489
650.325	5649
650.383	5071
650.440	5086
650.498	6254
650.556	5302
650.613	5425
650.671	5539
650.728	6088
650.786	6641
650.843	5191
650.901	3564
650.958	5212
651.016	5086
651.073	5224
651.131	4461
651.188	5261
651.246	5866
651.303	5236
651.360	5381
651.418	5442
651.475	5324
651.532	4259
651.590	5511
651.647	4431
651.704	5333
651.762	5519
651.819	5059
651.876	5311
651.933	4629
651.990	5558
652.048	3354
652.105	4566
652.162	4938
652.219	4539
652.276	3829
652.333	5004
652.390	3967
652.448	5091
652.505	4002
652.562	5253
652.619	5008
652.676	8080
652.733	8706
652.790	4332
652.847	4087
652.904	4909
652.961	2792
653.017	4232
653.074	5038
653.131	5648
653.188	3286
653.245	5149
653.302	4021
653.359	3517
653.415	4860
653.472	3879
653.529	4963
653.586	4562
653.642	4434
653.699	4332
653.756	3238
653.813	4054
653.869	4963
653.926	3388
653.983	3729
654.039	4640
654.096	2943
654.152	5829
654.209	4116
654.266	5315
654.322	5015
654.379	6330
654.435	6026
654.492	6801
654.548	8787
654.605	12761
654.661	7973
654.717	5542
654.774	5676
654.830	5436
654.887	5225
654.943	5915
655.000	5656
655.056	4904
655.112	5867
655.168	4594
655.225	5453
655.281	7561
655.337	8647
655.394	16548
655.450	11300
655.506	10112
655.562	15634
655.618	14608
655.675	5085
655.731	5514
655.787	4321
655.843	6481
655.899	4564
655.955	6165
656.011	5281
656.067	4637
656.123	6455
656.179	6257
656.235	7862
656.291	5343
656.347	6556
656.403	6370
656.459	6647
656.515	7004
656.571	7675
656.627	5903
656.683	5081
656.739	6413
656.795	5534
656.850	6520
656.906	6557
656.962	6112
657.018	3649
657.074	4666
657.129	5116
657.185	5418
657.241	4330
657.297	4893
657.352	4424
657.408	4050
657.464	5591
657.519	5838
657.575	3773
657.630	5048
657.686	4692
657.742	4436
657.797	4337
657.853	5152
657.908	6207
657.964	3708
658.019	3697
658.075	5497
658.130	5190
658.186	3952
658.241	3583
658.297	4149
658.352	3894
658.407	4761
658.463	3188
658.518	4725
658.573	4974
658.629	3904
658.684	3620
658.739	5102
658.795	2827
658.850	4275
658.905	3926
658.960	4267
659.016	3005
659.071	4176
659.126	3795
659.181	5341
659.236	7653
659.291	7002
659.346	4846
659.401	5487
659.457	6544
659.512	7239
659.567	7196
659.622	4940
659.677	5109
659.732	4587
659.787	5051
659.842	5944
659.897	8731
659.952	5644
660.007	4457
660.061	4597
660.116	3918
660.171	3820
660.226	3798
660.281	4608
660.336	2640
660.391	5170
660.445	3747
660.500	5001
660.555	4149
660.610	4430
660.664	4778
660.719	4073
660.774	4623
660.828	4068
660.883	4396
660.938	5835
660.992	3463
661.047	5149
661.101	4192
661.156	3677
661.211	3477
661.265	4202
661.320	4110
661.374	4901
661.429	4657
661.483	4824
661.538	3070
661.592	4366
661.647	4225
661.701	5267
661.755	3689
661.810	5731
661.864	4799
661.919	3930
661.973	5093
662.027	4870
662.081	3851
662.136	4094
662.190	5133
662.244	5723
662.299	4757
662.353	5176
662.407	4268
662.461	4966
662.515	5305
662.569	4634
662.624	5693
662.678	4080
662.732	4935
662.786	4881
662.840	4523
662.894	4969
662.948	4137
663.002	4908
663.056	4412
663.110	4195
663.164	4100
663.218	3503
663.272	3751
663.326	4695
663.380	5601
663.434	5524
663.488	4695
663.542	5669
663.595	4457
663.649	4609
663.703	4939
663.757	4548
663.811	4395
663.864	4969
663.918	4241
663.972	4818
664.026	4163
664.079	4788
664.133	5002
664.187	4383
664.240	3751
664.294	4920
664.348	4426
664.401	5103
664.455	4076
664.508	4287
664.562	4044
664.615	4535
664.669	4106
664.722	4534
664.776	5013
664.829	5724
664.883	4480
664.936	5251
664.990	5252
665.043	6426
665.097	5791
665.150	7457
665.203	5126
665.257	5123
665.310	5438
665.363	5168
665.417	5059
665.470	6196
665.523	5489
665.576	6146
665.630	5042
665.683	5519
665.736	5615
665.789	5227
665.842	5063
665.895	5610
665.949	4950
666.002	5202
666.055	5426
666.108	6328
666.161	5156
666.214	5966
666.267	6054
666.320	6159
666.373	5538
666.426	5044
666.479	5351
666.532	6214
666.585	7386
666.638	8202
666.691	6993
666.744	8745
666.796	6846
666.849	6360
666.902	5947
666.955	4863
667.008	4478
667.060	4895
667.113	3805
667.166	5041
667.219	4464
667.271	4734
667.324	4580
667.377	5430
667.430	3938
667.482	6129
667.535	5116
667.587	5000
667.640	5842
667.693	6802
667.745	7582
667.798	8863
667.850	6441
667.903	5539
667.955	5412
668.008	5501
668.060	6746
668.113	6681
668.165	6248
668.218	7210
668.270	6488
668.322	6085
668.375	5799
668.427	7795
668.479	5391
668.532	6360
668.584	6532
668.636	6497
668.689	6868
668.741	5872
668.793	6229
668.845	6542
668.898	5990
668.950	5911
669.002	6081
669.054	5853
669.106	6637
669.158	7256
669.211	5643
669.263	7105
669.315	7521
669.367	7932
669.419	6617
669.471	7777
669.523	8173
669.575	10033
669.627	7990
669.679	6951
669.731	6541
669.783	7600
669.835	7950
669.886	7672
669.938	7194
669.990	6026
670.042	6150
670.094	6240
670.146	7317
670.197	8079
670.249	8892
670.301	10545
670.353	13730
670.404	18092
670.456	24273
670.508	37685
670.560	59132
670.611	97602
670.663	163727
670.715	365650
670.766	580209
670.818	219086
670.869	42532
670.921	21974
670.972	15651
671.024	12313
671.075	10854
671.127	10174
671.178	8188
671.230	8070
671.281	6965
671.333	7195
671.384	7484
671.436	8194
671.487	8911
671.538	8238
671.590	7412
671.641	8381
671.692	8658
671.744	9301
671.795	8472
671.846	7476
671.897	6773
671.949	7793
672.000	6350
672.051	6859
672.102	7173
672.153	6615
672.204	6584
672.256	6717
672.307	7011
672.358	7522
672.409	6599
672.460	6217
672.511	5648
672.562	6575
672.613	5956
672.664	6970
672.715	6096
672.766	7114
672.817	6302
672.868	5883
672.919	6445
672.970	6890
673.021	5908
673.071	5951
673.122	6148
673.173	6266
673.224	6142
673.275	5915
673.326	5017
673.376	6220
673.427	5774
673.478	5594
673.528	6328
673.579	5282
673.630	4660
673.680	6310
673.731	4695
673.782	5350
673.832	5135
673.883	6624
673.934	5764
673.984	5909
674.035	5103
674.085	6076
674.136	6301
674.186	6828
674.237	7774
674.287	12514
674.338	8451
674.388	5961
674.438	4551
674.489	6680
674.539	6079
674.589	6333
674.640	5756
674.690	5784
674.740	6054
674.791	6776
674.841	6097
674.891	6810
674.942	5179
674.992	6255
675.042	5680
675.092	5540
675.142	5397
675.193	5664
675.243	5166
675.293	5843
675.343	5390
675.393	5677
675.443	5839
675.493	5657
675.543	4971
675.593	5991
675.643	5246
675.693	5862
675.743	5598
675.793	5257
675.843	5003
675.893	6086
675.943	4989
675.993	5486
676.043	5733
676.093	5488
676.142	4910
676.192	5639
676.242	4756
676.292	5402
676.341	4576
676.391	5698
676.441	4232
676.491	4683
676.540	3826
676.590	5233
676.640	4074
676.689	5548
676.739	4631
676.789	4245
676.838	4643
676.888	5343
676.937	4771
676.987	3974
677.037	4056
677.086	4705
677.136	3885
677.185	5153
677.235	3982
677.284	4514
677.333	3786
677.383	3902
677.432	3691
677.482	4210
677.531	4038
677.580	4477
677.630	3874
677.679	3433
677.728	3917
677.778	3574
677.827	3984
677.876	4567
677.925	3883
677.975	4584
678.024	4738
678.073	4755
678.122	5037
678.171	4572
678.220	4581
678.269	5987
678.319	5703
678.368	5273
678.417	4645
678.466	5498
678.515	5689
678.564	5910
678.613	4752
678.662	4844
678.711	4616
678.760	5715
678.809	4870
678.857	4640
678.906	4245
678.955	4842
679.004	4683
679.053	4900
679.102	4603
679.151	6042
679.199	4659
679.248	4736
679.297	4426
679.346	5534
679.394	4295
679.443	4400
679.492	4890
679.540	4873
679.589	5318
679.638	4229
679.686	3976
679.735	3995
679.784	4266
679.832	5293
679.881	3792
679.929	4280
679.978	3178
680.026	4940
680.075	4305
680.123	4257
680.172	4507
680.220	3409
680.268	3975
680.317	3547
680.365	3482
680.414	3355
680.462	3381
680.510	4646
680.559	3134
680.607	4236
680.655	3490
680.703	3815
680.752	3659
680.800	3473
680.848	3727
680.896	3407
680.945	3545
680.993	4096
681.041	3197
681.089	3220
681.137	2733
681.185	3849
681.233	3431
681.258	3567
681.281	3607
681.329	3064
681.377	3666
681.380	3801
681.425	4541
681.473	5843
681.502	5753
681.521	5522
681.569	5784
681.617	5417
681.624	5616
681.665	6145
681.713	5516
681.745	5665
681.761	5612
681.809	5677
681.857	6234
681.867	6243
681.904	5875
681.952	6410
681.989	6494
682.000	6421
682.048	6328
682.096	7251
682.111	7555
682.143	7867
682.191	7051
682.233	7608
682.239	7607
682.286	7301
682.334	7340
682.354	7699
682.382	7979
682.430	8871
682.476	8592
682.477	8505
682.525	7689
682.572	8866
682.598	8554
682.620	8143
682.667	7932
682.715	9337
682.720	9429
682.763	9551
682.810	9152
682.841	8819
682.857	8514
682.905	9057
682.952	9920
682.963	10022
683.000	10152
683.047	9986
683.085	10873
683.095	10999
683.142	10659
683.190	11135
683.206	10977
683.237	10524
683.284	12051
683.328	10555
683.332	10364
683.379	12127
683.426	11310
683.449	11338
683.473	11282
683.521	12145
683.568	11965
683.571	11997
683.615	11418
683.662	12276
683.693	12880
683.709	13144
683.757	12603
683.804	12408
683.814	12501
683.851	12532
683.898	12438
683.936	12646
683.945	12648
683.992	13344
684.039	13345
684.057	13427
684.086	13393
684.133	13548
684.179	13531
684.180	13484
684.227	14136
684.274	13805
684.300	14688
684.321	15176
684.368	14441
684.415	14908
684.422	14767
684.462	13862
684.509	13825
684.543	15191
684.556	15586
684.603	15226
684.649	14834
684.665	14856
684.696	14955
684.743	15174
684.786	16274
684.790	16352
684.837	16484
684.883	18976
684.908	19102
684.930	19067
684.977	19649
685.023	20040
685.029	20095
685.070	19215
685.117	18900
685.150	18882
685.164	19155
685.210	20218
685.257	21632
685.272	21693
685.303	21111
685.350	20588
685.393	20783
685.396	20779
685.443	20881
685.490	21110
685.514	20841
685.536	20608
685.583	20588
685.629	21490
685.636	21451
685.675	20863
685.722	21001
685.757	21320
685.768	21515
685.815	22082
685.861	22374
685.878	22640
685.908	22868
685.954	22685
686.000	23618
686.000	23630
686.047	24724
686.093	27969
686.121	28415
686.139	27723
686.185	26538
686.232	24713
686.242	24608
686.278	24221
686.324	23209
686.363	22793
686.370	22848
686.416	22094
686.463	23081
686.484	23092
686.509	23122
686.555	22921
686.601	22862
686.606	22952
686.647	23515
686.693	23329
686.727	23420
686.739	23448
686.785	23669
686.831	23867
686.848	23726
686.877	23261
686.923	23341
686.969	22306
686.969	22300
687.015	23300
687.061	23582
687.090	24163
687.107	24273
687.153	24450
687.199	23849
687.211	23641
687.245	23371
687.291	24311
687.332	24957
687.336	25058
687.382	25689
687.428	26229
687.453	26917
687.474	26657
687.520	24805
687.565	24247
687.574	23931
687.611	23877
687.657	24505
687.695	24229
687.702	24178
687.748	25175
687.794	24913
687.816	25206
687.839	25162
687.885	24759
687.931	24045
687.937	23954
687.976	24181
688.022	24381
688.058	25018
688.067	25186
688.113	25600
688.158	25517
688.179	26069
688.204	26639
688.249	26440
688.295	26854
688.300	26853
688.340	27591
688.386	28859
688.421	29122
688.431	28865
688.477	28165
688.522	27287
688.542	26953
688.567	26988
688.613	26877
688.658	26897
688.663	26831
688.703	26849
688.749	27920
688.784	27764
688.794	27693
688.839	27914
688.884	28324
688.905	28215
688.930	27813
688.975	27488
689.020	27314
689.026	27216
689.065	27672
689.110	27764
689.146	28362
689.155	28285
689.201	27503
689.246	26699
689.267	26598
689.291	27245
689.336	27727
689.381	28221
689.388	28261
689.426	28001
689.471	28387
689.509	27576
689.516	27439
689.561	27492
689.606	27201
689.630	26925
689.651	27111
689.696	27851
689.741	28290
689.750	28400
689.785	28393
689.830	28115
689.871	27770
689.875	27770
689.920	27561
689.965	27476
689.992	27164
690.010	27340
690.054	27771
690.099	28876
690.112	28969
690.144	28796
690.189	28266
690.233	27924
690.233	27961
690.278	28322
690.323	27880
690.354	28169
690.367	28525
690.412	29123
690.457	29283
690.474	29554
690.501	29739
690.546	29984
690.590	29699
690.595	29645
690.635	29863
690.680	29962
690.716	30339
690.724	30838
690.769	32970
690.813	36291
690.836	36926
690.857	38551
690.902	43076
690.946	47687
690.957	48919
690.991	61243
691.035	77611
691.077	93575
691.080	93767
691.124	90956
691.168	87961
691.198	86418
691.213	81661
691.257	67891
691.301	53838
691.318	48537
691.346	45661
691.390	39943
691.434	34540
691.439	33960
691.478	34132
691.522	33914
691.559	33244
691.567	33179
691.611	33192
691.655	32138
691.680	32078
691.699	32338
691.743	32451
691.787	32801
691.800	32571
691.831	32550
691.875	33696
691.919	33989
691.921	33960
691.964	35420
692.008	36458
692.041	37037
692.052	36917
692.096	36401
692.139	35492
692.162	35145
692.183	35117
692.227	34916
692.271	34640
692.282	34473
692.315	34527
692.359	34772
692.402	34973
692.403	35039
692.447	34849
692.490	34841
692.523	34771
692.534	35054
692.578	36141
692.622	36718
692.643	36997
692.666	36521
692.709	35633
692.753	34384
692.763	34130
692.797	34555
692.840	34833
692.884	34767
692.884	34837
692.928	35646
692.971	35544
693.004	35786
693.015	35810
693.059	35659
693.102	35184
693.124	35113
693.146	35592
693.189	36254
693.233	36522
693.245	36688
693.276	37984
693.320	39469
693.363	40676
693.365	40642
693.407	42145
693.450	43791
693.485	45012
693.493	45834
693.537	49798
693.580	53540
693.605	55689
693.624	60317
693.667	70862
693.710	82065
693.725	85819
693.753	109688
693.797	147655
693.840	186119
693.845	190090
693.883	182923
693.926	173252
693.966	165564
693.970	162474
694.013	127145
694.056	91938
694.086	67385
694.099	65423
694.142	59093
694.185	52682
694.206	49638
694.229	48401
694.272	45537
694.315	42698
694.326	41880
694.358	40950
694.401	39646
694.444	38234
694.446	38078
694.487	37646
694.530	37068
694.566	36631
694.573	36628
694.616	35881
694.659	35551
694.686	35013
694.702	34750
694.745	33847
694.787	32779
694.806	32416
694.830	32973
694.873	33572
694.916	34392
694.926	34427
694.959	33782
695.002	33065
695.044	32219
695.046	32121
695.087	33051
695.130	33503
695.166	34142
695.172	34285
695.215	34311
695.258	34590
695.286	34630
695.301	34718
695.343	34920
695.386	34759
695.406	34806
695.428	34597
695.471	33713
695.514	33007
695.526	32651
695.556	32813
695.599	33307
695.641	33289
695.646	33256
695.684	33370
695.726	33158
695.766	33023
695.769	33170
695.811	34061
695.854	34961
695.886	35588
695.896	35397
695.938	34126
695.981	32855
696.005	32144
696.023	32371
696.065	32512
696.108	32945
696.125	32901
696.150	33450
696.192	34427
696.235	35385
696.245	35528
696.277	34909
696.319	33912
696.361	33151
696.365	32989
696.404	33626
696.446	34222
696.485	34682
696.488	34771
696.530	34791
696.572	34833
696.604	34902
696.614	34846
696.656	33910
696.698	33281
696.724	32699
696.740	32728
696.783	32689
696.825	32594
696.844	32486
696.867	32683
696.909	32664
696.951	32951
696.964	32934
696.992	32612
697.034	31853
697.076	31297
697.083	31114
697.118	31772
697.160	32387
697.202	33098
697.203	33028
697.244	32693
697.286	32437
697.323	32067
697.327	32084
697.369	31499
697.411	30972
697.442	30449
697.453	30746
697.494	31546
697.536	32534
697.562	32969
697.578	32908
697.620	32527
697.661	32166
697.682	31914
697.703	32075
697.744	32228
697.786	32490
697.801	32437
697.828	32604
697.869	32785
697.911	32920
697.921	32874
697.952	32943
697.994	32941
698.035	32945
698.040	32851
698.077	32407
698.118	31821
698.160	31268
698.160	31180
698.201	31679
698.243	32024
698.279	32303
698.284	32399
698.325	32461
698.367	32546
698.399	32482
698.408	32347
698.449	31356
698.491	30377
698.518	29632
698.532	29944
698.573	30651
698.614	31354
698.638	31672
698.656	31837
698.697	32034
698.738	32218
698.757	32225
698.779	32602
698.820	33137
698.862	33685
698.877	33795
698.903	34291
698.944	34949
698.985	35596
698.996	35681
699.026	35676
699.067	35536
699.116	35275
699.235	34029
699.354	31746
699.474	33731
699.593	37650
699.713	37039
699.832	31208
699.951	32646
700.070	30196
700.190	31713
700.309	33142
700.428	34506
700.547	32099
700.667	32456
700.786	35231
700.905	30546
701.024	33042
701.143	32430
701.262	26422
701.381	27304
701.500	28845
701.619	27874
701.738	27587
701.857	27406
701.976	26319
702.095	26819
702.214	28071
702.333	28486
702.452	26263
702.571	25901
702.690	26653
702.809	27270
702.928	24376
703.047	26957
703.165	25230
703.284	24821
703.403	25087
703.522	30288
703.640	29100
703.759	32504
703.878	48474
703.997	28205
704.115	26485
704.234	25275
704.353	23539
704.471	23336
704.590	22483
704.708	23271
704.827	23141
704.946	24672
705.064	27892
705.183	26291
705.301	34993
705.420	60500
705.538	53583
705.656	42273
705.775	38774
705.893	52620
706.012	64174
706.130	45071
706.249	43481
706.367	44390
706.485	45318
706.604	44102
706.722	41785
706.840	47222
706.958	46372
707.077	40368
707.195	39194
707.313	37921
707.431	37023
707.549	38012
707.668	38199
707.786	38595
707.904	36379
708.022	36295
708.140	35392
708.258	35731
708.376	36342
708.494	37102
708.612	40639
708.730	64748
708.848	65397
708.966	52857
709.084	49849
709.202	48432
709.320	51721
709.438	52545
709.556	52912
709.674	51996
709.791	51522
709.909	50128
710.027	48787
710.145	49549
710.263	49780
710.380	49319
710.498	48125
710.616	48789
710.733	46779
710.851	50113
710.969	50851
711.086	46865
711.204	45060
711.322	47107
711.439	47181
711.557	47593
711.674	44585
711.792	44834
711.909	44658
712.027	44563
712.144	43464
712.262	44412
712.379	50147
712.497	74927
712.614	79773
712.732	64658
712.849	57464
712.966	59369
713.084	65806
713.201	63650
713.318	61708
713.436	60973
713.553	61440
713.670	59943
713.787	66067
713.905	66871
714.022	58336
714.139	55874
714.256	58486
714.373	55846
714.490	56115
714.608	54109
714.725	60516
714.842	59883
714.959	51198
715.076	51608
715.193	49403
715.310	48366
715.427	48969
715.544	46479
715.661	48090
715.778	49447
715.895	55493
716.011	54418
716.128	50386
716.245	48234
716.362	48642
716.479	49704
716.596	47613
716.713	49226
716.829	44811
716.946	46633
717.063	42663
717.180	44884
717.296	42994
717.413	44521
717.530	42591
717.646	41829
717.763	42676
717.880	40279
717.996	40815
718.113	42769
718.229	40178
718.346	38679
718.462	39116
718.579	41249
718.695	44545
718.812	50098
718.928	53074
719.045	44061
719.161	35437
719.277	36083
719.394	35773
719.510	38443
719.626	37293
719.743	46604
719.859	40073
719.975	37565
720.092	38929
720.208	38710
720.324	41033
720.440	37873
720.557	40718
720.673	43994
720.789	67809
720.905	151083
721.021	67107
721.137	37678
721.253	37702
721.369	39265
721.486	41853
721.602	57141
721.718	36979
721.834	30606
721.950	32634
722.066	31357
722.181	31376
722.297	32226
722.413	31094
722.529	31885
722.645	30775
722.761	30468
722.877	31198
722.993	28599
723.108	31252
723.224	29670
723.340	32220
723.456	27986
723.571	30129
723.687	27174
723.803	29391
723.918	27355
724.034	28911
724.150	29620
724.265	31350
724.381	59082
724.497	81521
724.612	29211
724.728	26354
724.843	26843
724.959	31211
725.074	56200
725.190	73037
725.305	30103
725.421	27297
725.536	23499
725.651	23774
725.767	23533
725.882	22569
725.997	22927
726.113	22869
726.228	22275
726.343	23291
726.459	20205
726.574	24319
726.689	22382
726.804	21675
726.920	25232
727.035	23075
727.150	23878
727.265	21582
727.380	23673
727.495	22056
727.610	19847
727.725	21712
727.841	22509
727.956	28367
728.071	30917
728.186	21973
728.301	19163
728.416	20960
728.531	20014
728.645	19468
728.760	19489
728.875	19706
728.990	18491
729.105	20224
729.220	17900
729.335	18008
729.449	18370
729.564	17121
729.679	16992
729.794	18158
729.908	21145
730.023	19512
730.138	15760
730.253	16997
730.367	17230
730.482	16164
730.596	16132
730.711	16986
730.826	17439
730.940	15931
731.055	16462
731.169	15371
731.284	15210
731.398	15598
731.513	19732
731.627	17847
731.742	19919
731.856	22203
731.970	14641
732.085	14505
732.199	15649
732.313	13948
732.428	14781
732.542	16182
732.656	15271
732.771	14160
732.885	13805
732.999	14368
733.113	16654
733.227	16544
733.342	12864
733.456	13485
733.570	13879
733.684	13500
733.798	14378
733.912	13856
734.026	12786
734.140	12625
734.254	16178
734.368	27899
734.482	41181
734.596	13600
734.710	12851
734.824	12547
734.938	12935
735.052	12579
735.166	15298
735.280	13735
735.393	12444
735.507	12145
735.621	19065
735.735	37409
735.849	17861
735.962	12259
736.076	15036
736.190	14248
736.303	19908
736.417	29371
736.531	12929
736.644	12877
736.758	10981
736.872	11347
736.985	11529
737.099	10266
737.212	10179
737.326	11110
737.439	10392
737.553	10264
737.666	10358
737.780	10440
737.893	10276
738.007	9979
738.120	9855
738.233	10215
738.347	10277
738.460	10738
738.573	10328
738.687	9405
738.800	9648
738.913	11083
739.026	9876
739.140	10895
739.253	10931
739.366	9500
739.479	9519
739.592	8501
739.705	10101
739.818	9353
739.932	8973
740.045	9535
740.158	9611
740.271	10344
740.384	9601
740.497	8849
740.610	10524
740.723	10369
740.836	10609
740.949	9991
741.062	10638
741.174	10444
741.287	10567
741.400	8681
741.513	10178
741.626	10239
741.739	10161
741.851	9250
741.964	8749
742.077	8276
742.189	9184
742.302	10714
742.415	9893
742.527	9156
742.640	8973
742.753	8287
742.865	8425
742.978	8018
743.090	9303
743.203	8522
743.316	8625
743.428	8813
743.541	8508
743.653	8363
743.766	8219
743.878	9771
743.990	13095
744.103	12980
744.215	10191
744.327	8622
744.440	9765
744.552	9477
744.664	8403
744.777	7571
744.889	7264
745.001	7452
745.113	7644
745.226	8440
745.338	8450
745.450	8121
745.562	8383
745.674	7743
745.786	8192
745.898	7796
746.010	8219
746.122	7132
746.234	7301
746.347	7085
746.459	8017
746.570	8793
746.682	9581
746.794	11309
746.906	8138
747.018	7836
747.130	7844
747.242	8024
747.354	7532
747.466	8493
747.577	8222
747.689	8552
747.801	8447
747.913	6797
748.024	6914
748.136	7155
748.248	6350
748.359	7037
748.471	6981
748.583	7726
748.694	8068
748.806	10222
748.918	12386
749.029	10020
749.141	8101
749.252	7550
749.364	7680
749.475	10781
749.587	12506
749.698	8128
749.809	7515
749.921	7403
750.032	7203
750.144	6740
750.255	6379
750.366	6699
750.478	7465
750.589	7778
750.700	7022
750.811	7663
750.923	8447
751.034	9860
751.145	10522
751.256	6789
751.367	7069
751.479	6092
751.590	7078
751.701	6810
751.812	6549
751.923	6854
752.034	6785
752.145	6614
752.256	6991
752.367	6659
752.478	6664
752.589	6933
752.700	6869
752.811	7490
752.922	6778
753.032	6685
753.143	7798
753.254	6370
753.365	6748
753.476	6512
753.586	7044
753.697	6120
753.808	6876
753.919	6668
754.029	7078
754.140	6627
754.251	7714
754.361	7296
754.472	7530
754.582	8113
754.693	7258
754.804	6572
754.914	7297
755.025	6442
755.135	7037
755.246	6682
755.356	6856
755.466	6738
755.577	7129
755.687	7314
755.798	7206
755.908	6892
756.018	6795
756.129	5928
756.239	6555
756.349	7836
756.460	6597
756.570	8143
756.680	7279
756.790	7320
756.900	7860
757.011	6195
757.121	7873
757.231	7634
757.341	8031
757.451	7942
757.561	7784
757.671	7187
757.781	6851
757.891	8141
758.001	9626
758.111	7956
758.221	7885
758.331	8091
758.441	9426
758.551	9166
758.661	8934
758.771	9407
758.880	11000
758.990	10898
759.100	10866
759.210	9631
759.320	10446
759.429	9736
759.539	10612
759.649	10258
759.758	10689
759.868	10925
759.978	11571
760.087	10234
760.197	11852
760.307	10105
760.416	10964
760.526	10523
760.635	12721
760.745	12117
760.854	11107
760.964	11867
761.073	12534
761.182	12085
761.292	12715
761.401	14284
761.511	13546
761.620	12531
761.729	14241
761.839	14810
761.948	14010
762.057	14670
762.166	13872
762.276	14015
762.385	16350
762.494	15459
762.603	16196
762.712	17748
762.822	18009
762.931	19521
763.040	17937
763.149	18827
763.258	19855
763.367	20686
763.476	21986
763.585	22854
763.694	24155
763.803	24538
763.912	27062
764.021	27028
764.130	28494
764.238	30614
764.347	31908
764.456	34375
764.565	38117
764.674	39965
764.783	43067
764.891	46025
765.000	52734
765.109	59600
765.217	66835
765.326	80457
765.435	95274
765.543	110714
765.652	137089
765.761	176361
765.869	232534
765.978	327837
766.086	473594
766.195	711602
766.303	1011669
766.412	982343
766.520	890419
766.629	967390
766.737	681845
766.846	456295
766.954	319550
767.062	234669
767.171	180087
767.279	140480
767.387	113072
767.496	96003
767.604	81051
767.712	71695
767.820	63855
767.928	60205
768.037	55191
768.145	52767
768.253	50837
768.361	49838
768.469	49344
768.577	50450
768.685	52229
768.793	55341
768.901	61924
769.009	69135
769.117	82329
769.225	103494
769.333	139057
769.441	203576
769.549	325641
769.657	563844
769.765	903214
769.873	859686
769.981	844406
770.088	561225
770.196	327999
770.304	213852
770.412	152015
770.519	117550
770.627	92109
770.735	75007
770.842	64714
770.950	55579
771.058	48970
771.165	43471
771.273	39891
771.380	35586
771.488	33679
771.595	30818
771.703	29651
771.810	28005
771.918	25590
772.025	24223
772.133	23409
772.240	22081
772.348	21629
772.455	21235
772.562	19350
772.670	17664
772.777	18969
772.884	16519
772.991	17660
773.099	16236
773.206	15431
773.313	16056
773.420	15724
773.528	14109
773.635	14215
773.742	14838
773.849	13455
773.956	13581
774.063	12894
774.170	12286
774.277	14125
774.384	13318
774.491	12729
774.598	13197
774.705	12479
774.812	13362
774.919	13748
775.026	12937
775.133	13625
775.239	12067
775.346	11981
775.453	11929
775.560	11643
775.667	11098
775.773	11481
775.880	12156
775.987	11222
776.093	11444
776.200	11235
776.307	11044
776.413	11061
776.520	11063
776.627	11013
776.733	11372
776.840	10434
776.946	12036
777.053	13492
777.159	15919
777.266	11946
777.372	16232
777.478	12444
777.585	10971
777.691	9509
777.798	9696
777.904	10285
778.010	10695
778.117	11499
778.223	9581
778.329	10089
778.435	9251
778.542	9608
778.648	9298
778.754	8666
778.860	8342
778.966	9298
779.072	9453
779.178	8868
779.284	9207
779.391	8515
779.497	8819
779.603	13327
779.708	15078
779.815	30026
779.920	93461
780.026	199950
780.132	39484
780.238	11697
780.344	10108
780.450	9866
780.556	8338
780.661	8211
780.767	8168
780.873	7970
780.979	7777
781.085	7832
781.190	7212
781.296	6907
781.402	6821
781.507	6121
781.613	7107
781.719	5965
781.824	6173
781.930	7293
782.035	7525
782.141	7026
782.246	6620
782.352	6697
782.457	7234
782.563	6903
782.668	6750
782.773	7651
782.879	7353
782.984	7740
783.090	7718
783.195	8741
783.300	7714
783.405	8055
783.511	7384
783.616	8229
783.721	7529
783.826	7458
783.932	7834
784.037	8339
784.142	6736
784.247	7607
784.352	7162
784.457	6802
784.562	5689
784.667	7309
784.772	6076
784.877	6106
784.982	5995
785.087	6446
785.192	6926
785.297	7211
785.402	5995
785.507	6039
785.611	5320
785.716	7318
785.821	5809
785.926	5768
786.031	5276
786.135	5753
786.240	6473
786.345	5301
786.450	5732
786.554	5402
786.659	5285
786.763	5051
786.868	6478
786.973	7336
787.077	4798
787.182	5490
787.286	5824
787.391	5117
787.495	5796
787.600	5527
787.704	4493
787.809	5618
787.913	4577
788.017	5382
788.122	4804
788.226	5527
788.330	4030
788.435	4745
788.539	5513
788.643	4996
788.747	4817
788.852	4436
788.956	4522
789.060	5044
789.164	5504
789.268	4404
789.372	4959
789.476	4145
789.580	4448
789.684	3894
789.788	4824
789.892	4850
789.996	6140
790.100	5465
790.204	4724
790.308	5552
790.412	5430
790.516	5523
790.620	4222
790.724	5940
790.828	5654
790.931	5341
791.035	6306
791.139	5000
791.242	4772
791.346	6170
791.450	4322
791.554	4551
791.657	3901
791.761	6022
791.864	5430
791.968	3804
792.072	4665
792.175	5021
792.279	4224
792.382	4148
792.486	4902
792.589	5411
792.693	5367
792.796	3534
792.899	5184
793.003	4039
793.106	3131
793.209	4736
793.313	4538
793.416	3453
793.519	5097
793.623	5175
793.726	5182
793.829	4476
793.932	4197
794.035	3757
794.138	5833
794.242	5772
794.345	7083
794.448	10500
794.551	16676
794.654	52270
794.757	117607
794.860	28962
794.963	9043
795.066	4747
795.169	5811
795.272	4173
795.375	4285
795.477	3959
795.580	4487
795.683	3449
795.786	3619
795.889	3308
795.991	4791
796.094	5998
796.197	4978
796.300	4706
796.402	2125
796.505	2962
796.608	3238
796.710	4200
796.813	2746
796.915	3092
797.018	2905
797.120	3507
797.223	2289
797.326	3667
797.428	3797
797.530	3263
797.633	3420
797.735	5737
797.838	9600
797.940	10151
798.042	2958
798.145	3106
798.247	4332
798.349	1722
798.452	3348
798.554	3280
798.656	1893
798.758	4093
798.860	3128
798.962	3026
799.065	3250
799.167	1975
799.269	4363
799.371	3942
799.473	3203
799.575	3611
799.677	6734
799.779	5395
799.881	2571
799.983	4163
800.085	3145
800.187	2830
800.289	2831
800.390	2891
800.492	2609
800.594	3949
800.696	2436
800.798	2441
800.899	2723
801.001	2168
801.103	2442
801.205	2632
801.306	1999
801.408	1504
801.509	2403
801.611	2537
801.713	2326
801.814	2755
801.916	1938
802.017	1963
802.119	1920
802.220	2790
802.322	1700
802.423	6658
802.525	4886
802.626	3317
802.727	2541
802.829	2517
802.930	377
803.031	3119
803.133	1722
803.234	1627
803.335	2125
803.436	2028
803.538	1777
803.639	2251
803.740	2457
803.841	1247
803.942	2276
804.043	2569
804.144	1857
804.245	1778
804.346	1421
804.447	1623
804.548	2615
804.649	3131
804.750	1234
804.851	2112
804.952	1315
805.053	2266
805.154	1086
805.255	2985
805.355	2065
805.456	1773
805.557	1058
805.658	1961
805.758	2124
805.859	1911
805.960	1459
806.061	2239
806.161	1509
806.262	2173
806.362	2156
806.463	1471
806.564	2230
806.664	2529
806.765	4685
806.865	5007
806.966	2159
807.066	1334
807.166	3408
807.267	2527
807.367	1546
807.468	1919
807.568	1039
807.668	2846
807.769	2583
807.869	1649
807.969	1339
808.069	2176
808.170	1908
808.270	1280
808.370	2328
808.470	1737
808.570	1601
808.670	2505
808.770	1549
808.870	1372
808.970	2398
809.070	1220
809.170	994
809.271	2362
809.370	1729
809.470	1703
809.570	1006
809.670	304
809.770	2000
809.870	2099
809.970	1746
810.070	1081
810.169	1911
810.269	292
810.369	2151
810.469	436
810.568	1166
810.668	938
810.768	245
810.867	1262
810.967	1042
811.066	1540
811.166	1137
811.265	1484
811.365	550
811.464	1469
811.564	1085
811.663	1296
811.763	-372
811.862	1536
811.962	1791
812.061	2026
812.160	1094
812.260	1784
812.359	1348
812.458	1839
812.557	5664
812.657	8274
812.756	2914
812.855	1922
812.954	-85
813.053	1985
813.153	1718
813.252	606
813.351	851
813.450	1527
813.549	288
813.648	1449
813.747	635
813.846	1903
813.945	85
814.044	842
814.143	849
814.242	1037
814.341	230
814.439	624
814.538	1454
814.637	1104
814.736	1642
814.835	2185
814.933	439
815.032	1237
815.131	669
815.229	1240
815.328	942
815.427	196
815.525	926
815.624	1912
815.722	2
815.821	853
815.919	252
816.018	840
816.116	1028
816.215	1664
816.313	940
816.412	869
816.510	502
816.609	1606
816.707	905
816.805	1175
816.904	1472
817.002	1930
817.100	1957
817.198	1554
817.296	1978
817.395	1520
817.493	2365
817.591	1752
817.689	3132
817.787	2955
817.885	5168
817.983	10106
818.081	21074
818.179	51507
818.277	133797
818.375	133869
818.473	33650
818.571	11658
818.669	8044
818.767	7067
818.865	6604
818.963	7318
819.061	10614
819.158	20576
819.256	44414
819.354	105717
819.452	252798
819.549	185772
819.647	47079
819.745	16533
819.842	9092
819.940	6195
820.038	4602
820.135	4655
820.233	3767
820.330	2544
820.428	1037
820.525	2816
820.623	1621
820.720	1922
820.818	1737
820.915	2084
821.012	2016
821.110	729
821.207	1121
821.304	1383
821.402	1326
821.499	1926
821.596	3052
821.693	2177
821.791	1636
821.888	2432
821.985	2980
822.082	2069
822.179	2439
822.276	1888
822.373	1270
822.470	791
822.567	948
822.664	258
822.761	1089
822.858	702
822.955	803
823.052	394
823.149	518
823.246	1191
823.343	285
823.440	1304
823.536	-215
823.633	-8
823.730	399
823.827	1502
823.923	166
824.020	1469
824.117	1109
824.213	796
824.310	1751
824.407	1019
824.503	1565
824.600	1271
824.696	272
824.793	1507
824.889	806
824.986	255
825.082	343
825.179	1488
825.275	1054
825.371	569
825.468	1193
825.564	157
825.660	456
825.757	462
825.853	1587
825.949	-162
826.045	-100
826.142	-441
826.238	105
826.334	235
826.430	-120
826.526	1199
826.622	-35
826.718	753
826.814	-63
826.910	79
827.006	167
827.102	-224
827.198	1394
827.294	465
827.390	773
827.486	1461
827.582	69
827.678	56
827.774	859
827.869	-300
827.965	1500
828.061	-75
828.157	874
828.252	227
828.348	-433
828.444	1508
828.539	-679
828.635	769
828.731	718
828.826	-138
828.922	1316
829.017	351
829.113	882
829.208	206
829.304	-385
829.399	1597
829.495	187
829.590	1856
829.685	248
829.781	940
829.876	98
829.971	676
830.066	258
830.162	345
830.257	-602
830.352	162
830.447	2154
830.543	1557
830.638	152
830.733	1467
830.828	692
830.923	1244
831.018	759
831.113	1306
831.208	130
831.303	1361
831.398	814
831.493	306
831.588	695
831.683	4
831.778	287
831.873	1004
831.967	1012
832.062	143
832.157	-48
832.252	962
832.346	-56
832.441	1241
832.536	935
832.631	2938
832.725	3514
832.820	-108
832.914	415
833.009	-473
833.104	618
833.198	1821
833.293	128
833.387	1021
833.482	726
833.576	-173
833.670	148
833.765	-653
833.859	401
833.954	280
834.048	218
834.142	875
834.237	260
834.331	635
834.425	-65
834.519	-432
834.613	617
834.708	1061
834.802	303
834.896	116
834.990	689
835.084	608
835.178	756
835.272	621
835.366	417
835.460	1194
835.554	637
835.648	594
835.742	-75
835.836	1324
835.930	-588
836.024	717
836.117	1457
836.211	2115
836.305	3952
836.399	6092
836.493	588
836.586	2011
836.680	-338
836.774	13
836.867	567
836.961	-324
837.055	-374
837.148	504
837.242	34
837.335	93
837.429	1029
837.522	1421
837.616	2530
837.709	7300
837.803	4809
837.896	1248
837.989	1708
838.083	4915
838.176	8927
838.269	10666
838.363	2383
838.456	888
838.549	1877
838.642	1620
838.735	3520
838.829	2874
838.922	728
839.015	1311
839.108	-589
839.201	774
839.294	1558
839.387	1248
839.480	973
839.573	3390
839.666	4851
839.759	1490
839.852	754
839.945	-155
840.038	1078
840.131	1427
840.223	463
840.316	1307
840.409	142
840.502	398
840.594	1275
840.687	-232
840.780	558
840.873	846
840.965	1212
841.058	3102
841.150	7749
841.243	6725
841.336	1511
841.428	982
841.521	399
841.613	775
841.706	2023
841.798	1074
841.890	482
841.983	699
842.075	890
842.167	756
842.260	1934
842.352	2330
842.444	4969
842.537	9562
842.629	15706
842.721	2725
842.813	376
842.905	-246
842.997	1558
843.090	2335
843.182	4271
843.274	9822
843.366	21089
843.458	45424
843.550	32810
843.642	5335
843.734	2061
843.826	2936
843.918	2779
844.009	2031
844.101	582
844.193	977
844.285	1139
844.377	1007
844.469	1761
844.560	2137
844.652	1988
844.744	1531
844.835	1024
844.927	2195
845.019	1435
845.110	2662
845.202	367
845.293	-11
845.385	404
845.476	716
845.568	998
845.659	673
845.751	1431
845.842	147
845.934	152
846.025	509
846.116	1236
846.208	905
846.299	124
846.390	1110
846.482	1234
846.573	2353
846.664	1941
846.755	2721
846.846	4021
846.937	-26
847.029	918
847.120	-29
847.211	650
847.302	1199
847.393	-170
847.484	2124
847.575	-7
847.666	-148
847.757	211
847.847	1348
847.938	1723
848.029	15
848.120	239
848.211	976
848.302	727
848.392	995
848.483	835
848.574	146
848.664	-73
848.755	882
848.846	1218
848.936	-36
849.027	503
849.118	941
849.208	460
849.299	1116
849.389	699
849.480	1535
849.570	1996
849.661	2113
849.751	865
849.841	156
849.932	391
850.022	717
850.112	963
850.203	116
850.293	806
850.383	1327
850.474	-269
850.564	-158
850.654	428
850.744	822
850.834	136
850.924	222
851.014	153
851.104	644
851.194	602
851.284	1092
851.374	1598
851.464	654
851.554	1586
851.644	3127
851.734	4126
851.824	3783
851.914	1742
852.004	3547
852.094	4233
852.183	412
852.273	595
852.363	-63
852.452	619
852.542	-71
852.632	739
852.721	396
852.811	512
852.901	749
852.990	827
853.080	819
853.169	626
853.259	136
853.348	-138
853.438	1061
853.527	24
853.617	224
853.706	806
853.795	1096
853.885	2815
853.974	2134
854.063	3830
854.152	5213
854.242	1080
854.331	27
854.420	311
854.509	155
854.598	722
854.687	2176
854.777	2007
854.866	317
854.955	621
855.044	186
855.133	637
855.222	384
855.311	33
855.400	404
855.488	-540
855.577	-43
855.666	723
855.755	695
855.844	689
855.933	1199
856.021	1190
856.110	583
856.199	-1008
856.288	-34
856.376	-190
856.465	170
856.554	3
856.642	228
856.731	646
856.819	1100
856.908	99
856.996	852
857.085	-174
857.173	1126
857.262	-3
857.350	728
857.438	376
857.527	543
857.615	-359
857.703	558
857.792	134
857.880	233
857.968	-147
858.056	-77
858.145	571
858.233	269
858.321	-569
858.409	545
858.497	-309
858.585	-185
858.673	-246
858.761	-168
858.849	21
858.937	-567
859.025	464
859.113	952
859.201	-183
859.289	799
859.377	-110
859.465	797
859.552	567
859.640	961
859.728	523
859.816	305
859.903	553
859.991	628
860.079	358
860.166	937
860.254	-292
860.342	805
860.429	-666
860.517	-301
860.604	-9
860.692	48
860.779	-286
860.867	282
860.954	-394
861.042	524
861.129	234
861.216	104
861.304	96
861.391	-277
861.478	138
861.565	598
861.653	1016
861.740	313
861.827	-406
861.914	320
862.001	-591
862.089	631
862.176	-60
862.263	408
862.350	-567
862.437	-174
862.524	-684
862.611	727
862.698	-75
862.785	822
862.871	-434
862.958	323
863.045	-314
863.132	105
863.219	-576
863.306	-664
863.392	-92
863.479	3
863.566	115
863.652	-90
863.739	-624
863.826	213
863.912	42
863.999	-356
864.086	580
864.172	-266
864.259	-634
864.345	-9
864.432	-112
864.518	331
864.604	311
864.691	271
864.777	407
864.863	175
864.950	-112
865.036	-498
865.122	-833
865.209	57
865.295	-99
865.381	-678
865.467	-713
865.553	505
865.639	-961
865.726	23
865.812	746
865.898	1319
865.984	1839
866.070	2857
866.156	3314
866.242	88
866.328	-618
866.414	26
866.499	-558
866.585	540
866.671	-204
866.757	503
866.843	-261
866.928	1034
867.014	-840
867.100	12
867.186	71
867.271	1334
867.357	2046
867.442	3269
867.528	1381
867.614	293
867.699	-21
867.785	923
867.870	896
867.956	1194
868.041	1165
868.127	2502
868.212	2121
868.297	993
868.383	204
868.468	1415
868.553	1140
868.639	1398
868.724	3795
868.809	3151
868.894	657
868.979	456
869.065	711
869.150	-489
869.235	-342
869.320	-369
869.405	-481
869.490	-1080
869.575	58
869.660	649
869.745	365
869.830	-324
869.915	-568
870.000	-155
870.085	453
870.169	235
870.254	112
870.339	-333
870.424	-201
870.509	-43
870.593	-422
870.678	-322
870.763	-721
870.847	-886
870.932	-94
871.016	69
871.101	276
871.186	-343
871.270	-1036
871.355	-249
871.439	-121
871.523	-163
871.608	441
871.692	317
871.777	837
871.861	93
871.945	-245
872.030	4
872.114	-303
872.198	-873
872.282	-754
872.367	34
872.451	-705
872.535	-432
872.619	-830
872.703	-165
872.787	-314
872.871	33
872.955	-680
873.039	-324
873.123	-1021
873.207	458
873.291	-702
873.375	520
873.459	34
873.543	-385
873.627	-672
873.711	-879
873.794	-908
873.878	-796
873.962	-974
874.045	-801
874.129	-284
874.137	-253
874.213	58
874.245	-51
874.296	-224
874.352	-277
874.380	-304
874.460	-730
874.464	-748
874.547	-784
874.568	-665
874.631	-294
874.676	-312
874.714	-339
874.784	-276
874.798	-259
874.881	797
874.892	660
874.965	-294
874.999	-355
875.048	-444
875.107	-742
875.131	-864
875.215	-202
875.215	-202
875.298	-438
875.323	-321
875.381	-44
875.430	-88
875.465	-96
875.538	-456
875.548	-513
875.631	-798
875.646	-714
875.714	-287
875.753	-774
875.798	-1287
875.861	-427
875.881	-194
875.964	-736
875.968	-700
876.047	13
876.076	-108
876.130	-326
876.183	-416
876.213	-465
876.291	51
876.296	90
876.379	-148
876.398	-48
876.462	268
876.506	240
876.545	155
876.613	26
876.628	12
876.711	-286
876.721	-301
876.794	-378
876.828	-350
876.877	-341
876.935	-151
876.960	-38
877.043	378
877.043	378
877.125	159
877.150	269
877.208	767
877.258	654
877.291	485
877.365	553
877.374	582
877.456	810
877.472	832
877.539	788
877.579	883
877.622	885
877.687	533
877.704	515
877.787	270
877.794	255
877.869	-97
877.901	-96
877.952	-88
878.008	189
878.034	308
878.115	226
878.117	225
878.199	-38
878.222	12
878.282	330
878.329	617
878.364	651
878.437	-92
878.447	-150
878.529	-8
878.544	11
878.611	0
878.651	123
878.694	206
878.758	488
878.776	602
878.858	-178
878.865	-167
878.941	15
878.972	28
879.023	-271
879.078	-387
879.105	-157
879.185	224
879.187	220
879.269	-521
879.292	-535
879.351	-376
879.399	-499
879.433	-546
879.506	260
879.516	331
879.598	-197
879.613	-185
879.680	-87
879.720	-210
879.762	-186
879.827	-151
879.844	-136
879.926	97
879.933	91
880.007	-155
880.040	-141
880.089	-23
880.147	330
880.171	532
880.253	996
880.254	996
880.335	830
880.360	918
880.417	1791
880.467	2520
880.499	2940
880.574	3999
880.580	4001
880.662	1671
880.680	1356
880.744	340
880.787	166
880.825	298
880.893	270
880.907	178
880.989	-429
881.000	-534
881.070	-366
881.106	-33
881.152	51
881.213	25
881.233	43
881.315	-424
881.319	-408
881.396	102
881.426	50
881.478	-181
881.532	-127
881.559	-79
881.639	-79
881.641	-82
881.722	-189
881.745	-262
881.803	56
881.852	321
881.885	182
881.958	-32
881.966	-11
882.047	16
882.064	120
882.129	530
882.171	684
882.210	900
882.277	1092
882.291	1067
882.372	565
882.383	511
882.454	-65
882.489	-260
882.535	-184
882.596	-5
882.616	80
882.697	123
882.702	152
882.778	545
882.808	554
882.859	221
882.914	95
882.940	264
883.020	294
883.021	293
883.102	148
883.127	79
883.183	109
883.233	233
883.264	254
883.339	-172
883.345	-185
883.426	54
883.445	78
883.507	-168
883.551	-268
883.587	-81
883.657	-12
883.668	21
883.749	744
883.763	832
883.830	726
883.869	535
883.910	238
883.975	-165
883.991	-87
884.072	330
884.081	351
884.152	17
884.187	-6
884.233	56
884.292	155
884.314	201
884.394	183
884.398	175
884.475	511
884.504	739
884.555	656
884.610	216
884.636	169
884.716	592
884.716	596
884.797	324
884.821	184
884.877	95
884.927	-74
884.958	-219
885.033	-202
885.038	-176
885.118	3
885.139	99
885.199	467
885.244	536
885.279	577
885.350	824
885.359	763
885.439	-65
885.456	-167
885.520	340
885.561	580
885.600	364
885.667	70
885.680	140
885.760	461
885.773	525
885.840	827
885.878	909
885.920	920
885.984	1006
886.000	820
886.080	-230
886.089	-349
886.160	-273
886.195	-118
886.240	322
886.300	667
886.320	567
886.400	430
886.406	410
886.480	312
886.511	222
886.560	604
886.616	1011
886.640	894
886.720	783
886.722	772
886.800	227
886.827	42
886.879	357
886.932	670
886.959	796
887.038	1185
887.039	1177
887.119	117
887.143	-204
887.198	371
887.248	774
887.278	597
887.354	69
887.358	76
887.437	451
887.459	502
887.517	650
887.564	788
887.596	862
887.669	1049
887.676	1022
887.755	524
887.774	399
887.835	403
887.880	513
887.914	430
887.985	65
887.994	76
888.073	275
888.090	303
888.153	578
888.195	785
888.232	978
888.300	1355
888.311	1289
888.391	700
888.405	605
888.470	651
888.510	570
888.549	414
888.615	334
888.628	404
888.708	706
888.720	759
888.787	951
888.825	1033
888.866	838
888.930	558
888.945	545
889.024	412
889.035	398
889.103	859
889.140	1102
889.182	952
889.245	709
889.261	748
889.340	944
889.349	963
889.419	1213
889.454	1350
889.498	1126
889.559	768
889.577	787
889.656	897
889.664	906
889.735	1012
889.768	1057
889.814	1087
889.873	1122
889.978	579
890.083	870
890.187	786
890.292	433
890.397	1170
890.501	1447
890.606	1568
890.710	1651
890.815	695
890.919	916
891.024	784
891.128	1650
891.233	907
891.337	593
891.442	713
891.546	574
891.650	589
891.755	222
891.859	1924
891.963	1297
892.068	805
892.172	546
892.276	414
892.380	878
892.484	244
892.589	-64
892.693	1080
892.797	655
892.901	1081
893.005	493
893.109	1290
893.213	1120
893.317	969
893.421	657
893.525	79
893.629	703
893.733	171
893.837	205
893.941	952
894.045	843
894.148	830
894.252	1432
894.356	787
894.460	1088
894.564	659
894.667	561
894.771	1378
894.875	324
894.978	686
895.082	73
895.186	1533
895.289	1285
895.393	671
895.496	235
895.600	762
895.703	433
895.807	601
895.910	-202
896.014	840
896.117	372
896.221	837
896.324	712
896.427	683
896.531	-224
896.634	1570
896.737	154
896.840	137
896.944	726
897.047	-78
897.150	1141
897.253	125
897.356	1017
897.460	731
897.563	1437
897.666	1136
897.769	1216
897.872	241
897.975	-412
898.078	910
898.181	462
898.284	47
898.387	673
898.490	319
898.593	-62
898.695	435
898.798	-45
898.901	1622
899.004	471
899.107	483
899.209	822
899.312	570
899.415	542
899.518	879
899.620	251
899.723	320
899.826	788
899.928	1867
900.031	1115
900.133	-68
900.236	514
900.338	464
900.441	577
900.543	335
900.646	-91
900.748	961
900.851	1629
900.953	648
901.055	878
901.158	358
901.260	826
901.362	744
901.465	584
901.567	291
901.669	925
901.771	661
901.873	815
901.976	812
902.078	-585
902.180	726
902.282	789
902.384	590
902.486	353
902.588	1087
902.690	997
902.792	203
902.894	221
902.996	416
903.098	170
903.200	643
903.302	353
903.404	561
903.505	348
903.607	-188
903.709	892
903.811	251
903.913	431
904.014	353
904.116	222
904.218	1077
904.319	498
904.421	467
904.523	1137
904.624	863
904.726	-53
904.827	914
904.929	735
905.030	520
905.132	298
905.233	1137
905.335	549
905.436	-66
905.537	-221
905.639	315
905.740	-517
905.841	999
905.943	591
906.044	765
906.145	337
906.247	-5
906.348	333
906.449	188
906.550	-125
906.651	743
906.752	8
906.854	-35
906.955	280
907.056	-197
907.157	218
907.258	-131
907.359	-216
907.460	998
907.561	487
907.662	468
907.762	-64
907.863	270
907.964	669
908.065	1384
908.166	-1014
908.267	58
908.367	522
908.468	-4
908.569	670
908.670	257
908.770	374
908.871	622
908.971	1538
909.072	1666
909.173	253
909.273	665
909.374	-251
909.474	323
909.575	693
909.675	-4
909.776	548
909.876	154
909.977	434
910.077	-293
910.177	283
910.278	260
910.378	-40
910.478	-793
910.579	-132
910.679	834
910.779	528
910.879	751
910.980	222
911.080	234
911.180	-719
911.280	840
911.380	-543
911.480	-197
911.580	-269
911.680	710
911.780	860
911.880	563
911.980	353
912.080	193
912.180	642
912.280	545
912.380	247
912.480	218
912.580	-205
912.679	-414
912.779	48
912.879	-164
912.979	183
913.078	809
913.178	90
913.278	186
913.377	174
913.477	24
913.577	-177
913.676	-194
913.776	133
913.875	87
913.975	-521
914.074	1002
914.174	113
914.273	73
914.373	325
914.472	440
914.572	-20
914.671	-430
914.770	134
914.870	425
914.969	-322
915.068	-69
915.167	553
915.267	339
915.366	-4
915.465	503
915.564	-175
915.663	264
915.763	-227
915.862	-312
915.961	-567
916.060	-234
916.159	-121
916.258	269
916.357	-156
916.456	470
916.555	-285
916.654	-1
916.752	-371
916.851	-103
916.950	-102
917.049	-453
917.148	-682
917.247	165
917.345	-342
917.444	-453
917.543	-363
917.642	274
917.740	-572
917.839	520
917.937	-300
918.036	287
918.135	-787
918.233	353
918.332	67
918.430	-174
918.529	-276
918.627	215
918.726	762
918.824	-347
918.923	79
919.021	-310
919.119	-669
919.218	-640
919.316	11
919.414	161
919.512	-531
919.611	-229
919.709	448
919.807	380
919.905	171
920.003	-323
920.102	-438
920.200	351
920.298	-377
920.396	-653
920.494	-644
920.592	247
920.690	417
920.788	536
920.886	-336
920.984	385
921.082	-1014
921.180	662
921.277	-68
921.375	505
921.473	233
921.571	-212
921.669	705
921.766	752
921.864	-103
921.962	471
922.060	-120
922.157	-523
922.255	-566
922.352	460
922.450	388
922.548	611
922.645	153
922.743	256
922.840	314
922.938	346
923.035	431
923.133	-24
923.230	-1124
923.327	-8
923.425	-13
923.522	79
923.619	-1169
923.717	104
923.814	0
923.911	-673
924.008	695
924.106	-78
924.203	-74
924.300	-528
924.397	249
924.494	226
924.591	779
924.688	-361
924.786	-885
924.883	-672
924.979	-225
925.077	-321
925.173	-633
925.270	-480
925.367	466
925.464	709
925.561	-267
925.658	333
925.755	-111
925.852	545
925.948	-265
926.045	916
926.142	729
926.239	1096
926.335	549
926.432	653
926.529	-193
926.625	1096
926.722	665
926.818	-310
926.915	269
927.011	-173
927.108	-34
927.204	150
927.301	47
927.397	-289
927.494	203
927.590	784
927.687	-933
927.783	177
927.879	-670
927.976	236
928.072	-700
928.168	257
928.264	-456
928.361	-429
928.457	-717
928.553	2
928.649	-85
928.745	-101
928.841	-162
928.937	409
929.033	-237
929.129	660
929.225	-1600
929.321	579
929.417	332
929.513	169
929.609	103
929.705	287
929.801	-192
929.897	-712
929.993	-1054
930.089	57
930.184	387
930.280	-309
930.376	-88
930.471	245
930.567	-66
930.663	-408
930.758	-138
930.854	-386
930.950	-450
931.045	470
931.141	-418
931.236	540
931.332	-347
931.427	-648
931.523	-710
931.618	-391
931.714	-912
931.809	-711
931.905	-27
932.000	-365
932.095	-717
932.191	345
932.286	-417
932.381	-1011
932.476	-443
932.572	-180
932.667	21
932.762	396
932.857	69
932.952	-206
933.047	-636
933.142	-1168
933.237	-678
933.332	-206
933.427	-675
933.522	-746
933.617	-194
933.712	-182
933.807	82
933.902	-431
933.997	-720
934.092	187
934.187	-476
934.282	-634
934.376	-160
934.471	-162
934.566	-286
934.661	-101
934.755	-8
934.850	41
934.945	-301
935.039	-257
935.134	-680
935.228	21
935.323	-674
935.417	-500
935.512	-759
935.606	-132
935.701	56
935.795	-341
935.890	-338
935.984	-41
936.079	100
936.173	-393
936.267	-851
936.362	-680
936.456	-107
936.550	-318
936.644	-324
936.738	1049
936.833	132
936.927	599
937.021	-204
937.115	-629
937.209	-1537
937.303	-788
937.397	-1031
937.491	-94
937.585	-1238
937.679	-86
937.773	-366
937.867	128
937.961	132
938.055	133
938.149	81
938.243	-321
938.337	-670
938.430	138
938.524	226
938.618	1501
938.712	250
938.805	-322
938.899	-976
938.993	417
939.086	-211
939.180	1229
939.274	1182
939.367	-466
939.461	-518
939.554	-449
939.648	-596
939.741	-845
939.835	-542
939.928	-928
940.022	-592
940.115	-305
940.208	-331
940.302	-69
940.395	-1111
940.488	-1309
940.582	-213
940.675	-641
940.768	20
940.861	-130
940.954	-47
941.048	127
941.141	-301
941.234	547
941.327	539
941.420	971
941.513	649
941.606	-493
941.699	62
941.792	-221
941.885	-543
941.978	394
942.071	-545
942.164	-205
942.257	-37
942.349	115
942.442	-210
942.535	-1034
942.628	-674
942.721	-250
942.813	-775
942.906	-29
942.999	-638
943.091	-3
943.184	-981
943.277	-466
943.369	94
943.462	-1256
943.554	-296
943.647	-1270
943.739	-355
943.832	-340
943.924	-580
944.017	-360
944.109	-1392
944.201	-70
944.294	63
944.386	-654
944.478	-1257
944.571	-863
944.663	27
944.755	-344
944.847	463
944.940	-481
945.032	-1240
945.124	-732
945.216	498
945.308	-52
945.400	-615
945.492	-1021
945.584	-186
945.676	-198
945.768	163
945.860	584
945.952	-38
946.044	447
946.136	-726
946.228	-214
946.320	-1127
946.412	-896
946.503	-821
946.595	-578
946.687	-943
946.779	-779
946.870	-356
946.962	-592
947.054	-702
947.145	-823
947.237	-745
947.329	-204
947.420	-1183
947.512	-939
947.603	-422
947.695	-1031
947.786	-1102
947.878	-316
947.969	-944
948.061	-1018
948.152	-394
948.243	-518
948.335	-738
948.426	-520
948.517	-873
948.609	-265
948.700	-979
948.791	-450
948.882	-778
948.973	-741
949.065	-993
949.156	-51
949.247	-1051
949.338	-146
949.429	-778
949.520	-872
949.611	-916
949.702	36
949.793	-957
949.884	-558
949.975	-367
950.066	-876
950.157	-1106
950.247	-838
950.338	-578
950.429	162
950.520	37
950.611	-271
950.701	-769
950.792	-613
950.883	-473
950.973	134
951.064	-853
951.155	-819
951.245	374
951.336	-553
951.427	-1163
951.517	-637
951.608	-658
951.698	-1404
951.788	-855
951.879	-772
951.969	-749
952.060	-1229
952.150	-738
952.240	-675
952.331	-1464
952.421	538
952.511	-1427
952.602	-809
952.692	-1543
952.782	-540
952.872	-376
952.962	-527
953.052	-972
953.143	-858
953.233	-448
953.323	150
953.413	-1108
953.503	-871
953.593	-693
953.683	-1045
953.773	-1268
953.863	-1260
953.953	-991
954.042	-748
954.132	-1000
954.222	-270
954.312	-705
954.402	-170
954.492	542
954.581	2041
954.671	827
954.761	-1365
954.850	-517
954.940	-744
955.030	-902
955.119	-216
955.209	-603
955.298	-990
955.388	-1040
955.477	-293
955.567	-945
955.656	-123
955.746	-95
955.835	-1187
955.925	-1438
956.014	-538
956.103	-1114
956.193	-751
956.282	-299
956.371	-680
956.461	-1178
956.550	-926
956.639	-837
956.728	-867
956.817	-482
956.906	-1059
956.995	-795
957.085	-339
957.174	-345
957.263	-478
957.352	-746
957.441	-834
957.530	-513
957.619	203
957.708	-796
957.796	-624
957.885	-731
957.974	-1665
958.063	-261
958.152	-1191
958.241	-911
958.329	-394
958.418	-259
958.507	-539
958.596	-149
958.684	-653
958.773	-242
958.861	-18
958.950	96
959.039	319
959.127	-630
959.216	-39
959.304	105
959.393	-461
959.481	-757
959.570	171
959.658	50
959.746	513
959.835	1684
959.923	1643
960.011	741
960.100	430
960.188	-952
960.276	-1007
960.365	-174
960.453	-392
960.541	-787
960.629	-432
960.717	-853
960.805	-1727
960.893	-1079
960.981	-781
961.069	-72
961.158	-1171
961.245	-1324
961.333	-47
961.421	-1360
961.509	-1396
961.597	-1225
961.685	-814
961.773	-1105
961.861	-1809
961.949	-310
962.036	-1204
962.124	-177
962.212	-960
962.299	-1688
962.387	-1084
962.475	-520
962.562	-878
962.650	295
962.738	-622
962.825	-597
962.913	-976
963.000	-1033
963.088	-1246
963.175	-691
963.263	-667
963.350	-869
963.438	-700
963.525	368
963.612	1814
963.700	6317
963.787	16354
963.874	7352
963.962	561
964.049	-246
964.136	-1022
964.223	-1162
964.310	-939
964.398	-1554
964.485	-754
964.572	-201
964.659	1744
964.746	1909
964.833	-1123
964.920	-1443
965.007	-603
965.094	-751
965.181	-1292
965.268	-375
965.355	91
965.441	-885
965.528	-1141
965.615	-791
965.702	-1170
965.789	-1402
965.875	-1224
965.962	-1128
966.049	-1372
966.136	-847
966.222	-1197
966.309	-1132
966.395	-1462
966.482	-1724
966.569	-1444
966.655	-551
966.742	-1754
966.828	-829
966.915	-648
967.001	-1256
967.087	-471
967.174	-616
967.260	-32
967.347	965
967.433	4422
967.519	9168
967.605	3099
967.692	-137
967.778	-591
967.864	-1722
967.950	-1330
968.036	-2015
968.123	-655
968.209	-1550
968.295	-1961
968.381	-65
968.467	-374
968.553	-2135
968.639	-228
968.725	-447
968.811	425
968.897	656
968.983	-980
969.069	-1452
969.154	-606
969.240	-1040
969.326	-1228
969.412	-1468
969.497	-1848
969.583	-1935
969.669	-585
969.755	-507
969.840	-1145
969.926	-756
970.012	-1207
970.097	-430
970.183	-976
970.268	-1052
970.354	888
970.439	1576
970.525	6211
970.610	845
970.696	-796
970.781	-1130
970.866	-1329
970.952	-573
971.037	-1492
971.122	-1080
971.208	-494
971.293	-890
971.378	-1484
971.463	-1831
971.549	-595
971.634	-491
971.719	-538
971.804	-1213
971.889	584
971.974	-1307
972.059	-1464
972.144	-835
972.229	-798
972.314	-1200
972.399	-181
972.484	-703
972.569	-256
972.654	-465
972.739	2714
972.824	2153
972.908	-384
972.993	-1365
973.078	-1375
973.163	-1848
973.247	-1488
973.332	-2477
973.417	-925
973.501	-1637
973.586	-855
973.671	-1480
973.755	-471
973.840	-975
973.924	-805
974.009	-1125
974.093	-893
974.178	794
974.262	1592
974.346	1357
974.431	-464
974.515	-1362
974.600	-1527
974.684	-951
974.768	-971
974.852	-1011
974.937	-1746
975.021	-538
975.105	-1211
975.189	-1094
975.273	-753
975.358	-2541
975.442	-1826
975.526	-317
975.610	-1370
975.694	-2028
975.778	365
975.862	-1282
975.946	-3270
976.030	53
976.114	-1625
976.198	-1674
976.281	-1440
976.365	-1060
976.449	-2040
976.533	-1147
976.617	-1075
976.700	-1082
976.784	-1475
976.868	-1255
976.951	234
977.035	-940
977.119	-1913
977.202	-1186
977.286	-1030
977.369	-1786
977.453	-887
977.536	-1858
977.620	-1502
977.703	-1492
977.787	-1164
977.870	-1338
977.953	-611
978.037	-1722
978.120	91
978.203	-81
978.287	3100
978.370	1429
978.453	-1425
978.536	-1528
978.620	106
978.703	-154
978.786	-312
978.869	-1831
978.952	-1874
979.035	-330
979.118	-832
979.201	-1615
979.284	-2483
979.367	-2392
979.450	-1240
979.533	-1607
979.616	-2494
979.699	-1910
979.782	-1127
979.865	-1484
979.948	-739
980.030	-1430
980.113	-1236
980.196	-2402
980.279	-124
980.361	-1470
980.444	-1047
980.526	-1073
980.609	-1568
980.692	-1891
980.774	-1682
980.857	-2532
980.939	-1057
981.022	-2161
981.104	-1949
981.187	-1876
981.269	-553
981.352	-942
981.434	-1302
981.516	-2036
981.599	-1098
981.681	-1602
981.763	-1493
981.846	-1249
981.928	-1770
982.010	-2441
982.092	-1296
982.174	-1146
982.256	-1253
982.339	-1265
982.421	-1482
982.503	-750
982.585	-2103
982.667	-1134
982.749	-890
982.831	-1225
982.913	-1445
982.995	-1529
983.077	-1916
983.158	-87
983.240	-2032
983.322	-1805
983.404	-1466
983.486	-2386
983.568	-1605
983.649	-1693
983.731	-1374
983.813	-1744
983.894	-1461
983.976	-1476
984.058	-1924
984.139	-1265
984.221	-2496
984.302	-1467
984.384	-446
984.465	-2314
984.547	-1514
984.628	-2292
984.710	-1715
984.791	-1507
984.872	-2069
984.954	-2248
985.035	-1561
985.116	-2887
985.198	-1637
985.279	-718
985.360	-2076
985.441	-1305
985.522	-1472
985.604	-1649
985.685	-2742
985.766	-574
985.847	-694
985.928	-1842
986.009	-1590
986.090	-1865
986.171	-2409
986.252	-1542
986.333	-1001
986.414	-2750
986.495	-751
986.576	-907
986.656	-2031
986.737	-1425
986.818	-1938
986.899	-2334
986.980	-1243
987.060	-1503
987.141	-1967
987.222	-1628
987.302	-2024
987.383	-1257
987.464	-1915
987.544	-1614
987.625	-2053
987.705	-1452
987.786	-1704
987.866	-1319
987.947	-1351
988.027	-2070
988.108	-2156
988.188	-1441
988.268	-1365
988.349	-2116
988.429	-1749
988.509	-1740
988.589	-2523
988.670	-3305
988.750	-400
988.830	-1689
988.910	-1673
988.990	-1847
989.070	-1013
989.151	-1950
989.231	-2087
989.311	-2050
989.391	-1274
989.471	-1451
989.551	-1214
989.631	-2124
989.711	-903
989.791	-2088
989.870	-2115
989.950	-1164
990.030	-1679
990.110	-1780
990.190	-2030
990.269	-1235
990.349	-2205
990.429	-2218
990.509	-1626
990.588	-2694
990.668	-1734
990.747	-1549
990.827	-1840
990.907	-1809
990.986	-2060
991.066	-1001
991.145	-2002
991.225	-2052
991.304	-2128
991.383	-1774
991.463	-1998
991.542	-862
991.622	-2367
991.701	-1507
991.780	-1707
991.859	-1421
991.939	-1382
992.018	-2022
992.097	-2153
992.176	-944
992.256	-1573
992.335	-2315
992.414	-1490
992.493	-1901
992.572	-1800
992.651	-739
992.730	-1843
992.809	-1155
992.888	-2379
992.967	-2102
993.046	-2269
993.125	-2802
993.203	-1718
993.282	-1566
993.361	-1271
993.440	-1749
993.519	-2085
993.597	-1836
993.676	-1309
993.755	-1081
993.834	-840
993.912	-2228
993.991	-343
994.069	-1806
994.148	-1438
994.226	-1782
994.305	-1423
994.384	-2165
994.462	-1208
994.540	-2551
994.619	-1952
994.697	-1449
994.776	-2164
994.854	-1489
994.932	-1880
995.011	-1659
995.089	-1877
995.167	-1659
995.245	-2369
995.324	-2251
995.402	-1188
995.480	-3324
995.558	-1894
995.636	-2545
995.714	-2248
995.792	-1252
995.870	-2030
995.948	-2149
996.026	-1021
996.104	-2207
996.182	-1340
996.260	-1782
996.338	-1121
996.416	-1901
996.494	-1929
996.572	-1545
996.649	-1211
996.727	-1999
996.805	-1280
996.883	-2497
996.960	-1816
997.038	-836
997.116	-1615
997.193	-2693
997.271	-1311
997.348	-2247
997.426	-1226
997.504	-1946
997.581	-1871
997.658	-2177
997.736	-2063
997.813	-2747
997.891	-1859
997.968	-2107
998.046	-1012
998.123	-1767
998.200	-1233
998.277	-2106
998.355	-1264
998.432	-2126
998.509	-1203
998.586	-1990
998.663	-1179
998.741	-1522
998.818	-2114
998.895	-1797
998.972	-1775
999.049	-1732
999.126	-1597
999.203	-2185
999.280	-942
999.357	-1703
999.434	-1513
999.511	-1900
999.587	-1016
999.664	-2706
999.741	-1317
999.818	-562
999.895	-2550
999.971	-2518
1000.048	-1709
1000.125	-1143
1000.202	-1679
1000.278	-2396
1000.355	-1677
1000.431	-1627
1000.508	-2824
1000.584	-2004
1000.661	-1039
1000.738	-1944
1000.814	-1958
1000.890	-1862
1000.967	-1992
1001.043	-1592
1001.120	-2786
1001.196	-2074
1001.272	-2693
1001.349	-1567
1001.425	-1137
1001.501	-1404
1001.577	-2124
1001.654	-2035
1001.730	-2025
1001.806	-1453
1001.882	-2223
1001.958	-1011
1002.034	-1516
1002.110	-1380
1002.186	-1440
1002.262	-2307
1002.338	-1668
1002.414	-1704
1002.490	-1244
1002.566	-2331
1002.642	-1906
1002.718	-1302
1002.794	-2026
1002.870	-1216
1002.945	-1789
1003.021	-1969
1003.097	-1309
1003.173	-1583
1003.248	-1763
1003.324	-1376
1003.400	-1183
1003.475	-2293
1003.551	-1830
1003.626	-2304
1003.702	-1895
1003.777	-1761
1003.853	-2299
1003.928	-2435
1004.004	-1420
1004.079	-1772
1004.155	-1635
1004.230	-3057
1004.305	-788
1004.381	-2122
1004.456	-1541
1004.531	-1646
1004.607	-1237
1004.682	-2033
1004.757	-1007
1004.832	-2670
1004.907	-1784
1004.982	-997
1005.057	-1518
1005.133	-2850
1005.208	-2312
1005.283	-1585
1005.358	-1322
1005.433	-1921
1005.508	-1649
1005.583	-1620
1005.657	-2675
1005.732	-775
1005.807	-2084
1005.882	-2097
1005.957	-1676
1006.032	-1853
1006.106	-2018
1006.181	-1656
1006.256	-1079
1006.331	-3056
1006.405	-1931
1006.480	-1285
1006.554	-1025
1006.629	-1766
1006.704	-2054
1006.778	-2428
1006.853	-669
1006.927	-2413
1007.002	-2314
1007.076	-2253
1007.150	-1588
1007.225	-1796
1007.299	-1262
1007.373	-1886
1007.448	-1946
1007.522	-1926
1007.596	-1777
1007.671	-2007
1007.745	-1649
1007.819	-2224
1007.893	-1478
1007.967	-1790
1008.041	-2425
1008.115	-1524
1008.190	-1779
1008.264	-1407
1008.338	-3529
1008.412	-2335
1008.486	-1915
1008.560	-2691
1008.633	-2700
1008.707	-2548
1008.781	-1413
1008.855	-2420
1008.929	-867
1009.003	-2738
1009.076	-1844
1009.150	-1828
1009.224	-2239
1009.298	-1939
1009.371	-2003
1009.445	-2267
1009.519	-1715
1009.592	-2367
1009.666	-1723
1009.739	-1518
1009.813	-3187
1009.886	-1524
1009.960	-2493
1010.033	-1814
1010.107	-1520
1010.180	-2472
1010.253	-1799
1010.327	-1995
1010.400	-2424
1010.473	-2126
1010.547	-1105
1010.620	-1915
1010.693	-1386
1010.766	-1685
1010.840	-1729
1010.913	-1485
1010.986	-1493
1011.059	-2134
1011.132	-1572
1011.205	-1650
1011.278	-1802
1011.351	-2585
1011.424	-1540
1011.497	-2347
1011.570	-1279
1011.643	-1815
1011.716	-1864
1011.789	-2097
1011.862	-1461
1011.934	-1049
1012.007	-2352
1012.080	-2065
1012.153	-1634
1012.225	-1425
1012.298	-2596
1012.371	-1930
1012.443	-1374
1012.516	-2041
1012.588	-2334
1012.661	-2383
1012.733	-2803
1012.806	-1653
1012.879	-1810
1012.951	-2209
1013.023	-2226
1013.096	-2257
1013.168	-3024
1013.241	-2477
1013.313	-1933
1013.385	-2800
1013.458	-2310
1013.530	-1591
1013.602	-2681
1013.674	-1612
1013.746	-2141
1013.819	-2637
1013.891	-1237
1013.963	-2144
1014.035	-2167
1014.107	-2435
1014.179	-1388
1014.251	-3075
1014.323	-2104
1014.395	-1731
1014.467	-1529
1014.539	-2630
1014.611	-3691
1014.683	-1357
1014.754	-2467
1014.826	-2751
1014.898	-1328
1014.970	-2920
1015.042	-1349
1015.113	-2032
1015.185	-2169
1015.257	-2538
1015.328	-1816
1015.400	-2428
1015.471	-2407
1015.543	-2881
1015.615	-1994
1015.686	-2142
1015.757	-2012
1015.829	-2686
1015.901	-2445
1015.972	-2235
1016.043	-2396
1016.115	-2602
1016.186	-2632
1016.257	-2758
1016.328	-1975
1016.400	-2148
1016.471	-2729
1016.542	-2509
1016.613	-2350
1016.685	-2316
1016.756	-1751
1016.827	-1993
1016.898	-2690
1016.969	-1283
1017.040	-2243
1017.111	-2561
1017.182	-3002
1017.253	-2343
1017.324	-1669
1017.395	-2608
1017.466	-1981
1017.537	-2319
1017.608	-1760
1017.678	-1991
1017.749	-2707
1017.820	-2342
1017.891	-2977
1017.961	-2360
1018.032	-2291
1018.103	-1852
1018.173	-1614
1018.244	-2229
1018.315	-3034
1018.385	-1925
1018.456	-1172
1018.526	-2632
1018.597	-2806
1018.667	-2441
1018.738	-2441
1018.808	-2666
1018.878	-2398
1018.949	-2152
1019.019	-2248
1019.089	-2324
1019.160	-1600
1019.230	-2816
1019.300	-2008
1019.371	-3224
1019.441	-1150
1019.511	-2381
1019.581	-2437
1019.651	-2507
1019.721	-2268
1019.791	-2558
1019.861	-2734
1019.931	-2183
1020.001	-2639
1020.071	-1708
1020.141	-2123
1020.211	-2493
1020.281	-3081
1020.351	-3072
1020.421	-2411
1020.491	-2347
1020.560	-3264
1020.630	-2922
1020.700	-2254
1020.770	-2678
1020.839	-2956
1020.909	-2716
1020.979	-2356
1021.048	-3047
1021.118	-2641
1021.187	-2147
1021.257	-2393
1021.326	-2039
1021.396	-2769
1021.465	-1509
1021.535	-1957
1021.604	-3108
1021.674	-2418
1021.743	-2358
1021.812	-2587
1021.882	-2489
1021.951	-2484
1022.020	-1914
1022.089	-2366
1022.159	-2495
1022.228	-2321
1022.297	-2188
1022.366	-2230
1022.435	-2636
1022.504	-2732
1022.573	-2487
1022.642	-2317
1022.711	-3387
1022.781	-2556
1022.849	-1824
1022.918	-3244
1022.987	-2164
1023.056	-2260
1023.125	-2639
1023.194	-2195
1023.263	-2151
1023.331	-3047
1023.400	-3165
1023.469	-1936
1023.538	-2141
1023.606	-2141
1023.675	-2077
1023.744	-2655
1023.812	-3524
1023.881	-1923
1023.949	-2665
1024.018	-3290
1024.086	-2069
1024.155	-2263
1024.223	-3113
1024.292	-3347
1024.360	-2459
1024.429	-2553
1024.497	-2690
1024.565	-2236
1024.634	-2947
1024.702	-2451
1024.770	-2539
1024.838	-2482
1024.907	-2358
1024.975	-2553
1025.043	-2578
1025.111	-2388
1025.179	-2573
1025.247	-3262
1025.315	-2505
1025.383	-1988
1025.451	-2810
1025.519	-2252
1025.587	-2830
1025.655	-1970
1025.723	-2351
1025.791	-1626
1025.859	-2718
1025.927	-1200
1025.995	-3111
1026.062	-1451
1026.130	-2270
1026.198	-2131
1026.266	-2699
1026.333	-2369
1026.401	-2409
1026.469	-3192
1026.536	-2252
1026.604	-2790
1026.671	-3344
1026.739	-2940
1026.806	-2843
1026.874	-2059
1026.941	-2494
1027.009	-2705
1027.076	-2348
1027.144	-2286
1027.211	-2929
1027.278	-2580
1027.345	-3002
1027.413	-2631
1027.480	-2199
1027.547	-2839
1027.614	-1862
1027.682	-1830
1027.749	-3326
1027.816	-2971
1027.883	-2330
1027.950	-2205
1028.017	-3049
1028.084	-1609
1028.151	-3468
1028.218	-2760
1028.285	-2291
1028.352	-2611
1028.419	-2700
1028.486	-3238
1028.553	-2947
1028.619	-2540
1028.686	-2488
1028.753	-1438
1028.820	-2508
1028.886	-2928
1028.953	-2495
1029.020	-2657
1029.086	-3007
1029.153	-2645
1029.220	-2863
1029.286	-2505
1029.353	-2376
1029.419	-2969
1029.486	-2922
1029.552	-2535
1029.619	-2843
1029.685	-2421
1029.751	-2620
1029.818	-1607
1029.884	-2772
1029.951	-1311
1030.017	-2812
1030.083	-2470
1030.149	-2978
1030.216	-2753
1030.282	-3218
1030.348	-2406
1030.414	-2797
1030.480	-2221
1030.546	-2927
1030.612	-2456
1030.678	-3182
1030.744	-1872
1030.810	-2791
1030.876	-3282
1030.942	-2417
1031.008	-1445
1031.074	-3090
1031.140	-2095
1031.206	-1809
1031.272	-2794
1031.337	-2691
1031.403	-2711
1031.469	-2527
1031.534	-2166
1031.600	-2531
1031.666	-3253
1031.731	-2560
1031.797	-2446
1031.863	-2558
1031.928	-2909
1031.994	-2651
1032.059	-2575
1032.125	-3229
1032.190	-2425
1032.256	-2759
1032.321	-2806
1032.386	-2793
1032.452	-2212
1032.517	-1972
1032.582	-2942
1032.647	-2858
1032.713	-2282
1032.778	-2444
1032.843	-3096
1032.908	-2523
1032.974	-2283
1033.039	-2780
1033.104	-2406
1033.169	-3188
1033.234	-1853
1033.299	-2429
1033.364	-1989
1033.429	-2955
1033.494	-1663
1033.559	-3502
1033.624	-2610
1033.688	-2714
1033.753	-2523
1033.818	-2914
1033.883	-2731
1033.948	-2456
1034.013	-2941
1034.077	-2102
1034.142	-2282
1034.207	-3236
1034.271	-2958
1034.336	-2403
1034.400	-1947
1034.465	-2378
1034.530	-2267
1034.594	-2349
1034.658	-1519
1034.723	-3015
1034.787	-1773
1034.852	-2626
1034.916	-3178
1034.981	-3423
1035.045	-1905
1035.109	-2469
1035.173	-2235
1035.238	-3070
1035.302	-2791
1035.366	-2771
1035.430	-2725
1035.495	-2561
1035.559	-2172
1035.623	-3115
1035.687	-3280
1035.751	-3079
1035.815	-3119
1035.879	-2544
1035.943	-2612
1036.007	-3348
1036.071	-2447
1036.135	-2668
1036.198	-2704
1036.262	-2607
1036.326	-3371
1036.390	-1626
1036.454	-2563
1036.517	-2773
1036.581	-1862
1036.645	-2371
1036.709	-1970
1036.772	-2832
1036.836	-2401
1036.900	-3010
1036.963	-2667
1037.026	-2648
1037.090	-2109
1037.154	-2853
1037.217	-3178
1037.280	-3106
1037.344	-2801
1037.407	-3133
1037.471	-2455
1037.534	-2206
1037.597	-2418
1037.661	-2432
1037.724	-2603
1037.787	-2720
1037.850	-2972
1037.913	-3440
1037.977	-1896
1038.040	-2930
1038.103	-2585
1038.166	-3230
1038.229	-2618
1038.292	-2874
1038.355	-2463
1038.418	-2209
1038.481	-1999
1038.544	-2822
1038.607	-1788
1038.670	-3547
1038.732	-2204
1038.795	-2705
1038.858	-1897
1038.921	-2699
1038.984	-2321
1039.046	-2559
1039.109	-2617
1039.172	-2552
1039.234	-2254
1039.297	-2867
1039.360	-1638
1039.422	-3324
1039.485	-3169
1039.547	-2936
1039.610	-2304
1039.672	-3127
1039.734	-2479
1039.797	-2057
1039.859	-2075
1039.922	-2889
1039.984	-2727
1040.046	-2898
1040.109	-2480
1040.171	-2705
1040.233	-2408
1040.295	-3081
1040.358	-2846
1040.420	-2528
1040.482	-2730
1040.544	-2895
1040.606	-2551
1040.668	-2666
1040.730	-3450
1040.792	-2896
1040.854	-2666
1040.916	-2660
1040.978	-2746
1041.040	-2536
1041.102	-1613
1041.164	-3119
1041.225	-2558
1041.287	-3136
1041.349	-3108
1041.411	-2821
1041.472	-2631
1041.534	-2900
1041.596	-4064
1041.657	-1993
1041.719	-2439
1041.781	-3588
1041.842	-2367
1041.904	-3263
1041.965	-2173
1042.027	-2804
1042.088	-2349
1042.150	-3373
1042.211	-1912
1042.272	-1844
1042.334	-2242
1042.395	-2892
1042.456	-2959
1042.518	-2751
1042.579	-2156
1042.640	-3217
1042.701	-2257
1042.763	-3057
1042.824	-2889
1042.885	-3332
1042.946	-3081
1043.007	-2926
1043.068	-2895
1043.129	-3268
1043.190	-2888
1043.251	-2320
1043.312	-2653
1043.373	-2243
1043.434	-3538
1043.495	-2784
1043.556	-2460
1043.616	-2345
1043.677	-2695
1043.738	-2598
1043.799	-2245
1043.859	-2357
1043.920	-2666
1043.981	-2750
1044.041	-2608
1044.102	-2543
1044.162	-2672
1044.223	-3361
1044.284	-2822
1044.344	-2357
1044.405	-3029
1044.465	-3195
1044.525	-2338
1044.586	-2793
1044.646	-2191
1044.707	-2429
1044.767	-2058
1044.827	-2679
1044.887	-2327
1044.948	-1397
1045.008	-1863
1045.068	-3376
1045.128	-3224
1045.188	-2802
1045.249	-2154
1045.309	-3155
1045.369	-2769
1045.429	-2683
1045.489	-2722
1045.549	-2573
1045.609	-1831
1045.669	-3185
1045.729	-3142
1045.789	-2903
1045.848	-2075
1045.908	-2628
1045.968	-1744
1046.028	-1831
1046.088	-2807
1046.147	-2182
1046.207	-2286
1046.267	-2161
1046.326	-2074
1046.386	-2313
1046.446	-1693
1046.505	-1757
1046.565	-1304
1046.624	-1551
1046.684	-1741
1046.743	-1893
1046.803	-1191
1046.862	-888
1046.922	0
