'Start Wavelength	183.907
'End Wavelength	1046.922
'Gate Delay	5.000
'Gate Width (ms)	1.050
'Laser Output Level	0.000
'X Position	0.000
'Y Position	0.000
'Z Position	0.000
'Grid Point Number	1.000
'Shot Number	100.000
183.907	209.000
183.977	-291.000
184.047	-345
184.116	-443
184.186	483
184.256	-121
184.325	-418
184.395	-303
184.465	591
184.534	-194
184.604	-464
184.674	-105
184.743	-279
184.813	314
184.883	-464
184.952	-134
185.022	-153
185.092	33
185.161	470
185.231	-96
185.301	-482
185.370	217
185.440	-813
185.509	27
185.579	-283
185.649	-433
185.718	162
185.788	559
185.857	-447
185.927	303
185.996	214
186.066	-785
186.136	-311
186.205	-199
186.275	57
186.344	159
186.414	-219
186.483	-818
186.553	1249
186.622	12
186.692	-114
186.761	-366
186.831	-559
186.900	-378
186.970	503
187.039	72
187.109	-266
187.178	363
187.248	-497
187.317	-193
187.387	-902
187.456	176
187.526	-289
187.595	85
187.664	-222
187.734	128
187.803	270
187.873	-359
187.942	676
188.012	650
188.081	-46
188.150	424
188.220	-8
188.289	340
188.358	137
188.428	299
188.497	-1017
188.567	640
188.636	-578
188.705	59
188.775	-129
188.844	-624
188.913	-89
188.983	-602
189.052	112
189.121	172
189.191	-134
189.260	726
189.329	-503
189.399	14
189.468	642
189.537	7
189.606	-265
189.676	643
189.745	134
189.814	207
189.883	-695
189.953	10
190.022	253
190.091	478
190.161	309
190.230	807
190.299	-583
190.368	-49
190.437	-362
190.507	320
190.576	44
190.645	-816
190.714	178
190.783	-759
190.853	323
190.922	173
190.991	550
191.060	185
191.129	-861
191.198	712
191.268	267
191.337	-269
191.406	606
191.475	45
191.544	358
191.613	232
191.682	-651
191.752	-381
191.821	-685
191.890	209
191.959	-45
192.028	644
192.097	-341
192.166	415
192.235	-800
192.304	284
192.373	503
192.442	-40
192.511	-959
192.580	245
192.650	-964
192.719	-9
192.788	-78
192.857	-55
192.926	-128
192.995	17
193.064	-265
193.133	235
193.202	40
193.271	990
193.340	867
193.409	1065
193.478	498
193.547	512
193.615	1414
193.684	1211
193.753	392
193.822	388
193.891	382
193.960	283
194.029	-5
194.098	367
194.167	62
194.236	1117
194.305	-499
194.374	258
194.443	227
194.512	450
194.580	-76
194.649	170
194.718	-279
194.787	-188
194.856	256
194.925	-26
194.994	-820
195.062	232
195.131	-505
195.200	476
195.269	106
195.338	335
195.407	169
195.475	-294
195.544	507
195.613	166
195.682	819
195.751	193
195.819	472
195.888	485
195.957	838
196.026	758
196.094	938
196.163	-134
196.232	-355
196.301	11
196.369	216
196.438	160
196.507	486
196.576	-53
196.644	-611
196.713	193
196.782	-78
196.850	-123
196.919	-137
196.988	119
197.056	-86
197.125	418
197.194	-43
197.262	435
197.331	-326
197.400	133
197.468	-101
197.537	-175
197.606	175
197.674	757
197.743	1107
197.812	688
197.880	1056
197.949	292
198.017	383
198.086	-80
198.155	81
198.223	496
198.292	625
198.360	341
198.429	224
198.497	-28
198.566	1163
198.635	1098
198.703	702
198.772	692
198.840	1220
198.909	1771
198.977	252
199.046	384
199.114	586
199.183	425
199.251	124
199.320	-18
199.388	-539
199.457	610
199.525	-733
199.594	311
199.662	501
199.731	-324
199.799	-329
199.867	227
199.936	-1092
200.004	232
200.073	-110
200.141	589
200.210	288
200.278	-136
200.346	30
200.415	1456
200.483	170
200.552	401
200.620	-75
200.688	544
200.757	1046
200.825	-103
200.893	366
200.962	179
201.030	-343
201.098	315
201.167	31
201.235	-60
201.303	148
201.372	739
201.440	1004
201.508	916
201.577	175
201.645	174
201.713	554
201.781	-147
201.850	229
201.918	229
201.986	-128
202.055	1114
202.123	-417
202.191	931
202.259	79
202.327	171
202.396	806
202.464	142
202.532	450
202.600	2238
202.669	220
202.737	280
202.805	-237
202.873	-171
202.941	570
203.009	425
203.078	-194
203.146	1511
203.214	576
203.282	-285
203.350	899
203.418	-110
203.487	897
203.555	640
203.623	376
203.691	100
203.759	-93
203.827	427
203.895	331
203.963	480
204.031	-779
204.099	493
204.168	-248
204.236	-199
204.304	701
204.372	114
204.440	144
204.508	-9
204.576	-195
204.644	984
204.712	-141
204.780	1228
204.848	126
204.916	153
204.984	72
205.052	950
205.120	460
205.188	872
205.256	541
205.324	38
205.392	415
205.460	54
205.528	-32
205.596	237
205.664	52
205.732	693
205.799	1052
205.867	2457
205.935	685
206.003	1197
206.071	-113
206.139	-531
206.207	860
206.275	608
206.343	270
206.411	-5
206.478	248
206.546	213
206.614	439
206.682	503
206.750	405
206.818	309
206.885	559
206.953	236
207.021	694
207.089	323
207.157	130
207.225	732
207.292	245
207.360	206
207.428	412
207.496	-156
207.563	98
207.631	727
207.699	-97
207.767	496
207.834	1099
207.902	380
207.970	302
208.038	178
208.105	570
208.173	274
208.241	-422
208.309	899
208.376	540
208.444	1536
208.512	793
208.579	-79
208.647	72
208.715	433
208.782	-102
208.850	883
208.918	-26
208.985	324
209.053	584
209.120	750
209.188	141
209.256	705
209.323	-648
209.391	462
209.459	348
209.526	1826
209.594	-194
209.661	683
209.729	694
209.796	280
209.864	574
209.932	-161
209.999	784
210.067	684
210.134	260
210.202	573
210.269	1067
210.337	1564
210.404	319
210.472	831
210.539	1229
210.607	409
210.674	1005
210.742	1574
210.809	958
210.877	1072
210.944	1671
211.012	593
211.079	1892
211.146	882
211.214	544
211.281	1143
211.349	1103
211.416	776
211.484	888
211.551	793
211.618	1073
211.686	1052
211.753	-67
211.821	1297
211.888	844
211.955	1447
212.023	381
212.090	789
212.157	1154
212.225	850
212.292	1401
212.359	3454
212.427	7447
212.494	3460
212.561	1814
212.629	888
212.696	457
212.763	1220
212.831	1157
212.898	889
212.965	761
213.032	1489
213.100	537
213.167	527
213.234	1378
213.301	1155
213.369	802
213.436	1325
213.503	350
213.570	878
213.638	469
213.705	518
213.772	650
213.839	1545
213.906	1673
213.973	1518
214.041	664
214.108	1558
214.175	821
214.242	761
214.309	1103
214.376	1153
214.444	445
214.511	923
214.578	988
214.645	1097
214.712	1515
214.779	1559
214.846	-145
214.913	1158
214.980	833
215.048	1293
215.115	2310
215.182	1517
215.249	1232
215.316	1755
215.383	1947
215.450	1335
215.517	521
215.584	964
215.651	707
215.718	954
215.785	1187
215.852	781
215.919	1002
215.986	883
216.053	787
216.120	611
216.187	450
216.254	1152
216.321	666
216.388	1352
216.455	1500
216.522	1491
216.589	1476
216.656	2751
216.722	2255
216.789	1600
216.856	2178
216.923	1544
216.990	2032
217.057	1352
217.124	1656
217.191	2120
217.258	2621
217.324	3475
217.391	3076
217.458	1821
217.525	2006
217.592	1500
217.659	857
217.725	1844
217.792	1985
217.859	1847
217.926	724
217.993	580
218.059	1182
218.126	1390
218.193	698
218.260	1519
218.327	45
218.393	912
218.460	260
218.527	-89
218.594	952
218.660	2409
218.727	2767
218.794	550
218.860	828
218.927	985
218.994	1027
219.061	-21
219.127	784
219.194	2013
219.261	-13
219.327	215
219.394	1104
219.461	-406
219.527	771
219.594	849
219.661	734
219.727	-208
219.794	1079
219.860	611
219.927	1273
219.994	1251
220.060	1824
220.127	1410
220.193	1378
220.260	1355
220.326	3369
220.393	4021
220.460	4469
220.526	3514
220.593	1657
220.659	3341
220.726	2042
220.792	4676
220.859	5193
220.925	6388
220.992	8098
221.058	7370
221.125	6694
221.191	5286
221.258	1970
221.324	1906
221.391	805
221.457	785
221.524	1151
221.590	1710
221.657	5849
221.723	3158
221.789	2731
221.856	3412
221.922	900
221.989	1378
222.055	1044
222.121	-189
222.188	2234
222.254	1214
222.321	488
222.387	1073
222.453	646
222.520	396
222.586	408
222.652	487
222.719	-406
222.785	953
222.851	805
222.918	404
222.984	377
223.050	1234
223.116	-1034
223.183	1072
223.249	335
223.315	148
223.382	770
223.448	790
223.514	-422
223.580	526
223.647	442
223.713	-791
223.779	551
223.845	646
223.911	604
223.978	-561
224.044	323
224.110	-116
224.176	756
224.242	316
224.309	-932
224.375	499
224.441	582
224.507	144
224.573	-860
224.639	1094
224.705	-519
224.772	723
224.838	-118
224.904	1132
224.970	478
225.036	-189
225.102	14
225.168	1484
225.234	359
225.300	207
225.366	267
225.432	909
225.499	-511
225.565	453
225.631	153
225.697	784
225.763	1030
225.829	1992
225.895	1058
225.961	2909
226.027	1975
226.093	2213
226.159	2919
226.225	4990
226.291	8990
226.357	13398
226.423	7755
226.489	4424
226.554	2592
226.620	2307
226.686	3450
226.752	5552
226.818	9495
226.884	16843
226.950	15330
227.016	6565
227.082	4168
227.148	2622
227.214	2639
227.279	1554
227.345	1206
227.411	1814
227.477	1019
227.543	1680
227.609	1326
227.674	2152
227.740	823
227.806	1024
227.872	427
227.938	905
228.003	2126
228.069	629
228.135	604
228.201	1217
228.267	-50
228.332	1388
228.398	-124
228.464	1943
228.530	-85
228.595	1105
228.661	276
228.727	597
228.792	1700
228.858	142
228.924	-763
228.990	1823
229.055	404
229.121	736
229.187	455
229.252	111
229.318	197
229.384	793
229.449	-76
229.515	-725
229.581	-509
229.646	1618
229.712	637
229.777	2307
229.843	2437
229.909	1804
229.974	2583
230.040	1736
230.105	1293
230.171	923
230.236	1867
230.302	3349
230.368	2350
230.433	1204
230.499	1156
230.564	1374
230.630	422
230.695	884
230.761	1211
230.826	-359
230.892	3037
230.957	621
231.023	1136
231.088	395
231.154	214
231.219	597
231.284	983
231.350	2270
231.415	318
231.481	932
231.546	585
231.612	965
231.677	253
231.742	99
231.808	1569
231.873	-260
231.939	-1195
232.004	2525
232.069	2030
232.135	-39
232.200	449
232.265	1092
232.331	-165
232.396	33
232.461	-1
232.527	475
232.592	31
232.657	598
232.723	536
232.788	707
232.853	619
232.918	-166
232.984	-443
233.049	-184
233.114	-329
233.179	915
233.245	1816
233.310	1934
233.375	-206
233.440	773
233.506	-314
233.571	-207
233.636	-154
233.701	61
233.766	778
233.832	1919
233.897	379
233.962	77
234.027	926
234.092	1124
234.157	-389
234.222	-31
234.288	1655
234.353	3623
234.418	3390
234.483	3448
234.548	1763
234.613	1229
234.678	1034
234.743	818
234.808	4415
234.873	1752
234.938	2638
235.004	1520
235.069	749
235.134	682
235.199	1357
235.264	1114
235.329	-150
235.394	1380
235.459	1733
235.524	244
235.589	620
235.654	652
235.719	201
235.784	1273
235.849	725
235.913	1804
235.978	2268
236.043	2600
236.108	1332
236.173	172
236.238	2210
236.303	753
236.368	436
236.433	2758
236.498	3737
236.563	4035
236.627	7113
236.692	23142
236.757	19802
236.822	8702
236.887	4741
236.952	4739
237.017	2654
237.081	4912
237.146	4123
237.211	11958
237.276	23035
237.341	33484
237.405	17121
237.470	7296
237.535	5014
237.600	2575
237.664	2788
237.729	1240
237.794	2686
237.859	7365
237.923	3794
237.988	2694
238.053	2879
238.118	2858
238.182	6571
238.247	6552
238.312	1563
238.376	2438
238.441	86
238.506	1826
238.570	-170
238.635	1589
238.700	803
238.764	76
238.829	2315
238.893	2804
238.958	1844
239.023	1281
239.087	968
239.152	581
239.216	-133
239.281	728
239.346	1326
239.410	781
239.475	620
239.539	6057
239.604	4249
239.668	1792
239.733	-103
239.797	488
239.862	362
239.926	3760
239.991	1980
240.055	1478
240.120	245
240.184	591
240.249	-156
240.313	782
240.378	406
240.442	2607
240.507	5944
240.571	1416
240.635	1790
240.700	2643
240.764	1933
240.829	1255
240.893	-428
240.957	1140
241.022	3318
241.086	6037
241.151	1600
241.215	232
241.279	1768
241.344	1914
241.408	1810
241.472	725
241.537	2069
241.601	1120
241.665	60
241.730	596
241.794	2525
241.858	1064
241.922	1360
241.987	1013
242.051	739
242.115	694
242.179	1989
242.244	232
242.308	1737
242.372	902
242.436	943
242.501	1246
242.565	758
242.629	309
242.693	1485
242.757	437
242.822	910
242.886	1722
242.950	1405
243.014	789
243.078	1311
243.142	1722
243.206	625
243.271	2341
243.335	410
243.399	2937
243.463	7939
243.527	23013
243.591	6652
243.655	2504
243.719	1059
243.783	1958
243.847	2939
243.911	3882
243.975	4660
244.040	2143
244.104	2771
244.168	1994
244.232	1905
244.296	3788
244.360	3556
244.424	1392
244.488	1335
244.552	1130
244.615	-348
244.679	1719
244.743	1238
244.807	1035
244.871	544
244.935	1712
244.999	-483
245.063	-136
245.127	1844
245.191	2663
245.255	1525
245.319	1470
245.383	300
245.446	2177
245.510	735
245.574	1631
245.638	1202
245.702	300
245.766	4144
245.829	2734
245.893	775
245.957	1215
246.021	1970
246.085	1061
246.149	1302
246.212	6592
246.276	9549
246.340	3293
246.404	2820
246.467	3403
246.531	2518
246.595	2993
246.659	3149
246.722	1471
246.786	2591
246.850	2711
246.913	3387
246.977	748
247.041	1151
247.104	2374
247.168	1629
247.232	5297
247.295	13205
247.359	5582
247.423	2558
247.486	3437
247.550	3155
247.614	1835
247.677	2686
247.741	1844
247.804	2006
247.868	2445
247.932	4465
247.995	13478
248.059	3544
248.122	1058
248.186	3646
248.249	5399
248.313	21640
248.376	21572
248.440	13284
248.503	4216
248.567	4903
248.630	4427
248.694	7031
248.757	10384
248.821	23905
248.884	13653
248.948	11001
249.011	16814
249.075	25847
249.138	22388
249.202	8659
249.265	4570
249.328	5687
249.392	3505
249.455	4021
249.519	2028
249.582	2772
249.645	5882
249.709	4674
249.772	3845
249.835	2613
249.899	2423
249.962	2301
250.025	1974
250.089	7291
250.152	11122
250.215	4844
250.279	3133
250.342	4605
250.405	3566
250.468	2372
250.532	4010
250.595	6587
250.658	23316
250.721	39733
250.785	12925
250.848	7499
250.911	4138
250.974	4387
251.038	6110
251.101	12428
251.164	5120
251.227	6527
251.290	5434
251.354	8648
251.417	33868
251.480	32632
251.543	21698
251.606	63510
251.669	44855
251.732	15827
251.795	17909
251.859	17841
251.922	38192
251.985	21971
252.048	9149
252.111	6313
252.174	5275
252.237	11557
252.300	27876
252.363	25298
252.426	51548
252.489	20276
252.552	9978
252.615	6359
252.678	8205
252.741	19210
252.804	23846
252.867	51142
252.930	30609
252.993	16326
253.056	9026
253.119	6599
253.182	4114
253.245	6510
253.308	5660
253.371	4914
253.434	4475
253.497	4841
253.559	11905
253.622	6660
253.685	7604
253.748	8373
253.811	3872
253.874	4800
253.937	4061
254.000	4389
254.062	7416
254.125	12102
254.188	11698
254.251	7915
254.314	3764
254.376	6328
254.439	7927
254.502	5940
254.565	7233
254.628	14494
254.690	7500
254.753	3212
254.816	2716
254.878	2981
254.941	7396
255.004	8353
255.067	3370
255.129	2656
255.192	1989
255.255	158
255.317	2353
255.380	1509
255.443	1213
255.505	311
255.568	680
255.631	1047
255.693	1529
255.756	192
255.819	2195
255.881	938
255.944	890
256.006	379
256.069	1231
256.132	437
256.194	999
256.257	4485
256.319	3499
256.382	2013
256.444	2286
256.507	2074
256.569	1789
256.632	1630
256.694	4090
256.757	12396
256.819	38006
256.882	15500
256.944	5992
257.007	4730
257.069	2757
257.132	2388
257.194	3497
257.257	2145
257.319	2731
257.381	3784
257.444	10778
257.506	41183
257.569	46667
257.631	18204
257.693	9851
257.756	4692
257.818	2932
257.880	2269
257.943	2787
258.005	1174
258.067	1681
258.130	1743
258.192	1707
258.254	3564
258.317	2847
258.379	1940
258.441	5242
258.503	6548
258.566	6420
258.628	7944
258.690	1458
258.753	2895
258.815	4512
258.877	1748
258.939	1596
259.001	1400
259.064	1083
259.126	1585
259.188	1949
259.250	1470
259.312	2324
259.375	5460
259.437	3075
259.499	1684
259.561	1418
259.623	1135
259.685	2439
259.747	2055
259.809	5807
259.872	10221
259.934	17659
259.996	17350
260.058	5655
260.120	1163
260.182	1983
260.244	1444
260.306	702
260.368	1564
260.430	1402
260.492	3997
260.554	8384
260.616	3425
260.678	8808
260.740	11431
260.802	2540
260.864	2212
260.926	715
260.988	1822
261.050	1652
261.112	5607
261.174	15999
261.236	8868
261.298	2871
261.359	4339
261.421	7111
261.483	1238
261.545	2146
261.607	121
261.669	1556
261.731	2229
261.793	6863
261.854	2647
261.916	3091
261.978	1749
262.040	2670
262.102	1365
262.164	1448
262.225	1866
262.287	915
262.349	4784
262.411	3177
262.472	2138
262.534	2544
262.596	5624
262.658	2557
262.719	120
262.781	2524
262.843	4661
262.904	3568
262.966	2144
263.028	2755
263.090	12595
263.151	34507
263.213	11405
263.275	6395
263.336	1576
263.398	1952
263.459	372
263.521	1546
263.583	4400
263.644	3103
263.706	978
263.767	96
263.829	773
263.891	837
263.952	297
264.014	434
264.075	2738
264.137	8893
264.198	2668
264.260	283
264.321	1008
264.383	4299
264.444	13615
264.506	4310
264.567	1866
264.629	5105
264.690	10939
264.752	4162
264.813	1553
264.875	1047
264.936	1754
264.998	1380
265.059	562
265.120	1883
265.182	2202
265.243	19070
265.305	20573
265.366	3950
265.427	1637
265.489	2379
265.550	200
265.611	1838
265.673	827
265.734	1260
265.795	764
265.857	515
265.918	843
265.979	5481
266.040	31687
266.102	27973
266.163	7326
266.224	4821
266.286	1670
266.347	570
266.408	1183
266.469	616
266.530	638
266.592	1021
266.653	2324
266.714	4961
266.775	1727
266.836	823
266.898	774
266.959	2838
267.020	1028
267.081	1151
267.142	280
267.203	603
267.264	-333
267.326	1538
267.387	-220
267.448	-415
267.509	-81
267.570	523
267.631	-373
267.692	-585
267.753	734
267.814	-391
267.875	1882
267.936	6749
267.997	3246
268.058	2328
268.119	334
268.180	1048
268.241	87
268.302	394
268.363	-173
268.424	614
268.485	1046
268.546	-210
268.607	152
268.668	-287
268.729	-233
268.790	435
268.851	1131
268.912	3880
268.972	4584
269.033	1639
269.094	265
269.155	837
269.216	-147
269.277	86
269.338	459
269.398	667
269.459	529
269.520	1125
269.581	2259
269.642	3317
269.702	1399
269.763	790
269.824	146
269.885	1316
269.945	2980
270.006	830
270.067	-631
270.128	-582
270.188	-838
270.249	758
270.310	-611
270.370	481
270.431	159
270.492	332
270.553	180
270.613	2420
270.674	6514
270.734	1677
270.795	867
270.856	1795
270.916	728
270.977	587
271.038	1104
271.098	1032
271.159	2365
271.219	2470
271.280	482
271.340	789
271.401	291
271.462	3145
271.522	1278
271.583	1088
271.643	1425
271.704	592
271.764	1125
271.825	4920
271.885	19971
271.946	27558
272.006	7948
272.066	11694
272.127	20857
272.187	4968
272.248	3003
272.308	2431
272.369	13083
272.429	7445
272.489	4944
272.550	4735
272.610	4684
272.671	2603
272.731	2985
272.791	4930
272.852	2323
272.912	1716
272.972	524
273.033	1433
273.093	2129
273.153	3158
273.214	1817
273.274	1128
273.334	9632
273.394	21416
273.455	6137
273.515	6853
273.575	15389
273.635	5583
273.696	7371
273.756	17647
273.816	6211
273.876	2945
273.936	6283
273.997	13238
274.057	2112
274.117	2213
274.177	4128
274.237	24262
274.297	19562
274.358	10405
274.418	14115
274.478	10793
274.538	3422
274.598	2546
274.658	8594
274.718	10594
274.778	4619
274.838	2022
274.898	4757
274.958	15569
275.018	18498
275.078	11633
275.138	3784
275.198	1387
275.258	546
275.318	1720
275.378	3733
275.438	5437
275.498	2124
275.558	7331
275.618	16175
275.678	12374
275.738	6369
275.798	5446
275.858	2109
275.918	1160
275.978	1957
276.038	1415
276.098	345
276.157	3549
276.217	11511
276.277	4841
276.337	3728
276.397	1093
276.457	1197
276.517	1952
276.576	945
276.636	185
276.696	1402
276.756	6960
276.815	4624
276.875	1611
276.935	1362
276.995	1661
277.055	986
277.114	854
277.174	1595
277.234	9636
277.293	3179
277.353	1527
277.413	493
277.472	853
277.532	740
277.592	1631
277.651	4791
277.711	11079
277.771	3242
277.830	14393
277.890	11706
277.950	7015
278.009	25046
278.069	8190
278.128	8019
278.188	11282
278.248	4694
278.307	11606
278.367	7711
278.426	1857
278.486	758
278.545	835
278.605	991
278.664	613
278.724	869
278.783	6143
278.843	18435
278.902	4369
278.962	1152
279.021	2404
279.081	2709
279.140	1531
279.199	1801
279.259	2950
279.318	3307
279.378	4293
279.437	6506
279.496	25797
279.556	67828
279.615	49344
279.675	11587
279.734	6300
279.793	9848
279.853	22071
279.912	7476
279.971	3778
280.031	3168
280.090	8559
280.149	15824
280.208	9307
280.268	44557
280.327	42574
280.386	9558
280.445	7412
280.505	7275
280.564	2998
280.623	3102
280.682	4991
280.742	7834
280.801	1445
280.860	1307
280.919	1081
280.978	690
281.037	417
281.097	-150
281.156	1067
281.215	348
281.274	1455
281.333	11341
281.392	8300
281.451	938
281.510	758
281.569	242
281.628	783
281.688	79
281.747	968
281.806	1587
281.865	447
281.924	110
281.983	337
282.042	-178
282.101	-348
282.160	410
282.219	522
282.278	-79
282.337	6325
282.396	2859
282.454	1044
282.513	1473
282.572	9238
282.631	4876
282.690	1603
282.749	207
282.808	1588
282.867	1568
282.926	1132
282.985	755
283.043	367
283.102	-50
283.161	649
283.220	4204
283.279	11011
283.338	4041
283.396	931
283.455	961
283.514	1127
283.573	2505
283.631	1882
283.690	797
283.749	576
283.808	3208
283.866	3940
283.925	882
283.984	1803
284.043	1657
284.101	1979
284.160	1119
284.219	2216
284.277	1247
284.336	3064
284.395	13344
284.453	10059
284.512	2943
284.570	4070
284.629	2760
284.688	2524
284.746	2452
284.805	2975
284.863	4508
284.922	5892
284.981	7818
285.039	11110
285.098	19888
285.156	50688
285.215	118652
285.273	114358
285.332	55571
285.390	26336
285.449	15266
285.507	10432
285.566	7190
285.624	6058
285.683	4600
285.741	4083
285.799	2979
285.858	2511
285.916	2167
285.975	1686
286.033	558
286.091	1252
286.150	182
286.208	981
286.267	1493
286.325	775
286.383	3222
286.442	2453
286.500	16
286.558	277
286.616	-183
286.675	1239
286.733	522
286.791	118
286.850	828
286.908	887
286.966	5378
287.024	1490
287.083	379
287.141	1028
287.199	766
287.257	1996
287.315	597
287.374	1828
287.432	6114
287.490	3218
287.548	833
287.606	1546
287.664	1143
287.723	1939
287.781	2905
287.839	1904
287.897	1768
287.955	2836
288.013	4379
288.071	10388
288.129	45057
288.187	125564
288.245	55748
288.303	16783
288.361	8608
288.419	6425
288.477	2898
288.535	2514
288.593	1633
288.651	1531
288.709	1132
288.767	1188
288.825	595
288.883	1241
288.941	541
288.999	-189
289.057	-103
289.115	86
289.173	-267
289.231	-6
289.289	747
289.346	437
289.404	795
289.462	2232
289.520	2236
289.578	853
289.636	-510
289.694	520
289.751	139
289.809	819
289.867	-174
289.925	1158
289.983	972
290.040	250
290.098	-610
290.156	1086
290.214	1207
290.271	-517
290.329	-272
290.387	-486
290.444	-882
290.502	-424
290.560	-127
290.617	629
290.675	-525
290.733	-210
290.790	1107
290.848	721
290.906	538
290.963	1013
291.021	362
291.078	190
291.136	0
291.194	6150
291.251	14425
291.309	3359
291.366	694
291.424	745
291.481	59
291.539	438
291.596	-820
291.654	-292
291.711	85
291.769	509
291.826	1725
291.884	1246
291.941	-393
291.999	-80
292.056	-322
292.114	731
292.171	-444
292.228	545
292.286	281
292.343	2103
292.401	2707
292.458	1525
292.515	309
292.573	1400
292.630	772
292.687	757
292.745	842
292.802	1875
292.859	7345
292.917	12960
292.974	7045
293.031	1998
293.089	477
293.146	-272
293.203	10
293.260	840
293.318	392
293.375	2841
293.432	1726
293.489	830
293.546	994
293.604	2016
293.661	6400
293.718	23495
293.775	11402
293.832	4052
293.889	2111
293.947	1767
294.004	2110
294.061	1742
294.118	5058
294.175	13013
294.232	20200
294.289	7226
294.346	3017
294.403	3584
294.460	1188
294.517	1716
294.574	1278
294.631	1832
294.688	1866
294.745	5053
294.802	26965
294.859	32063
294.916	11360
294.973	4564
295.030	3636
295.087	1937
295.144	1906
295.201	2080
295.258	1362
295.315	2066
295.372	8695
295.429	18608
295.486	7718
295.542	4475
295.599	13092
295.656	24045
295.713	15672
295.770	17558
295.827	6750
295.883	2989
295.940	3032
295.997	4034
296.054	4123
296.111	2124
296.167	1773
296.224	1628
296.281	379
296.338	1762
296.394	1338
296.451	1909
296.508	7339
296.564	15405
296.621	10879
296.678	20477
296.734	32118
296.791	11369
296.848	5754
296.904	5318
296.961	11565
297.018	19975
297.074	15213
297.131	5102
297.187	4012
297.244	4903
297.301	19536
297.357	38105
297.414	13085
297.470	4824
297.527	3399
297.583	2862
297.640	1600
297.696	2267
297.753	1483
297.809	658
297.866	522
297.922	959
297.979	497
298.035	453
298.092	2563
298.148	11523
298.204	11320
298.261	4874
298.317	9231
298.374	26938
298.430	15697
298.486	5957
298.543	3966
298.599	2940
298.656	3624
298.712	5737
298.768	16150
298.824	11922
298.881	3778
298.937	2225
298.993	1793
299.050	2895
299.106	2415
299.162	1379
299.218	2805
299.275	1564
299.331	1434
299.387	5059
299.443	21337
299.500	21448
299.556	6696
299.612	3595
299.668	2497
299.724	2185
299.780	2250
299.837	1844
299.893	3311
299.949	15932
300.005	17814
300.061	16055
300.117	29665
300.173	14540
300.229	5745
300.285	6582
300.341	7144
300.397	3819
300.453	1358
300.510	2158
300.566	1693
300.622	919
300.678	2775
300.734	10511
300.790	14963
300.845	20891
300.901	10227
300.957	14240
301.013	12331
301.069	4698
301.125	2940
301.181	2805
301.237	1792
301.293	1027
301.349	1557
301.405	1235
301.461	1692
301.516	2548
301.572	2660
301.628	4529
301.684	4010
301.740	7367
301.796	12268
301.851	8614
301.907	13581
301.963	13073
302.019	22206
302.074	64017
302.130	63712
302.186	29112
302.242	11532
302.297	7214
302.353	6678
302.409	13389
302.464	11086
302.520	8962
302.576	20756
302.631	25202
302.687	13839
302.743	6248
302.798	2971
302.854	3406
302.910	3214
302.965	3892
303.021	6225
303.076	6549
303.132	7554
303.187	9810
303.243	4594
303.299	3141
303.354	1649
303.410	3021
303.465	2141
303.521	2053
303.576	3060
303.632	3126
303.687	6144
303.743	21473
303.798	18465
303.853	6749
303.909	4019
303.964	3035
304.020	3989
304.075	7520
304.130	6110
304.186	11766
304.241	13149
304.297	10390
304.352	4958
304.358	4759
304.407	3149
304.449	2899
304.463	2815
304.518	3139
304.539	2950
304.573	2654
304.629	3062
304.630	3088
304.684	4545
304.720	11916
304.739	15533
304.794	24073
304.811	20445
304.850	11800
304.902	5626
304.905	5241
304.960	4047
304.992	3850
305.015	3656
305.071	3528
305.083	3383
305.126	2908
305.173	2092
305.181	1969
305.236	1350
305.264	1745
305.292	2110
305.347	1970
305.354	2125
305.402	3170
305.445	3665
305.457	3787
305.512	4508
305.535	4644
305.567	4889
305.622	4187
305.626	4368
305.678	9053
305.716	18621
305.733	21710
305.788	23645
305.807	20048
305.843	14807
305.897	21864
305.898	21926
305.953	21909
305.988	14244
306.008	10287
306.063	5679
306.078	5039
306.118	3549
306.168	2394
306.173	2314
306.228	1758
306.259	1872
306.283	1938
306.338	2243
306.349	2328
306.393	2822
306.440	3226
306.448	3267
306.503	3472
306.530	3631
306.558	4805
306.613	11021
306.620	11787
306.668	16077
306.711	20264
306.723	20488
306.778	15118
306.801	11319
306.833	7496
306.888	3996
306.892	3865
306.943	2819
306.982	2456
306.997	2403
307.052	2266
307.072	2321
307.107	2780
307.162	4420
307.163	4442
307.217	7148
307.253	8636
307.272	8769
307.327	9049
307.343	8295
307.381	6806
307.434	5560
307.436	5746
307.491	12784
307.524	19288
307.546	20202
307.600	18592
307.614	16005
307.655	9718
307.704	5877
307.710	5812
307.765	6977
307.795	8988
307.819	10706
307.874	17362
307.885	17447
307.929	14136
307.975	11110
307.984	11566
308.038	16787
308.065	20967
308.093	37237
308.148	79121
308.156	88294
308.202	126250
308.246	146915
308.257	142851
308.312	80438
308.336	55278
308.366	40551
308.421	23516
308.426	22202
308.475	14758
308.517	10889
308.530	10051
308.585	8485
308.607	8019
308.639	7959
308.694	9046
308.697	9141
308.748	16056
308.787	23504
308.803	23092
308.857	17093
308.877	14163
308.912	12456
308.967	12080
308.967	12097
309.021	16605
309.058	20368
309.076	26340
309.130	48000
309.148	56705
309.185	104612
309.238	187096
309.239	187381
309.293	186007
309.328	163070
309.348	141625
309.402	69576
309.418	51479
309.457	35151
309.508	21010
309.511	20532
309.566	16556
309.598	15155
309.620	15632
309.674	18501
309.688	19331
309.729	17405
309.778	13999
309.783	13818
309.837	11141
309.868	10159
309.892	13091
309.946	21217
309.959	23799
310.001	29143
310.049	32681
310.055	31547
310.109	18607
310.139	10918
310.163	8473
310.218	5391
310.229	4839
310.272	4216
310.319	4082
310.326	4015
310.381	3537
310.409	3347
310.435	3267
310.489	3073
310.499	3080
310.543	3646
310.589	4010
310.598	3959
310.652	3824
310.679	3682
310.706	3439
310.760	2750
310.769	2692
310.814	2428
310.859	2078
310.868	2121
310.923	2235
310.948	2399
310.977	2592
311.031	2905
311.038	2945
311.085	2904
311.128	2730
311.139	2728
311.193	2955
311.218	2938
311.247	3090
311.301	3443
311.308	3480
311.356	3196
311.398	2982
311.410	2963
311.464	2788
311.488	2722
311.518	2736
311.572	2658
311.578	2664
311.626	3459
311.668	4136
311.680	4272
311.734	4748
311.758	5003
311.788	4811
311.842	4406
311.847	4350
311.896	5851
311.937	7304
311.950	7038
312.004	5722
312.027	5138
312.058	4413
312.112	3128
312.117	3001
312.165	2881
312.207	2783
312.297	5542
312.386	3868
312.476	4436
312.566	6189
312.656	3329
312.745	2648
312.835	3440
312.925	3685
313.015	3751
313.104	4219
313.194	2931
313.284	2635
313.374	4234
313.463	3442
313.553	3143
313.643	2349
313.732	1403
313.822	2327
313.912	2905
314.001	2826
314.091	4053
314.180	5940
314.270	4835
314.360	4856
314.449	3764
314.539	2543
314.628	2548
314.718	3654
314.808	4318
314.897	2056
314.987	2660
315.076	2755
315.166	4575
315.255	4324
315.345	4160
315.434	3643
315.524	3911
315.613	3265
315.703	3998
315.792	3332
315.881	3395
315.971	3229
316.060	8189
316.150	13159
316.239	13144
316.328	3901
316.418	2117
316.507	2942
316.597	3401
316.686	3700
316.775	7080
316.865	13514
316.954	2761
317.043	2517
317.133	2506
317.222	2380
317.311	2052
317.400	1044
317.490	4054
317.579	3903
317.668	3046
317.757	3629
317.847	3545
317.936	5531
318.025	7006
318.114	3902
318.203	3980
318.293	7026
318.382	12047
318.471	9916
318.560	18257
318.649	39273
318.738	5575
318.828	5229
318.917	4510
319.006	6577
319.095	18767
319.184	51445
319.273	21070
319.362	8966
319.451	3319
319.540	3233
319.629	9389
319.718	11227
319.807	6627
319.896	17917
319.985	60184
320.074	14689
320.163	5278
320.252	9098
320.341	8526
320.430	5816
320.519	6762
320.608	4280
320.697	3458
320.786	3120
320.875	4006
320.964	4756
321.053	8033
321.142	11681
321.230	10900
321.319	11197
321.408	23981
321.497	8747
321.586	8770
321.675	14342
321.764	11677
321.852	8306
321.941	12822
322.030	6530
322.119	11182
322.207	24620
322.296	18586
322.385	9148
322.474	9379
322.562	27700
322.651	12201
322.740	9824
322.829	14823
322.917	18630
323.006	8232
323.095	7323
323.183	5759
323.272	9146
323.361	20071
323.449	56605
323.538	17168
323.626	42653
323.715	18489
323.804	9914
323.892	38303
323.981	14749
324.069	6133
324.158	22516
324.246	15879
324.335	6106
324.424	7746
324.512	3232
324.601	3896
324.689	4987
324.778	7916
324.866	11981
324.954	3917
325.043	3562
325.131	7618
325.220	16668
325.308	17191
325.397	13358
325.485	6141
325.574	2748
325.662	1057
325.750	2912
325.839	2911
325.927	1740
326.015	3200
326.104	6753
326.192	8439
326.280	2979
326.369	2425
326.457	4087
326.545	6601
326.634	2703
326.722	1559
326.810	1979
326.898	2025
326.987	2642
327.075	6516
327.163	8007
327.251	2934
327.340	2728
327.428	3466
327.516	2057
327.604	1864
327.692	2867
327.781	4080
327.869	6645
327.957	3621
328.045	3080
328.133	1780
328.221	3861
328.309	2281
328.397	2126
328.485	2853
328.574	4370
328.662	13335
328.750	8464
328.838	3487
328.926	1903
329.014	2558
329.102	3926
329.190	12553
329.278	5376
329.366	1790
329.454	1677
329.542	2147
329.630	2177
329.718	2162
329.806	3005
329.893	3221
329.981	1966
330.069	2888
330.157	11608
330.245	26732
330.333	11130
330.421	2717
330.509	4573
330.597	17902
330.684	9667
330.772	4330
330.860	8830
330.948	10847
331.036	3907
331.123	1761
331.211	2392
331.299	3327
331.387	10840
331.475	14648
331.562	3903
331.650	2354
331.738	2672
331.825	4237
331.913	1816
332.001	1662
332.089	3627
332.176	7935
332.264	21248
332.352	12188
332.439	4031
332.527	2999
332.614	2602
332.702	3536
332.790	3088
332.877	9095
332.965	15465
333.052	2432
333.140	4413
333.228	7601
333.315	2519
333.403	2729
333.490	11990
333.578	6983
333.665	7318
333.753	3407
333.840	2358
333.928	4413
334.015	12396
334.103	21342
334.190	62422
334.278	10610
334.365	4706
334.452	2894
334.540	2564
334.627	3680
334.715	4791
334.802	11900
334.889	73111
334.977	53215
335.064	4384
335.151	2051
335.239	3389
335.326	5547
335.413	36337
335.501	35725
335.588	4559
335.675	1984
335.762	5015
335.850	7838
335.937	3779
336.024	17223
336.111	68871
336.199	19121
336.286	3656
336.373	2071
336.460	1698
336.547	2985
336.635	3411
336.722	2731
336.809	2197
336.896	4857
336.983	19780
337.070	47517
337.157	62108
337.245	47376
337.332	25634
337.419	3523
337.506	2916
337.593	4014
337.680	18804
337.767	44366
337.854	11373
337.941	12967
338.028	15489
338.115	4029
338.202	6937
338.289	14605
338.376	44067
338.463	11792
338.550	29650
338.637	23776
338.724	9956
338.811	13213
338.898	2523
338.984	2651
339.071	3305
339.158	3391
339.245	9311
339.332	4696
339.419	10704
339.506	8185
339.593	1025
339.679	2737
339.766	1575
339.853	3322
339.940	5489
340.027	2689
340.113	3018
340.200	3109
340.287	2478
340.374	3702
340.460	5753
340.547	2502
340.634	5552
340.720	16380
340.807	7675
340.894	1840
340.980	2536
341.067	1709
341.154	2188
341.240	3716
341.327	7381
341.414	2229
341.500	1895
341.587	1556
341.674	2280
341.760	6216
341.847	6042
341.933	1581
342.020	-26
342.106	1323
342.193	2379
342.279	3369
342.366	2574
342.452	4951
342.539	2324
342.625	8224
342.712	17611
342.798	6667
342.885	2462
342.971	1079
343.058	1090
343.144	783
343.230	1316
343.317	1354
343.403	647
343.490	1658
343.576	1321
343.662	1498
343.749	2404
343.835	2864
343.921	6288
344.008	50134
344.094	89500
344.180	16250
344.267	6525
344.353	26407
344.439	23449
344.525	8169
344.612	6442
344.698	5150
344.784	2408
344.870	1907
344.957	1675
345.043	3344
345.129	2465
345.215	5921
345.301	2326
345.387	1677
345.474	1171
345.560	2148
345.646	1426
345.732	2430
345.818	2014
345.904	1437
345.990	2756
346.076	2973
346.162	6111
346.249	2434
346.335	1407
346.421	1055
346.507	12311
346.593	33954
346.679	5821
346.765	2282
346.851	1943
346.937	837
347.023	2276
347.108	2697
347.194	1994
347.280	1143
347.366	2464
347.452	11289
347.538	42237
347.624	30114
347.710	21290
347.796	3256
347.882	2206
347.967	1208
348.053	3780
348.139	1397
348.225	1778
348.311	1059
348.397	1255
348.482	2510
348.568	2616
348.654	906
348.740	105
348.825	-225
348.911	4858
348.997	22497
349.083	37193
349.168	5260
349.254	1303
349.340	1300
349.425	1744
349.511	2831
349.597	2475
349.682	6432
349.768	23092
349.854	8473
349.939	1798
350.025	1430
350.110	1882
350.196	1472
350.282	-180
350.367	1513
350.453	3943
350.538	3530
350.624	1791
350.709	2588
350.795	1008
350.880	1761
350.966	2972
351.051	3557
351.137	2738
351.222	1814
351.308	7340
351.393	17065
351.479	3649
351.564	1297
351.649	1803
351.735	1265
351.820	958
351.906	1453
351.991	2687
352.076	13779
352.162	16384
352.247	2384
352.332	2947
352.418	3387
352.503	6656
352.588	28362
352.673	17714
352.759	3885
352.844	1528
352.929	2254
353.014	2451
353.100	2081
353.185	3277
353.270	5784
353.355	5873
353.441	1608
353.526	1894
353.611	6123
353.696	5025
353.781	3959
353.866	800
353.952	2310
354.037	5263
354.122	11226
354.207	9510
354.292	3542
354.377	1218
354.462	1262
354.547	1999
354.632	2374
354.717	4964
354.802	3083
354.887	1552
354.972	1372
355.057	841
355.142	1014
355.227	2346
355.312	3238
355.397	8092
355.482	18887
355.567	7407
355.652	7404
355.737	7695
355.822	27552
355.907	17696
355.991	3179
356.076	664
356.161	1864
356.246	1504
356.331	1917
356.416	7409
356.501	48683
356.585	40342
356.670	4167
356.755	3592
356.840	5291
356.924	33990
357.009	104267
357.094	32848
357.179	6766
357.263	4560
357.348	4554
357.433	5189
357.517	3833
357.602	2932
357.687	2252
357.771	6498
357.856	17499
357.941	10026
358.025	29167
358.110	107171
358.195	40694
358.279	4887
358.364	3986
358.448	18417
358.533	46467
358.617	31621
358.702	31412
358.787	10429
358.871	6104
358.956	4305
359.040	1421
359.125	1227
359.209	1803
359.294	8045
359.378	12636
359.462	4190
359.547	2480
359.631	2355
359.716	346
359.800	2310
359.885	4180
359.969	1100
360.053	2035
360.138	1652
360.222	3010
360.306	5303
360.391	4317
360.475	9933
360.559	18696
360.644	16324
360.728	11310
360.812	28343
360.896	64599
360.981	25043
361.065	11873
361.149	3972
361.233	3312
361.318	1855
361.402	2280
361.486	2945
361.570	557
361.654	2322
361.739	9088
361.823	47372
361.907	63010
361.991	9368
362.075	5031
362.159	9918
362.243	6766
362.327	3211
362.411	4338
362.495	3105
362.580	1936
362.664	2155
362.748	520
362.832	1375
362.916	265
363.000	6981
363.084	41536
363.168	68538
363.252	12957
363.336	5935
363.420	10975
363.503	44498
363.587	44318
363.671	5811
363.755	3673
363.839	5664
363.923	1808
364.007	5724
364.091	5685
364.175	16728
364.258	64875
364.342	24671
364.426	6338
364.510	3769
364.594	6746
364.677	15243
364.761	59423
364.845	35945
364.929	9964
365.013	8257
365.096	7765
365.180	7947
365.264	21896
365.347	68575
365.431	27076
365.515	6212
365.598	1016
365.682	3238
365.766	7032
365.849	7493
365.933	2786
366.017	6412
366.100	3676
366.184	528
366.267	1803
366.351	1620
366.435	414
366.518	239
366.602	1077
366.685	1309
366.769	1484
366.852	6564
366.936	8499
367.019	4173
367.103	4170
367.186	10084
367.270	894
367.353	310
367.436	1574
367.520	474
367.603	2063
367.687	3043
367.770	6487
367.853	5008
367.937	18424
368.020	27070
368.104	3666
368.187	5160
368.270	7711
368.353	6760
368.437	11882
368.520	29385
368.603	14242
368.687	21195
368.770	32829
368.853	7047
368.936	9117
369.020	8607
369.103	2776
369.186	1228
369.269	1189
369.352	4954
369.436	5956
369.519	4407
369.602	756
369.685	2663
369.768	1240
369.851	2049
369.934	1543
370.018	2372
370.101	4914
370.184	6124
370.267	4165
370.350	6502
370.433	11221
370.516	32231
370.599	30845
370.682	7049
370.765	18065
370.848	25706
370.931	42970
371.014	16201
371.097	2073
371.180	2158
371.263	1831
371.346	42
371.429	1939
371.511	1717
371.594	2982
371.677	7659
371.760	10497
371.843	8880
371.926	43972
372.009	86559
372.091	25392
372.174	19464
372.257	44158
372.340	15402
372.423	12662
372.505	16144
372.588	5649
372.671	14915
372.754	41954
372.836	19024
372.919	22466
373.002	38296
373.085	8735
373.167	7881
373.250	18742
373.332	42606
373.415	64647
373.498	111092
373.580	39079
373.663	54438
373.746	66928
373.828	13618
373.911	6297
373.993	10064
374.076	40664
374.159	33324
374.241	14839
374.324	35384
374.406	22284
374.489	41117
374.571	97189
374.654	35027
374.736	20774
374.819	62662
374.901	88474
374.983	80189
375.066	12479
375.148	6469
375.231	34489
375.313	58678
375.395	17818
375.478	2833
375.560	1843
375.643	4381
375.725	20782
375.807	75606
375.890	58703
375.972	23651
376.054	13824
376.136	23272
376.219	8981
376.301	25046
376.383	61212
376.465	20701
376.548	10894
376.630	19101
376.712	51072
376.794	20749
376.877	2956
376.959	361
377.041	2197
377.123	8771
377.205	9726
377.287	1010
377.369	1246
377.452	1643
377.534	1596
377.616	1233
377.698	1123
377.780	329
377.862	1229
377.944	2125
378.026	101
378.108	1804
378.190	713
378.272	1680
378.354	421
378.436	123
378.518	3870
378.600	15741
378.682	12594
378.764	24679
378.846	17429
378.928	5343
379.010	5822
379.091	3871
379.173	1432
379.255	289
379.337	2427
379.419	13961
379.501	33257
379.583	12663
379.664	3289
379.746	8070
379.828	24675
379.910	32791
379.991	25539
380.073	3501
380.155	2324
380.237	1362
380.318	717
380.400	1036
380.482	5762
380.564	7321
380.645	6409
380.727	5257
380.809	3934
380.890	2018
380.972	638
381.053	1485
381.135	2545
381.217	8847
381.298	23861
381.380	10346
381.461	11875
381.543	54287
381.624	57631
381.706	9182
381.787	4860
381.869	6068
381.951	27662
382.032	89075
382.113	51493
382.195	8452
382.276	7039
382.358	18400
382.439	46108
382.521	57089
382.602	79690
382.684	35795
382.765	59534
382.846	52965
382.928	49228
383.009	25425
383.090	22881
383.172	82023
383.253	108853
383.334	49834
383.416	66360
383.497	31359
383.578	9926
383.659	19743
383.741	79711
383.822	172885
383.903	82464
383.984	44356
384.066	81825
384.147	44433
384.228	8053
384.309	5236
384.390	4037
384.471	2399
384.553	3456
384.634	5303
384.715	5508
384.796	2473
384.877	5233
384.958	22501
385.039	23855
385.120	7321
385.201	4036
385.282	5906
385.363	6117
385.444	4069
385.525	11685
385.606	38729
385.687	29800
385.768	7939
385.849	9867
385.930	47317
386.011	71074
386.092	15999
386.173	3231
386.254	2656
386.335	4327
386.416	3878
386.496	15248
386.577	22893
386.658	9345
386.739	4335
386.820	6035
386.901	4666
386.981	3692
387.062	2133
387.143	5797
387.224	22947
387.304	20362
387.385	7162
387.466	3820
387.547	6526
387.627	2185
387.708	10941
387.789	46042
387.869	50358
387.950	13581
388.031	2318
388.111	1207
388.192	11241
388.273	15607
388.353	7058
388.434	3816
388.514	10951
388.595	47685
388.676	54163
388.756	23518
388.837	20432
388.917	11682
388.998	1417
389.078	2432
389.159	2073
389.239	1210
389.320	4946
389.400	2302
389.480	12341
389.561	26191
389.641	12695
389.722	3895
389.802	6134
389.883	13194
389.963	34026
390.043	20470
390.124	6015
390.204	10114
390.284	25758
390.365	16960
390.445	28971
390.525	57292
390.605	42847
390.686	11766
390.766	4683
390.846	2239
390.927	775
391.007	516
391.087	2818
391.167	2526
391.247	1059
391.328	6012
391.408	8915
391.488	5613
391.568	81
391.648	1794
391.728	4811
391.808	4757
391.888	4709
391.969	15389
392.049	20742
392.129	11004
392.209	13399
392.289	29811
392.369	16845
392.449	16436
392.529	7801
392.609	5499
392.689	9089
392.769	28324
392.849	21669
392.929	18382
393.009	41449
393.089	22285
393.169	5845
393.248	15383
393.328	83241
393.408	80172
393.488	13170
393.568	4693
393.648	2929
393.728	2107
393.807	2681
393.887	3550
393.967	3736
394.047	5472
394.127	6565
394.206	16210
394.286	74026
394.366	261195
394.446	252835
394.525	59912
394.605	14860
394.685	13118
394.764	27603
394.844	42599
394.924	25037
395.003	5913
395.083	4196
395.163	4458
395.242	3669
395.322	3409
395.402	2589
395.481	6132
395.561	18222
395.640	42698
395.720	30691
395.799	51318
395.879	40263
395.958	27895
396.038	111376
396.117	339775
396.197	338289
396.276	105113
396.356	33213
396.435	20116
396.515	10867
396.594	7302
396.673	9263
396.753	24015
396.832	74193
396.912	66240
396.991	19248
397.070	4810
397.150	2005
397.229	2846
397.308	1079
397.388	2000
397.467	1489
397.546	1083
397.625	-655
397.705	3453
397.784	2778
397.863	511
397.942	1446
398.022	2702
398.101	17308
398.180	44274
398.259	21266
398.338	5202
398.417	2249
398.497	1881
398.576	2803
398.655	-82
398.734	1305
398.813	1508
398.892	16457
398.971	47905
399.050	21257
399.129	1014
399.208	1109
399.287	1643
399.366	515
399.445	989
399.524	163
399.603	-361
399.682	3819
399.761	15853
399.840	51199
399.919	36863
399.998	4176
400.077	133
400.156	-81
400.235	2962
400.313	1131
400.392	1868
400.471	12936
400.550	18064
400.629	3659
400.708	2249
400.786	2531
400.865	10552
400.944	9660
401.023	4917
401.102	-335
401.180	809
401.259	1358
401.338	1505
401.416	2666
401.495	1683
401.574	1796
401.652	839
401.731	2629
401.810	1597
401.888	338
401.967	31
402.046	1774
402.124	2602
402.203	2170
402.281	1708
402.360	3459
402.438	12760
402.517	8577
402.596	1716
402.674	2015
402.753	1821
402.831	1635
402.910	2600
402.988	10325
403.066	26843
403.145	14369
403.223	10252
403.302	20817
403.380	17368
403.459	13948
403.537	5410
403.615	2051
403.694	-885
403.772	1777
403.850	-13
403.929	873
404.007	1027
404.085	3599
404.164	2581
404.242	2465
404.320	13346
404.398	34679
404.477	36941
404.555	69739
404.633	60192
404.711	25614
404.789	12769
404.868	2641
404.946	160
405.024	716
405.102	676
405.180	262
405.258	-420
405.336	1161
405.415	658
405.493	3775
405.571	2743
405.649	826
405.727	25
405.805	2416
405.883	1451
405.961	3358
406.039	2934
406.117	410
406.195	2835
406.273	16995
406.351	53964
406.429	30691
406.507	4919
406.585	1071
406.663	1689
406.740	1335
406.818	1348
406.896	308
406.974	2139
407.052	5181
407.130	33387
407.208	39969
407.285	7459
407.363	976
407.441	777
407.519	183
407.596	1768
407.674	3283
407.752	8669
407.830	12227
407.907	6308
407.985	1095
408.063	847
408.141	486
408.218	3799
408.296	2081
408.373	543
408.451	1568
408.529	1134
408.606	3
408.684	-409
408.762	37
408.839	-388
408.917	-358
408.994	-333
409.072	-859
409.149	91
409.227	536
409.304	-129
409.382	182
409.459	-245
409.537	321
409.614	492
409.692	-688
409.769	-1015
409.846	38
409.924	1297
410.001	-1100
410.079	356
410.156	1167
410.233	688
410.311	-226
410.388	-390
410.465	679
410.543	-168
410.620	799
410.697	679
410.775	447
410.852	-2016
410.929	929
411.006	1843
411.083	1015
411.161	3040
411.238	3616
411.315	1453
411.392	-43
411.469	615
411.547	1220
411.624	-898
411.701	-327
411.778	581
411.855	2968
411.932	943
412.009	-114
412.086	482
412.163	1611
412.240	1731
412.317	2717
412.394	1175
412.471	577
412.548	-122
412.625	-218
412.702	1281
412.779	2919
412.856	1836
412.933	-65
413.010	951
413.087	2967
413.164	11656
413.241	15341
413.318	2970
413.395	2376
413.471	2384
413.548	1006
413.625	967
413.702	643
413.779	815
413.855	-176
413.932	-542
414.009	-803
414.086	501
414.162	160
414.239	1890
414.316	12227
414.393	23159
414.469	5705
414.546	285
414.623	-284
414.699	37
414.776	-57
414.853	-496
414.929	780
415.006	844
415.082	1324
415.159	418
415.236	628
415.312	1372
415.389	2185
415.465	2278
415.542	773
415.618	-442
415.695	2330
415.771	408
415.848	632
415.924	634
416.000	426
416.077	998
416.153	-1377
416.230	-1215
416.306	-123
416.383	-107
416.459	86
416.535	-655
416.612	-289
416.688	-574
416.764	-250
416.841	-1501
416.917	120
416.993	367
417.069	949
417.146	1679
417.222	2571
417.298	1266
417.374	386
417.451	1550
417.527	944
417.603	487
417.679	258
417.755	937
417.831	-205
417.908	-188
417.984	-295
418.060	-457
418.136	1717
418.212	2657
418.288	682
418.364	355
418.440	101
418.516	1821
418.592	3046
418.668	5664
418.744	5534
418.820	4384
418.896	358
418.972	-582
419.048	-547
419.124	2558
419.200	864
419.276	368
419.352	-398
419.428	-508
419.504	110
419.579	237
419.655	-246
419.731	-7
419.807	4871
419.883	7071
419.959	4739
420.034	977
420.110	3978
420.186	15142
420.262	11007
420.337	1192
420.413	-31
420.489	-349
420.565	328
420.640	-469
420.716	101
420.792	-859
420.867	1164
420.943	-898
421.019	784
421.094	15
421.170	154
421.245	-644
421.321	218
421.397	-594
421.472	1500
421.548	1994
421.623	3544
421.699	783
421.774	747
421.850	-266
421.925	2530
422.001	1405
422.076	481
422.152	-213
422.227	820
422.302	815
422.378	622
422.453	776
422.529	6241
422.604	36210
422.679	79039
422.755	33764
422.830	5500
422.905	1177
422.981	-759
423.056	109
423.131	-446
423.207	-77
423.282	200
423.357	3224
423.432	1823
423.508	1639
423.583	4945
423.658	2875
423.733	1253
423.808	1262
423.883	863
423.959	-91
424.034	-617
424.109	45
424.184	-1184
424.259	-675
424.334	59
424.409	-614
424.484	106
424.559	1
424.634	-435
424.709	688
424.784	1485
424.859	497
424.934	1771
425.009	10233
425.084	17228
425.159	4886
425.234	881
425.309	-1255
425.384	4204
425.459	5598
425.534	1392
425.609	19
425.683	77
425.758	663
425.833	479
425.908	1255
425.983	6644
426.058	16083
426.132	6369
426.207	693
426.282	4265
426.357	1621
426.431	468
426.506	325
426.581	833
426.655	425
426.730	-103
426.805	-1402
426.879	-30
426.954	596
427.029	3070
427.103	20146
427.178	44541
427.253	18452
427.327	2741
427.402	4236
427.476	9654
427.551	2635
427.625	1025
427.700	841
427.774	766
427.849	1410
427.923	-948
427.998	-617
428.072	123
428.147	2433
428.221	5860
428.296	7108
428.370	1362
428.444	1322
428.519	4613
428.593	10196
428.667	9210
428.742	9637
428.816	7727
428.890	13815
428.965	14617
429.039	9848
429.113	10600
429.188	2793
429.262	411
429.336	2292
429.410	7499
429.485	5718
429.559	9099
429.633	5692
429.707	935
429.781	4872
429.855	19681
429.930	25096
430.004	26491
430.078	47339
430.152	30055
430.226	9481
430.300	5982
430.374	347
430.448	2911
430.522	17594
430.596	45764
430.670	22940
430.744	28177
430.818	41539
430.892	9537
430.966	547
431.040	616
431.114	-672
431.188	-921
431.262	-394
431.336	115
431.410	4752
431.484	12113
431.557	6684
431.631	505
431.705	-109
431.779	321
431.853	4571
431.927	1711
432.000	-573
432.074	-86
432.148	441
432.222	989
432.295	466
432.369	-169
432.443	3024
432.516	21593
432.590	45881
432.664	16177
432.737	178
432.811	-872
432.885	-275
432.958	137
433.032	-554
433.106	-911
433.179	600
433.253	255
433.326	25
433.400	-413
433.473	-269
433.547	-102
433.620	-271
433.694	227
433.767	1673
433.841	-478
433.914	-605
433.988	-606
434.061	-198
434.134	-67
434.208	-333
434.281	-951
434.355	-564
434.428	-983
434.501	-489
434.575	-553
434.648	-407
434.721	-974
434.795	-668
434.868	-867
434.941	111
435.014	-1001
435.088	-993
435.161	943
435.234	-193
435.307	730
435.381	230
435.454	-517
435.527	-393
435.600	-529
435.673	-663
435.746	-754
435.819	-454
435.892	-181
435.966	-508
436.039	-266
436.112	595
436.185	-877
436.258	-1145
436.331	-1245
436.404	-1622
436.477	-496
436.550	-764
436.623	-183
436.696	-529
436.769	-52
436.842	29
436.915	307
436.987	632
437.060	6
437.133	-1074
437.206	-845
437.279	53
437.352	-753
437.425	-948
437.498	48
437.570	1481
437.643	1398
437.716	-305
437.789	-811
437.861	850
437.934	3534
438.007	1702
438.080	-645
438.152	152
438.225	3933
438.298	28490
438.370	65866
438.443	23695
438.516	4148
438.588	-213
438.661	-297
438.734	412
438.806	285
438.879	126
438.951	-121
439.024	1398
439.096	-179
439.169	-493
439.241	-502
439.314	-498
439.386	914
439.459	2083
439.531	2669
439.604	32
439.676	-79
439.749	-799
439.821	-1183
439.893	-330
439.966	-202
440.038	173
440.110	154
440.183	-138
440.255	-322
440.327	1401
440.400	13172
440.472	41212
440.544	23255
440.617	1808
440.689	887
440.761	2155
440.833	2676
440.905	2332
440.978	-891
441.050	-914
441.122	385
441.194	-1271
441.266	-628
441.338	-503
441.411	1681
441.483	12116
441.555	15553
441.627	2979
441.699	2160
441.771	1661
441.843	-371
441.915	-332
441.987	-862
442.059	-583
442.131	676
442.203	1597
442.275	1665
442.347	1249
442.419	-424
442.491	164
442.563	2022
442.635	4563
442.706	11131
442.778	8403
442.850	320
442.922	-751
442.994	722
443.066	1701
443.137	318
443.209	-187
443.281	146
443.353	2201
443.425	3784
443.496	3825
443.568	2343
443.640	957
443.711	-160
443.783	278
443.855	70
443.926	-272
443.998	-209
444.070	728
444.141	1269
444.213	1304
444.285	1067
444.356	1366
444.428	1337
444.499	-395
444.571	-699
444.642	-544
444.714	-71
444.785	964
444.857	2995
444.928	9968
445.000	5169
445.071	5902
445.143	5382
445.214	1640
445.285	3225
445.357	12482
445.428	11157
445.500	13073
445.571	13737
445.642	4675
445.714	9077
445.785	14340
445.856	2951
445.928	1444
445.999	1187
446.070	971
446.141	901
446.213	1344
446.284	1182
446.355	1226
446.426	711
446.497	384
446.569	3181
446.640	3156
446.711	1284
446.782	-276
446.853	709
446.924	1029
446.995	495
447.066	1149
447.138	3307
447.209	1229
447.280	-478
447.351	-970
447.422	-172
447.493	960
447.564	1317
447.635	1601
447.706	-231
447.777	-584
447.847	-807
447.918	-482
447.989	1277
448.060	2299
448.131	7181
448.202	3842
448.273	2178
448.344	422
448.414	-329
448.485	-464
448.556	693
448.627	-1033
448.698	482
448.768	-503
448.839	-59
448.910	2816
448.981	2689
449.051	549
449.122	-313
449.193	-490
449.263	-75
449.334	-112
449.405	-122
449.475	3048
449.546	2013
449.616	2839
449.687	2925
449.758	64
449.828	-99
449.899	-946
449.969	-1253
450.040	-667
450.110	641
450.181	1145
450.251	536
450.322	-199
450.392	36
450.463	79
450.533	-578
450.604	437
450.674	-215
450.744	-418
450.815	-414
450.885	582
450.955	-448
451.026	-338
451.096	-275
451.166	784
451.237	4681
451.307	11884
451.377	4556
451.447	-652
451.518	-237
451.588	-91
451.658	703
451.728	2719
451.799	13151
451.869	14451
451.939	2535
452.009	68
452.079	423
452.149	1134
452.219	3588
452.289	14593
452.360	11255
452.430	1076
452.500	322
452.570	1401
452.640	2065
452.710	7121
452.780	12389
452.850	7138
452.920	4236
452.990	1414
453.060	715
453.129	1902
453.199	3141
453.269	18801
453.339	36486
453.409	54221
453.479	56694
453.549	81666
453.619	84672
453.688	33458
453.758	4664
453.828	953
453.898	331
453.968	559
454.037	-181
454.087	-17
454.107	34
454.168	261
454.177	271
454.247	692
454.249	700
454.316	278
454.330	536
454.386	1278
454.411	4001
454.456	8313
454.492	9937
454.525	11450
454.574	5785
454.595	3348
454.655	932
454.665	555
454.734	1681
454.736	1814
454.804	4204
454.817	6219
454.873	13615
454.898	14523
454.943	16261
454.979	10382
455.013	5260
455.060	3485
455.082	2826
455.141	3960
455.152	4103
455.221	12002
455.222	12234
455.291	21243
455.303	21056
455.360	19598
455.384	24604
455.430	31541
455.465	24229
455.499	17995
455.546	15878
455.569	14579
455.627	9402
455.638	8602
455.707	1797
455.708	1812
455.777	483
455.789	644
455.846	1292
455.869	1183
455.916	987
455.950	1013
455.985	888
456.031	1117
456.054	1242
456.112	1029
456.124	996
456.193	1083
456.193	1061
456.262	1616
456.274	1798
456.332	2509
456.355	2609
456.401	2645
456.436	1672
456.470	577
456.516	981
456.540	1254
456.597	788
456.609	703
456.678	1481
456.678	1467
456.747	965
456.759	959
456.817	992
456.840	905
456.886	762
456.920	1113
456.955	1459
457.001	1307
457.024	1287
457.082	1924
457.093	1971
457.162	2442
457.163	2465
457.232	3462
457.243	3214
457.301	1948
457.324	1478
457.370	719
457.405	866
457.439	1015
457.485	1271
457.508	1387
457.566	1791
457.577	1896
457.646	2091
457.647	2111
457.715	1714
457.727	1713
457.784	1984
457.808	1952
457.853	1954
457.889	2083
457.922	1967
457.969	1998
457.991	2047
458.050	2230
458.060	2221
458.129	2470
458.130	2477
458.198	2133
458.211	1978
458.267	1190
458.292	1342
458.336	1783
458.372	2066
458.405	2470
458.453	2516
458.474	2360
458.533	2600
458.543	2712
458.611	3333
458.614	3375
458.680	2659
458.694	2463
458.749	2317
458.775	2206
458.818	1917
458.855	2068
458.887	2168
458.936	2108
458.955	2211
459.016	2526
459.024	2510
459.093	3002
459.097	3003
459.162	3044
459.177	3166
459.230	3441
459.257	3599
459.299	3800
459.338	3656
459.368	3459
459.418	3530
459.437	3401
459.499	2831
459.505	2865
459.574	3468
459.579	3504
459.643	3203
459.659	3218
459.711	3497
459.740	3502
459.780	3474
459.820	3697
459.849	3915
459.900	4448
459.917	4496
459.981	4283
459.986	4215
460.054	3828
460.061	3790
460.123	4356
460.141	4483
460.191	4959
460.222	5164
460.260	5250
460.302	5847
460.328	5670
460.382	4803
460.397	4688
460.462	3766
460.465	3847
460.534	6452
460.543	6848
460.602	12054
460.623	13949
460.671	20029
460.703	25399
460.739	20730
460.783	13160
460.808	11731
460.864	5448
460.876	4840
460.944	4444
460.945	4436
461.013	4361
461.024	4327
461.081	3902
461.104	4032
461.150	4293
461.184	4105
461.218	4136
461.264	4202
461.286	4254
461.345	4682
461.355	4690
461.423	4640
461.425	4644
461.491	5698
461.505	5915
461.559	10690
461.585	12933
461.628	17218
461.665	22054
461.696	22525
461.745	24920
461.764	22625
461.825	8634
461.832	8304
461.901	5320
461.905	5306
461.969	4092
461.985	3861
462.037	4747
462.065	5159
462.105	6446
462.145	7986
462.173	9754
462.225	12679
462.241	13466
462.305	18842
462.310	18404
462.378	10046
462.385	8823
462.446	6002
462.465	5382
462.514	5280
462.545	5704
462.582	5377
462.625	4901
462.650	4976
462.705	5352
462.718	5639
462.785	6654
462.786	6697
462.854	9341
462.865	9855
462.922	10398
462.945	10671
462.990	8999
463.025	6716
463.058	5954
463.104	5442
463.126	5343
463.184	5168
463.194	5185
463.262	5586
463.264	5594
463.330	5425
463.344	5380
463.398	6230
463.424	6584
463.466	6157
463.504	5905
463.533	6262
463.583	6394
463.601	6503
463.663	7366
463.669	7570
463.737	9744
463.743	9956
463.805	15938
463.823	17599
463.873	24250
463.903	28900
463.940	28356
463.982	27999
464.008	23044
464.062	9971
464.076	9537
464.142	6866
464.144	6824
464.211	6628
464.221	6627
464.279	6658
464.301	6648
464.347	6802
464.381	6898
464.414	7442
464.461	8538
464.482	8989
464.540	9971
464.550	9789
464.617	8137
464.620	8068
464.685	9134
464.699	9417
464.753	11419
464.779	12325
464.820	13596
464.859	14791
464.888	14119
464.938	12898
464.956	12985
465.018	13344
465.023	13270
465.091	11711
465.098	11540
465.158	10612
465.177	10368
465.226	10806
465.257	11018
465.293	11225
465.336	11338
465.361	12096
465.416	13944
465.428	15192
465.495	21739
465.496	21837
465.563	31456
465.575	33186
465.631	35300
465.654	36362
465.698	23967
465.734	12521
465.765	11545
465.813	10094
465.833	9836
465.893	9754
465.900	9776
465.968	9983
465.972	9967
466.035	9982
466.052	9999
466.102	10241
466.131	10280
466.170	10007
466.210	9776
466.237	10200
466.290	10864
466.304	10819
466.369	10611
466.372	10647
466.439	11142
466.449	11171
466.506	13025
466.528	13758
466.573	20167
466.607	24859
466.641	32308
466.687	42690
466.708	44647
466.766	50078
466.775	46270
466.842	16711
466.845	15277
466.909	12927
466.925	12434
466.977	12614
467.004	12751
467.044	13885
467.083	14963
467.111	16445
467.163	19159
467.178	19401
467.242	20210
467.245	20177
467.312	18686
467.321	18451
467.379	17910
467.400	17662
467.446	18672
467.480	19335
467.559	16787
467.638	15961
467.717	15507
467.796	16338
467.875	17238
467.955	17528
468.034	30947
468.113	52101
468.192	66210
468.271	17308
468.350	14393
468.429	13510
468.508	13219
468.588	14094
468.667	14867
468.746	14575
468.825	13991
468.904	13576
468.983	16464
469.062	23909
469.141	25510
469.220	13582
469.299	15217
469.378	14834
469.456	19515
469.535	17218
469.614	16326
469.693	17110
469.772	20858
469.851	26774
469.930	16963
470.009	14202
470.088	14203
470.166	14741
470.245	16496
470.324	14582
470.403	14928
470.482	14177
470.560	13608
470.639	14488
470.718	15218
470.797	14537
470.875	16523
470.954	19623
471.033	20261
471.111	11633
471.190	12532
471.269	11770
471.347	12051
471.426	14018
471.505	16155
471.583	17209
471.662	15298
471.740	14365
471.819	13958
471.898	13015
471.976	13623
472.055	13340
472.133	15568
472.212	19130
472.290	19035
472.369	12981
472.447	13772
472.526	12450
472.604	13204
472.683	12986
472.761	12899
472.839	12901
472.918	12798
472.996	12756
473.075	14705
473.153	13767
473.231	13458
473.310	15491
473.388	12457
473.466	13245
473.545	14904
473.623	16328
473.701	15643
473.780	13521
473.858	11238
473.936	15056
474.014	12324
474.093	14800
474.171	20207
474.249	24872
474.327	14960
474.405	11311
474.484	10292
474.562	11838
474.640	12195
474.718	12184
474.796	12843
474.874	11604
474.952	10009
475.030	10513
475.108	10805
475.187	12264
475.265	12028
475.343	14012
475.421	15179
475.499	11986
475.577	13329
475.655	17830
475.733	29784
475.811	46637
475.889	39928
475.966	21977
476.044	12931
476.122	14107
476.200	15027
476.278	13613
476.356	12393
476.434	12683
476.512	13786
476.590	15532
476.667	13808
476.745	12199
476.823	12510
476.901	13262
476.979	13640
477.056	13166
477.134	12900
477.212	12467
477.290	12084
477.367	11368
477.445	10925
477.523	11323
477.601	11337
477.678	11630
477.756	14077
477.834	14224
477.911	11561
477.989	11469
478.066	11849
478.144	12523
478.222	13490
478.299	14836
478.377	14256
478.454	10728
478.532	10575
478.609	10697
478.687	12186
478.764	10329
478.842	11199
478.919	11094
478.997	10245
479.074	10329
479.152	12417
479.229	14588
479.307	10756
479.384	9668
479.461	10443
479.539	11516
479.616	12868
479.694	9493
479.771	12120
479.848	13195
479.926	16312
480.003	14972
480.080	10456
480.157	10119
480.235	9846
480.312	10880
480.389	12979
480.467	17619
480.544	20091
480.621	11919
480.698	11565
480.775	13837
480.853	13122
480.930	11318
481.007	12456
481.084	13038
481.161	12470
481.238	13611
481.315	9459
481.392	10287
481.470	11219
481.547	10782
481.624	10954
481.701	11351
481.778	11612
481.855	12814
481.932	18069
482.009	26591
482.086	15971
482.163	10762
482.240	13312
482.317	16689
482.393	12801
482.470	10571
482.547	11086
482.624	10684
482.701	10442
482.778	9371
482.855	10035
482.932	9648
483.009	9768
483.085	10326
483.162	10833
483.239	11686
483.316	8808
483.393	9175
483.469	9971
483.546	12619
483.623	11899
483.699	9952
483.776	11612
483.853	12656
483.930	20900
484.006	43703
484.083	66114
484.160	41416
484.236	60036
484.313	42902
484.389	33340
484.466	31532
484.543	29304
484.619	28303
484.696	30690
484.772	31524
484.849	32512
484.925	28297
485.002	28161
485.078	29035
485.155	28572
485.231	26736
485.308	27717
485.384	27902
485.461	34056
485.537	47418
485.614	46091
485.690	26100
485.766	25203
485.843	25851
485.919	29870
485.995	28215
486.072	23367
486.148	23527
486.224	23609
486.301	25486
486.377	26813
486.453	26965
486.530	27828
486.606	37598
486.682	38894
486.758	43100
486.835	45036
486.911	39496
486.987	56695
487.063	46571
487.139	48549
487.215	37854
487.292	25958
487.368	25279
487.444	26080
487.520	28623
487.596	23613
487.672	25463
487.748	28789
487.824	29022
487.900	24245
487.976	23928
488.052	24725
488.128	28711
488.204	25161
488.280	23738
488.356	30904
488.432	53209
488.508	65895
488.584	24135
488.660	20874
488.736	22150
488.812	22372
488.888	26400
488.964	31852
489.039	51231
489.115	61021
489.191	35706
489.267	22191
489.343	23142
489.418	19371
489.494	19526
489.570	18589
489.646	21430
489.722	19658
489.797	21859
489.873	33316
489.949	55922
490.024	38714
490.100	18197
490.176	19426
490.251	20766
490.327	22704
490.403	17410
490.478	17702
490.554	15839
490.629	17041
490.705	15864
490.781	17490
490.856	17213
490.932	19127
491.007	16958
491.083	18534
491.158	16758
491.234	26450
491.309	45876
491.385	35695
491.460	16715
491.536	17669
491.611	15909
491.686	16518
491.762	20410
491.837	32363
491.913	48575
491.988	64540
492.063	64497
492.139	28309
492.214	20672
492.289	14594
492.365	14009
492.440	16422
492.515	16665
492.590	16676
492.666	14253
492.741	19736
492.816	25480
492.891	14861
492.967	14455
493.042	12742
493.117	14212
493.192	15742
493.267	33391
493.342	79596
493.418	85052
493.493	15939
493.568	11402
493.643	13113
493.718	16345
493.793	20227
493.868	19357
493.943	12710
494.018	14095
494.093	12141
494.168	12054
494.243	11164
494.318	11024
494.393	11284
494.468	11297
494.543	11083
494.618	11348
494.693	11075
494.768	12078
494.842	11654
494.917	10158
494.992	11573
495.067	9571
495.142	11065
495.217	12125
495.292	10458
495.366	13723
495.441	16522
495.516	18973
495.591	27562
495.665	66795
495.740	114035
495.815	38445
495.890	16500
495.964	14728
496.039	17183
496.114	14496
496.188	16374
496.263	15845
496.338	15135
496.412	17378
496.487	18815
496.561	17952
496.636	17678
496.710	15652
496.785	17812
496.860	19541
496.934	15648
497.009	15965
497.083	15158
497.158	15942
497.232	18238
497.307	20364
497.381	17485
497.455	21064
497.530	25444
497.604	17774
497.679	20243
497.753	29587
497.827	30493
497.902	25015
497.976	36528
498.050	114729
498.125	328809
498.199	224020
498.273	31507
498.348	24056
498.422	22449
498.496	21524
498.570	19901
498.645	18908
498.719	18826
498.793	22937
498.867	34446
498.941	54899
499.016	164172
499.090	323237
499.164	70111
499.238	16982
499.312	15942
499.386	18890
499.460	17476
499.534	16197
499.609	21894
499.683	29085
499.757	29439
499.831	85693
499.905	249281
499.979	157906
500.053	34422
500.127	29866
500.201	20326
500.275	16620
500.349	16661
500.422	18605
500.496	25779
500.570	56020
500.644	149058
500.718	212746
500.792	34055
500.866	19131
500.940	24148
501.013	19122
501.087	17871
501.161	27300
501.235	39017
501.309	104972
501.382	237027
501.456	137618
501.530	46915
501.603	72040
501.677	22778
501.751	14496
501.825	19787
501.898	42491
501.972	95370
502.046	40920
502.119	19938
502.193	50746
502.266	96344
502.340	38192
502.413	55360
502.487	81406
502.561	39837
502.634	15040
502.708	13585
502.781	11083
502.855	11462
502.928	11046
503.002	11690
503.075	11166
503.149	11992
503.222	11570
503.295	13361
503.369	16284
503.442	26176
503.516	84876
503.589	162633
503.662	81034
503.736	37506
503.809	80267
503.882	57683
503.956	98595
504.029	56815
504.102	19505
504.175	16506
504.249	9969
504.322	15718
504.395	12819
504.468	10983
504.542	11296
504.615	9078
504.688	9159
504.761	7643
504.834	12387
504.907	12882
504.980	15329
505.053	10979
505.127	11956
505.200	16670
505.273	16175
505.346	10723
505.419	9769
505.492	9296
505.565	7144
505.638	9251
505.711	8715
505.784	7832
505.857	9033
505.930	10598
506.003	8186
506.076	11375
506.149	14151
506.221	13610
506.294	18113
506.367	49348
506.440	124598
506.513	41342
506.586	14967
506.659	10045
506.731	10153
506.804	11032
506.877	12055
506.950	11084
507.022	10018
507.095	12580
507.168	12546
507.241	8517
507.313	7334
507.386	7885
507.459	11333
507.531	7932
507.604	6991
507.677	8503
507.749	7092
507.822	12891
507.894	21159
507.967	23550
508.040	14873
508.112	13480
508.185	12610
508.257	11662
508.330	16756
508.402	12594
508.475	13195
508.547	13882
508.620	14547
508.692	19628
508.765	11485
508.837	10606
508.909	10905
508.982	11042
509.054	11695
509.127	9991
509.199	10123
509.271	9921
509.344	9399
509.416	10097
509.488	11189
509.560	11099
509.633	11397
509.705	12486
509.777	13617
509.849	15060
509.922	12129
509.994	11779
510.066	12834
510.138	14319
510.210	26370
510.283	21356
510.355	17370
510.427	16102
510.499	14256
510.571	14276
510.643	14806
510.715	19407
510.787	14630
510.859	14911
510.931	16097
511.003	18271
511.076	16973
511.148	13641
511.219	14979
511.291	22810
511.363	20545
511.435	13418
511.507	11834
511.579	12869
511.651	12841
511.723	12715
511.795	11886
511.867	12163
511.939	16436
512.010	26787
512.082	18211
512.154	11527
512.226	12885
512.298	21228
512.369	24497
512.441	18356
512.513	17545
512.585	14016
512.656	16487
512.728	15379
512.800	12523
512.871	14280
512.943	14103
513.015	11532
513.086	14029
513.158	12363
513.230	12434
513.301	16454
513.373	16828
513.444	12257
513.516	12268
513.588	11564
513.659	12861
513.731	13024
513.802	12291
513.874	23308
513.945	26713
514.016	12834
514.088	11982
514.159	11888
514.231	17406
514.302	21837
514.374	16974
514.445	17068
514.516	32063
514.588	17896
514.659	17636
514.730	27709
514.802	17739
514.873	11862
514.944	15198
515.016	13674
515.087	14441
515.158	21987
515.229	24737
515.301	12031
515.372	14040
515.443	10872
515.514	11880
515.585	9678
515.656	11527
515.728	11442
515.799	10665
515.870	11724
515.941	11943
516.012	12569
516.083	16943
516.154	15977
516.225	18087
516.296	17617
516.367	13940
516.438	14965
516.509	16710
516.580	26160
516.651	69318
516.722	156418
516.793	55940
516.864	25485
516.935	24268
517.006	25194
517.077	33742
517.148	68913
517.219	187884
517.289	212391
517.360	124854
517.431	35118
517.502	17030
517.573	17641
517.643	18962
517.714	20697
517.785	19849
517.856	18309
517.926	21014
517.997	21067
518.068	21254
518.138	26727
518.209	41044
518.280	147921
518.350	349943
518.421	89904
518.492	21557
518.562	19373
518.633	18636
518.703	13764
518.774	17733
518.845	18188
518.915	16828
518.986	17595
519.056	21804
519.127	33398
519.197	60389
519.268	137250
519.338	58661
519.408	22146
519.479	21094
519.549	15579
519.620	16190
519.690	12768
519.760	13644
519.831	13006
519.901	11815
519.971	13021
520.042	13159
520.112	14851
520.182	15431
520.253	15986
520.323	14107
520.393	18335
520.463	24037
520.534	19103
520.604	30117
520.674	16955
520.744	19225
520.814	34223
520.885	29700
520.955	64000
521.025	153987
521.095	37839
521.165	15703
521.235	12647
521.305	11716
521.375	12295
521.445	13418
521.515	13030
521.585	15904
521.655	12031
521.725	13837
521.795	13356
521.865	10377
521.935	20391
522.005	13994
522.075	10325
522.145	12497
522.215	12525
522.285	18847
522.355	26163
522.424	41922
522.494	28302
522.564	16655
522.634	31362
522.704	60652
522.774	19551
522.843	11044
522.913	10921
522.983	11922
523.053	9867
523.122	12930
523.192	15350
523.262	35754
523.331	24465
523.401	10703
523.471	9107
523.540	10449
523.610	8097
523.680	8853
523.749	9978
523.819	11937
523.888	10987
523.958	8816
524.027	10064
524.097	11049
524.166	9489
524.236	9653
524.305	11819
524.375	8909
524.444	8926
524.514	12246
524.583	10206
524.653	13190
524.722	13675
524.791	8940
524.861	10396
524.930	8398
524.999	10518
525.069	12961
525.138	11665
525.207	12917
525.277	9922
525.346	9319
525.415	9601
525.484	9873
525.554	10986
525.623	9629
525.692	9362
525.761	8180
525.830	8683
525.900	8567
525.969	10852
526.038	9888
526.107	8250
526.176	13909
526.245	11500
526.314	14905
526.383	15237
526.452	10148
526.522	21867
526.591	29292
526.660	25898
526.729	13194
526.797	20140
526.867	53765
526.935	165847
527.004	81024
527.073	24470
527.142	9469
527.211	9798
527.280	10657
527.349	9725
527.418	6442
527.487	8571
527.555	7772
527.624	6608
527.693	6400
527.762	7963
527.831	6456
527.899	8097
527.968	7703
528.037	6379
528.106	9944
528.174	14263
528.243	13120
528.312	20081
528.380	16570
528.449	7686
528.518	9045
528.586	5958
528.655	8057
528.723	7019
528.792	6736
528.861	6861
528.929	6235
528.998	7739
529.066	6294
529.135	7059
529.203	5794
529.272	5246
529.340	6873
529.409	9296
529.477	6901
529.545	8864
529.614	11316
529.682	10581
529.751	11098
529.819	13992
529.887	7344
529.956	6735
530.024	7523
530.092	6111
530.161	9030
530.229	9433
530.297	6321
530.365	6533
530.434	6451
530.502	5286
530.570	6640
530.638	4795
530.707	7216
530.775	8419
530.843	6621
530.911	6441
530.979	7052
531.047	7022
531.115	7895
531.183	6595
531.252	7633
531.320	6191
531.388	5702
531.456	6632
531.524	4840
531.592	7296
531.660	9122
531.728	6083
531.796	6441
531.864	7154
531.932	7531
532.000	6684
532.067	6166
532.135	7805
532.203	9647
532.271	8726
532.339	16733
532.407	26992
532.475	14136
532.542	10644
532.610	11961
532.678	17784
532.746	73068
532.814	105771
532.881	20504
532.949	8702
533.017	7530
533.084	7399
533.152	7381
533.220	7260
533.287	6094
533.355	7275
533.423	7185
533.490	6200
533.558	7431
533.625	8445
533.693	9048
533.761	9229
533.828	9221
533.896	8672
533.963	16429
534.031	18240
534.098	21150
534.166	11535
534.233	9551
534.300	11255
534.368	10261
534.435	8445
534.503	8832
534.570	9214
534.637	6832
534.705	7045
534.772	6954
534.840	6679
534.907	9518
534.974	7313
535.041	6797
535.109	9485
535.176	6785
535.243	6937
535.310	7257
535.378	5033
535.445	6831
535.512	6952
535.579	7623
535.646	5991
535.714	8448
535.781	10754
535.848	10743
535.915	12437
535.982	12370
536.049	11192
536.116	11808
536.183	9388
536.250	10023
536.317	8642
536.384	10194
536.451	11796
536.518	11127
536.585	8392
536.652	11629
536.719	13777
536.786	8987
536.853	9827
536.920	14103
536.987	17836
537.053	22069
537.120	73065
537.187	37069
537.254	7854
537.321	7263
537.388	7972
537.454	7125
537.521	6944
537.588	6436
537.654	9661
537.721	9548
537.788	9557
537.855	7621
537.921	9052
537.988	7572
538.055	7693
538.121	7318
538.188	7911
538.254	11360
538.321	15711
538.388	10137
538.454	8476
538.521	7301
538.587	6791
538.654	6802
538.720	6702
538.787	8765
538.853	8146
538.920	9994
538.986	9582
539.053	8763
539.119	10051
539.185	7763
539.252	10808
539.318	11369
539.385	11593
539.451	9766
539.517	10483
539.583	12995
539.650	29560
539.716	42938
539.782	11966
539.849	8125
539.915	9141
539.981	8271
540.047	8121
540.114	8523
540.180	9426
540.246	7797
540.312	11191
540.378	17235
540.444	17884
540.510	28764
540.576	48874
540.643	12936
540.709	7576
540.775	8243
540.841	8785
540.907	13863
540.973	17621
541.039	13747
541.105	12925
541.171	9068
541.237	7922
541.303	9760
541.369	11224
541.435	12376
541.500	15353
541.566	8667
541.632	7200
541.698	7691
541.764	9177
541.830	7628
541.896	6956
541.961	8246
542.027	8236
542.093	8855
542.159	8695
542.224	8538
542.290	13826
542.356	17592
542.421	16045
542.487	11073
542.553	10151
542.618	10560
542.684	8082
542.750	8970
542.815	11219
542.881	20883
542.947	50842
543.012	23554
543.078	8049
543.143	8303
543.209	9545
543.274	7995
543.340	11426
543.405	24490
543.471	22533
543.536	9428
543.602	8828
543.667	7989
543.732	9844
543.798	7960
543.863	8850
543.928	7258
543.994	7768
544.059	8522
544.124	7568
544.190	8292
544.255	8762
544.320	8202
544.386	7455
544.451	11404
544.516	10705
544.581	14120
544.646	38250
544.712	37157
544.777	12528
544.842	11928
544.907	13007
544.972	10185
545.037	11677
545.102	12133
545.168	11229
545.233	12743
545.298	13748
545.363	14655
545.428	14805
545.493	25861
545.558	37707
545.623	15573
545.688	11577
545.753	11625
545.818	10736
545.883	11545
545.947	10594
546.012	12950
546.077	11823
546.142	13093
546.207	10933
546.272	13529
546.337	12051
546.401	12370
546.466	11924
546.531	10059
546.596	12385
546.661	10879
546.725	10890
546.790	10085
546.855	10729
546.919	9470
546.984	10649
547.049	10951
547.113	12295
547.178	10035
547.243	11670
547.307	11785
547.372	14304
547.436	13511
547.501	9413
547.565	10568
547.630	11896
547.695	13091
547.759	15253
547.823	11614
547.888	11290
547.952	10539
548.017	11042
548.081	12802
548.146	16524
548.210	12863
548.274	10107
548.339	9101
548.403	9543
548.468	9837
548.532	9302
548.596	9233
548.660	9754
548.725	10791
548.789	13110
548.853	13512
548.917	11849
548.982	17973
549.046	14662
549.110	9197
549.174	10184
549.238	9277
549.303	8436
549.367	10967
549.431	9033
549.495	10661
549.559	9280
549.623	9986
549.687	13026
549.751	15356
549.815	10019
549.879	11353
549.943	9332
550.007	11981
550.071	11444
550.135	13520
550.199	11408
550.263	10813
550.327	13981
550.391	15450
550.455	11183
550.519	10633
550.582	11548
550.646	14430
550.710	13386
550.774	10352
550.838	10763
550.901	11446
550.965	11664
551.029	11706
551.093	13672
551.156	17893
551.220	38004
551.284	27728
551.347	20691
551.411	51481
551.475	35974
551.538	10817
551.602	10064
551.666	9994
551.729	7840
551.793	10861
551.856	10943
551.920	10633
551.983	9877
552.047	9960
552.110	9420
552.174	8847
552.237	9716
552.301	9331
552.364	10253
552.428	9618
552.491	8947
552.554	9400
552.618	10675
552.681	10147
552.745	10585
552.808	14000
552.871	15605
552.934	11543
552.998	10500
553.061	12027
553.124	10724
553.187	11326
553.251	11170
553.314	13544
553.377	14865
553.440	27660
553.503	89882
553.567	82399
553.630	13991
553.693	11058
553.756	10461
553.819	8923
553.882	8433
553.945	9442
554.008	8956
554.071	8185
554.134	9442
554.197	8252
554.260	8563
554.323	11059
554.386	9531
554.449	9383
554.512	8844
554.575	8427
554.638	9910
554.701	8569
554.764	8846
554.827	9169
554.889	7579
554.952	8617
555.015	8132
555.078	8453
555.141	8329
555.203	8611
555.266	8468
555.329	9112
555.391	7488
555.454	8383
555.517	7919
555.580	9065
555.642	8085
555.705	8102
555.768	9006
555.830	8959
555.893	7250
555.955	8059
556.018	8986
556.080	8286
556.143	7826
556.206	8524
556.268	9803
556.330	8838
556.393	8696
556.455	10295
556.518	15391
556.580	11616
556.643	8724
556.705	8944
556.767	7696
556.830	9056
556.892	9822
556.955	12936
557.017	9439
557.079	8640
557.142	9074
557.204	10035
557.266	17249
557.328	12468
557.391	8048
557.453	8019
557.515	8740
557.577	10517
557.639	9284
557.701	7881
557.764	7485
557.826	8649
557.888	8140
557.950	8889
558.012	7324
558.074	8530
558.136	7929
558.198	10531
558.260	9759
558.322	7255
558.384	8978
558.446	8947
558.508	8309
558.570	11967
558.632	19746
558.694	19423
558.756	10952
558.818	14607
558.880	21609
558.942	9616
559.003	10312
559.065	8054
559.127	8307
559.189	8338
559.251	9242
559.312	8571
559.374	11644
559.436	17921
559.498	10679
559.559	8100
559.621	8154
559.683	10925
559.744	16782
559.806	21175
559.868	18449
559.929	12786
559.991	12338
560.052	10297
560.114	12532
560.176	10806
560.237	13025
560.299	12559
560.360	10588
560.422	10756
560.483	11494
560.545	10803
560.606	11371
560.667	10563
560.729	10379
560.790	10252
560.852	10549
560.913	10805
560.974	9540
561.036	10493
561.097	11643
561.158	10494
561.220	11447
561.281	9781
561.342	10776
561.403	12963
561.465	14681
561.526	27409
561.587	24355
561.648	11488
561.709	10597
561.771	11078
561.832	11108
561.893	9672
561.954	10528
562.015	10548
562.076	11371
562.137	10224
562.198	10635
562.259	10589
562.320	10483
562.381	11279
562.442	13771
562.503	11777
562.564	10339
562.625	10811
562.686	10025
562.747	11483
562.808	11069
562.869	12226
562.930	15571
562.991	13478
563.051	12455
563.112	11900
563.173	11613
563.234	10194
563.294	11017
563.355	10755
563.416	11736
563.477	10307
563.537	11788
563.598	12587
563.659	12020
563.720	11683
563.780	10773
563.841	11639
563.901	11633
563.962	10787
564.023	10547
564.083	11071
564.144	11269
564.204	11092
564.265	11639
564.325	15704
564.386	26442
564.446	17050
564.507	10732
564.567	10516
564.628	10198
564.688	11197
564.749	11413
564.809	13463
564.869	13998
564.930	10904
564.990	10984
565.050	10644
565.111	10321
565.171	9618
565.231	10687
565.292	11519
565.352	9467
565.412	10725
565.472	10253
565.532	10274
565.593	9657
565.653	10008
565.713	10351
565.773	10768
565.833	11895
565.893	12973
565.953	10149
566.013	10876
566.074	11802
566.134	15628
566.194	24424
566.254	20150
566.314	13368
566.374	11135
566.434	12178
566.494	11443
566.554	10228
566.614	11111
566.673	10846
566.733	12591
566.793	11777
566.853	12238
566.913	11753
566.973	11826
567.033	12618
567.092	12028
567.152	12426
567.212	11661
567.272	12232
567.331	12354
567.391	12860
567.451	13652
567.511	19321
567.570	15487
567.630	11103
567.690	11158
567.749	11953
567.809	12140
567.868	12302
567.928	13208
567.988	13540
568.047	12896
568.107	14797
568.166	18211
568.226	22955
568.285	26918
568.345	24191
568.404	20558
568.464	18535
568.523	17252
568.582	16519
568.642	19117
568.701	23176
568.761	30187
568.820	40106
568.879	39466
568.939	33508
568.998	23872
569.057	19693
569.116	16896
569.176	14711
569.235	13930
569.294	12875
569.353	11785
569.413	12352
569.472	11486
569.531	10964
569.590	11172
569.649	11205
569.708	10274
569.767	11054
569.827	11726
569.886	10298
569.945	9387
570.004	10497
570.063	10715
570.122	9982
570.181	11633
570.240	13352
570.299	12239
570.358	11076
570.417	9681
570.475	9534
570.534	9272
570.593	9828
570.652	10207
570.711	9985
570.770	10298
570.829	11120
570.887	9999
570.946	9318
571.005	9197
571.064	8931
571.122	9698
571.181	10525
571.240	10328
571.299	9718
571.357	10450
571.416	10238
571.475	12169
571.533	10986
571.592	9184
571.650	9760
571.709	7764
571.768	8836
571.826	8599
571.885	8982
571.943	9090
572.002	9034
572.060	8585
572.119	8246
572.177	9255
572.236	7149
572.294	7548
572.352	9005
572.411	7797
572.469	7985
572.528	7882
572.586	7871
572.644	9266
572.703	9911
572.761	8260
572.819	8283
572.877	8341
572.936	7240
572.994	8639
573.052	7231
573.110	8080
573.169	7299
573.227	7667
573.285	7582
573.343	8056
573.401	7925
573.459	7510
573.517	7891
573.576	7387
573.634	7981
573.692	8487
573.750	7834
573.808	8660
573.866	9715
573.924	10876
573.982	9800
574.040	8584
574.098	8378
574.155	7651
574.213	6667
574.271	7143
574.329	7577
574.387	6071
574.445	7441
574.503	6725
574.560	6779
574.618	6280
574.676	6577
574.734	7169
574.792	7480
574.849	6925
574.907	6490
574.965	5907
575.022	5488
575.080	6128
575.138	7563
575.195	7385
575.253	7445
575.311	7434
575.368	7541
575.426	6564
575.483	7084
575.541	7902
575.598	6157
575.656	7077
575.713	6489
575.771	6815
575.828	6923
575.886	6828
575.943	7695
576.001	8057
576.058	8463
576.115	8507
576.173	10220
576.230	10356
576.287	10662
576.345	8685
576.402	8851
576.459	8218
576.517	8148
576.574	9494
576.631	9595
576.688	8370
576.746	8275
576.803	7836
576.860	7162
576.917	8630
576.974	7560
577.031	7191
577.089	8223
577.146	7382
577.203	8835
577.260	8397
577.317	8846
577.374	10113
577.431	9302
577.488	8300
577.545	7604
577.602	8142
577.659	7396
577.716	8891
577.773	9076
577.830	8110
577.886	7634
577.943	7379
578.000	8406
578.057	8774
578.114	9335
578.171	11094
578.227	14373
578.284	13678
578.341	11410
578.398	10287
578.454	10837
578.511	10013
578.568	11365
578.625	8331
578.681	7494
578.738	7383
578.794	7328
578.851	7507
578.908	8425
578.964	8026
579.021	7741
579.077	7223
579.134	7102
579.190	7038
579.247	7731
579.303	6807
579.360	5927
579.416	6549
579.473	6940
579.529	6560
579.586	7781
579.642	7423
579.698	7414
579.755	7802
579.811	7507
579.867	8511
579.924	8922
579.980	8775
580.036	11578
580.093	13800
580.149	20635
580.205	20307
580.261	14851
580.317	11389
580.374	11355
580.430	11898
580.486	10145
580.542	8346
580.598	8104
580.619	8109
580.654	8126
580.692	8072
580.710	8058
580.765	7623
580.767	7618
580.823	7770
580.838	7902
580.879	8269
580.911	7865
580.935	7581
580.984	7771
580.991	7805
581.047	8872
581.057	8855
581.103	8849
581.130	9102
581.159	9382
581.203	10772
581.215	11149
581.270	10129
581.276	10027
581.326	9121
581.349	8922
581.382	8654
581.422	8623
581.438	8618
581.494	7900
581.494	7901
581.550	8596
581.567	8822
581.606	9274
581.640	8719
581.661	8384
581.713	8261
581.717	8270
581.773	7495
581.786	7665
581.829	8101
581.859	8421
581.885	8776
581.932	8170
581.940	8058
581.996	8583
582.004	8416
582.052	7424
582.077	7430
582.107	7518
582.150	8528
582.163	8821
582.219	8704
582.223	8631
582.274	7776
582.296	8155
582.330	8741
582.368	8588
582.386	8585
582.441	8236
582.441	8237
582.497	7698
582.514	7930
582.552	8619
582.587	8616
582.608	8579
582.659	8155
582.663	8116
582.719	8229
582.732	8091
582.774	7635
582.805	7722
582.830	7882
582.877	8424
582.885	8506
582.941	7752
582.950	7833
582.996	8177
583.023	8475
583.052	8986
583.095	10049
583.107	10335
583.162	13124
583.168	13193
583.218	13621
583.240	12650
583.273	11072
583.313	10107
583.328	9805
583.384	9439
583.385	9403
583.439	8207
583.458	8077
583.494	7886
583.531	7846
583.549	7894
583.603	8210
583.605	8211
583.660	7854
583.676	7786
583.715	7684
583.748	7592
583.770	7636
583.820	8541
583.825	8617
583.881	8190
583.893	8113
583.936	7851
583.965	7942
583.991	7900
584.038	7583
584.046	7541
584.101	7290
584.110	7355
584.156	7612
584.183	7623
584.211	7782
584.255	7919
584.266	7946
584.321	7669
584.328	7710
584.376	7955
584.400	7987
584.431	7877
584.472	7205
584.486	7078
584.541	7783
584.545	7784
584.596	7494
584.617	7612
584.651	8012
584.689	8350
584.706	8443
584.761	8634
584.762	8631
584.816	8077
584.834	8188
584.871	8592
584.906	8324
584.926	8122
584.978	8271
584.980	8273
585.035	8743
585.051	8838
585.090	9303
585.123	9577
585.145	9602
585.195	9030
585.200	9029
585.254	10101
585.267	10378
585.309	11297
585.340	11794
585.364	11737
585.412	10159
585.419	9931
585.473	9554
585.484	9464
585.528	9578
585.556	9739
585.583	9872
585.628	10090
585.637	10258
585.692	11670
585.700	11858
585.747	12605
585.772	12503
585.801	11313
585.845	9936
585.856	9904
585.910	9761
585.917	9737
585.965	9163
585.989	9149
586.019	9607
586.061	10183
586.074	10253
586.128	10450
586.133	10473
586.183	10834
586.205	10999
586.237	11196
586.277	11281
586.292	11321
586.346	11599
586.349	11611
586.401	11502
586.421	11716
586.455	12516
586.493	14269
586.509	15701
586.564	20299
586.565	20529
586.618	32746
586.637	31922
586.672	22582
586.709	15693
586.727	13785
586.781	11913
586.781	11910
586.835	11122
586.853	11325
586.889	11653
586.925	11226
586.944	10985
586.996	11368
586.998	11382
587.052	11980
587.068	12030
587.106	12314
587.140	12701
587.161	12807
587.212	13037
587.215	13037
587.269	12819
587.284	12800
587.323	13211
587.356	13894
587.377	14036
587.427	13589
587.431	13571
587.485	13868
587.499	14017
587.539	14519
587.571	14630
587.593	14799
587.643	15928
587.648	16065
587.702	17265
587.715	17693
587.755	18447
587.786	18594
587.810	18645
587.858	18855
587.864	18962
587.917	20724
587.930	21143
587.971	22633
588.001	23696
588.025	24408
588.073	25967
588.079	26225
588.133	28958
588.145	29618
588.187	32017
588.217	33760
588.241	35605
588.288	40164
588.295	40849
588.348	46751
588.360	48191
588.402	53868
588.431	58218
588.456	62658
588.503	72275
588.510	73726
588.564	87010
588.575	90432
588.617	105296
588.646	118380
588.671	132985
588.718	168026
588.725	176250
588.778	255645
588.789	277086
588.832	429466
588.861	551023
588.886	716956
588.932	1013615
588.939	1032160
588.993	1088742
589.004	1085947
589.047	753960
589.075	521809
589.100	401702
589.147	224206
589.154	214292
589.207	159999
589.218	150804
589.261	142201
589.290	141845
589.314	148724
589.361	169942
589.368	178420
589.421	266043
589.433	289931
589.475	481217
589.504	627131
589.528	767329
589.576	984433
589.582	955402
589.635	604434
589.647	528999
589.689	299490
589.718	160558
589.742	129846
589.790	81802
589.795	79543
589.849	63756
589.861	60764
589.902	56364
589.932	51783
589.955	45938
590.004	35003
590.009	34451
590.062	30287
590.075	29299
590.115	26924
590.146	25206
590.168	24617
590.218	23293
590.222	23186
590.275	22408
590.289	22209
590.328	21853
590.360	21359
590.381	20731
590.431	19518
590.435	19475
590.488	18957
590.503	18825
590.541	18407
590.574	18059
590.594	17721
590.645	17056
590.647	17036
590.700	16582
590.716	16391
590.753	16188
590.787	16068
590.806	15681
590.859	15070
590.859	15075
590.912	15323
590.930	15584
590.965	15478
591.001	15211
591.018	14853
591.071	13658
591.072	13653
591.124	14577
591.143	14762
591.177	14322
591.214	14056
591.230	14156
591.283	14452
591.285	14464
591.336	14491
591.356	14516
591.389	14530
591.427	14446
591.442	14081
591.495	12853
591.498	12760
591.547	13194
591.569	13428
591.600	13354
591.640	13188
591.653	13287
591.706	13871
591.711	13926
591.759	14548
591.782	14879
591.811	15430
591.853	16196
591.864	15877
591.917	14062
591.924	13825
591.969	13895
591.995	13912
592.022	13429
592.066	12700
592.075	13166
592.127	16057
592.137	16603
592.180	18391
592.208	19442
592.233	17526
592.279	13882
592.285	13712
592.338	12340
592.350	12035
592.390	11983
592.421	11962
592.443	12246
592.491	12879
592.495	12873
592.548	12839
592.562	12836
592.600	12682
592.633	12565
592.653	12353
592.704	11758
592.705	11832
592.775	12191
592.846	12350
592.916	12466
592.987	12820
593.058	13019
593.128	11619
593.199	12370
593.270	12437
593.341	11080
593.411	10608
593.482	11653
593.553	11162
593.623	10200
593.694	11231
593.764	12193
593.835	10980
593.906	10795
593.976	11477
594.047	12144
594.117	15208
594.188	14812
594.258	10396
594.329	10259
594.399	10691
594.470	9841
594.540	11001
594.611	10401
594.681	10279
594.751	11160
594.822	12520
594.892	11363
594.963	12068
595.033	12100
595.103	11518
595.174	13344
595.244	20326
595.314	25617
595.384	11986
595.455	11246
595.525	11780
595.595	11348
595.665	11897
595.736	10891
595.806	10696
595.876	10877
595.946	10469
596.016	10031
596.087	11050
596.157	10800
596.227	9990
596.297	10797
596.367	11107
596.437	13506
596.507	19074
596.577	23114
596.647	12445
596.717	10146
596.787	10256
596.857	9651
596.927	10520
596.997	10426
597.067	10959
597.137	11480
597.207	10779
597.277	9683
597.347	10644
597.417	10568
597.487	11142
597.557	11843
597.626	11153
597.696	12803
597.766	16359
597.836	21565
597.906	12867
597.975	9708
598.045	10089
598.115	9651
598.185	9273
598.254	11008
598.324	10434
598.394	10766
598.464	11260
598.533	9908
598.603	8852
598.672	9696
598.742	10595
598.812	8904
598.881	9222
598.951	9443
599.020	9257
599.090	8219
599.159	9319
599.229	9425
599.299	8732
599.368	8964
599.437	8848
599.507	9213
599.576	11268
599.646	10526
599.715	9991
599.785	9767
599.854	11201
599.924	12467
599.993	10434
600.062	9142
600.132	8948
600.201	9076
600.270	10409
600.340	9454
600.409	8918
600.478	9400
600.547	9505
600.617	9463
600.686	10014
600.755	9536
600.824	9845
600.894	9485
600.963	9465
601.032	8399
601.101	9176
601.170	9264
601.239	8452
601.308	10231
601.378	9311
601.447	9702
601.516	8267
601.585	9275
601.654	10425
601.723	9486
601.792	8695
601.861	9526
601.930	11832
601.999	10581
602.068	8729
602.137	8867
602.206	9580
602.275	8685
602.343	10324
602.412	10489
602.481	8167
602.550	8730
602.619	7947
602.688	8707
602.756	8409
602.825	8077
602.894	8319
602.963	7776
603.032	8670
603.100	8440
603.169	7769
603.238	8325
603.307	8214
603.375	7911
603.444	8676
603.513	7544
603.581	7813
603.650	8245
603.719	7633
603.787	6950
603.856	8141
603.924	7865
603.993	7788
604.061	6922
604.130	8088
604.198	7930
604.267	8559
604.335	7454
604.404	7186
604.472	6733
604.541	7569
604.609	7663
604.678	7609
604.746	6727
604.815	6568
604.883	7152
604.951	7101
605.020	7316
605.088	7956
605.156	7725
605.225	7249
605.293	7457
605.361	7842
605.429	6998
605.498	7874
605.566	7329
605.634	7985
605.702	7324
605.771	8157
605.839	6926
605.907	7380
605.975	7624
606.043	6955
606.111	7613
606.180	8050
606.248	9736
606.316	10017
606.384	8017
606.452	12200
606.520	10534
606.588	7840
606.656	6214
606.724	6749
606.792	6855
606.860	6875
606.928	6431
606.996	6837
607.064	6163
607.132	5567
607.200	6492
607.267	6946
607.335	6131
607.403	6568
607.471	6875
607.539	7017
607.607	6949
607.674	6236
607.742	6949
607.810	6884
607.878	6491
607.946	6142
608.013	6639
608.081	6475
608.149	6146
608.216	6271
608.284	8143
608.352	6233
608.419	7118
608.487	13604
608.555	8904
608.622	6864
608.690	6345
608.757	6629
608.825	6900
608.893	6456
608.960	8601
609.028	10082
609.095	14535
609.163	7959
609.230	6932
609.298	8141
609.365	6513
609.432	6403
609.500	6147
609.567	5616
609.635	7258
609.702	7080
609.769	8232
609.837	9183
609.904	7755
609.971	6933
610.039	9311
610.106	12164
610.173	17093
610.241	37927
610.308	67066
610.375	45949
610.442	12364
610.509	8438
610.577	7569
610.644	6980
610.711	6900
610.778	7198
610.845	6636
610.912	7757
610.980	8366
611.047	11689
611.114	9035
611.181	5755
611.248	5510
611.315	7669
611.382	5501
611.449	6165
611.516	6888
611.583	6819
611.650	5530
611.717	6518
611.784	6366
611.851	6420
611.918	6959
611.984	6512
612.051	9008
612.118	14042
612.185	25220
612.252	16483
612.319	6978
612.386	6801
612.452	6204
612.519	7965
612.586	13674
612.653	9841
612.719	5975
612.786	5504
612.853	5956
612.919	5087
612.986	6093
613.053	5374
613.120	5655
613.186	4952
613.253	6643
613.319	5294
613.386	5381
613.453	6384
613.519	6730
613.586	7859
613.652	14084
613.719	9827
613.785	8980
613.852	6593
613.918	5759
613.985	8773
614.051	13839
614.118	35189
614.184	33790
614.250	8244
614.317	5481
614.383	5014
614.449	4905
614.516	5312
614.582	7030
614.648	6669
614.715	4517
614.781	5787
614.847	6255
614.914	5811
614.980	6498
615.046	5734
615.112	5444
615.179	5637
615.245	6131
615.311	5873
615.377	8108
615.443	8813
615.509	6658
615.575	6496
615.642	6667
615.708	6843
615.774	6918
615.840	8428
615.906	10185
615.972	11477
616.038	16588
616.104	24494
616.170	37691
616.236	29541
616.302	12604
616.368	8702
616.434	7873
616.500	9069
616.565	9193
616.631	8375
616.697	8199
616.763	7959
616.829	8205
616.895	12442
616.961	10681
617.026	8796
617.092	7120
617.158	8211
617.224	7096
617.289	8175
617.355	8128
617.421	7881
617.487	8840
617.552	7825
617.618	6610
617.684	6529
617.749	8674
617.815	7913
617.880	6904
617.946	7777
618.012	7333
618.077	7110
618.143	7172
618.208	7608
618.274	7466
618.339	8089
618.405	6810
618.470	9025
618.536	8754
618.601	10174
618.667	9258
618.732	8511
618.798	8549
618.863	8685
618.928	8061
618.994	9733
619.059	11071
619.124	13815
619.190	10325
619.255	8309
619.320	9541
619.386	9719
619.451	7086
619.516	8740
619.581	8225
619.647	8593
619.712	7904
619.777	9209
619.842	9170
619.907	8645
619.972	7571
620.038	8804
620.103	8309
620.168	7571
620.233	9195
620.298	7971
620.363	7766
620.428	7682
620.493	7878
620.558	7200
620.623	7408
620.688	8176
620.753	7104
620.818	7734
620.883	7885
620.948	7629
621.013	7572
621.078	7789
621.143	7180
621.207	10354
621.272	9501
621.337	9949
621.402	11674
621.467	15504
621.532	16480
621.596	12730
621.661	11201
621.726	9858
621.791	10921
621.855	11315
621.920	11423
621.985	11896
622.049	15688
622.114	13406
622.179	12374
622.243	12184
622.308	11265
622.373	12641
622.437	12822
622.502	10662
622.566	10631
622.631	10586
622.695	11950
622.760	12141
622.824	10968
622.889	11741
622.953	11843
623.018	16616
623.082	16097
623.147	11450
623.211	10695
623.276	10828
623.340	9509
623.404	9517
623.469	10365
623.533	10099
623.597	9514
623.662	9700
623.726	10175
623.790	9185
623.854	9950
623.919	9923
623.983	9792
624.047	10248
624.111	9072
624.176	9642
624.240	10226
624.304	11361
624.368	10204
624.432	10848
624.496	10698
624.560	10679
624.625	10571
624.689	10417
624.753	8527
624.817	9864
624.881	8925
624.945	9228
625.009	9431
625.073	9589
625.137	9204
625.201	12089
625.265	11934
625.329	9286
625.393	10379
625.456	10048
625.520	10185
625.584	11086
625.648	15794
625.712	26899
625.776	65530
625.839	73840
625.903	25591
625.967	13203
626.031	25633
626.095	39473
626.158	12104
626.222	7641
626.286	8146
626.349	7811
626.413	7243
626.477	10316
626.540	7538
626.604	8512
626.668	8867
626.731	7824
626.795	9210
626.858	9014
626.922	7851
626.986	9005
627.049	6556
627.113	8438
627.176	8160
627.240	7444
627.303	7470
627.366	7479
627.430	8187
627.493	7682
627.557	7351
627.620	9706
627.684	7645
627.747	8671
627.810	5846
627.874	8078
627.937	6787
628.000	9169
628.064	7995
628.127	6016
628.190	7570
628.253	8503
628.317	7011
628.380	8289
628.443	6762
628.506	7841
628.569	8045
628.632	5994
628.696	7210
628.759	6539
628.822	6759
628.885	5590
628.948	7066
629.011	7319
629.074	7083
629.137	7018
629.200	5724
629.263	8579
629.326	5846
629.389	6997
629.452	6947
629.515	7295
629.578	6703
629.641	8106
629.704	6387
629.767	6995
629.830	6795
629.892	6944
629.955	5410
630.018	8930
630.081	6503
630.144	7820
630.207	6127
630.269	8506
630.332	8341
630.395	6976
630.458	6203
630.520	4100
630.583	6983
630.646	5988
630.708	5340
630.771	5311
630.834	6228
630.896	5459
630.959	6334
631.021	5739
631.084	5676
631.146	6522
631.209	8257
631.272	6297
631.334	5613
631.397	5157
631.459	5259
631.522	5790
631.584	5393
631.646	6363
631.709	5359
631.771	7315
631.834	5335
631.896	5563
631.958	4381
632.021	5939
632.083	4166
632.145	5602
632.208	4762
632.270	6855
632.332	3949
632.395	4649
632.457	6555
632.519	3902
632.581	5648
632.643	4131
632.706	5469
632.768	4234
632.830	4864
632.892	5559
632.954	4586
633.016	6080
633.078	4847
633.141	4412
633.203	5278
633.265	5974
633.327	5304
633.389	4332
633.451	5991
633.513	6687
633.575	6651
633.637	5765
633.698	5373
633.760	4861
633.822	5292
633.884	4623
633.946	4893
634.008	4314
634.070	4537
634.132	6004
634.193	5625
634.255	5080
634.317	4848
634.379	4876
634.441	4358
634.502	3698
634.564	4548
634.626	3925
634.687	4670
634.749	4608
634.811	4665
634.873	3609
634.934	4361
634.996	5116
635.057	3754
635.119	3222
635.181	4671
635.242	5142
635.304	2970
635.365	5738
635.427	3862
635.488	4093
635.550	3267
635.611	4471
635.673	2820
635.734	6055
635.796	4012
635.857	6186
635.918	3242
635.980	5043
636.041	3124
636.102	4802
636.164	3942
636.225	5403
636.286	2355
636.348	4067
636.409	4297
636.470	2633
636.531	4787
636.593	4476
636.654	5698
636.715	4463
636.776	3822
636.838	2231
636.899	4685
636.960	3379
637.021	2845
637.082	3248
637.143	4359
637.204	2514
637.265	2831
637.326	3425
637.387	3398
637.448	2662
637.509	4071
637.570	2927
637.631	4527
637.692	2211
637.753	2668
637.814	3200
637.875	2086
637.936	3491
637.997	2733
638.058	3966
638.119	4806
638.179	2987
638.240	3514
638.301	3185
638.362	3006
638.423	3475
638.483	4604
638.544	2317
638.605	3881
638.666	2228
638.726	3610
638.787	4091
638.848	3714
638.908	3089
638.969	2893
639.030	3750
639.090	2399
639.151	3339
639.211	3533
639.272	4951
639.332	7797
639.393	4486
639.453	2661
639.514	3090
639.574	3890
639.635	2257
639.695	3977
639.756	3249
639.816	2861
639.877	4425
639.937	6706
639.997	9130
640.058	2719
640.118	2360
640.178	3474
640.239	1699
640.299	2808
640.359	2182
640.420	3212
640.480	3124
640.540	2907
640.600	2476
640.661	2982
640.721	2389
640.781	4538
640.841	1933
640.901	3956
640.961	3772
641.021	3533
641.082	2435
641.142	5806
641.202	4704
641.262	961
641.322	3253
641.382	1944
641.442	3548
641.502	2508
641.562	3220
641.622	2018
641.682	3682
641.742	2615
641.802	3376
641.861	3325
641.921	3494
641.981	4132
642.041	4220
642.101	4706
642.161	1815
642.221	2515
642.280	2044
642.340	2384
642.400	1925
642.460	3184
642.519	2807
642.579	2140
642.639	3057
642.698	670
642.758	3539
642.818	2901
642.877	1506
642.937	2902
642.997	3848
643.056	5575
643.116	1900
643.175	4557
643.235	2625
643.294	2708
643.354	3075
643.414	3724
643.473	3407
643.532	2635
643.592	3046
643.651	3349
643.711	4392
643.770	6238
643.830	10707
643.889	24253
643.948	7123
644.008	3243
644.067	2195
644.126	1550
644.186	2546
644.245	2903
644.304	1133
644.363	3109
644.423	1508
644.482	2949
644.541	2776
644.600	228
644.659	2616
644.719	2267
644.778	2759
644.837	2098
644.896	3520
644.955	4922
645.014	3111
645.073	4420
645.132	2034
645.191	3107
645.250	2173
645.309	3352
645.368	1664
645.427	3129
645.486	1069
645.545	2656
645.604	2019
645.663	3217
645.722	2283
645.781	2618
645.840	2289
645.898	2230
645.957	2995
646.016	2501
646.075	3111
646.134	4642
646.192	10357
646.251	15961
646.310	3245
646.369	2600
646.427	2550
646.486	1086
646.545	1631
646.603	2108
646.662	2219
646.721	2000
646.779	893
646.838	580
646.896	3086
646.955	1998
647.014	1549
647.072	2309
647.131	4480
647.189	2019
647.248	715
647.306	3264
647.365	2441
647.423	1193
647.481	3590
647.540	648
647.598	1709
647.657	1511
647.715	2147
647.773	1353
647.832	2527
647.890	1144
647.948	1425
648.007	2899
648.065	549
648.123	1621
648.181	3036
648.240	3385
648.298	2065
648.356	1817
648.414	1808
648.472	1854
648.531	2390
648.589	2564
648.647	1488
648.705	1972
648.763	1522
648.821	1891
648.879	1984
648.937	1127
648.995	1605
649.053	1666
649.111	1912
649.169	2377
649.227	3058
649.285	3340
649.343	10159
649.401	6864
649.459	9279
649.516	8546
649.574	5088
649.632	15087
649.690	17781
649.748	6627
649.806	4463
649.863	7422
649.921	4246
649.979	1154
650.037	3182
650.094	325
650.152	2338
650.210	577
650.268	2304
650.325	1556
650.383	1293
650.440	492
650.498	1762
650.556	2122
650.613	1376
650.671	2124
650.728	2165
650.786	1977
650.843	2104
650.901	114
650.958	2233
651.016	1973
651.073	1614
651.131	1509
651.188	1321
651.246	1879
651.303	1056
651.360	2153
651.418	1780
651.475	2477
651.532	231
651.590	1828
651.647	1006
651.704	1914
651.762	1368
651.819	1447
651.876	1650
651.933	1664
651.990	2293
652.048	87
652.105	1510
652.162	2151
652.219	1304
652.276	2495
652.333	2122
652.390	216
652.448	902
652.505	1261
652.562	1927
652.619	1782
652.676	3683
652.733	3709
652.790	1166
652.847	270
652.904	1575
652.961	787
653.017	714
653.074	1657
653.131	1150
653.188	22
653.245	536
653.302	1239
653.359	848
653.415	1430
653.472	1621
653.529	1061
653.586	613
653.642	670
653.699	1899
653.756	593
653.813	1407
653.869	1210
653.926	296
653.983	406
654.039	1772
654.096	799
654.152	1866
654.209	543
654.266	1366
654.322	666
654.379	1719
654.435	1596
654.492	1717
654.548	3463
654.605	4730
654.661	2820
654.717	1756
654.774	1817
654.830	1461
654.887	1117
654.943	1702
655.000	1550
655.056	1871
655.112	2101
655.168	219
655.225	2105
655.281	2516
655.337	2437
655.394	5734
655.450	3997
655.506	3045
655.562	5638
655.618	5238
655.675	640
655.731	1823
655.787	648
655.843	2692
655.899	955
655.955	1509
656.011	1989
656.067	249
656.123	1971
656.179	2469
656.235	2859
656.291	394
656.347	3443
656.403	1861
656.459	1146
656.515	2709
656.571	2420
656.627	1907
656.683	1491
656.739	1024
656.795	1786
656.850	1551
656.906	2395
656.962	2251
657.018	212
657.074	1270
657.129	1456
657.185	1377
657.241	1143
657.297	446
657.352	1898
657.408	364
657.464	2296
657.519	1727
657.575	238
657.630	1158
657.686	778
657.742	572
657.797	1179
657.853	1173
657.908	2594
657.964	322
658.019	749
658.075	1540
658.130	1903
658.186	561
658.241	2107
658.297	263
658.352	785
658.407	2087
658.463	117
658.518	1504
658.573	923
658.629	555
658.684	988
658.739	1933
658.795	470
658.850	1798
658.905	359
658.960	1086
659.016	251
659.071	669
659.126	1428
659.181	949
659.236	3634
659.291	3802
659.346	1867
659.401	1478
659.457	2011
659.512	2776
659.567	2466
659.622	1160
659.677	990
659.732	779
659.787	1072
659.842	1390
659.897	2994
659.952	1238
660.007	613
660.061	1138
660.116	1166
660.171	950
660.226	1485
660.281	1180
660.336	710
660.391	1422
660.445	-599
660.500	1450
660.555	2148
660.610	362
660.664	1503
660.719	1041
660.774	1046
660.828	1217
660.883	1282
660.938	1639
660.992	66
661.047	962
661.101	1275
661.156	216
661.211	307
661.265	898
661.320	1088
661.374	693
661.429	619
661.483	2096
661.538	1244
661.592	1273
661.647	905
661.701	986
661.755	670
661.810	1339
661.864	899
661.919	913
661.973	1678
662.027	1392
662.081	757
662.136	1431
662.190	1865
662.244	1910
662.299	894
662.353	1788
662.407	887
662.461	803
662.515	846
662.569	1590
662.624	1937
662.678	596
662.732	1279
662.786	1490
662.840	1997
662.894	794
662.948	1781
663.002	692
663.056	487
663.110	13
663.164	1101
663.218	681
663.272	1836
663.326	745
663.380	1695
663.434	1765
663.488	1193
663.542	1467
663.595	1403
663.649	671
663.703	1208
663.757	915
663.811	954
663.864	452
663.918	999
663.972	581
664.026	559
664.079	719
664.133	2123
664.187	923
664.240	519
664.294	1262
664.348	1253
664.401	1484
664.455	1037
664.508	930
664.562	1034
664.615	705
664.669	398
664.722	796
664.776	1366
664.829	1584
664.883	397
664.936	1646
664.990	1305
665.043	1366
665.097	830
665.150	2453
665.203	1137
665.257	1574
665.310	1686
665.363	1266
665.417	1406
665.470	1729
665.523	1708
665.576	1557
665.630	1619
665.683	1913
665.736	1054
665.789	2178
665.842	1104
665.895	1546
665.949	779
666.002	1822
666.055	1341
666.108	1624
666.161	1373
666.214	2651
666.267	1428
666.320	1986
666.373	1491
666.426	2346
666.479	1945
666.532	1435
666.585	2248
666.638	2363
666.691	1642
666.744	2951
666.796	2176
666.849	1245
666.902	1867
666.955	1303
667.008	1463
667.060	796
667.113	709
667.166	1394
667.219	1209
667.271	1023
667.324	1295
667.377	836
667.430	914
667.482	1053
667.535	1834
667.587	2280
667.640	1271
667.693	2544
667.745	2844
667.798	4560
667.850	1377
667.903	1339
667.955	1471
668.008	1493
668.060	2228
668.113	2307
668.165	1632
668.218	2297
668.270	1416
668.322	1629
668.375	1167
668.427	1890
668.479	1265
668.532	2153
668.584	1793
668.636	2200
668.689	2280
668.741	1660
668.793	1898
668.845	1294
668.898	2182
668.950	1679
669.002	1583
669.054	1495
669.106	1897
669.158	2688
669.211	1419
669.263	1892
669.315	2749
669.367	2971
669.419	1429
669.471	3435
669.523	2550
669.575	4078
669.627	2916
669.679	2542
669.731	2785
669.783	3415
669.835	2447
669.886	2393
669.938	1852
669.990	2726
670.042	1608
670.094	2525
670.146	2337
670.197	3807
670.249	4570
670.301	4487
670.353	7758
670.404	10809
670.456	16847
670.508	24752
670.560	40367
670.611	68960
670.663	119257
670.715	276679
670.766	436225
670.818	147760
670.869	27655
670.921	13057
670.972	8933
671.024	6170
671.075	5653
671.127	4589
671.178	3077
671.230	3171
671.281	3365
671.333	2469
671.384	2615
671.436	3398
671.487	2831
671.538	3411
671.590	2888
671.641	2928
671.692	3012
671.744	2345
671.795	2935
671.846	2940
671.897	1705
671.949	2143
672.000	1948
672.051	1828
672.102	2915
672.153	1195
672.204	1826
672.256	2406
672.307	1879
672.358	1806
672.409	2564
672.460	1414
672.511	1416
672.562	1561
672.613	1504
672.664	1916
672.715	1844
672.766	1323
672.817	1613
672.868	1489
672.919	1511
672.970	1516
673.021	1944
673.071	682
673.122	2138
673.173	2379
673.224	1132
673.275	1321
673.326	992
673.376	1489
673.427	1348
673.478	1348
673.528	2276
673.579	1235
673.630	800
673.680	2181
673.731	1110
673.782	1434
673.832	1397
673.883	1981
673.934	1355
673.984	1091
674.035	1794
674.085	1281
674.136	2111
674.186	1829
674.237	2366
674.287	3985
674.338	2174
674.388	1329
674.438	717
674.489	1619
674.539	1199
674.589	838
674.640	1457
674.690	1655
674.740	1336
674.791	1977
674.841	1703
674.891	2292
674.942	1606
674.992	1269
675.042	841
675.092	820
675.142	1409
675.193	1654
675.243	1728
675.293	877
675.343	1501
675.393	1326
675.443	1425
675.493	1965
675.543	544
675.593	2085
675.643	1380
675.693	2061
675.743	1980
675.793	1494
675.843	886
675.893	964
675.943	928
675.993	638
676.043	1265
676.093	1808
676.142	1201
676.192	1372
676.242	1688
676.292	1083
676.341	402
676.391	1716
676.441	1123
676.491	1278
676.540	1028
676.590	1728
676.640	1110
676.689	1560
676.739	41
676.789	617
676.838	577
676.888	1490
676.937	1265
676.987	742
677.037	830
677.086	624
677.136	631
677.185	322
677.235	745
677.284	711
677.333	344
677.383	564
677.432	842
677.482	1076
677.531	436
677.580	342
677.630	730
677.679	631
677.728	654
677.778	1340
677.827	947
677.876	1521
677.925	593
677.975	695
678.024	898
678.073	669
678.122	1292
678.171	1097
678.220	793
678.269	1692
678.319	779
678.368	702
678.417	-70
678.466	1295
678.515	1609
678.564	1720
678.613	716
678.662	828
678.711	1392
678.760	789
678.809	1174
678.857	982
678.906	920
678.955	1625
679.004	2003
679.053	1008
679.102	1149
679.151	1512
679.199	749
679.248	971
679.297	880
679.346	1334
679.394	562
679.443	1451
679.492	762
679.540	1224
679.589	635
679.638	414
679.686	959
679.735	647
679.784	932
679.832	1325
679.881	488
679.929	682
679.978	271
680.026	383
680.075	743
680.123	1208
680.172	638
680.220	609
680.268	791
680.317	1708
680.365	1244
680.414	353
680.462	459
680.510	1885
680.559	330
680.607	362
680.655	286
680.703	284
680.752	95
680.800	862
680.848	984
680.896	486
680.945	571
680.993	340
681.041	390
681.089	807
681.137	925
681.185	139
681.233	259
681.258	510
681.281	730
681.329	1079
681.377	281
681.380	339
681.425	1072
681.473	850
681.502	823
681.521	776
681.569	1750
681.617	974
681.624	947
681.665	634
681.713	658
681.745	839
681.761	894
681.809	845
681.857	1035
681.867	1201
681.904	1728
681.952	1718
681.989	1395
682.000	1278
682.048	1381
682.096	648
682.111	861
682.143	1238
682.191	662
682.233	1457
682.239	1557
682.286	975
682.334	2041
682.354	1365
682.382	415
682.430	1865
682.476	1403
682.477	1378
682.525	1303
682.572	924
682.598	978
682.620	997
682.667	1431
682.715	2061
682.720	1981
682.763	1064
682.810	1665
682.841	1377
682.857	1222
682.905	1486
682.952	2220
682.963	2081
683.000	1513
683.047	1545
683.085	2016
683.095	2118
683.142	1657
683.190	1614
683.206	1385
683.237	969
683.284	1833
683.328	1727
683.332	1705
683.379	1837
683.426	1273
683.449	1516
683.473	1703
683.521	2107
683.568	1718
683.571	1707
683.615	1416
683.662	2160
683.693	1773
683.709	1544
683.757	2011
683.804	2137
683.814	2224
683.851	2497
683.898	2266
683.936	2124
683.945	2064
683.992	2599
684.039	2414
684.057	2204
684.086	1904
684.133	2243
684.179	1566
684.180	1529
684.227	2883
684.274	2676
684.300	2884
684.321	3018
684.368	2769
684.415	3157
684.422	3101
684.462	2645
684.509	1570
684.543	1448
684.556	1451
684.603	2754
684.649	2185
684.665	2363
684.696	2674
684.743	2404
684.786	3269
684.790	3339
684.837	2792
684.883	3765
684.908	3808
684.930	3729
684.977	4219
685.023	3450
685.029	3439
685.070	3206
685.117	2476
685.150	2779
685.164	2985
685.210	3587
685.257	3911
685.272	4087
685.303	4217
685.350	3730
685.393	3788
685.396	3799
685.443	3992
685.490	3933
685.514	3858
685.536	3730
685.583	4014
685.629	3251
685.636	3360
685.675	3970
685.722	4100
685.757	4060
685.768	4039
685.815	3566
685.861	3682
685.878	3638
685.908	3629
685.954	3851
686.000	4532
686.000	4542
686.047	4955
686.093	5052
686.121	5250
686.139	5161
686.185	5032
686.232	4159
686.242	4202
686.278	4407
686.324	4310
686.363	3906
686.370	3827
686.416	4096
686.463	4181
686.484	3873
686.509	3678
686.555	4021
686.601	4300
686.606	4335
686.647	4355
686.693	4011
686.727	3987
686.739	4062
686.785	4421
686.831	4629
686.848	4507
686.877	4127
686.923	4084
686.969	4304
686.969	4305
687.015	4448
687.061	4694
687.090	4467
687.107	4290
687.153	4724
687.199	4505
687.211	4286
687.245	3880
687.291	4546
687.332	4805
687.336	4813
687.382	5357
687.428	4551
687.453	4652
687.474	4642
687.520	4092
687.565	4618
687.574	4448
687.611	4027
687.657	3925
687.695	4833
687.702	5007
687.748	4968
687.794	4937
687.816	4912
687.839	4740
687.885	4629
687.931	4135
687.937	4124
687.976	4270
688.022	4817
688.058	4844
688.067	4849
688.113	4644
688.158	4823
688.179	5116
688.204	5419
688.249	4664
688.295	5065
688.300	5061
688.340	5138
688.386	5096
688.421	4869
688.431	4783
688.477	4920
688.522	5262
688.542	5192
688.567	5222
688.613	5206
688.658	4947
688.663	4975
688.703	5021
688.749	4430
688.784	5021
688.794	5235
688.839	5076
688.884	5025
688.905	5088
688.930	5151
688.975	5279
689.020	5266
689.026	5281
689.065	5404
689.110	5349
689.146	5405
689.155	5427
689.201	5205
689.246	5029
689.267	5269
689.291	5570
689.336	5364
689.381	5347
689.388	5450
689.426	5868
689.471	5434
689.509	5230
689.516	5210
689.561	5055
689.606	4814
689.630	4918
689.651	5097
689.696	5131
689.741	5398
689.750	5409
689.785	5519
689.830	5606
689.871	5972
689.875	5991
689.920	5560
689.965	5093
689.992	5060
690.010	5116
690.054	4990
690.099	5416
690.112	5385
690.144	5360
690.189	5504
690.233	4938
690.233	4944
690.278	5490
690.323	5472
690.354	5712
690.367	5851
690.412	5815
690.457	5869
690.474	5980
690.501	6048
690.546	6011
690.590	5917
690.595	5877
690.635	5954
690.680	5878
690.716	6345
690.724	6529
690.769	7399
690.813	8193
690.836	8221
690.857	8706
690.902	10643
690.946	12414
690.957	12894
690.991	16656
691.035	22058
691.077	27490
691.080	27552
691.124	25595
691.168	23430
691.198	22408
691.213	20990
691.257	17251
691.301	13072
691.318	11525
691.346	10543
691.390	8671
691.434	7208
691.439	7017
691.478	6721
691.522	6789
691.559	6259
691.567	6280
691.611	7011
691.655	7242
691.680	7376
691.699	7168
691.743	7087
691.787	6819
691.800	6575
691.831	6512
691.875	6654
691.919	7473
691.921	7456
691.964	7203
692.008	7459
692.041	7548
692.052	7562
692.096	7488
692.139	7351
692.162	7434
692.183	7543
692.227	7252
692.271	7103
692.282	7208
692.315	7644
692.359	7583
692.402	7332
692.403	7345
692.447	7601
692.490	7479
692.523	7492
692.534	7615
692.578	7732
692.622	8029
692.643	8291
692.666	8291
692.709	7796
692.753	7419
692.763	7345
692.797	7425
692.840	7550
692.884	7376
692.884	7393
692.928	7430
692.971	7520
693.004	7583
693.015	7588
693.059	7678
693.102	7827
693.124	7720
693.146	7702
693.189	7985
693.233	7877
693.245	7858
693.276	7985
693.320	8635
693.363	8715
693.365	8700
693.407	9080
693.450	9723
693.485	10120
693.493	10421
693.537	11977
693.580	13372
693.605	14179
693.624	15700
693.667	19648
693.710	23417
693.725	24715
693.753	31895
693.797	44055
693.840	56526
693.845	57643
693.883	54250
693.926	49669
693.966	46428
693.970	45511
694.013	35050
694.056	24784
694.086	17698
694.099	16971
694.142	14839
694.185	12344
694.206	11204
694.229	11031
694.272	10637
694.315	10450
694.326	10281
694.358	9806
694.401	9717
694.444	9084
694.446	9033
694.487	8749
694.530	8784
694.566	8431
694.573	8376
694.616	8004
694.659	7803
694.686	7465
694.702	7353
694.745	7266
694.787	7038
694.806	6972
694.830	7094
694.873	7290
694.916	7389
694.926	7394
694.959	7216
695.002	7060
695.044	6747
695.046	6722
695.087	7030
695.130	7245
695.166	7419
695.172	7467
695.215	7660
695.258	7986
695.286	7992
695.301	7834
695.343	7478
695.386	7064
695.406	6869
695.428	6890
695.471	6830
695.514	6815
695.526	6783
695.556	6829
695.599	7143
695.641	7092
695.646	7083
695.684	7006
695.726	6855
695.766	6600
695.769	6635
695.811	7234
695.854	7378
695.886	7615
695.896	7575
695.938	7351
695.981	7015
696.005	6810
696.023	6843
696.065	7079
696.108	7209
696.125	7210
696.150	7363
696.192	7636
696.235	7824
696.245	7888
696.277	7900
696.319	7919
696.361	7721
696.365	7689
696.404	7799
696.446	7859
696.485	7926
696.488	7960
696.530	8207
696.572	8291
696.604	8395
696.614	8293
696.656	7731
696.698	7205
696.724	6833
696.740	6967
696.783	7265
696.825	7580
696.844	7690
696.867	7625
696.909	7444
696.951	7236
696.964	7221
696.992	7251
697.034	6964
697.076	6796
697.083	6754
697.118	6890
697.160	7003
697.202	7096
697.203	7078
697.244	7040
697.286	7028
697.323	6864
697.327	6891
697.369	7001
697.411	7169
697.442	7270
697.453	7330
697.494	7421
697.536	7536
697.562	7598
697.578	7661
697.620	7761
697.661	7865
697.682	7876
697.703	7879
697.744	7915
697.786	7920
697.801	7873
697.828	7784
697.869	7652
697.911	7494
697.921	7458
697.952	7498
697.994	7446
698.035	7329
698.040	7306
698.077	7248
698.118	7105
698.160	6925
698.160	6902
698.201	7076
698.243	7222
698.279	7324
698.284	7363
698.325	7510
698.367	7697
698.399	7760
698.408	7694
698.449	7339
698.491	6956
698.518	6665
698.532	6736
698.573	6919
698.614	7110
698.638	7189
698.656	7133
698.697	6939
698.738	6752
698.757	6645
698.779	6868
698.820	7244
698.862	7636
698.877	7759
698.903	7890
698.944	8053
698.985	8227
698.996	8253
699.026	8116
699.067	7891
699.116	7604
699.235	7000
699.354	6977
699.474	8228
699.593	8388
699.713	8802
699.832	7607
699.951	7602
700.070	7862
700.190	6633
700.309	7052
700.428	7679
700.547	8343
700.667	7180
700.786	8024
700.905	7198
701.024	8190
701.143	7643
701.262	6637
701.381	5756
701.500	6439
701.619	6393
701.738	6770
701.857	7046
701.976	5972
702.095	6098
702.214	7519
702.333	6727
702.452	6332
702.571	6840
702.690	6303
702.809	5656
702.928	5353
703.047	6501
703.165	5709
703.284	5584
703.403	5874
703.522	6949
703.640	7031
703.759	8369
703.878	12076
703.997	6318
704.115	6041
704.234	6328
704.353	6147
704.471	5845
704.590	6044
704.708	5214
704.827	6528
704.946	5867
705.064	7719
705.183	5275
705.301	7749
705.420	12660
705.538	10366
705.656	8878
705.775	9038
705.893	15279
706.012	19248
706.130	10146
706.249	9622
706.367	9627
706.485	9946
706.604	9449
706.722	9989
706.840	10766
706.958	10430
707.077	10066
707.195	8153
707.313	8113
707.431	8596
707.549	8677
707.668	8156
707.786	8753
707.904	8077
708.022	7801
708.140	7672
708.258	7795
708.376	8989
708.494	8033
708.612	9235
708.730	14068
708.848	13180
708.966	11243
709.084	10701
709.202	10135
709.320	11047
709.438	9980
709.556	11692
709.674	10593
709.791	10308
709.909	10437
710.027	10397
710.145	10594
710.263	10676
710.380	9749
710.498	10041
710.616	9913
710.733	9676
710.851	10356
710.969	10811
711.086	9197
711.204	9503
711.322	9645
711.439	9892
711.557	9950
711.674	10026
711.792	9635
711.909	10073
712.027	10347
712.144	9014
712.262	9980
712.379	10559
712.497	15769
712.614	15437
712.732	12988
712.849	11330
712.966	11356
713.084	14724
713.201	12707
713.318	13032
713.436	11877
713.553	12791
713.670	12587
713.787	14954
713.905	13970
714.022	12286
714.139	10679
714.256	11580
714.373	11887
714.490	12088
714.608	11043
714.725	15990
714.842	16925
714.959	11187
715.076	10351
715.193	10056
715.310	10489
715.427	9924
715.544	9925
715.661	10629
715.778	10267
715.895	11639
716.011	11659
716.128	11065
716.245	10317
716.362	10688
716.479	11247
716.596	9770
716.713	10217
716.829	9857
716.946	8673
717.063	9182
717.180	9131
717.296	9162
717.413	10143
717.530	9507
717.646	9059
717.763	9872
717.880	8616
717.996	8366
718.113	7887
718.229	9631
718.346	8271
718.462	8977
718.579	9460
718.695	11957
718.812	12278
718.928	12520
719.045	8318
719.161	8024
719.277	7099
719.394	8619
719.510	9125
719.626	8504
719.743	9592
719.859	8922
719.975	7597
720.092	9081
720.208	10313
720.324	9754
720.440	7863
720.557	9000
720.673	12751
720.789	19186
720.905	40283
721.021	14541
721.137	7853
721.253	8601
721.369	7913
721.486	9997
721.602	13203
721.718	7589
721.834	6859
721.950	7500
722.066	6695
722.181	6594
722.297	7303
722.413	6756
722.529	7231
722.645	7132
722.761	6403
722.877	6812
722.993	6676
723.108	6384
723.224	5821
723.340	7582
723.456	6123
723.571	7489
723.687	6223
723.803	6199
723.918	5898
724.034	6815
724.150	7216
724.265	7537
724.381	15376
724.497	19316
724.612	7032
724.728	6722
724.843	5435
724.959	7328
725.074	13617
725.190	17220
725.305	8173
725.421	6014
725.536	5582
725.651	5706
725.767	4877
725.882	5511
725.997	4893
726.113	5185
726.228	4885
726.343	6283
726.459	4483
726.574	6047
726.689	5597
726.804	5296
726.920	5217
727.035	4669
727.150	4887
727.265	4891
727.380	5541
727.495	5471
727.610	4113
727.725	5272
727.841	6359
727.956	9974
728.071	9332
728.186	5222
728.301	4565
728.416	5648
728.531	4899
728.645	4555
728.760	4258
728.875	4905
728.990	5180
729.105	4631
729.220	4608
729.335	5066
729.449	4438
729.564	4187
729.679	4385
729.794	4413
729.908	4682
730.023	5961
730.138	4060
730.253	4642
730.367	3426
730.482	4104
730.596	4222
730.711	3930
730.826	3737
730.940	3387
731.055	3637
731.169	3905
731.284	3624
731.398	3685
731.513	4533
731.627	3342
731.742	4729
731.856	5403
731.970	3479
732.085	3270
732.199	4085
732.313	3428
732.428	4385
732.542	5215
732.656	3861
732.771	3909
732.885	3613
732.999	3769
733.113	4338
733.227	3775
733.342	3807
733.456	3230
733.570	3751
733.684	3787
733.798	3491
733.912	3259
734.026	2624
734.140	3217
734.254	3974
734.368	7643
734.482	9571
734.596	3838
734.710	2938
734.824	3974
734.938	3697
735.052	3545
735.166	3771
735.280	3817
735.393	3804
735.507	4213
735.621	4859
735.735	9781
735.849	4072
735.962	3735
736.076	3176
736.190	3739
736.303	5277
736.417	8079
736.531	3659
736.644	3777
736.758	2839
736.872	3060
736.985	3224
737.099	3617
737.212	3061
737.326	3666
737.439	2967
737.553	2528
737.666	2675
737.780	2867
737.893	3085
738.007	3087
738.120	3528
738.233	2782
738.347	2859
738.460	2715
738.573	2819
738.687	1796
738.800	2862
738.913	3040
739.026	2922
739.140	3445
739.253	3172
739.366	3802
739.479	2243
739.592	2493
739.705	2879
739.818	3221
739.932	2568
740.045	2538
740.158	2673
740.271	2575
740.384	2631
740.497	2631
740.610	3557
740.723	2198
740.836	2794
740.949	3920
741.062	3503
741.174	3432
741.287	2617
741.400	2000
741.513	2492
741.626	2610
741.739	3046
741.851	2641
741.964	2278
742.077	2514
742.189	2607
742.302	3027
742.415	3125
742.527	2900
742.640	3040
742.753	2690
742.865	2283
742.978	2483
743.090	1820
743.203	2016
743.316	1703
743.428	1960
743.541	2347
743.653	2247
743.766	1443
743.878	2118
743.990	3886
744.103	3566
744.215	3420
744.327	3258
744.440	2848
744.552	4145
744.664	2048
744.777	2630
744.889	1681
745.001	2272
745.113	2483
745.226	1806
745.338	2343
745.450	2134
745.562	1966
745.674	1850
745.786	2656
745.898	2229
746.010	2315
746.122	2739
746.234	2245
746.347	2514
746.459	2721
746.570	2230
746.682	2938
746.794	4977
746.906	3208
747.018	2376
747.130	2314
747.242	1565
747.354	2764
747.466	2505
747.577	1273
747.689	2000
747.801	2537
747.913	1864
748.024	1078
748.136	1770
748.248	2090
748.359	2602
748.471	1689
748.583	2104
748.694	1422
748.806	3398
748.918	3938
749.029	2208
749.141	2882
749.252	2673
749.364	1998
749.475	3831
749.587	3801
749.698	2206
749.809	1546
749.921	2106
750.032	2132
750.144	1419
750.255	2308
750.366	1654
750.478	1712
750.589	1926
750.700	1926
750.811	2005
750.923	2727
751.034	4195
751.145	3898
751.256	1720
751.367	2088
751.479	2937
751.590	1106
751.701	2188
751.812	2280
751.923	3254
752.034	1938
752.145	1619
752.256	2047
752.367	1386
752.478	1744
752.589	1914
752.700	1800
752.811	1443
752.922	1163
753.032	1441
753.143	2332
753.254	1526
753.365	1509
753.476	1410
753.586	2365
753.697	2506
753.808	2107
753.919	1406
754.029	2352
754.140	1997
754.251	1449
754.361	1607
754.472	1600
754.582	2174
754.693	1857
754.804	1977
754.914	1937
755.025	2296
755.135	1954
755.246	2110
755.356	1351
755.466	2368
755.577	1291
755.687	2054
755.798	1870
755.908	1635
756.018	1317
756.129	1914
756.239	3037
756.349	2476
756.460	1596
756.570	2781
756.680	2319
756.790	2182
756.900	2895
757.011	2464
757.121	2240
757.231	2494
757.341	1795
757.451	1820
757.561	2321
757.671	2266
757.781	1453
757.891	2953
758.001	1653
758.111	2978
758.221	2248
758.331	2575
758.441	2879
758.551	2365
758.661	3052
758.771	2990
758.880	2034
758.990	3411
759.100	2193
759.210	2319
759.320	2682
759.429	2948
759.539	2482
759.649	3030
759.758	3025
759.868	2885
759.978	2953
760.087	3920
760.197	2761
760.307	3737
760.416	3019
760.526	2718
760.635	3265
760.745	3311
760.854	3831
760.964	3928
761.073	3567
761.182	3812
761.292	3705
761.401	4782
761.511	3171
761.620	3492
761.729	3949
761.839	3340
761.948	4599
762.057	4629
762.166	4011
762.276	3136
762.385	5433
762.494	5114
762.603	4250
762.712	5763
762.822	5347
762.931	5904
763.040	4088
763.149	5575
763.258	5907
763.367	6602
763.476	6434
763.585	6820
763.694	7371
763.803	7344
763.912	7657
764.021	7792
764.130	7793
764.238	9418
764.347	9895
764.456	10457
764.565	11113
764.674	11962
764.783	13032
764.891	14068
765.000	17080
765.109	19307
765.217	20981
765.326	25075
765.435	30949
765.543	37391
765.652	45107
765.761	58615
765.869	81719
765.978	117268
766.086	179493
766.195	292651
766.303	484273
766.412	589202
766.520	575599
766.629	411228
766.737	234387
766.846	146721
766.954	100269
767.062	73982
767.171	56533
767.279	43528
767.387	33342
767.496	29176
767.604	25179
767.712	21660
767.820	20212
767.928	18661
768.037	16634
768.145	16075
768.253	15920
768.361	14288
768.469	15300
768.577	14929
768.685	16875
768.793	17408
768.901	19588
769.009	22500
769.117	26125
769.225	33639
769.333	49291
769.441	74190
769.549	124968
769.657	234794
769.765	439430
769.873	520746
769.981	382033
770.088	182883
770.196	99914
770.304	64951
770.412	45562
770.519	35888
770.627	27771
770.735	22989
770.842	18521
770.950	16508
771.058	14791
771.165	13779
771.273	11959
771.380	10846
771.488	10387
771.595	9010
771.703	8683
771.810	8608
771.918	6849
772.025	7856
772.133	6654
772.240	6839
772.348	6405
772.455	7634
772.562	4998
772.670	5661
772.777	4783
772.884	5567
772.991	4376
773.099	4812
773.206	4393
773.313	4356
773.420	4210
773.528	3389
773.635	3429
773.742	4548
773.849	3344
773.956	4054
774.063	3355
774.170	3266
774.277	4161
774.384	3768
774.491	3604
774.598	3607
774.705	3313
774.812	3391
774.919	4109
775.026	4057
775.133	3219
775.239	2292
775.346	3107
775.453	2696
775.560	2110
775.667	2963
775.773	2682
775.880	3511
775.987	3637
776.093	2647
776.200	2649
776.307	2364
776.413	3051
776.520	2451
776.627	3235
776.733	2714
776.840	1296
776.946	3979
777.053	3581
777.159	7952
777.266	4596
777.372	7285
777.478	5860
777.585	4372
777.691	2748
777.798	2156
777.904	2364
778.010	3163
778.117	2784
778.223	2440
778.329	2026
778.435	1724
778.542	1906
778.648	2256
778.754	1230
778.860	1987
778.966	2207
779.072	2424
779.178	2329
779.284	1981
779.391	1637
779.497	1247
779.603	4819
779.708	4391
779.815	12246
779.920	42075
780.026	64901
780.132	8763
780.238	2084
780.344	2490
780.450	2290
780.556	1961
780.661	1427
780.767	1321
780.873	1914
780.979	1623
781.085	978
781.190	1642
781.296	375
781.402	1603
781.507	1738
781.613	1995
781.719	1137
781.824	1355
781.930	1882
782.035	1893
782.141	979
782.246	2027
782.352	966
782.457	1190
782.563	1101
782.668	806
782.773	2537
782.879	662
782.984	1771
783.090	2746
783.195	2875
783.300	1761
783.405	1815
783.511	1543
783.616	1902
783.721	694
783.826	1034
783.932	1651
784.037	1818
784.142	1526
784.247	975
784.352	2151
784.457	1268
784.562	2046
784.667	769
784.772	1204
784.877	1536
784.982	1319
785.087	951
785.192	1924
785.297	565
785.402	2142
785.507	1179
785.611	1533
785.716	1717
785.821	1445
785.926	413
786.031	1304
786.135	1003
786.240	1724
786.345	738
786.450	2087
786.554	792
786.659	550
786.763	-40
786.868	2038
786.973	1454
787.077	1449
787.182	324
787.286	1813
787.391	1435
787.495	813
787.600	1084
787.704	-76
787.809	653
787.913	531
788.017	2033
788.122	903
788.226	1164
788.330	146
788.435	156
788.539	322
788.643	660
788.747	671
788.852	788
788.956	331
789.060	997
789.164	713
789.268	706
789.372	890
789.476	816
789.580	-44
789.684	750
789.788	1008
789.892	-27
789.996	1086
790.100	870
790.204	1320
790.308	1181
790.412	1205
790.516	1637
790.620	616
790.724	371
790.828	459
790.931	62
791.035	1966
791.139	578
791.242	290
791.346	970
791.450	790
791.554	705
791.657	638
791.761	1601
791.864	1609
791.968	1064
792.072	1521
792.175	701
792.279	405
792.382	276
792.486	1570
792.589	1829
792.693	866
792.796	75
792.899	1550
793.003	1244
793.106	-1125
793.209	182
793.313	1168
793.416	-1083
793.519	919
793.623	1776
793.726	1335
793.829	657
793.932	615
794.035	5
794.138	2091
794.242	1690
794.345	1173
794.448	3026
794.551	5412
794.654	22525
794.757	34918
794.860	6206
794.963	2163
795.066	253
795.169	1292
795.272	778
795.375	1321
795.477	-48
795.580	1085
795.683	-886
795.786	820
795.889	-524
795.991	1555
796.094	1494
796.197	438
796.300	1200
796.402	515
796.505	-629
796.608	795
796.710	465
796.813	769
796.915	240
797.018	505
797.120	290
797.223	-203
797.326	1161
797.428	-31
797.530	-209
797.633	921
797.735	1332
797.838	1230
797.940	1821
798.042	221
798.145	181
798.247	2020
798.349	-1254
798.452	855
798.554	-959
798.656	-480
798.758	1467
798.860	322
798.962	638
799.065	41
799.167	-403
799.269	1593
799.371	1275
799.473	1202
799.575	134
799.677	1356
799.779	2456
799.881	121
799.983	485
800.085	580
800.187	286
800.289	-922
800.390	211
800.492	662
800.594	2045
800.696	319
800.798	195
800.899	-29
801.001	536
801.103	116
801.205	138
801.306	333
801.408	325
801.509	-256
801.611	736
801.713	38
801.814	-435
801.916	836
802.017	-160
802.119	-1072
802.220	57
802.322	-823
802.423	2569
802.525	-644
802.626	-297
802.727	279
802.829	-83
802.930	-1431
803.031	2101
803.133	-173
803.234	177
803.335	360
803.436	-13
803.538	548
803.639	15
803.740	107
803.841	-1123
803.942	788
804.043	-57
804.144	-533
804.245	92
804.346	-1114
804.447	-115
804.548	132
804.649	863
804.750	134
804.851	60
804.952	-725
805.053	-667
805.154	-607
805.255	460
805.355	-333
805.456	-152
805.557	-202
805.658	-1070
805.758	562
805.859	-1339
805.960	-103
806.061	179
806.161	-1010
806.262	526
806.362	25
806.463	-502
806.564	276
806.664	-250
806.765	679
806.865	263
806.966	404
807.066	-690
807.166	553
807.267	387
807.367	-254
807.468	299
807.568	-595
807.668	41
807.769	773
807.869	-275
807.969	669
808.069	-133
808.170	-398
808.270	-643
808.370	146
808.470	1017
808.570	-777
808.670	-408
808.770	483
808.870	-753
808.970	422
809.070	-1101
809.170	-1191
809.271	375
809.370	643
809.470	-383
809.570	-431
809.670	-468
809.770	347
809.870	89
809.970	169
810.070	-866
810.169	393
810.269	-1746
810.369	598
810.469	-634
810.568	-376
810.668	-651
810.768	-533
810.867	18
810.967	-387
811.066	-546
811.166	-495
811.265	852
811.365	-1621
811.464	-195
811.564	-615
811.663	14
811.763	-1189
811.862	-591
811.962	403
812.061	-664
812.160	-552
812.260	-15
812.359	-303
812.458	-397
812.557	2401
812.657	2139
812.756	993
812.855	-763
812.954	-20
813.053	164
813.153	325
813.252	-939
813.351	230
813.450	-235
813.549	-504
813.648	50
813.747	-848
813.846	75
813.945	-749
814.044	-592
814.143	12
814.242	73
814.341	-410
814.439	136
814.538	456
814.637	-1131
814.736	-591
814.835	214
814.933	-229
815.032	-234
815.131	-108
815.229	-615
815.328	147
815.427	-809
815.525	-141
815.624	-1180
815.722	-870
815.821	244
815.919	-892
816.018	-945
816.116	454
816.215	-898
816.313	610
816.412	-548
816.510	73
816.609	1180
816.707	-364
816.805	-333
816.904	-880
817.002	-742
817.100	949
817.198	611
817.296	-269
817.395	-70
817.493	1090
817.591	-613
817.689	1351
817.787	175
817.885	2686
817.983	4231
818.081	11569
818.179	26947
818.277	73249
818.375	60806
818.473	14216
818.571	4514
818.669	3616
818.767	3200
818.865	3389
818.963	2920
819.061	4767
819.158	9746
819.256	24891
819.354	59437
819.452	137242
819.549	84169
819.647	19366
819.745	6586
819.842	4598
819.940	2445
820.038	1190
820.135	908
820.233	1807
820.330	-233
820.428	191
820.525	489
820.623	712
820.720	-605
820.818	513
820.915	-222
821.012	1316
821.110	-870
821.207	-166
821.304	-507
821.402	646
821.499	1330
821.596	2055
821.693	916
821.791	1012
821.888	422
821.985	978
822.082	-21
822.179	1347
822.276	302
822.373	589
822.470	-159
822.567	-528
822.664	-950
822.761	522
822.858	-1520
822.955	-165
823.052	-314
823.149	-804
823.246	-263
823.343	-425
823.440	-1
823.536	-871
823.633	-122
823.730	701
823.827	-580
823.923	-987
824.020	669
824.117	-411
824.213	-1161
824.310	-138
824.407	-780
824.503	-461
824.600	-588
824.696	-487
824.793	-227
824.889	-952
824.986	-40
825.082	-634
825.179	-94
825.275	-855
825.371	-1424
825.468	-520
825.564	-1457
825.660	-565
825.757	-829
825.853	281
825.949	-1461
826.045	-190
826.142	-1040
826.238	-54
826.334	-26
826.430	-996
826.526	-1165
826.622	-15
826.718	-26
826.814	-1556
826.910	388
827.006	-741
827.102	-637
827.198	-28
827.294	-370
827.390	-178
827.486	642
827.582	-1595
827.678	-1088
827.774	-706
827.869	-1407
827.965	383
828.061	-1212
828.157	-300
828.252	-771
828.348	-1542
828.444	186
828.539	-1189
828.635	-1017
828.731	214
828.826	-1050
828.922	-152
829.017	-1015
829.113	-812
829.208	-1261
829.304	-1885
829.399	-851
829.495	-1170
829.590	730
829.685	-1404
829.781	-40
829.876	-243
829.971	-920
830.066	-630
830.162	-638
830.257	-828
830.352	-970
830.447	513
830.543	216
830.638	-1353
830.733	295
830.828	-927
830.923	483
831.018	-404
831.113	-1297
831.208	-1539
831.303	-369
831.398	-751
831.493	-645
831.588	-46
831.683	-571
831.778	50
831.873	-242
831.967	-440
832.062	-518
832.157	-1155
832.252	343
832.346	-367
832.441	-626
832.536	-52
832.631	950
832.725	98
832.820	-1054
832.914	-634
833.009	-626
833.104	-1052
833.198	-230
833.293	-595
833.387	-1021
833.482	-553
833.576	-988
833.670	-68
833.765	-1696
833.859	-1096
833.954	-970
834.048	-1204
834.142	-730
834.237	-358
834.331	-647
834.425	-354
834.519	-1135
834.613	-78
834.708	-703
834.802	-177
834.896	-1100
834.990	-1251
835.084	308
835.178	-1003
835.272	-182
835.366	-882
835.460	219
835.554	130
835.648	-849
835.742	-612
835.836	-67
835.930	-1849
836.024	-710
836.117	551
836.211	-512
836.305	389
836.399	865
836.493	-1125
836.586	-105
836.680	-1308
836.774	-1079
836.867	817
836.961	-1428
837.055	-759
837.148	-447
837.242	-460
837.335	-607
837.429	-93
837.522	-104
837.616	203
837.709	1655
837.803	750
837.896	1
837.989	-247
838.083	850
838.176	1983
838.269	1101
838.363	468
838.456	-942
838.549	238
838.642	-222
838.735	812
838.829	82
838.922	-813
839.015	-470
839.108	-1279
839.201	-300
839.294	-723
839.387	-898
839.480	-979
839.573	-278
839.666	423
839.759	-1100
839.852	-967
839.945	-1468
840.038	-935
840.131	-920
840.223	-787
840.316	-424
840.409	-461
840.502	-1831
840.594	850
840.687	-1906
840.780	149
840.873	-446
840.965	-362
841.058	-318
841.150	1232
841.243	371
841.336	82
841.428	-383
841.521	-842
841.613	-1523
841.706	320
841.798	-1059
841.890	-338
841.983	-1443
842.075	-78
842.167	-425
842.260	-902
842.352	369
842.444	1354
842.537	1332
842.629	4153
842.721	303
842.813	265
842.905	-1540
842.997	293
843.090	-889
843.182	1213
843.274	1303
843.366	6583
843.458	12551
843.550	8176
843.642	-575
843.734	-204
843.826	329
843.918	228
844.009	-465
844.101	-984
844.193	-749
844.285	-464
844.377	-853
844.469	316
844.560	1144
844.652	1109
844.744	-299
844.835	-402
844.927	-287
845.019	291
845.110	-216
845.202	-1128
845.293	-630
845.385	-77
845.476	-216
845.568	-510
845.659	-920
845.751	566
845.842	-643
845.934	-784
846.025	-691
846.116	-70
846.208	-877
846.299	-438
846.390	1
846.482	-350
846.573	-430
846.664	279
846.755	-459
846.846	1047
846.937	-1478
847.029	-551
847.120	-1204
847.211	-664
847.302	-325
847.393	-1322
847.484	-648
847.575	-863
847.666	-1193
847.757	-555
847.847	-59
847.938	-631
848.029	-821
848.120	-418
848.211	-939
848.302	-604
848.392	-1649
848.483	-762
848.574	-1158
848.664	-985
848.755	-1351
848.846	-562
848.936	-915
849.027	-1025
849.118	-721
849.208	-1381
849.299	92
849.389	331
849.480	-202
849.570	-603
849.661	-673
849.751	-514
849.841	-536
849.932	-1095
850.022	-1890
850.112	-354
850.203	-286
850.293	-380
850.383	-913
850.474	-1802
850.564	-1574
850.654	-709
850.744	-651
850.834	-625
850.924	-572
851.014	-799
851.104	-711
851.194	-1135
851.284	-575
851.374	-905
851.464	-941
851.554	-340
851.644	-152
851.734	445
851.824	-151
851.914	-147
852.004	790
852.094	387
852.183	-557
852.273	-373
852.363	-357
852.452	-1257
852.542	-548
852.632	-1009
852.721	-703
852.811	-744
852.901	-867
852.990	-1129
853.080	-1242
853.169	-218
853.259	-1332
853.348	-1151
853.438	-282
853.527	-202
853.617	-1433
853.706	187
853.795	-615
853.885	558
853.974	273
854.063	2489
854.152	3208
854.242	824
854.331	-284
854.420	-1231
854.509	-53
854.598	-929
854.687	-812
854.777	79
854.866	-832
854.955	-303
855.044	-1044
855.133	-844
855.222	-1177
855.311	-998
855.400	-1062
855.488	-91
855.577	-1290
855.666	-66
855.755	79
855.844	-258
855.933	-864
856.021	-679
856.110	-424
856.199	-1190
856.288	-1097
856.376	-664
856.465	-1035
856.554	-152
856.642	-1887
856.731	-619
856.819	-1073
856.908	-1442
856.996	-1339
857.085	-875
857.173	-854
857.262	-541
857.350	-812
857.438	-507
857.527	-886
857.615	-375
857.703	-818
857.792	-863
857.880	-1112
857.968	-623
858.056	-1234
858.145	-187
858.233	-1206
858.321	-841
858.409	-769
858.497	-1248
858.585	-1669
858.673	-1049
858.761	-1431
858.849	-544
858.937	-992
859.025	-1141
859.113	-1424
859.201	-1933
859.289	-829
859.377	-818
859.465	-359
859.552	-662
859.640	-983
859.728	-750
859.816	-921
859.903	-730
859.991	-929
860.079	-578
860.166	-1019
860.254	-1102
860.342	-1240
860.429	-1129
860.517	-1700
860.604	-457
860.692	-1319
860.779	-1174
860.867	-1815
860.954	-431
861.042	-932
861.129	-676
861.216	-1534
861.304	-757
861.391	-1210
861.478	-378
861.565	-891
861.653	-90
861.740	-1397
861.827	-1416
861.914	-691
862.001	-1380
862.089	-1171
862.176	-680
862.263	-696
862.350	-1559
862.437	-1464
862.524	-1378
862.611	-724
862.698	-523
862.785	-232
862.871	-31
862.958	-1384
863.045	-1062
863.132	-1217
863.219	-1078
863.306	-1912
863.392	-807
863.479	-910
863.566	-955
863.652	-257
863.739	-580
863.826	-351
863.912	-844
863.999	-861
864.086	-1362
864.172	-730
864.259	-761
864.345	-882
864.432	-311
864.518	-1345
864.604	-984
864.691	-1190
864.777	-742
864.863	-1133
864.950	-135
865.036	-1706
865.122	-1003
865.209	-864
865.295	-437
865.381	-538
865.467	-1150
865.553	-536
865.639	-1265
865.726	-994
865.812	-672
865.898	97
865.984	-318
866.070	1200
866.156	1855
866.242	-874
866.328	-1150
866.414	-1500
866.499	-1009
866.585	-1149
866.671	-586
866.757	-521
866.843	-974
866.928	-888
867.014	-1277
867.100	55
867.186	-238
867.271	-593
867.357	-519
867.442	177
867.528	-564
867.614	-1312
867.699	-657
867.785	-460
867.870	189
867.956	246
868.041	349
868.127	110
868.212	-19
868.297	615
868.383	-42
868.468	-239
868.553	95
868.639	204
868.724	808
868.809	488
868.894	-889
868.979	-1379
869.065	-289
869.150	-1372
869.235	-685
869.320	-1455
869.405	-1338
869.490	-1087
869.575	-815
869.660	-1018
869.745	-924
869.830	-945
869.915	-894
870.000	-423
870.085	-1138
870.169	-1096
870.254	-635
870.339	-1714
870.424	-359
870.509	-706
870.593	-180
870.678	-623
870.763	-1212
870.847	-865
870.932	-916
871.016	-919
871.101	-1147
871.186	-1404
871.270	-731
871.355	-1040
871.439	-519
871.523	-1040
871.608	-708
871.692	-1052
871.777	-55
871.861	-905
871.945	-1196
872.030	-1032
872.114	-821
872.198	-1726
872.282	-874
872.367	-1581
872.451	-985
872.535	-1922
872.619	-1309
872.703	-1165
872.787	-852
872.871	-1373
872.955	-625
873.039	-894
873.123	-1445
873.207	-761
873.291	-678
873.375	-725
873.459	-979
873.543	-1755
873.627	-668
873.711	-1617
873.794	-673
873.878	-1127
873.962	-1783
874.045	-1870
874.129	-1287
874.137	-1273
874.213	-1129
874.245	-784
874.296	-230
874.352	-827
874.380	-1119
874.460	-1494
874.464	-1509
874.547	-1207
874.568	-1162
874.631	-1048
874.676	-1117
874.714	-1181
874.784	-799
874.798	-720
874.881	921
874.892	651
874.965	-1196
874.999	-955
875.048	-677
875.107	-1005
875.131	-1120
875.215	-1140
875.215	-1139
875.298	-848
875.323	-1122
875.381	-1747
875.430	-1579
875.465	-1469
875.538	-822
875.548	-739
875.631	-1489
875.646	-1443
875.714	-1174
875.753	-1084
875.798	-962
875.861	-1136
875.881	-1206
875.964	-1087
875.968	-1085
876.047	-994
876.076	-661
876.130	-124
876.183	-284
876.213	-365
876.291	-416
876.296	-410
876.379	-1204
876.398	-1126
876.462	-1032
876.506	-951
876.545	-785
876.613	-221
876.628	-119
876.711	-1043
876.721	-965
876.794	-436
876.828	-564
876.877	-648
876.935	-337
876.960	-228
877.043	-451
877.043	-451
877.125	-259
877.150	-206
877.208	-158
877.258	27
877.291	246
877.365	-598
877.374	-714
877.456	-455
877.472	-426
877.539	-300
877.579	-269
877.622	-216
877.687	-470
877.704	-545
877.787	-152
877.794	-222
877.869	-1031
877.901	-737
877.952	-181
878.008	-634
878.034	-889
878.115	-803
878.117	-795
878.199	-666
878.222	-611
878.282	-670
878.329	-627
878.364	-491
878.437	-451
878.447	-457
878.529	-465
878.544	-397
878.611	-45
878.651	-165
878.694	-354
878.758	-170
878.776	-88
878.858	-615
878.865	-572
878.941	-236
878.972	-512
879.023	-834
879.078	-739
879.105	-681
879.185	-541
879.187	-538
879.269	-667
879.292	-739
879.351	-864
879.399	-638
879.433	-389
879.506	20
879.516	48
879.598	-401
879.613	-359
879.680	-297
879.720	-279
879.762	-35
879.827	36
879.844	-53
879.926	-234
879.933	-280
880.007	-280
880.040	-341
880.089	-550
880.147	-400
880.171	-342
880.253	41
880.254	35
880.335	-474
880.360	-241
880.417	444
880.467	1057
880.499	1527
880.574	2127
880.580	2099
880.662	312
880.680	140
880.744	123
880.787	-112
880.825	-582
880.893	-617
880.907	-485
880.989	-159
881.000	-119
881.070	-399
881.106	-500
881.152	-238
881.213	-38
881.233	-162
881.315	-615
881.319	-624
881.396	-134
881.426	-96
881.478	-354
881.532	-487
881.559	-462
881.639	-718
881.641	-725
881.722	-211
881.745	-419
881.803	-212
881.852	271
881.885	101
881.958	-159
881.966	-127
882.047	48
882.064	-7
882.129	-200
882.171	313
882.210	947
882.277	862
882.291	722
882.372	359
882.383	278
882.454	-222
882.489	-289
882.535	35
882.596	365
882.616	326
882.697	-221
882.702	-233
882.778	-45
882.808	-43
882.859	-26
882.914	268
882.940	365
883.020	214
883.021	219
883.102	585
883.127	534
883.183	200
883.233	96
883.264	98
883.339	13
883.345	10
883.426	286
883.445	266
883.507	265
883.551	126
883.587	-81
883.657	-150
883.668	-15
883.749	936
883.763	1057
883.830	855
883.869	873
883.910	750
883.975	84
883.991	24
884.072	462
884.081	435
884.152	52
884.187	-93
884.233	-21
884.292	285
884.314	261
884.394	-93
884.398	-113
884.475	149
884.504	356
884.555	766
884.610	916
884.636	765
884.716	373
884.716	380
884.797	491
884.821	591
884.877	650
884.927	299
884.958	152
885.033	397
885.038	436
885.118	696
885.139	721
885.199	175
885.244	18
885.279	242
885.350	236
885.359	232
885.439	652
885.456	601
885.520	455
885.561	614
885.600	741
885.667	772
885.680	691
885.760	219
885.773	107
885.840	134
885.878	340
885.920	620
885.984	799
886.000	731
886.080	392
886.089	347
886.160	243
886.195	249
886.240	371
886.300	382
886.320	483
886.400	989
886.406	1018
886.480	795
886.511	706
886.560	1096
886.616	1330
886.640	1151
886.720	714
886.722	695
886.800	966
886.827	1119
886.879	667
886.932	72
886.959	427
887.038	1574
887.039	1571
887.119	518
887.143	199
887.198	602
887.248	964
887.278	998
887.354	1078
887.358	1092
887.437	1137
887.459	1169
887.517	1064
887.564	884
887.596	691
887.669	385
887.676	445
887.755	1056
887.774	1183
887.835	1130
887.880	1126
887.914	930
887.985	381
887.994	439
888.073	965
888.090	1082
888.153	1032
888.195	966
888.232	1022
888.300	1133
888.311	1199
888.391	1597
888.405	1664
888.470	1132
888.510	731
888.549	664
888.615	701
888.628	766
888.708	974
888.720	1014
888.787	1111
888.825	1094
888.866	996
888.930	962
888.945	996
889.024	1101
889.035	1108
889.103	1375
889.140	1485
889.182	1198
889.245	810
889.261	939
889.340	1492
889.349	1553
889.419	1503
889.454	1450
889.498	1461
889.559	1464
889.577	1411
889.656	1163
889.664	1134
889.735	1242
889.768	1288
889.814	1534
889.873	1848
889.978	1624
890.083	1044
890.187	1173
890.292	1565
890.397	858
890.501	1892
890.606	1136
890.710	2209
890.815	1597
890.919	865
891.024	851
891.128	1648
891.233	822
891.337	677
891.442	1657
891.546	1607
891.650	1125
891.755	917
891.859	1660
891.963	1396
892.068	833
892.172	863
892.276	356
892.380	1485
892.484	1752
892.589	1262
892.693	1535
892.797	1342
892.901	1228
893.005	1382
893.109	812
893.213	888
893.317	1075
893.421	1496
893.525	1308
893.629	653
893.733	818
893.837	880
893.941	1355
894.045	1873
894.148	1986
894.252	3952
894.356	2433
894.460	2048
894.564	709
894.667	247
894.771	1092
894.875	2127
894.978	907
895.082	1221
895.186	893
895.289	1480
895.393	491
895.496	1455
895.600	188
895.703	653
895.807	779
895.910	441
896.014	1331
896.117	1753
896.221	1497
896.324	688
896.427	667
896.531	296
896.634	139
896.737	977
896.840	370
896.944	819
897.047	553
897.150	1379
897.253	887
897.356	1672
897.460	483
897.563	892
897.666	1007
897.769	1021
897.872	989
897.975	707
898.078	659
898.181	802
898.284	47
898.387	605
898.490	879
898.593	712
898.695	1041
898.798	908
898.901	542
899.004	799
899.107	741
899.209	743
899.312	307
899.415	536
899.518	943
899.620	704
899.723	705
899.826	512
899.928	1380
900.031	233
900.133	568
900.236	1057
900.338	815
900.441	1106
900.543	879
900.646	563
900.748	676
900.851	1172
900.953	761
901.055	254
901.158	1031
901.260	149
901.362	1038
901.465	96
901.567	479
901.669	1236
901.771	683
901.873	422
901.976	132
902.078	1314
902.180	575
902.282	173
902.384	573
902.486	670
902.588	1501
902.690	1249
902.792	637
902.894	1053
902.996	207
903.098	474
903.200	781
903.302	1053
903.404	894
903.505	575
903.607	421
903.709	922
903.811	663
903.913	341
904.014	-72
904.116	-270
904.218	517
904.319	740
904.421	984
904.523	1220
904.624	146
904.726	558
904.827	97
904.929	1053
905.030	-316
905.132	465
905.233	1053
905.335	904
905.436	477
905.537	565
905.639	997
905.740	745
905.841	957
905.943	577
906.044	1225
906.145	787
906.247	439
906.348	962
906.449	677
906.550	803
906.651	999
906.752	1488
906.854	345
906.955	203
907.056	1274
907.157	854
907.258	57
907.359	467
907.460	587
907.561	953
907.662	1005
907.762	201
907.863	-332
907.964	331
908.065	681
908.166	743
908.267	501
908.367	-21
908.468	-61
908.569	-48
908.670	685
908.770	1375
908.871	1472
908.971	1282
909.072	693
909.173	261
909.273	-303
909.374	694
909.474	147
909.575	314
909.675	470
909.776	685
909.876	811
909.977	565
910.077	1110
910.177	1373
910.278	865
910.378	1040
910.478	241
910.579	493
910.679	-171
910.779	614
910.879	497
910.980	367
911.080	37
911.180	318
911.280	1809
911.380	816
911.480	290
911.580	892
911.680	591
911.780	1164
911.880	725
911.980	603
912.080	274
912.180	882
912.280	340
912.380	733
912.480	905
912.580	1173
912.679	105
912.779	553
912.879	352
912.979	586
913.078	317
913.178	527
913.278	716
913.377	578
913.477	-39
913.577	504
913.676	623
913.776	-108
913.875	760
913.975	1329
914.074	-618
914.174	-109
914.273	-3
914.373	522
914.472	-360
914.572	338
914.671	916
914.770	682
914.870	515
914.969	749
915.068	376
915.167	862
915.267	367
915.366	312
915.465	607
915.564	964
915.663	-405
915.763	459
915.862	964
915.961	264
916.060	851
916.159	741
916.258	-359
916.357	478
916.456	489
916.555	-585
916.654	394
916.752	414
916.851	783
916.950	681
917.049	-100
917.148	62
917.247	441
917.345	472
917.444	357
917.543	761
917.642	472
917.740	1376
917.839	960
917.937	429
918.036	-151
918.135	726
918.233	109
918.332	870
918.430	570
918.529	214
918.627	887
918.726	367
918.824	445
918.923	-28
919.021	183
919.119	-12
919.218	63
919.316	418
919.414	591
919.512	797
919.611	106
919.709	1025
919.807	751
919.905	722
920.003	316
920.102	-588
920.200	316
920.298	949
920.396	137
920.494	1170
920.592	841
920.690	366
920.788	234
920.886	380
920.984	880
921.082	226
921.180	89
921.277	630
921.375	414
921.473	344
921.571	666
921.669	7
921.766	5
921.864	781
921.962	497
922.060	1093
922.157	266
922.255	180
922.352	-165
922.450	1702
922.548	498
922.645	205
922.743	565
922.840	-524
922.938	731
923.035	456
923.133	595
923.230	-377
923.327	1170
923.425	863
923.522	147
923.619	-22
923.717	681
923.814	544
923.911	1222
924.008	1456
924.106	695
924.203	1039
924.300	-380
924.397	-192
924.494	613
924.591	71
924.688	815
924.786	-429
924.883	906
924.979	707
925.077	35
925.173	560
925.270	780
925.367	391
925.464	1001
925.561	369
925.658	885
925.755	281
925.852	673
925.948	1172
926.045	381
926.142	544
926.239	1140
926.335	-18
926.432	1539
926.529	956
926.625	1175
926.722	756
926.818	1110
926.915	955
927.011	948
927.108	475
927.204	1043
927.301	725
927.397	390
927.494	-159
927.590	202
927.687	12
927.783	665
927.879	509
927.976	415
928.072	1150
928.168	553
928.264	1144
928.361	607
928.457	538
928.553	1000
928.649	433
928.745	470
928.841	554
928.937	669
929.033	-69
929.129	865
929.225	572
929.321	737
929.417	-14
929.513	54
929.609	1063
929.705	804
929.801	973
929.897	125
929.993	-518
930.089	204
930.184	286
930.280	839
930.376	1204
930.471	432
930.567	338
930.663	765
930.758	-343
930.854	-349
930.950	1361
931.045	719
931.141	724
931.236	1372
931.332	676
931.427	61
931.523	258
931.618	571
931.714	961
931.809	913
931.905	622
932.000	287
932.095	-607
932.191	1056
932.286	470
932.381	24
932.476	-167
932.572	407
932.667	376
932.762	-454
932.857	236
932.952	1394
933.047	745
933.142	917
933.237	980
933.332	396
933.427	414
933.522	-44
933.617	-77
933.712	1212
933.807	579
933.902	162
933.997	166
934.092	783
934.187	495
934.282	-5
934.376	200
934.471	310
934.566	536
934.661	632
934.755	551
934.850	354
934.945	918
935.039	811
935.134	236
935.228	510
935.323	-9
935.417	320
935.512	414
935.606	-117
935.701	642
935.795	755
935.890	470
935.984	-32
936.079	599
936.173	155
936.267	876
936.362	504
936.456	-212
936.550	84
936.644	1040
936.738	121
936.833	730
936.927	253
937.021	49
937.115	283
937.209	-11
937.303	593
937.397	693
937.491	767
937.585	735
937.679	807
937.773	213
937.867	-144
937.961	812
938.055	-201
938.149	837
938.243	448
938.337	-117
938.430	138
938.524	338
938.618	995
938.712	1467
938.805	706
938.899	111
938.993	-20
939.086	1091
939.180	114
939.274	503
939.367	629
939.461	677
939.554	111
939.648	167
939.741	-165
939.835	505
939.928	-238
940.022	342
940.115	-47
940.208	188
940.302	41
940.395	91
940.488	130
940.582	899
940.675	-1275
940.768	688
940.861	647
940.954	-29
941.048	-204
941.141	1062
941.234	550
941.327	-362
941.420	1711
941.513	646
941.606	-359
941.699	833
941.792	-55
941.885	-297
941.978	40
942.071	78
942.164	-23
942.257	-33
942.349	-22
942.442	629
942.535	287
942.628	499
942.721	513
942.813	-619
942.906	519
942.999	319
943.091	-909
943.184	-200
943.277	-438
943.369	191
943.462	-98
943.554	943
943.647	-162
943.739	231
943.832	-500
943.924	-201
944.017	430
944.109	-200
944.201	311
944.294	208
944.386	-143
944.478	-477
944.571	329
944.663	376
944.755	511
944.847	105
944.940	181
945.032	73
945.124	-497
945.216	524
945.308	648
945.400	685
945.492	-79
945.584	676
945.676	390
945.768	20
945.860	218
945.952	156
946.044	300
946.136	-95
946.228	233
946.320	-17
946.412	132
946.503	255
946.595	1024
946.687	448
946.779	-209
946.870	-635
946.962	-214
947.054	795
947.145	-189
947.237	-374
947.329	976
947.420	-61
947.512	-456
947.603	351
947.695	236
947.786	390
947.878	-179
947.969	881
948.061	-227
948.152	604
948.243	472
948.335	680
948.426	-188
948.517	-155
948.609	322
948.700	-363
948.791	-593
948.882	-216
948.973	-361
949.065	-167
949.156	-499
949.247	269
949.338	-418
949.429	-219
949.520	-103
949.611	-420
949.702	-62
949.793	655
949.884	255
949.975	-298
950.066	-258
950.157	-274
950.247	-430
950.338	166
950.429	-207
950.520	-532
950.611	-479
950.701	-70
950.792	-285
950.883	-127
950.973	-893
951.064	-245
951.155	-546
951.245	229
951.336	-816
951.427	-769
951.517	737
951.608	923
951.698	-154
951.788	17
951.879	-370
951.969	-165
952.060	-192
952.150	134
952.240	473
952.331	-1439
952.421	472
952.511	-643
952.602	154
952.692	-594
952.782	-738
952.872	-63
952.962	-130
953.052	-135
953.143	176
953.233	413
953.323	374
953.413	-6
953.503	931
953.593	424
953.683	506
953.773	-901
953.863	-224
953.953	-402
954.042	386
954.132	-533
954.222	413
954.312	244
954.402	595
954.492	23
954.581	1338
954.671	485
954.761	-902
954.850	-86
954.940	-279
955.030	-374
955.119	-596
955.209	218
955.298	-266
955.388	161
955.477	-353
955.567	-437
955.656	-267
955.746	691
955.835	-35
955.925	-589
956.014	292
956.103	-458
956.193	490
956.282	213
956.371	81
956.461	-41
956.550	-1011
956.639	173
956.728	-420
956.817	235
956.906	7
956.995	227
957.085	-521
957.174	-578
957.263	-3
957.352	-364
957.441	-1192
957.530	-118
957.619	123
957.708	-365
957.796	209
957.885	343
957.974	-182
958.063	-634
958.152	-144
958.241	928
958.329	500
958.418	126
958.507	-95
958.596	899
958.684	-236
958.773	1035
958.861	435
958.950	1110
959.039	837
959.127	1630
959.216	633
959.304	508
959.393	451
959.481	1420
959.570	936
959.658	632
959.746	1622
959.835	571
959.923	1828
960.011	822
960.100	760
960.188	571
960.276	521
960.365	7
960.453	466
960.541	62
960.629	183
960.717	-3
960.805	-693
960.893	-487
960.981	-1103
961.069	808
961.158	-664
961.245	198
961.333	-102
961.421	-576
961.509	97
961.597	-18
961.685	373
961.773	-48
961.861	-431
961.949	285
962.036	-1462
962.124	210
962.212	-596
962.299	360
962.387	-410
962.475	-304
962.562	-91
962.650	90
962.738	-786
962.825	-225
962.913	237
963.000	-184
963.088	-468
963.175	178
963.263	-389
963.350	-637
963.438	-226
963.525	669
963.612	1472
963.700	2054
963.787	6650
963.874	2347
963.962	699
964.049	-358
964.136	-642
964.223	595
964.310	-71
964.398	183
964.485	-564
964.572	229
964.659	1035
964.746	547
964.833	-66
964.920	-391
965.007	-498
965.094	198
965.181	-908
965.268	-16
965.355	241
965.441	-35
965.528	-1100
965.615	339
965.702	-256
965.789	-654
965.875	-338
965.962	-525
966.049	-80
966.136	-503
966.222	-1058
966.309	12
966.395	-1130
966.482	-487
966.569	-895
966.655	48
966.742	-762
966.828	91
966.915	-1256
967.001	-267
967.087	-190
967.174	-783
967.260	150
967.347	210
967.433	855
967.519	3505
967.605	516
967.692	-789
967.778	-410
967.864	-400
967.950	-541
968.036	-610
968.123	48
968.209	-541
968.295	-848
968.381	654
968.467	88
968.553	-913
968.639	462
968.725	-1159
968.811	131
968.897	152
968.983	-1038
969.069	-808
969.154	762
969.240	-145
969.326	-779
969.412	-614
969.497	31
969.583	-901
969.669	720
969.755	-517
969.840	-481
969.926	-699
970.012	-1479
970.097	-95
970.183	-631
970.268	-699
970.354	-4
970.439	694
970.525	2913
970.610	180
970.696	-11
970.781	-395
970.866	-918
970.952	318
971.037	-553
971.122	-156
971.208	-856
971.293	-763
971.378	-1235
971.463	-133
971.549	-709
971.634	-709
971.719	-597
971.804	-388
971.889	95
971.974	-655
972.059	-325
972.144	-411
972.229	-904
972.314	-876
972.399	-889
972.484	-857
972.569	476
972.654	-949
972.739	791
972.824	792
972.908	-61
972.993	221
973.078	-429
973.163	-731
973.247	-538
973.332	-1826
973.417	-205
973.501	-1681
973.586	-1303
973.671	-910
973.755	-687
973.840	-779
973.924	-504
974.009	173
974.093	-1268
974.178	702
974.262	559
974.346	-106
974.431	-749
974.515	-793
974.600	-755
974.684	-315
974.768	-217
974.852	-185
974.937	-990
975.021	-511
975.105	-652
975.189	-336
975.273	-373
975.358	-698
975.442	-998
975.526	-222
975.610	-961
975.694	-1587
975.778	-603
975.862	-129
975.946	-1730
976.030	53
976.114	-845
976.198	-811
976.281	-1164
976.365	-273
976.449	-1146
976.533	-883
976.617	-617
976.700	-323
976.784	-334
976.868	-339
976.951	-278
977.035	-663
977.119	-921
977.202	-1131
977.286	-1331
977.369	-792
977.453	-856
977.536	-616
977.620	-1338
977.703	-93
977.787	-782
977.870	-27
977.953	269
978.037	-1022
978.120	672
978.203	-499
978.287	158
978.370	-192
978.453	-241
978.536	-592
978.620	-432
978.703	-595
978.786	-350
978.869	-1374
978.952	-2105
979.035	72
979.118	-1187
979.201	-1132
979.284	-522
979.367	-1526
979.450	-1013
979.533	-1804
979.616	-941
979.699	-528
979.782	-1247
979.865	-391
979.948	-1198
980.030	-1661
980.113	-725
980.196	-1099
980.279	-627
980.361	-1203
980.444	-807
980.526	-949
980.609	-1347
980.692	-1689
980.774	-847
980.857	-1683
980.939	-420
981.022	-1052
981.104	-1425
981.187	-818
981.269	-472
981.352	-687
981.434	-2226
981.516	-828
981.599	468
981.681	-597
981.763	-1401
981.846	-571
981.928	-769
982.010	-504
982.092	-1627
982.174	-219
982.256	-1131
982.339	-951
982.421	-1277
982.503	-873
982.585	-1113
982.667	-863
982.749	-620
982.831	-1348
982.913	-2849
982.995	149
983.077	-1197
983.158	-7
983.240	-1305
983.322	-1257
983.404	-986
983.486	-2256
983.568	-726
983.649	-1578
983.731	-1481
983.813	-1046
983.894	-441
983.976	-1459
984.058	-1270
984.139	-713
984.221	-1865
984.302	-1111
984.384	-1001
984.465	-1869
984.547	-428
984.628	-1866
984.710	-1417
984.791	-1822
984.872	-1798
984.954	-1157
985.035	-1195
985.116	-1595
985.198	-1560
985.279	-226
985.360	-1298
985.441	-903
985.522	-932
985.604	-1439
985.685	-2838
985.766	285
985.847	-597
985.928	-1247
986.009	-1247
986.090	-1490
986.171	-579
986.252	-1321
986.333	-1052
986.414	-1600
986.495	-677
986.576	-1335
986.656	-1249
986.737	-971
986.818	-1116
986.899	-1484
986.980	-1564
987.060	-420
987.141	-1676
987.222	-340
987.302	-751
987.383	-942
987.464	-1566
987.544	-738
987.625	-2057
987.705	-1096
987.786	-1173
987.866	-1176
987.947	-1167
988.027	-1229
988.108	-2293
988.188	-1140
988.268	-843
988.349	-1288
988.429	-584
988.509	-719
988.589	-2556
988.670	-2164
988.750	-88
988.830	-1235
988.910	-983
988.990	-949
989.070	-712
989.151	-1021
989.231	-1369
989.311	-1530
989.391	-698
989.471	-1439
989.551	-1098
989.631	-1570
989.711	-934
989.791	-2291
989.870	-1092
989.950	688
990.030	-1419
990.110	-950
990.190	-2227
990.269	-1259
990.349	-1713
990.429	-363
990.509	-1078
990.588	-2094
990.668	-1492
990.747	-1216
990.827	-1820
990.907	-1157
990.986	-1421
991.066	-579
991.145	-520
991.225	-705
991.304	-1719
991.383	-1427
991.463	-1220
991.542	-1330
991.622	-1749
991.701	-1083
991.780	-1743
991.859	-1587
991.939	-1482
992.018	-703
992.097	-1140
992.176	-1685
992.256	-1548
992.335	-1278
992.414	-718
992.493	-1267
992.572	-2161
992.651	-58
992.730	-1974
992.809	-1152
992.888	-1436
992.967	-1577
993.046	-281
993.125	-1670
993.203	-1250
993.282	-1382
993.361	-437
993.440	-712
993.519	-1884
993.597	-189
993.676	-1064
993.755	-1027
993.834	-704
993.912	-1456
993.991	-840
994.069	-1279
994.148	-1456
994.226	-472
994.305	-1084
994.384	-1235
994.462	-326
994.540	-2378
994.619	-865
994.697	-958
994.776	-1004
994.854	-649
994.932	-1206
995.011	-1424
995.089	-1654
995.167	-1343
995.245	-631
995.324	-1327
995.402	-1433
995.480	-1292
995.558	-492
995.636	-1785
995.714	-1668
995.792	-274
995.870	-1499
995.948	-511
996.026	-486
996.104	-3018
996.182	-659
996.260	-1439
996.338	-1341
996.416	-1807
996.494	-1753
996.572	-55
996.649	-1035
996.727	-1947
996.805	-924
996.883	-1206
996.960	-1094
997.038	-690
997.116	-897
997.193	-1756
997.271	-460
997.348	-1265
997.426	-987
997.504	-1497
997.581	-829
997.658	-1076
997.736	-2587
997.813	-1430
997.891	-305
997.968	-1578
998.046	-762
998.123	-1609
998.200	-811
998.277	-1447
998.355	-899
998.432	-1861
998.509	-972
998.586	-138
998.663	-128
998.741	-545
998.818	-1474
998.895	-2093
998.972	-1251
999.049	-1501
999.126	-1486
999.203	-1198
999.280	-1217
999.357	-1906
999.434	-1551
999.511	-1194
999.587	-1254
999.664	-1594
999.741	-1253
999.818	-617
999.895	-1412
999.971	-2348
1000.048	-1091
1000.125	-493
1000.202	-2122
1000.278	-600
1000.355	-1352
1000.431	-1108
1000.508	-1407
1000.584	-1156
1000.661	-577
1000.738	-1560
1000.814	-988
1000.890	-232
1000.967	-1707
1001.043	-1449
1001.120	-1950
1001.196	-1724
1001.272	-1537
1001.349	-784
1001.425	-956
1001.501	-1522
1001.577	-1927
1001.654	-1020
1001.730	-561
1001.806	-1258
1001.882	-1829
1001.958	-700
1002.034	-1096
1002.110	-919
1002.186	-1634
1002.262	-1887
1002.338	-2618
1002.414	-380
1002.490	-749
1002.566	-1280
1002.642	-1980
1002.718	-834
1002.794	-1089
1002.870	-1102
1002.945	-1429
1003.021	-1113
1003.097	-1557
1003.173	-872
1003.248	-912
1003.324	-2271
1003.400	-1940
1003.475	-2120
1003.551	-1452
1003.626	-1612
1003.702	-2025
1003.777	-837
1003.853	-1395
1003.928	-1842
1004.004	-1330
1004.079	-1059
1004.155	-1527
1004.230	-1239
1004.305	53
1004.381	-1996
1004.456	-1440
1004.531	-1395
1004.607	-862
1004.682	-2195
1004.757	-990
1004.832	-1952
1004.907	-1116
1004.982	-859
1005.057	-1089
1005.133	-1093
1005.208	-1688
1005.283	-1595
1005.358	-1018
1005.433	-1548
1005.508	-1604
1005.583	-1954
1005.657	-2282
1005.732	-1243
1005.807	-1316
1005.882	-620
1005.957	-961
1006.032	-648
1006.106	-1278
1006.181	-1239
1006.256	-1207
1006.331	-1694
1006.405	-2010
1006.480	-1281
1006.554	-1676
1006.629	-1594
1006.704	-1434
1006.778	-1308
1006.853	-1140
1006.927	-1769
1007.002	-1530
1007.076	-927
1007.150	-1784
1007.225	-1887
1007.299	-1089
1007.373	-1852
1007.448	-1437
1007.522	-531
1007.596	-2253
1007.671	-1601
1007.745	-917
1007.819	-1541
1007.893	-1594
1007.967	-1251
1008.041	-2250
1008.115	-1199
1008.190	-1983
1008.264	-1057
1008.338	-2984
1008.412	-2117
1008.486	-1481
1008.560	-864
1008.633	-1427
1008.707	-2032
1008.781	-2044
1008.855	-1582
1008.929	-1817
1009.003	-2277
1009.076	-1959
1009.150	-1679
1009.224	-1628
1009.298	-1255
1009.371	-1391
1009.445	-525
1009.519	-2282
1009.592	-2109
1009.666	-1380
1009.739	-1412
1009.813	-2589
1009.886	-1384
1009.960	-2176
1010.033	-1115
1010.107	-1329
1010.180	-1455
1010.253	-1873
1010.327	-2524
1010.400	-1957
1010.473	-1878
1010.547	-902
1010.620	-1702
1010.693	-1544
1010.766	-2451
1010.840	-934
1010.913	-1087
1010.986	-2369
1011.059	-1406
1011.132	-1434
1011.205	-1301
1011.278	-2176
1011.351	-1671
1011.424	-1537
1011.497	-2069
1011.570	-2149
1011.643	-1647
1011.716	-1836
1011.789	-2374
1011.862	-1403
1011.934	-902
1012.007	-2863
1012.080	-1874
1012.153	-1873
1012.225	-1538
1012.298	-1985
1012.371	-2104
1012.443	-1427
1012.516	-2130
1012.588	-1577
1012.661	-1809
1012.733	-2058
1012.806	-1013
1012.879	-2105
1012.951	-1244
1013.023	-2103
1013.096	-1960
1013.168	-2169
1013.241	-1619
1013.313	-2094
1013.385	-2018
1013.458	-2147
1013.530	-1591
1013.602	-2148
1013.674	-1170
1013.746	-2596
1013.819	-1928
1013.891	-1856
1013.963	-1768
1014.035	-1868
1014.107	-1630
1014.179	-1802
1014.251	-2247
1014.323	-1763
1014.395	-1847
1014.467	-1991
1014.539	-1271
1014.611	-2595
1014.683	-1942
1014.754	-1652
1014.826	-2509
1014.898	-1711
1014.970	-3446
1015.042	-1337
1015.113	-1824
1015.185	-2045
1015.257	-2602
1015.328	-1846
1015.400	-2403
1015.471	-1731
1015.543	-3463
1015.615	-1767
1015.686	-2033
1015.757	-1865
1015.829	-1800
1015.901	-2742
1015.972	-2026
1016.043	-2741
1016.115	-1845
1016.186	-1599
1016.257	-2364
1016.328	-1980
1016.400	-1245
1016.471	-1856
1016.542	-1793
1016.613	-1875
1016.685	-2484
1016.756	-1386
1016.827	-2454
1016.898	-2227
1016.969	-1525
1017.040	-1612
1017.111	-1878
1017.182	-2113
1017.253	-1385
1017.324	-1995
1017.395	-2244
1017.466	-1334
1017.537	-1752
1017.608	-1548
1017.678	-1242
1017.749	-2064
1017.820	-2286
1017.891	-2372
1017.961	-2613
1018.032	-2255
1018.103	-1480
1018.173	-1961
1018.244	-2421
1018.315	-1572
1018.385	-1262
1018.456	-2286
1018.526	-2214
1018.597	-1827
1018.667	-2384
1018.738	-1669
1018.808	-1456
1018.878	-1532
1018.949	-1448
1019.019	-2452
1019.089	-1962
1019.160	-2661
1019.230	-2377
1019.300	-2377
1019.371	-2851
1019.441	-1981
1019.511	-2118
1019.581	-1836
1019.651	-1739
1019.721	-1729
1019.791	-2063
1019.861	-1717
1019.931	-1556
1020.001	-2842
1020.071	-2221
1020.141	-1770
1020.211	-2227
1020.281	-2506
1020.351	-2162
1020.421	-1693
1020.491	-1566
1020.560	-3019
1020.630	-1599
1020.700	-2476
1020.770	-2248
1020.839	-2894
1020.909	-2541
1020.979	-2465
1021.048	-2256
1021.118	-2146
1021.187	-1873
1021.257	-2528
1021.326	-1972
1021.396	-1657
1021.465	-2288
1021.535	-2254
1021.604	-2203
1021.674	-2749
1021.743	-2538
1021.812	-2556
1021.882	-2115
1021.951	-1987
1022.020	-2115
1022.089	-1974
1022.159	-1939
1022.228	-1719
1022.297	-2404
1022.366	-1646
1022.435	-2280
1022.504	-2446
1022.573	-2595
1022.642	-1130
1022.711	-2167
1022.781	-1657
1022.849	-2293
1022.918	-2737
1022.987	-1835
1023.056	-2281
1023.125	-2079
1023.194	-2070
1023.263	-1531
1023.331	-2152
1023.400	-2599
1023.469	-3002
1023.538	-1402
1023.606	-2360
1023.675	-2549
1023.744	-2345
1023.812	-2893
1023.881	-2158
1023.949	-2492
1024.018	-2189
1024.086	-2158
1024.155	-2529
1024.223	-2902
1024.292	-2459
1024.360	-1864
1024.429	-2823
1024.497	-2909
1024.565	-2001
1024.634	-2187
1024.702	-2594
1024.770	-2897
1024.838	-2810
1024.907	-2110
1024.975	-2786
1025.043	-1621
1025.111	-1790
1025.179	-1916
1025.247	-2318
1025.315	-2552
1025.383	-2820
1025.451	-2148
1025.519	-2681
1025.587	-1815
1025.655	-2018
1025.723	-2064
1025.791	-2702
1025.859	-2038
1025.927	-1226
1025.995	-3201
1026.062	-1838
1026.130	-2435
1026.198	-1992
1026.266	-3167
1026.333	-1650
1026.401	-2203
1026.469	-1912
1026.536	-2086
1026.604	-2751
1026.671	-2611
1026.739	-2566
1026.806	-1835
1026.874	-2563
1026.941	-2283
1027.009	-2096
1027.076	-2732
1027.144	-1827
1027.211	-1390
1027.278	-1944
1027.345	-2175
1027.413	-1245
1027.480	-2248
1027.547	-2963
1027.614	-1610
1027.682	-2126
1027.749	-2870
1027.816	-2716
1027.883	-1948
1027.950	-2328
1028.017	-2351
1028.084	-1963
1028.151	-2548
1028.218	-2059
1028.285	-1939
1028.352	-2025
1028.419	-2324
1028.486	-1978
1028.553	-1798
1028.619	-2455
1028.686	-2159
1028.753	-2291
1028.820	-2473
1028.886	-3054
1028.953	-2049
1029.020	-2847
1029.086	-1682
1029.153	-2693
1029.220	-2222
1029.286	-1525
1029.353	-2361
1029.419	-2925
1029.486	-2884
1029.552	-1782
1029.619	-2069
1029.685	-2447
1029.751	-1731
1029.818	-1722
1029.884	-2116
1029.951	-1460
1030.017	-1554
1030.083	-2300
1030.149	-2012
1030.216	-2196
1030.282	-1435
1030.348	-2094
1030.414	-1721
1030.480	-2197
1030.546	-2177
1030.612	-2021
1030.678	-2190
1030.744	-2126
1030.810	-1599
1030.876	-2058
1030.942	-2574
1031.008	-2534
1031.074	-1883
1031.140	-2390
1031.206	-1880
1031.272	-2896
1031.337	-2010
1031.403	-2008
1031.469	-2539
1031.534	-2351
1031.600	-1701
1031.666	-2827
1031.731	-2248
1031.797	-2467
1031.863	-2336
1031.928	-2113
1031.994	-2198
1032.059	-2551
1032.125	-2372
1032.190	-2898
1032.256	-2159
1032.321	-2131
1032.386	-2911
1032.452	-1616
1032.517	-1878
1032.582	-2651
1032.647	-1975
1032.713	-2608
1032.778	-2209
1032.843	-2779
1032.908	-2300
1032.974	-2442
1033.039	-1750
1033.104	-2667
1033.169	-2364
1033.234	-2457
1033.299	-2122
1033.364	-1594
1033.429	-1996
1033.494	-1850
1033.559	-2268
1033.624	-1583
1033.688	-1477
1033.753	-2098
1033.818	-2086
1033.883	-2576
1033.948	-2690
1034.013	-2455
1034.077	-2042
1034.142	-2221
1034.207	-3029
1034.271	-2507
1034.336	-2641
1034.400	-1400
1034.465	-2056
1034.530	-2584
1034.594	-2171
1034.658	-2704
1034.723	-1954
1034.787	-1985
1034.852	-1888
1034.916	-1473
1034.981	-2763
1035.045	-2554
1035.109	-2514
1035.173	-1837
1035.238	-2710
1035.302	-1870
1035.366	-2507
1035.430	-2150
1035.495	-2205
1035.559	-1524
1035.623	-1959
1035.687	-2752
1035.751	-2335
1035.815	-2168
1035.879	-2574
1035.943	-1738
1036.007	-2772
1036.071	-2099
1036.135	-3141
1036.198	-2971
1036.262	-2431
1036.326	-2486
1036.390	-1819
1036.454	-2623
1036.517	-2008
1036.581	-2207
1036.645	-2265
1036.709	-2111
1036.772	-2539
1036.836	-2987
1036.900	-1998
1036.963	-3002
1037.026	-2400
1037.090	-2126
1037.154	-2732
1037.217	-1944
1037.280	-2137
1037.344	-1910
1037.407	-2555
1037.471	-2194
1037.534	-1994
1037.597	-2056
1037.661	-2939
1037.724	-2620
1037.787	-2727
1037.850	-2485
1037.913	-2369
1037.977	-2149
1038.040	-2079
1038.103	-1736
1038.166	-2845
1038.229	-1433
1038.292	-2294
1038.355	-2398
1038.418	-1390
1038.481	-1263
1038.544	-1839
1038.607	-2095
1038.670	-2474
1038.732	-3341
1038.795	-2346
1038.858	-2748
1038.921	-1971
1038.984	-2830
1039.046	-2636
1039.109	-3121
1039.172	-1752
1039.234	-2781
1039.297	-2590
1039.360	-2625
1039.422	-2201
1039.485	-2248
1039.547	-2143
1039.610	-2521
1039.672	-2105
1039.734	-2258
1039.797	-2506
1039.859	-1634
1039.922	-1836
1039.984	-2764
1040.046	-2658
1040.109	-2591
1040.171	-2226
1040.233	-2693
1040.295	-2135
1040.358	-2233
1040.420	-2077
1040.482	-3685
1040.544	-2171
1040.606	-2326
1040.668	-2732
1040.730	-2296
1040.792	-2465
1040.854	-2955
1040.916	-2101
1040.978	-2295
1041.040	-1730
1041.102	-2008
1041.164	-2732
1041.225	-2662
1041.287	-2419
1041.349	-2471
1041.411	-2691
1041.472	-2166
1041.534	-2721
1041.596	-3332
1041.657	-2069
1041.719	-2612
1041.781	-2373
1041.842	-2983
1041.904	-2365
1041.965	-2902
1042.027	-1888
1042.088	-1502
1042.150	-1586
1042.211	-2000
1042.272	-2056
1042.334	-2025
1042.395	-2666
1042.456	-3526
1042.518	-2208
1042.579	-2531
1042.640	-2330
1042.701	-2910
1042.763	-1960
1042.824	-3262
1042.885	-2751
1042.946	-2450
1043.007	-1888
1043.068	-2652
1043.129	-2548
1043.190	-3031
1043.251	-1566
1043.312	-2184
1043.373	-2358
1043.434	-2552
1043.495	-3061
1043.556	-2107
1043.616	-1793
1043.677	-2824
1043.738	-2305
1043.799	-1579
1043.859	-1858
1043.920	-2472
1043.981	-2499
1044.041	-1957
1044.102	-1970
1044.162	-1917
1044.223	-2916
1044.284	-1557
1044.344	-2279
1044.405	-2894
1044.465	-1879
1044.525	-2302
1044.586	-1699
1044.646	-2819
1044.707	-2126
1044.767	-1941
1044.827	-2018
1044.887	-2216
1044.948	-1690
1045.008	-1752
1045.068	-2053
1045.128	-2527
1045.188	-1365
1045.249	-1024
1045.309	-2261
1045.369	-1868
1045.429	-2547
1045.489	-931
1045.549	-1984
1045.609	-1338
1045.669	-2431
1045.729	-2465
1045.789	-2509
1045.848	-2058
1045.908	-2220
1045.968	-1413
1046.028	-2189
1046.088	-849
1046.147	-1094
1046.207	-1921
1046.267	-1822
1046.326	-1531
1046.386	-1034
1046.446	-1152
1046.505	-1542
1046.565	-1500
1046.624	-1505
1046.684	-1312
1046.743	-918
1046.803	-1063
1046.862	5
1046.922	0
