'Start Wavelength	183.907
'End Wavelength	1046.922
'Gate Delay	5.000
'Gate Width (ms)	1.050
'Laser Output Level	0.000
'X Position	0.000
'Y Position	0.000
'Z Position	0.000
'Grid Point Number	1.000
'Shot Number	100.000
183.907	429.000
183.977	-3.000
184.047	-75
184.116	670
184.186	-741
184.256	75
184.325	-399
184.395	-777
184.465	805
184.534	-1020
184.604	-228
184.674	533
184.743	-232
184.813	197
184.883	-392
184.952	-665
185.022	260
185.092	-98
185.161	-272
185.231	633
185.301	263
185.370	471
185.440	-509
185.509	513
185.579	58
185.649	-150
185.718	466
185.788	501
185.857	-515
185.927	45
185.996	108
186.066	-374
186.136	31
186.205	515
186.275	-520
186.344	-334
186.414	-81
186.483	-310
186.553	475
186.622	379
186.692	-503
186.761	-450
186.831	267
186.900	-672
186.970	-70
187.039	-237
187.109	89
187.178	-538
187.248	-277
187.317	-452
187.387	5
187.456	-536
187.526	-199
187.595	218
187.664	122
187.734	-684
187.803	308
187.873	-352
187.942	300
188.012	23
188.081	-1069
188.150	-337
188.220	-975
188.289	422
188.358	316
188.428	428
188.497	-466
188.567	261
188.636	-163
188.705	383
188.775	-370
188.844	-896
188.913	879
188.983	-944
189.052	-1071
189.121	234
189.191	-216
189.260	-106
189.329	-384
189.399	19
189.468	-182
189.537	134
189.606	175
189.676	-52
189.745	-186
189.814	270
189.883	-823
189.953	-180
190.022	-40
190.091	854
190.161	539
190.230	238
190.299	-389
190.368	-210
190.437	-256
190.507	-1133
190.576	315
190.645	302
190.714	380
190.783	-38
190.853	412
190.922	508
190.991	-194
191.060	265
191.129	-26
191.198	45
191.268	74
191.337	466
191.406	-137
191.475	59
191.544	164
191.613	-762
191.682	-591
191.752	-401
191.821	-395
191.890	-306
191.959	-680
192.028	1045
192.097	291
192.166	-267
192.235	-263
192.304	-226
192.373	-80
192.442	-581
192.511	-132
192.580	40
192.650	596
192.719	-322
192.788	351
192.857	161
192.926	-142
192.995	72
193.064	-450
193.133	-328
193.202	38
193.271	254
193.340	97
193.409	734
193.478	607
193.547	501
193.615	225
193.684	286
193.753	-484
193.822	262
193.891	-53
193.960	305
194.029	-228
194.098	-291
194.167	-625
194.236	-99
194.305	25
194.374	-154
194.443	-460
194.512	378
194.580	-423
194.649	811
194.718	302
194.787	-461
194.856	-613
194.925	663
194.994	-717
195.062	-381
195.131	105
195.200	-36
195.269	-85
195.338	184
195.407	1043
195.475	-554
195.544	-60
195.613	-249
195.682	518
195.751	90
195.819	-794
195.888	406
195.957	551
196.026	-174
196.094	761
196.163	142
196.232	-390
196.301	23
196.369	112
196.438	306
196.507	90
196.576	-363
196.644	478
196.713	200
196.782	-696
196.850	30
196.919	-345
196.988	416
197.056	-328
197.125	101
197.194	-134
197.262	73
197.331	-319
197.400	5
197.468	413
197.537	265
197.606	275
197.674	922
197.743	396
197.812	-301
197.880	1252
197.949	-209
198.017	673
198.086	-314
198.155	244
198.223	-1
198.292	375
198.360	41
198.429	383
198.497	-257
198.566	1070
198.635	1075
198.703	718
198.772	818
198.840	1494
198.909	-156
198.977	12
199.046	-63
199.114	804
199.183	-88
199.251	13
199.320	137
199.388	-832
199.457	-136
199.525	408
199.594	-157
199.662	-225
199.731	439
199.799	63
199.867	-542
199.936	-542
200.004	45
200.073	547
200.141	-705
200.210	-145
200.278	547
200.346	-197
200.415	175
200.483	-800
200.552	-120
200.620	-740
200.688	553
200.757	-38
200.825	-78
200.893	-138
200.962	404
201.030	-121
201.098	-724
201.167	317
201.235	-270
201.303	-114
201.372	26
201.440	-635
201.508	-911
201.577	349
201.645	158
201.713	122
201.781	-425
201.850	360
201.918	-55
201.986	-407
202.055	842
202.123	-197
202.191	-434
202.259	424
202.327	45
202.396	-69
202.464	-77
202.532	-683
202.600	283
202.669	709
202.737	314
202.805	-786
202.873	-206
202.941	-547
203.009	386
203.078	-429
203.146	-240
203.214	-409
203.282	-327
203.350	-124
203.418	-486
203.487	584
203.555	291
203.623	294
203.691	-758
203.759	-430
203.827	-579
203.895	-217
203.963	-638
204.031	-912
204.099	149
204.168	-92
204.236	494
204.304	77
204.372	-56
204.440	-623
204.508	-587
204.576	-313
204.644	266
204.712	-117
204.780	-39
204.848	-238
204.916	-34
204.984	-657
205.052	-240
205.120	174
205.188	-313
205.256	-397
205.324	-136
205.392	-247
205.460	-435
205.528	-523
205.596	-783
205.664	-224
205.732	429
205.799	704
205.867	2103
205.935	-57
206.003	541
206.071	-363
206.139	152
206.207	-128
206.275	-133
206.343	-316
206.411	304
206.478	2
206.546	11
206.614	0
206.682	-43
206.750	-495
206.818	-79
206.885	-426
206.953	-1165
207.021	439
207.089	-67
207.157	-811
207.225	215
207.292	-643
207.360	-254
207.428	-538
207.496	-128
207.563	870
207.631	786
207.699	-29
207.767	73
207.834	-260
207.902	-93
207.970	-69
208.038	-68
208.105	-298
208.173	124
208.241	-14
208.309	-40
208.376	-189
208.444	1087
208.512	-666
208.579	-464
208.647	-302
208.715	465
208.782	120
208.850	30
208.918	-145
208.985	-304
209.053	-64
209.120	-305
209.188	-725
209.256	-228
209.323	-866
209.391	-219
209.459	604
209.526	31
209.594	-443
209.661	-408
209.729	728
209.796	399
209.864	-205
209.932	-818
209.999	812
210.067	-138
210.134	-427
210.202	848
210.269	36
210.337	285
210.404	384
210.472	-219
210.539	536
210.607	87
210.674	69
210.742	533
210.809	329
210.877	763
210.944	1058
211.012	-650
211.079	1310
211.146	-183
211.214	-283
211.281	-577
211.349	-337
211.416	637
211.484	-633
211.551	-1106
211.618	-85
211.686	-117
211.753	-1100
211.821	355
211.888	28
211.955	-28
212.023	-433
212.090	718
212.157	406
212.225	514
212.292	940
212.359	1935
212.427	6441
212.494	2338
212.561	137
212.629	-96
212.696	-205
212.763	218
212.831	-688
212.898	709
212.965	-362
213.032	356
213.100	664
213.167	-83
213.234	1104
213.301	527
213.369	365
213.436	-409
213.503	-220
213.570	615
213.638	686
213.705	-528
213.772	634
213.839	594
213.906	453
213.973	869
214.041	-324
214.108	132
214.175	-585
214.242	312
214.309	-60
214.376	-739
214.444	-272
214.511	575
214.578	201
214.645	310
214.712	298
214.779	78
214.846	-300
214.913	512
214.980	673
215.048	1
215.115	321
215.182	165
215.249	185
215.316	177
215.383	303
215.450	488
215.517	448
215.584	410
215.651	332
215.718	69
215.785	748
215.852	-59
215.919	306
215.986	556
216.053	-172
216.120	-491
216.187	411
216.254	648
216.321	146
216.388	-517
216.455	71
216.522	74
216.589	447
216.656	17
216.722	950
216.789	467
216.856	256
216.923	180
216.990	-381
217.057	794
217.124	610
217.191	22
217.258	454
217.324	1054
217.391	1865
217.458	389
217.525	1101
217.592	352
217.659	-1043
217.725	1423
217.792	443
217.859	1933
217.926	-563
217.993	145
218.059	1140
218.126	367
218.193	-618
218.260	-175
218.327	287
218.393	-51
218.460	170
218.527	667
218.594	532
218.660	322
218.727	1412
218.794	-631
218.860	539
218.927	-136
218.994	303
219.061	336
219.127	428
219.194	351
219.261	469
219.327	41
219.394	162
219.461	-885
219.527	-243
219.594	491
219.661	255
219.727	-560
219.794	862
219.860	-428
219.927	563
219.994	957
220.060	-159
220.127	573
220.193	17
220.260	298
220.326	903
220.393	511
220.460	1862
220.526	902
220.593	-528
220.659	1469
220.726	-215
220.792	2104
220.859	1597
220.925	1207
220.992	3066
221.058	3642
221.125	4020
221.191	3456
221.258	265
221.324	760
221.391	865
221.457	488
221.524	519
221.590	701
221.657	3358
221.723	2026
221.789	1574
221.856	2649
221.922	512
221.989	748
222.055	33
222.121	-440
222.188	1783
222.254	-269
222.321	-298
222.387	-373
222.453	180
222.520	20
222.586	-931
222.652	-177
222.719	-439
222.785	305
222.851	-253
222.918	-320
222.984	277
223.050	129
223.116	-584
223.183	934
223.249	-389
223.315	-822
223.382	108
223.448	-233
223.514	-624
223.580	325
223.647	-813
223.713	-323
223.779	414
223.845	235
223.911	843
223.978	-331
224.044	92
224.110	-398
224.176	201
224.242	257
224.309	-818
224.375	136
224.441	84
224.507	-183
224.573	-852
224.639	852
224.705	-1446
224.772	-289
224.838	-310
224.904	271
224.970	202
225.036	34
225.102	-682
225.168	-360
225.234	-275
225.300	-247
225.366	144
225.432	-410
225.499	-311
225.565	52
225.631	-56
225.697	-80
225.763	-92
225.829	378
225.895	139
225.961	1068
226.027	822
226.093	123
226.159	1065
226.225	1444
226.291	1800
226.357	4422
226.423	1937
226.489	385
226.554	291
226.620	663
226.686	165
226.752	1774
226.818	2212
226.884	6664
226.950	5926
227.016	1355
227.082	778
227.148	-188
227.214	646
227.279	195
227.345	-43
227.411	-75
227.477	-386
227.543	615
227.609	565
227.674	1011
227.740	-969
227.806	166
227.872	-67
227.938	432
228.003	543
228.069	655
228.135	-2
228.201	712
228.267	-877
228.332	224
228.398	-374
228.464	596
228.530	-550
228.595	623
228.661	-603
228.727	-336
228.792	471
228.858	-208
228.924	-1279
228.990	1667
229.055	-126
229.121	1064
229.187	-494
229.252	-156
229.318	-644
229.384	562
229.449	-383
229.515	-727
229.581	-1040
229.646	1342
229.712	76
229.777	663
229.843	578
229.909	760
229.974	658
230.040	670
230.105	141
230.171	103
230.236	1766
230.302	1866
230.368	1043
230.433	645
230.499	360
230.564	1150
230.630	-149
230.695	-471
230.761	1058
230.826	-967
230.892	765
230.957	-188
231.023	418
231.088	256
231.154	141
231.219	898
231.284	-428
231.350	421
231.415	-461
231.481	755
231.546	-125
231.612	658
231.677	302
231.742	-614
231.808	1360
231.873	-70
231.939	-2038
232.004	1124
232.069	794
232.135	-310
232.200	-146
232.265	429
232.331	-28
232.396	-137
232.461	373
232.527	-228
232.592	-93
232.657	207
232.723	534
232.788	-23
232.853	273
232.918	292
232.984	-654
233.049	-576
233.114	-197
233.179	518
233.245	1648
233.310	635
233.375	-444
233.440	345
233.506	-1032
233.571	-493
233.636	116
233.701	412
233.766	390
233.832	1538
233.897	-130
233.962	-1185
234.027	852
234.092	63
234.157	610
234.222	-331
234.288	664
234.353	3345
234.418	3423
234.483	1576
234.548	185
234.613	983
234.678	834
234.743	239
234.808	3502
234.873	510
234.938	823
235.004	144
235.069	-97
235.134	-601
235.199	625
235.264	923
235.329	-1150
235.394	616
235.459	664
235.524	-846
235.589	-257
235.654	260
235.719	-1223
235.784	386
235.849	254
235.913	1089
235.978	882
236.043	1471
236.108	788
236.173	-593
236.238	1259
236.303	-495
236.368	84
236.433	1571
236.498	743
236.563	477
236.627	1791
236.692	8757
236.757	6471
236.822	2108
236.887	1553
236.952	1745
237.017	-363
237.081	1741
237.146	-339
237.211	3086
237.276	8800
237.341	16277
237.405	5002
237.470	2234
237.535	1439
237.600	1114
237.664	766
237.729	-108
237.794	89
237.859	2385
237.923	972
237.988	844
238.053	1424
238.118	1585
238.182	4608
238.247	5302
238.312	428
238.376	1301
238.441	-501
238.506	2097
238.570	-738
238.635	2094
238.700	377
238.764	-35
238.829	1466
238.893	2155
238.958	1294
239.023	323
239.087	26
239.152	842
239.216	-499
239.281	190
239.346	-306
239.410	466
239.475	359
239.539	5556
239.604	2084
239.668	1699
239.733	325
239.797	-124
239.862	-129
239.926	2890
239.991	1663
240.055	20
240.120	-290
240.184	-214
240.249	-466
240.313	-377
240.378	-345
240.442	1976
240.507	4983
240.571	913
240.635	1352
240.700	1835
240.764	716
240.829	526
240.893	-795
240.957	193
241.022	1720
241.086	4437
241.151	235
241.215	-641
241.279	1370
241.344	610
241.408	1651
241.472	-100
241.537	1440
241.601	1256
241.665	-224
241.730	-586
241.794	1287
241.858	-285
241.922	-222
241.987	603
242.051	-464
242.115	-691
242.179	763
242.244	-401
242.308	1222
242.372	-72
242.436	486
242.501	443
242.565	-670
242.629	146
242.693	949
242.757	-858
242.822	482
242.886	367
242.950	730
243.014	-974
243.078	18
243.142	-133
243.206	233
243.271	1156
243.335	-38
243.399	1499
243.463	4745
243.527	17754
243.591	3920
243.655	1888
243.719	393
243.783	2280
243.847	1491
243.911	3062
243.975	1486
244.040	-255
244.104	1996
244.168	-363
244.232	36
244.296	963
244.360	2260
244.424	139
244.488	413
244.552	410
244.615	-1267
244.679	-623
244.743	-627
244.807	-917
244.871	645
244.935	443
244.999	-999
245.063	190
245.127	1029
245.191	1467
245.255	1345
245.319	96
245.383	-1386
245.446	939
245.510	-452
245.574	340
245.638	179
245.702	-640
245.766	1477
245.829	878
245.893	-256
245.957	-151
246.021	62
246.085	-363
246.149	95
246.212	2599
246.276	3128
246.340	913
246.404	914
246.467	1008
246.531	192
246.595	1279
246.659	671
246.722	-908
246.786	721
246.850	193
246.913	886
246.977	-343
247.041	260
247.104	-249
247.168	569
247.232	1596
247.295	5730
247.359	1993
247.423	-94
247.486	1668
247.550	1006
247.614	202
247.677	543
247.741	441
247.804	321
247.868	261
247.932	1019
247.995	5432
248.059	467
248.122	-867
248.186	1442
248.249	1913
248.313	8402
248.376	9421
248.440	4867
248.503	540
248.567	2162
248.630	915
248.694	1987
248.757	4119
248.821	9474
248.884	5489
248.948	4105
249.011	7921
249.075	11461
249.138	10210
249.202	3061
249.265	1183
249.328	2936
249.392	492
249.455	1334
249.519	661
249.582	1078
249.645	2787
249.709	1267
249.772	1244
249.835	1242
249.899	655
249.962	1733
250.025	209
250.089	3293
250.152	5576
250.215	3121
250.279	1151
250.342	1648
250.405	1712
250.468	1118
250.532	2796
250.595	3748
250.658	17403
250.721	29152
250.785	7220
250.848	4913
250.911	1682
250.974	2286
251.038	3018
251.101	7012
251.164	3071
251.227	3865
251.290	3191
251.354	5549
251.417	26150
251.480	25730
251.543	14928
251.606	50324
251.669	33551
251.732	10560
251.795	10004
251.859	11491
251.922	29931
251.985	15292
252.048	6416
252.111	4288
252.174	3031
252.237	6246
252.300	13113
252.363	14812
252.426	39916
252.489	12700
252.552	6782
252.615	3441
252.678	5012
252.741	9674
252.804	14742
252.867	38705
252.930	18538
252.993	8548
253.056	4384
253.119	3250
253.182	2163
253.245	5596
253.308	3740
253.371	2220
253.434	2664
253.497	3045
253.559	5962
253.622	3370
253.685	3112
253.748	3011
253.811	1139
253.874	2341
253.937	999
254.000	789
254.062	2435
254.125	5110
254.188	4690
254.251	2983
254.314	1441
254.376	1956
254.439	3478
254.502	1908
254.565	2188
254.628	6006
254.690	2201
254.753	971
254.816	621
254.878	1353
254.941	3807
255.004	3490
255.067	1716
255.129	343
255.192	490
255.255	-1147
255.317	647
255.380	280
255.443	-245
255.505	-397
255.568	-632
255.631	90
255.693	200
255.756	-1222
255.819	1308
255.881	-295
255.944	311
256.006	48
256.069	778
256.132	-209
256.194	204
256.257	2234
256.319	1285
256.382	1775
256.444	1434
256.507	-124
256.569	89
256.632	997
256.694	579
256.757	3660
256.819	13605
256.882	3818
256.944	895
257.007	1053
257.069	264
257.132	346
257.194	859
257.257	-343
257.319	-58
257.381	-290
257.444	3210
257.506	16194
257.569	14655
257.631	5776
257.693	3011
257.756	1161
257.818	647
257.880	-81
257.943	603
258.005	5
258.067	-2
258.130	57
258.192	385
258.254	1705
258.317	458
258.379	494
258.441	2735
258.503	3075
258.566	3681
258.628	6273
258.690	489
258.753	905
258.815	1314
258.877	780
258.939	-934
259.001	646
259.064	-270
259.126	-362
259.188	996
259.250	-140
259.312	75
259.375	2196
259.437	1048
259.499	296
259.561	385
259.623	335
259.685	-276
259.747	-207
259.809	3493
259.872	8425
259.934	13028
259.996	11422
260.058	2413
260.120	-920
260.182	124
260.244	87
260.306	12
260.368	-154
260.430	-899
260.492	1734
260.554	3983
260.616	1654
260.678	5636
260.740	8016
260.802	1025
260.864	637
260.926	-376
260.988	1465
261.050	479
261.112	2182
261.174	8953
261.236	6665
261.298	1940
261.359	2749
261.421	6159
261.483	-54
261.545	915
261.607	-754
261.669	481
261.731	420
261.793	3587
261.854	38
261.916	562
261.978	33
262.040	93
262.102	339
262.164	1104
262.225	885
262.287	357
262.349	670
262.411	1055
262.472	648
262.534	1113
262.596	3406
262.658	843
262.719	-1086
262.781	379
262.843	3560
262.904	1525
262.966	629
263.028	562
263.090	10127
263.151	28082
263.213	7619
263.275	2319
263.336	128
263.398	902
263.459	-253
263.521	-370
263.583	832
263.644	311
263.706	-606
263.767	-857
263.829	451
263.891	-462
263.952	-871
264.014	-986
264.075	91
264.137	1890
264.198	1129
264.260	-742
264.321	372
264.383	627
264.444	4972
264.506	1002
264.567	613
264.629	2533
264.690	1484
264.752	318
264.813	-444
264.875	-1247
264.936	-178
264.998	-945
265.059	-562
265.120	-712
265.182	-428
265.243	4943
265.305	4440
265.366	388
265.427	-433
265.489	-46
265.550	-1999
265.611	-622
265.673	-952
265.734	-675
265.795	110
265.857	-571
265.918	-406
265.979	864
266.040	9574
266.102	7226
266.163	721
266.224	534
266.286	-546
266.347	-1286
266.408	-893
266.469	105
266.530	-1201
266.592	-356
266.653	344
266.714	1109
266.775	-786
266.836	-807
266.898	-1163
266.959	376
267.020	-452
267.081	521
267.142	-40
267.203	-1326
267.264	-1059
267.326	855
267.387	-1005
267.448	-1231
267.509	-1497
267.570	-1309
267.631	-648
267.692	-744
267.753	-1005
267.814	-950
267.875	221
267.936	1498
267.997	1041
268.058	17
268.119	-834
268.180	-976
268.241	-1190
268.302	-707
268.363	-711
268.424	-185
268.485	-288
268.546	-937
268.607	-398
268.668	-1544
268.729	-1211
268.790	-359
268.851	-428
268.912	-213
268.972	1
269.033	-470
269.094	-1078
269.155	325
269.216	-11
269.277	-948
269.338	-165
269.398	-615
269.459	-1320
269.520	454
269.581	-23
269.642	-264
269.702	-387
269.763	-360
269.824	-797
269.885	-917
269.945	49
270.006	-377
270.067	-848
270.128	-514
270.188	-916
270.249	-963
270.310	-582
270.370	53
270.431	-203
270.492	-923
270.553	-305
270.613	-241
270.674	1056
270.734	281
270.795	-216
270.856	974
270.916	-388
270.977	-675
271.038	-589
271.098	-346
271.159	39
271.219	189
271.280	-291
271.340	195
271.401	-321
271.462	478
271.522	-373
271.583	22
271.643	-382
271.704	-84
271.764	-354
271.825	758
271.885	7244
271.946	10651
272.006	2071
272.066	4629
272.127	9303
272.187	1011
272.248	-657
272.308	458
272.369	6281
272.429	2889
272.489	1532
272.550	999
272.610	1409
272.671	325
272.731	142
272.791	1870
272.852	-644
272.912	186
272.972	-238
273.033	-36
273.093	-144
273.153	569
273.214	-482
273.274	-160
273.334	2797
273.394	8414
273.455	2252
273.515	2229
273.575	5270
273.635	2662
273.696	2802
273.756	8125
273.816	1512
273.876	1159
273.936	4092
273.997	7790
274.057	587
274.117	10
274.177	921
274.237	10587
274.297	9310
274.358	5759
274.418	6526
274.478	3710
274.538	492
274.598	475
274.658	5892
274.718	7445
274.778	2316
274.838	777
274.898	2332
274.958	11197
275.018	8955
275.078	5322
275.138	1272
275.198	252
275.258	-329
275.318	5
275.378	1350
275.438	649
275.498	419
275.558	4511
275.618	10342
275.678	5175
275.738	2833
275.798	1721
275.858	-375
275.918	-1106
275.978	-490
276.038	-106
276.098	-1061
276.157	70
276.217	3179
276.277	1220
276.337	-130
276.397	721
276.457	-147
276.517	152
276.576	-691
276.636	-1074
276.696	-142
276.756	2235
276.815	130
276.875	-502
276.935	437
276.995	255
277.055	-1308
277.114	-1548
277.174	-370
277.234	3868
277.293	-467
277.353	-176
277.413	-213
277.472	-839
277.532	-965
277.592	-74
277.651	2048
277.711	3883
277.771	-391
277.830	5073
277.890	3300
277.950	2290
278.009	12054
278.069	3053
278.128	2522
278.188	3879
278.248	1612
278.307	3666
278.367	2558
278.426	640
278.486	-669
278.545	-553
278.605	-611
278.664	-825
278.724	-287
278.783	1911
278.843	9613
278.902	1136
278.962	11
279.021	935
279.081	163
279.140	1064
279.199	-401
279.259	520
279.318	457
279.378	1076
279.437	2654
279.496	13780
279.556	48235
279.615	37369
279.675	6671
279.734	3347
279.793	5827
279.853	11092
279.912	2839
279.971	1301
280.031	806
280.090	4161
280.149	7800
280.208	5412
280.268	33564
280.327	35931
280.386	5147
280.445	3828
280.505	2644
280.564	702
280.623	229
280.682	2210
280.742	2340
280.801	-236
280.860	-381
280.919	448
280.978	-103
281.037	-671
281.097	-478
281.156	-10
281.215	-1154
281.274	-139
281.333	4642
281.392	2439
281.451	637
281.510	-743
281.569	-1049
281.628	-188
281.688	-325
281.747	5
281.806	-171
281.865	-956
281.924	-857
281.983	-903
282.042	-870
282.101	-862
282.160	-1391
282.219	-1369
282.278	-719
282.337	1103
282.396	236
282.454	-572
282.513	-301
282.572	2756
282.631	230
282.690	-606
282.749	-890
282.808	-106
282.867	-570
282.926	-718
282.985	-172
283.043	-691
283.102	-1207
283.161	-1180
283.220	1130
283.279	4247
283.338	1014
283.396	-298
283.455	-1004
283.514	-1104
283.573	-569
283.631	-917
283.690	155
283.749	-344
283.808	576
283.866	205
283.925	-1336
283.984	-1052
284.043	-290
284.101	155
284.160	-1218
284.219	631
284.277	-564
284.336	514
284.395	4175
284.453	3425
284.512	-59
284.570	151
284.629	-378
284.688	185
284.746	-305
284.805	-483
284.863	971
284.922	680
284.981	853
285.039	2870
285.098	4211
285.156	14783
285.215	58330
285.273	53287
285.332	16327
285.390	6598
285.449	3510
285.507	1618
285.566	919
285.624	797
285.683	-488
285.741	240
285.799	-441
285.858	-201
285.916	-785
285.975	-735
286.033	-874
286.091	-628
286.150	-720
286.208	-330
286.267	68
286.325	-676
286.383	143
286.442	-363
286.500	-1354
286.558	-483
286.616	-1316
286.675	59
286.733	-443
286.791	-574
286.850	-375
286.908	-432
286.966	556
287.024	-604
287.083	-850
287.141	-1148
287.199	-721
287.257	65
287.315	137
287.374	-504
287.432	363
287.490	279
287.548	-422
287.606	-379
287.664	-1101
287.723	476
287.781	-456
287.839	517
287.897	139
287.955	1084
288.013	2418
288.071	7667
288.129	34130
288.187	108140
288.245	42612
288.303	11856
288.361	5910
288.419	3101
288.477	1883
288.535	1962
288.593	601
288.651	462
288.709	24
288.767	373
288.825	498
288.883	-55
288.941	-102
288.999	-461
289.057	-663
289.115	-271
289.173	-715
289.231	-69
289.289	-1651
289.346	-753
289.404	-516
289.462	-891
289.520	-675
289.578	-957
289.636	-834
289.694	-1426
289.751	-1071
289.809	-899
289.867	-1240
289.925	-262
289.983	-848
290.040	-635
290.098	-764
290.156	-692
290.214	-1381
290.271	-1064
290.329	-580
290.387	-1228
290.444	-1150
290.502	-759
290.560	-1196
290.617	-1877
290.675	-921
290.733	-907
290.790	-470
290.848	-184
290.906	-615
290.963	-1230
291.021	-894
291.078	-1000
291.136	-548
291.194	878
291.251	4217
291.309	-470
291.366	-766
291.424	-953
291.481	-664
291.539	-745
291.596	-546
291.654	-868
291.711	-690
291.769	64
291.826	-210
291.884	-500
291.941	-1320
291.999	-1160
292.056	-1051
292.114	-1042
292.171	-1598
292.228	-1071
292.286	-142
292.343	-34
292.401	-336
292.458	-379
292.515	-1227
292.573	-219
292.630	-1120
292.687	-807
292.745	-736
292.802	-230
292.859	2377
292.917	3827
292.974	1591
293.031	-521
293.089	-650
293.146	-513
293.203	-1126
293.260	-885
293.318	-737
293.375	-185
293.432	-914
293.489	-483
293.546	-1028
293.604	-599
293.661	2149
293.718	11054
293.775	3625
293.832	850
293.889	-399
293.947	-301
294.004	559
294.061	-549
294.118	410
294.175	4016
294.232	6327
294.289	1601
294.346	-255
294.403	31
294.460	-709
294.517	-150
294.574	-1394
294.631	-614
294.688	-107
294.745	1325
294.802	11615
294.859	12158
294.916	3008
294.973	593
295.030	-148
295.087	242
295.144	-523
295.201	-939
295.258	-9
295.315	-173
295.372	2957
295.429	7802
295.486	2480
295.542	34
295.599	4755
295.656	9249
295.713	4734
295.770	6696
295.827	1467
295.883	-284
295.940	-13
295.997	444
296.054	31
296.111	-244
296.167	-233
296.224	-579
296.281	-1380
296.338	-1137
296.394	-790
296.451	-1176
296.508	2265
296.564	5585
296.621	2904
296.678	8452
296.734	13371
296.791	3424
296.848	981
296.904	998
296.961	2838
297.018	7156
297.074	6408
297.131	1813
297.187	719
297.244	632
297.301	8603
297.357	18144
297.414	5379
297.470	1311
297.527	-230
297.583	-7
297.640	-493
297.696	-639
297.753	-620
297.809	-866
297.866	-1558
297.922	-782
297.979	-854
298.035	-1825
298.092	-181
298.148	3286
298.204	4188
298.261	906
298.317	2692
298.374	11982
298.430	7093
298.486	1525
298.543	362
298.599	-358
298.656	-197
298.712	2065
298.768	9348
298.824	7919
298.881	2092
298.937	-320
298.993	-125
299.050	-582
299.106	239
299.162	-1013
299.218	-28
299.275	-512
299.331	-611
299.387	799
299.443	8447
299.500	9500
299.556	1560
299.612	-153
299.668	-957
299.724	-894
299.780	-666
299.837	-1022
299.893	96
299.949	5872
300.005	6698
300.061	5833
300.117	13265
300.173	5489
300.229	908
300.285	1679
300.341	1671
300.397	-3
300.453	-564
300.510	-450
300.566	-350
300.622	-882
300.678	-499
300.734	2636
300.790	5573
300.845	8935
300.901	3967
300.957	5135
301.013	3367
301.069	442
301.125	-428
301.181	67
301.237	-510
301.293	-1172
301.349	-1285
301.405	-1312
301.461	-877
301.516	-435
301.572	-778
301.628	456
301.684	51
301.740	1246
301.796	3469
301.851	2503
301.907	3571
301.963	4297
302.019	8993
302.074	31859
302.130	31413
302.186	12253
302.242	3550
302.297	1574
302.353	1859
302.409	3681
302.464	3398
302.520	2307
302.576	9050
302.631	11319
302.687	5393
302.743	1397
302.798	-10
302.854	-482
302.910	-474
302.965	809
303.021	1209
303.076	937
303.132	1345
303.187	1789
303.243	-408
303.299	-113
303.354	-858
303.410	-267
303.465	-1083
303.521	-918
303.576	-492
303.632	-94
303.687	1856
303.743	8647
303.798	8223
303.853	2070
303.909	270
303.964	352
304.020	321
304.075	704
304.130	873
304.186	2136
304.241	3545
304.297	1640
304.352	886
304.358	783
304.407	-56
304.449	-135
304.463	-160
304.518	31
304.539	38
304.573	35
304.629	-257
304.630	-229
304.684	1182
304.720	5171
304.739	7094
304.794	11425
304.811	9846
304.850	6044
304.902	962
304.905	640
304.960	572
304.992	356
305.015	152
305.071	423
305.083	150
305.126	-727
305.173	-824
305.181	-846
305.236	-949
305.264	-364
305.292	207
305.347	-497
305.354	-381
305.402	417
305.445	200
305.457	134
305.512	737
305.535	618
305.567	488
305.622	352
305.626	472
305.678	3612
305.716	8503
305.733	9942
305.788	12471
305.807	10536
305.843	7935
305.897	11090
305.898	11105
305.953	10772
305.988	6517
306.008	4473
306.063	1699
306.078	1560
306.118	1340
306.168	109
306.173	19
306.228	840
306.259	348
306.283	-85
306.338	667
306.349	547
306.393	139
306.440	538
306.448	642
306.503	925
306.530	1182
306.558	2500
306.613	7406
306.620	7982
306.668	9964
306.711	11658
306.723	11541
306.778	7971
306.801	5443
306.833	3074
306.888	1348
306.892	1225
306.943	406
306.982	463
306.997	525
307.052	1135
307.072	988
307.107	1224
307.162	2873
307.163	2884
307.217	5147
307.253	7125
307.272	7314
307.327	6884
307.343	6035
307.381	4693
307.434	3758
307.436	3952
307.491	10063
307.524	15229
307.546	15264
307.600	11408
307.614	9596
307.655	5845
307.704	2594
307.710	2632
307.765	4509
307.795	6269
307.819	7884
307.874	14399
307.885	14565
307.929	9979
307.975	4859
307.984	4812
308.038	5817
308.065	7039
308.093	16003
308.148	37220
308.156	41994
308.202	60716
308.246	72036
308.257	69345
308.312	33966
308.336	20619
308.366	15142
308.421	9488
308.426	9005
308.475	5658
308.517	3576
308.530	3229
308.585	3155
308.607	2969
308.639	3436
308.694	4311
308.697	4416
308.748	13266
308.787	21511
308.803	20433
308.857	13037
308.877	9520
308.912	7466
308.967	6007
308.967	5981
309.021	7397
309.058	8655
309.076	11466
309.130	21041
309.148	24628
309.185	57171
309.238	113016
309.239	113142
309.293	108986
309.328	89997
309.348	75213
309.402	29526
309.418	18403
309.457	12098
309.508	7727
309.511	7631
309.566	6786
309.598	6853
309.620	7775
309.674	10648
309.688	11398
309.729	10078
309.778	7095
309.783	6947
309.837	5533
309.868	4749
309.892	6821
309.946	12754
309.959	14279
310.001	17574
310.049	20477
310.055	19737
310.109	11595
310.139	6678
310.163	5269
310.218	3226
310.229	2853
310.272	2694
310.319	2707
310.326	2695
310.381	2571
310.409	2465
310.435	2488
310.489	2466
310.499	2486
310.543	3397
310.589	4191
310.598	4155
310.652	3973
310.679	3740
310.706	3286
310.760	2456
310.769	2304
310.814	1836
310.859	1368
310.868	1412
310.923	1827
310.948	1885
310.977	2074
311.031	2505
311.038	2568
311.085	2370
311.128	2000
311.139	2000
311.193	2092
311.218	2059
311.247	2178
311.301	2399
311.308	2430
311.356	2816
311.398	3053
311.410	2859
311.464	1855
311.488	1383
311.518	1795
311.572	2548
311.578	2624
311.626	3388
311.668	3992
311.680	4160
311.734	4856
311.758	5136
311.788	4748
311.842	3981
311.847	3883
311.896	5748
311.937	7350
311.950	6958
312.004	5113
312.027	4269
312.058	3804
312.112	2969
312.117	2877
312.165	2992
312.207	3073
312.297	5189
312.386	3123
312.476	2771
312.566	4942
312.656	2745
312.745	2068
312.835	3440
312.925	3351
313.015	2856
313.104	4192
313.194	2434
313.284	1838
313.374	2028
313.463	3027
313.553	2408
313.643	2136
313.732	1504
313.822	2087
313.912	2315
314.001	3613
314.091	3430
314.180	5315
314.270	3806
314.360	5433
314.449	3198
314.539	2189
314.628	2092
314.718	3229
314.808	4610
314.897	2180
314.987	1700
315.076	2646
315.166	4757
315.255	4374
315.345	4052
315.434	3847
315.524	4126
315.613	3558
315.703	3441
315.792	3459
315.881	3555
315.971	2115
316.060	8455
316.150	16518
316.239	17399
316.328	4955
316.418	2551
316.507	1233
316.597	2665
316.686	2579
316.775	8619
316.865	18442
316.954	2287
317.043	2594
317.133	1329
317.222	1456
317.311	2166
317.400	558
317.490	3652
317.579	1536
317.668	1382
317.757	2701
317.847	3515
317.936	5034
318.025	5684
318.114	3005
318.203	3600
318.293	6130
318.382	10715
318.471	8332
318.560	16512
318.649	35592
318.738	4866
318.828	4425
318.917	4428
319.006	7061
319.095	20111
319.184	44629
319.273	15824
319.362	6549
319.451	2596
319.540	3210
319.629	6408
319.718	8841
319.807	4647
319.896	14562
319.985	52815
320.074	12406
320.163	5406
320.252	10672
320.341	7962
320.430	5418
320.519	5634
320.608	2959
320.697	3246
320.786	2505
320.875	2518
320.964	4121
321.053	5518
321.142	8863
321.230	8147
321.319	8108
321.408	18197
321.497	7832
321.586	8065
321.675	16235
321.764	12103
321.852	8218
321.941	10136
322.030	5863
322.119	8480
322.207	20173
322.296	23376
322.385	8940
322.474	7578
322.562	21043
322.651	10168
322.740	8761
322.829	15721
322.917	23565
323.006	7569
323.095	6431
323.183	7308
323.272	9418
323.361	21310
323.449	65607
323.538	19291
323.626	50528
323.715	23237
323.804	11361
323.892	45587
323.981	16636
324.069	6784
324.158	29243
324.246	19547
324.335	4936
324.424	5305
324.512	2629
324.601	3590
324.689	6019
324.778	10756
324.866	15413
324.954	3340
325.043	3978
325.131	10663
325.220	21379
325.308	22317
325.397	15213
325.485	7449
325.574	2410
325.662	2492
325.750	1834
325.839	2455
325.927	1911
326.015	3503
326.104	9166
326.192	10405
326.280	2492
326.369	2210
326.457	2668
326.545	5614
326.634	2092
326.722	1893
326.810	1725
326.898	1815
326.987	2808
327.075	4650
327.163	7899
327.251	3669
327.340	3724
327.428	3876
327.516	1725
327.604	2147
327.692	3639
327.781	5089
327.869	8435
327.957	3821
328.045	2221
328.133	2204
328.221	3431
328.309	2420
328.397	2549
328.485	1984
328.574	3142
328.662	10411
328.750	8077
328.838	3501
328.926	2069
329.014	2251
329.102	2116
329.190	10251
329.278	4778
329.366	1705
329.454	1712
329.542	1459
329.630	811
329.718	2124
329.806	1654
329.893	2426
329.981	1896
330.069	2167
330.157	7138
330.245	20167
330.333	8669
330.421	1681
330.509	3584
330.597	11794
330.684	7611
330.772	4879
330.860	8822
330.948	11056
331.036	3265
331.123	1450
331.211	1881
331.299	2587
331.387	10167
331.475	13873
331.562	4286
331.650	1868
331.738	3005
331.825	5593
331.913	2330
332.001	1425
332.089	3768
332.176	8977
332.264	28054
332.352	15753
332.439	3609
332.527	2607
332.614	3016
332.702	4821
332.790	3082
332.877	12073
332.965	20940
333.052	3424
333.140	4557
333.228	7614
333.315	2835
333.403	2508
333.490	15877
333.578	8229
333.665	5332
333.753	3211
333.840	1910
333.928	3674
334.015	15547
334.103	22201
334.190	61357
334.278	11429
334.365	5052
334.452	2661
334.540	2489
334.627	4286
334.715	5475
334.802	13767
334.889	89063
334.977	64248
335.064	5532
335.151	2618
335.239	4139
335.326	5809
335.413	32433
335.501	33448
335.588	3272
335.675	2674
335.762	5129
335.850	8182
335.937	3760
336.024	17597
336.111	81197
336.199	22110
336.286	3085
336.373	1750
336.460	1366
336.547	1940
336.635	3496
336.722	2214
336.809	2865
336.896	3453
336.983	17665
337.070	43385
337.157	58669
337.245	56733
337.332	31969
337.419	3939
337.506	2291
337.593	2915
337.680	16567
337.767	42712
337.854	10140
337.941	13340
338.028	18901
338.115	4400
338.202	5866
338.289	16439
338.376	54070
338.463	12665
338.550	29010
338.637	23168
338.724	12675
338.811	17615
338.898	3483
338.984	2682
339.071	2516
339.158	3192
339.245	6742
339.332	4556
339.419	12730
339.506	10198
339.593	812
339.679	1441
339.766	523
339.853	2095
339.940	3859
340.027	1626
340.113	1422
340.200	2230
340.287	2138
340.374	2379
340.460	3549
340.547	528
340.634	3494
340.720	12279
340.807	4841
340.894	1705
340.980	975
341.067	1105
341.154	2298
341.240	2602
341.327	4998
341.414	2186
341.500	1438
341.587	1417
341.674	2075
341.760	3479
341.847	3684
341.933	621
342.020	-37
342.106	1163
342.193	1372
342.279	3577
342.366	2285
342.452	3098
342.539	1449
342.625	5704
342.712	12119
342.798	4453
342.885	1828
342.971	510
343.058	491
343.144	877
343.230	1421
343.317	1216
343.403	1092
343.490	827
343.576	801
343.662	1119
343.749	1041
343.835	1784
343.921	4632
344.008	36591
344.094	68331
344.180	11878
344.267	4504
344.353	21182
344.439	21862
344.525	5851
344.612	3125
344.698	2238
344.784	572
344.870	1005
344.957	1998
345.043	2983
345.129	897
345.215	3293
345.301	1897
345.387	1242
345.474	517
345.560	1389
345.646	2166
345.732	1913
345.818	1097
345.904	1390
345.990	1361
346.076	3458
346.162	7183
346.249	1567
346.335	602
346.421	1743
346.507	9201
346.593	27092
346.679	3809
346.765	1916
346.851	1452
346.937	695
347.023	1660
347.108	1809
347.194	1504
347.280	1407
347.366	2018
347.452	8258
347.538	33192
347.624	23622
347.710	18976
347.796	2710
347.882	1398
347.967	2143
348.053	2639
348.139	1836
348.225	710
348.311	938
348.397	926
348.482	2422
348.568	1904
348.654	-719
348.740	338
348.825	-680
348.911	3686
348.997	18327
349.083	31967
349.168	4295
349.254	771
349.340	1120
349.425	859
349.511	1296
349.597	1854
349.682	4748
349.768	16650
349.854	6397
349.939	1349
350.025	702
350.110	609
350.196	1049
350.282	288
350.367	796
350.453	4732
350.538	3693
350.624	1440
350.709	1692
350.795	317
350.880	945
350.966	1829
351.051	4477
351.137	2842
351.222	1201
351.308	4976
351.393	12047
351.479	2350
351.564	-67
351.649	1106
351.735	-11
351.820	1005
351.906	232
351.991	2264
352.076	9014
352.162	11572
352.247	1645
352.332	1567
352.418	2159
352.503	4812
352.588	20282
352.673	12596
352.759	2081
352.844	357
352.929	1302
353.014	1429
353.100	942
353.185	2219
353.270	3205
353.355	3327
353.441	1301
353.526	2239
353.611	3579
353.696	3196
353.781	2250
353.866	419
353.952	841
354.037	3272
354.122	8051
354.207	6623
354.292	2447
354.377	639
354.462	825
354.547	829
354.632	1603
354.717	2907
354.802	1772
354.887	1776
354.972	645
355.057	357
355.142	412
355.227	823
355.312	1822
355.397	5048
355.482	12312
355.567	5451
355.652	4971
355.737	5424
355.822	20073
355.907	13104
355.991	2410
356.076	542
356.161	1339
356.246	636
356.331	920
356.416	4376
356.501	38744
356.585	31972
356.670	2415
356.755	3085
356.840	2990
356.924	25669
357.009	81548
357.094	25170
357.179	3445
357.263	2812
357.348	3687
357.433	2913
357.517	2189
357.602	1660
357.687	590
357.771	2953
357.856	7592
357.941	5053
358.025	20343
358.110	81678
358.195	29172
358.279	3711
358.364	2686
358.448	12520
358.533	32983
358.617	20563
358.702	22556
358.787	6600
358.871	3551
358.956	2604
359.040	260
359.125	716
359.209	879
359.294	3084
359.378	5007
359.462	2165
359.547	2563
359.631	1558
359.716	134
359.800	1195
359.885	4180
359.969	960
360.053	981
360.138	-10
360.222	1844
360.306	2764
360.391	2504
360.475	5731
360.559	10108
360.644	11099
360.728	6142
360.812	21602
360.896	52428
360.981	19083
361.065	9269
361.149	2038
361.233	1403
361.318	488
361.402	1753
361.486	1533
361.570	733
361.654	1086
361.739	6406
361.823	35776
361.907	49470
361.991	6030
362.075	2906
362.159	6469
362.243	4976
362.327	1735
362.411	3332
362.495	2551
362.580	805
362.664	396
362.748	617
362.832	1439
362.916	-453
363.000	4714
363.084	32208
363.168	55529
363.252	9089
363.336	4370
363.420	7249
363.503	39329
363.587	41321
363.671	4693
363.755	2056
363.839	4656
363.923	692
364.007	3869
364.091	5400
364.175	13305
364.258	58771
364.342	21513
364.426	5764
364.510	2126
364.594	6184
364.677	11530
364.761	46839
364.845	29417
364.929	6893
365.013	4722
365.096	3963
365.180	4296
365.264	18472
365.347	62110
365.431	23651
365.515	4906
365.598	1671
365.682	1967
365.766	5755
365.849	6993
365.933	2090
366.017	5495
366.100	3440
366.184	761
366.267	3025
366.351	701
366.435	343
366.518	-188
366.602	379
366.685	-203
366.769	1003
366.852	5063
366.936	6868
367.019	2291
367.103	3892
367.186	9121
367.270	1533
367.353	-932
367.436	1007
367.520	-154
367.603	703
367.687	1028
367.770	3187
367.853	3074
367.937	13473
368.020	19319
368.104	3128
368.187	3565
368.270	4988
368.353	4339
368.437	13658
368.520	36206
368.603	14491
368.687	15038
368.770	24031
368.853	5286
368.936	6923
369.020	7329
369.103	978
369.186	820
369.269	1010
369.352	3115
369.436	4503
369.519	2039
369.602	-885
369.685	2667
369.768	901
369.851	1420
369.934	812
370.018	1562
370.101	2781
370.184	3793
370.267	2965
370.350	4148
370.433	8990
370.516	24166
370.599	24463
370.682	4049
370.765	12199
370.848	17610
370.931	32308
371.014	12999
371.097	765
371.180	1327
371.263	759
371.346	-1083
371.429	1488
371.511	708
371.594	2434
371.677	5989
371.760	8449
371.843	4327
371.926	29533
372.009	60049
372.091	18189
372.174	14759
372.257	35331
372.340	11561
372.423	10467
372.505	14231
372.588	4141
372.671	10189
372.754	30431
372.836	14054
372.919	20009
373.002	35137
373.085	7102
373.167	4196
373.250	13609
373.332	32365
373.415	47293
373.498	85725
373.580	28399
373.663	39029
373.746	48588
373.828	8478
373.911	4796
373.993	7748
374.076	37302
374.159	32676
374.241	11134
374.324	25308
374.406	16144
374.489	30458
374.571	75274
374.654	27255
374.736	15192
374.819	49720
374.901	68894
374.983	63179
375.066	9522
375.148	4659
375.231	29927
375.313	54016
375.395	16060
375.478	2102
375.560	2203
375.643	3401
375.725	16977
375.807	62170
375.890	56460
375.972	28562
376.054	15444
376.136	29874
376.219	10696
376.301	20016
376.383	48034
376.465	17009
376.548	6510
376.630	13984
376.712	39785
376.794	16111
376.877	1718
376.959	127
377.041	1532
377.123	7532
377.205	8723
377.287	525
377.369	405
377.452	1083
377.534	255
377.616	69
377.698	555
377.780	145
377.862	1088
377.944	1744
378.026	-860
378.108	968
378.190	812
378.272	411
378.354	138
378.436	172
378.518	3130
378.600	12927
378.682	9810
378.764	17178
378.846	12553
378.928	3454
379.010	2940
379.091	2463
379.173	871
379.255	104
379.337	1062
379.419	8408
379.501	24212
379.583	8970
379.664	2227
379.746	4431
379.828	17621
379.910	22920
379.991	18854
380.073	2087
380.155	1170
380.237	-170
380.318	543
380.400	637
380.482	2968
380.564	4190
380.645	4018
380.727	3598
380.809	2588
380.890	1426
380.972	-199
381.053	912
381.135	1641
381.217	5441
381.298	16702
381.380	7398
381.461	9999
381.543	40991
381.624	44639
381.706	5371
381.787	3447
381.869	4868
381.951	20532
382.032	70006
382.113	39708
382.195	5637
382.276	5220
382.358	11805
382.439	34789
382.521	45490
382.602	63254
382.684	26532
382.765	45141
382.846	37346
382.928	35053
383.009	16596
383.090	12444
383.172	53243
383.253	80144
383.334	33677
383.416	51041
383.497	23198
383.578	4878
383.659	10925
383.741	48961
383.822	125463
383.903	58964
383.984	31141
384.066	60710
384.147	32829
384.228	5006
384.309	2812
384.390	1861
384.471	1559
384.553	2385
384.634	3314
384.715	4189
384.796	1629
384.877	2560
384.958	15314
385.039	16374
385.120	4681
385.201	2860
385.282	3798
385.363	4915
385.444	3064
385.525	8455
385.606	30201
385.687	23955
385.768	5910
385.849	7329
385.930	33419
386.011	50825
386.092	11248
386.173	2060
386.254	3099
386.335	3389
386.416	2747
386.496	11076
386.577	16702
386.658	6998
386.739	3445
386.820	5281
386.901	3133
386.981	2938
387.062	630
387.143	2826
387.224	16112
387.304	14959
387.385	4870
387.466	3131
387.547	5743
387.627	1426
387.708	7818
387.789	32987
387.869	37593
387.950	9345
388.031	856
388.111	63
388.192	9861
388.273	15601
388.353	6775
388.434	2771
388.514	7331
388.595	36591
388.676	40099
388.756	17049
388.837	14509
388.917	6913
388.998	-172
389.078	1843
389.159	1410
389.239	-575
389.320	2942
389.400	1076
389.480	9067
389.561	20176
389.641	8707
389.722	2459
389.802	3425
389.883	9802
389.963	25112
390.043	17777
390.124	6030
390.204	7036
390.284	17698
390.365	12240
390.445	29890
390.525	71890
390.605	52054
390.686	9610
390.766	2931
390.846	2102
390.927	231
391.007	305
391.087	2381
391.167	1800
391.247	292
391.328	5748
391.408	9003
391.488	5516
391.568	-143
391.648	1165
391.728	2245
391.808	2850
391.888	2836
391.969	10762
392.049	15277
392.129	8658
392.209	8874
392.289	22218
392.369	12282
392.449	15296
392.529	7559
392.609	3600
392.689	7105
392.769	20578
392.849	15537
392.929	14745
393.009	33673
393.089	16703
393.169	5343
393.248	15376
393.328	83169
393.408	83380
393.488	12559
393.568	2787
393.648	953
393.728	811
393.807	643
393.887	898
393.967	1014
394.047	1633
394.127	2900
394.206	6964
394.286	38383
394.366	166040
394.446	163961
394.525	28699
394.605	5601
394.685	6962
394.764	22715
394.844	36952
394.924	22220
395.003	3593
395.083	1794
395.163	2333
395.242	1363
395.322	1652
395.402	407
395.481	4140
395.561	14484
395.640	37485
395.720	24727
395.799	43184
395.879	31690
395.958	12226
396.038	55786
396.117	222798
396.197	221829
396.276	54236
396.356	15885
396.435	13085
396.515	5974
396.594	2305
396.673	5960
396.753	22462
396.832	75132
396.912	58717
396.991	14156
397.070	2886
397.150	840
397.229	1573
397.308	520
397.388	1054
397.467	255
397.546	1422
397.625	-1147
397.705	1719
397.784	1030
397.863	580
397.942	433
398.022	1514
398.101	13755
398.180	41636
398.259	20782
398.338	3822
398.417	969
398.497	792
398.576	2349
398.655	-295
398.734	1056
398.813	1064
398.892	14553
398.971	45773
399.050	19786
399.129	610
399.208	968
399.287	932
399.366	451
399.445	114
399.524	528
399.603	-1061
399.682	1990
399.761	12344
399.840	46917
399.919	35265
399.998	3480
400.077	-431
400.156	-695
400.235	3284
400.313	299
400.392	894
400.471	8672
400.550	12061
400.629	2714
400.708	2193
400.786	1974
400.865	9727
400.944	9067
401.023	4052
401.102	-737
401.180	-402
401.259	718
401.338	1428
401.416	986
401.495	970
401.574	2030
401.652	49
401.731	2256
401.810	444
401.888	-42
401.967	-190
402.046	-468
402.124	2717
402.203	1540
402.281	1018
402.360	2506
402.438	12259
402.517	7215
402.596	2235
402.674	1944
402.753	980
402.831	716
402.910	1511
402.988	6198
403.066	19733
403.145	11284
403.223	6670
403.302	14248
403.380	11199
403.459	9248
403.537	3850
403.615	659
403.694	-886
403.772	432
403.850	189
403.929	328
404.007	96
404.085	2007
404.164	727
404.242	183
404.320	1509
404.398	6913
404.477	15349
404.555	51707
404.633	41679
404.711	7836
404.789	3303
404.868	519
404.946	-164
405.024	-1
405.102	-5
405.180	-1224
405.258	-1164
405.336	786
405.415	102
405.493	2908
405.571	2120
405.649	-744
405.727	-628
405.805	1534
405.883	509
405.961	2577
406.039	2892
406.117	170
406.195	1512
406.273	11372
406.351	40552
406.429	23521
406.507	4000
406.585	660
406.663	606
406.740	1010
406.818	44
406.896	-702
406.974	953
407.052	2853
407.130	23650
407.208	30372
407.285	5682
407.363	-74
407.441	532
407.519	-446
407.596	-151
407.674	1371
407.752	5550
407.830	9595
407.907	5625
407.985	-332
408.063	82
408.141	-257
408.218	3584
408.296	1950
408.373	-673
408.451	734
408.529	402
408.606	-626
408.684	-785
408.762	-457
408.839	-1192
408.917	-157
408.994	-835
409.072	-1136
409.149	-766
409.227	316
409.304	-151
409.382	-1053
409.459	-422
409.537	472
409.614	176
409.692	-730
409.769	-415
409.846	-1056
409.924	1758
410.001	-1678
410.079	356
410.156	1182
410.233	232
410.311	231
410.388	-721
410.465	435
410.543	94
410.620	-204
410.697	154
410.775	34
410.852	-1435
410.929	697
411.006	1093
411.083	-969
411.161	2016
411.238	3413
411.315	1839
411.392	18
411.469	1123
411.547	1020
411.624	-1174
411.701	-325
411.778	-264
411.855	1136
411.932	570
412.009	-627
412.086	375
412.163	569
412.240	1349
412.317	1781
412.394	1233
412.471	-94
412.548	-949
412.625	-735
412.702	789
412.779	2888
412.856	1261
412.933	-622
413.010	92
413.087	814
413.164	6874
413.241	9673
413.318	684
413.395	1204
413.471	954
413.548	356
413.625	275
413.702	343
413.779	689
413.855	-693
413.932	-1184
414.009	-782
414.086	-698
414.162	487
414.239	1468
414.316	7694
414.393	17073
414.469	4137
414.546	156
414.623	145
414.699	66
414.776	-325
414.853	-996
414.929	137
415.006	530
415.082	876
415.159	205
415.236	-382
415.312	319
415.389	629
415.465	625
415.542	492
415.618	-19
415.695	1463
415.771	-301
415.848	497
415.924	812
416.000	522
416.077	-82
416.153	-1483
416.230	-1520
416.306	-576
416.383	-171
416.459	-29
416.535	-1209
416.612	-1225
416.688	-869
416.764	-172
416.841	-894
416.917	300
416.993	359
417.069	254
417.146	595
417.222	747
417.298	-232
417.374	-464
417.451	769
417.527	-604
417.603	299
417.679	-529
417.755	-153
417.831	-875
417.908	-726
417.984	22
418.060	-830
418.136	1037
418.212	1421
418.288	-336
418.364	342
418.440	-359
418.516	1303
418.592	2103
418.668	4403
418.744	3692
418.820	2407
418.896	328
418.972	-584
419.048	-647
419.124	1454
419.200	-410
419.276	-799
419.352	-1002
419.428	-199
419.504	-464
419.579	133
419.655	-627
419.731	295
419.807	1983
419.883	3977
419.959	2224
420.034	1195
420.110	2132
420.186	9389
420.262	6407
420.337	490
420.413	357
420.489	-402
420.565	599
420.640	-548
420.716	568
420.792	-2280
420.867	-112
420.943	-560
421.019	-404
421.094	-783
421.170	15
421.245	-1177
421.321	-824
421.397	-955
421.472	-248
421.548	924
421.623	1925
421.699	-168
421.774	-463
421.850	-525
421.925	732
422.001	-836
422.076	-532
422.152	-997
422.227	-29
422.302	181
422.378	-280
422.453	117
422.529	4058
422.604	25762
422.679	59128
422.755	26259
422.830	2263
422.905	21
422.981	-1015
423.056	-750
423.131	73
423.207	-38
423.282	-734
423.357	1566
423.432	407
423.508	1310
423.583	2820
423.658	1973
423.733	-149
423.808	1117
423.883	-283
423.959	-255
424.034	-2027
424.109	-152
424.184	-947
424.259	-936
424.334	-203
424.409	-801
424.484	-287
424.559	-1179
424.634	-634
424.709	-1297
424.784	556
424.859	-957
424.934	954
425.009	6673
425.084	10195
425.159	2568
425.234	548
425.309	-998
425.384	1221
425.459	713
425.534	-264
425.609	-606
425.683	-500
425.758	71
425.833	6
425.908	315
425.983	3863
426.058	10816
426.132	3407
426.207	948
426.282	2999
426.357	1600
426.431	-879
426.506	-231
426.581	329
426.655	807
426.730	-8
426.805	-1008
426.879	413
426.954	-183
427.029	1695
427.103	14579
427.178	33134
427.253	14413
427.327	1145
427.402	2555
427.476	6062
427.551	805
427.625	110
427.700	356
427.774	-460
427.849	799
427.923	-297
427.998	-745
428.072	-317
428.147	2152
428.221	3581
428.296	5352
428.370	497
428.444	797
428.519	3324
428.593	8567
428.667	6907
428.742	8692
428.816	6515
428.890	10724
428.965	11670
429.039	7633
429.113	9691
429.188	2578
429.262	-317
429.336	1408
429.410	4853
429.485	4295
429.559	7089
429.633	4837
429.707	228
429.781	3195
429.855	16678
429.930	20347
430.004	23039
430.078	43316
430.152	27814
430.226	6632
430.300	3818
430.374	84
430.448	2138
430.522	14661
430.596	39440
430.670	20004
430.744	20611
430.818	32360
430.892	7132
430.966	-313
431.040	-215
431.114	-884
431.188	-669
431.262	-402
431.336	353
431.410	4104
431.484	9657
431.557	5455
431.631	-388
431.705	-452
431.779	-285
431.853	3661
431.927	1330
432.000	16
432.074	-4
432.148	651
432.222	-208
432.295	-88
432.369	342
432.443	1526
432.516	16406
432.590	35874
432.664	12683
432.737	1170
432.811	-1134
432.885	-783
432.958	-335
433.032	-1309
433.106	-549
433.179	-1470
433.253	-118
433.326	-1087
433.400	-890
433.473	-469
433.547	-1388
433.620	-175
433.694	-191
433.767	671
433.841	-708
433.914	-964
433.988	-799
434.061	-414
434.134	-382
434.208	-862
434.281	-1821
434.355	-832
434.428	80
434.501	-1604
434.575	-1095
434.648	-523
434.721	-1036
434.795	-1285
434.868	-1087
434.941	-1274
435.014	-1608
435.088	-1219
435.161	-197
435.234	65
435.307	106
435.381	-523
435.454	-955
435.527	-869
435.600	-534
435.673	-768
435.746	-870
435.819	-937
435.892	-291
435.966	-1136
436.039	-700
436.112	-219
436.185	-1507
436.258	-663
436.331	-1206
436.404	-1366
436.477	-1084
436.550	-1476
436.623	-967
436.696	-1506
436.769	-711
436.842	-83
436.915	-241
436.987	176
437.060	-744
437.133	-683
437.206	-1457
437.279	-407
437.352	-1541
437.425	-1719
437.498	-351
437.570	992
437.643	129
437.716	-294
437.789	-1419
437.861	431
437.934	3211
438.007	1579
438.080	-905
438.152	-150
438.225	2407
438.298	23180
438.370	53953
438.443	20850
438.516	3043
438.588	-325
438.661	-1293
438.734	-782
438.806	61
438.879	177
438.951	-694
439.024	1802
439.096	-320
439.169	-713
439.241	-1654
439.314	-287
439.386	341
439.459	1770
439.531	3861
439.604	-258
439.676	-804
439.749	-305
439.821	-1076
439.893	-817
439.966	-533
440.038	-121
440.110	713
440.183	-1152
440.255	-831
440.327	-145
440.400	8942
440.472	32890
440.544	18302
440.617	1873
440.689	1471
440.761	1881
440.833	2804
440.905	1469
440.978	-842
441.050	-200
441.122	-136
441.194	-615
441.266	-484
441.338	-1460
441.411	70
441.483	8653
441.555	11478
441.627	2259
441.699	2166
441.771	1741
441.843	-1068
441.915	-770
441.987	-1152
442.059	-551
442.131	25
442.203	891
442.275	869
442.347	635
442.419	-621
442.491	354
442.563	935
442.635	4116
442.706	9059
442.778	6225
442.850	-38
442.922	-770
442.994	-219
443.066	-217
443.137	176
443.209	-679
443.281	-125
443.353	1047
443.425	2391
443.496	3936
443.568	3007
443.640	911
443.711	-99
443.783	-409
443.855	-164
443.926	-840
443.998	-762
444.070	819
444.141	182
444.213	-127
444.285	1367
444.356	1440
444.428	908
444.499	-187
444.571	-198
444.642	-527
444.714	-756
444.785	-126
444.857	2434
444.928	7941
445.000	3838
445.071	4185
445.143	4306
445.214	2108
445.285	3235
445.357	11002
445.428	9099
445.500	11953
445.571	12695
445.642	4483
445.714	7690
445.785	11603
445.856	2050
445.928	800
445.999	-51
446.070	728
446.141	270
446.213	1321
446.284	-91
446.355	650
446.426	89
446.497	-319
446.569	1912
446.640	2011
446.711	1031
446.782	126
446.853	1370
446.924	968
446.995	-125
447.066	-48
447.138	2147
447.209	312
447.280	-597
447.351	-754
447.422	-1075
447.493	30
447.564	1206
447.635	174
447.706	280
447.777	-454
447.847	-475
447.918	-1288
447.989	682
448.060	1326
448.131	5532
448.202	4114
448.273	572
448.344	148
448.414	-477
448.485	-451
448.556	-793
448.627	-432
448.698	193
448.768	-609
448.839	-825
448.910	1685
448.981	1663
449.051	163
449.122	-636
449.193	-631
449.263	108
449.334	-682
449.405	-795
449.475	1446
449.546	1376
449.616	2193
449.687	2006
449.758	180
449.828	-168
449.899	-1258
449.969	-351
450.040	-623
450.110	355
450.181	883
450.251	-386
450.322	-604
450.392	55
450.463	-946
450.533	-1034
450.604	-1292
450.674	-383
450.744	50
450.815	-487
450.885	396
450.955	-62
451.026	-722
451.096	-898
451.166	674
451.237	2844
451.307	9302
451.377	2441
451.447	-646
451.518	-1163
451.588	-273
451.658	-317
451.728	1058
451.799	10583
451.869	12223
451.939	498
452.009	-952
452.079	-356
452.149	-337
452.219	2107
452.289	12354
452.360	7371
452.430	487
452.500	446
452.570	79
452.640	636
452.710	5332
452.780	9866
452.850	4376
452.920	2505
452.990	572
453.060	551
453.129	-348
453.199	1569
453.269	15063
453.339	29257
453.409	43502
453.479	44996
453.549	67863
453.619	69065
453.688	24029
453.758	2633
453.828	496
453.898	380
453.968	982
454.037	-570
454.087	-708
454.107	-769
454.168	-871
454.177	-897
454.247	-586
454.249	-592
454.316	-871
454.330	-619
454.386	261
454.411	1890
454.456	4594
454.492	6477
454.525	8193
454.574	3679
454.595	1725
454.655	-90
454.665	-387
454.734	288
454.736	354
454.804	2343
454.817	4063
454.873	11133
454.898	11576
454.943	12457
454.979	8117
455.013	4215
455.060	1829
455.082	766
455.141	1283
455.152	1358
455.221	7782
455.222	7871
455.291	14099
455.303	13196
455.360	9095
455.384	10823
455.430	13438
455.465	11126
455.499	9109
455.546	9021
455.569	8946
455.627	5626
455.638	5047
455.707	-266
455.708	-260
455.777	-208
455.789	-166
455.846	57
455.869	-186
455.916	-667
455.950	-465
455.985	-333
456.031	-726
456.054	-898
456.112	-152
456.124	3
456.193	215
456.193	209
456.262	553
456.274	718
456.332	1325
456.355	1291
456.401	1195
456.436	916
456.470	574
456.516	-475
456.540	-926
456.597	-1023
456.609	-1068
456.678	-30
456.678	-31
456.747	-384
456.759	-454
456.817	-724
456.840	-661
456.886	-466
456.920	-206
456.955	-82
457.001	97
457.024	262
457.082	683
457.093	773
457.162	1148
457.163	1160
457.232	1860
457.243	1551
457.301	478
457.324	102
457.370	-582
457.405	-422
457.439	-361
457.485	-214
457.508	-25
457.566	-9
457.577	-55
457.646	7
457.647	10
457.715	289
457.727	412
457.784	803
457.808	461
457.853	-168
457.889	156
457.922	487
457.969	291
457.991	134
458.050	206
458.060	194
458.129	-302
458.130	-297
458.198	2
458.211	68
458.267	247
458.292	17
458.336	-382
458.372	-61
458.405	283
458.453	-126
458.474	-364
458.533	489
458.543	667
458.611	1141
458.614	1161
458.680	1007
458.694	895
458.749	282
458.775	-23
458.818	-192
458.855	-56
458.887	-12
458.936	-403
458.955	-530
459.016	5
459.024	60
459.093	290
459.097	313
459.162	753
459.177	750
459.230	474
459.257	240
459.299	353
459.338	977
459.368	1023
459.418	754
459.437	704
459.499	445
459.505	451
459.574	170
459.579	176
459.643	130
459.659	43
459.711	68
459.740	288
459.780	320
459.820	658
459.849	816
459.900	336
459.917	231
459.981	771
459.986	821
460.054	538
460.061	549
460.123	601
460.141	639
460.191	971
460.222	1186
460.260	1079
460.302	1205
460.328	1320
460.382	752
460.397	584
460.462	137
460.465	137
460.534	648
460.543	635
460.602	1065
460.623	1599
460.671	3191
460.703	4332
460.739	3999
460.783	3052
460.808	2880
460.864	1005
460.876	672
460.944	391
460.945	391
461.013	847
461.024	827
461.081	677
461.104	810
461.150	673
461.184	545
461.218	746
461.264	704
461.286	618
461.345	549
461.355	480
461.423	-32
461.425	-36
461.491	518
461.505	617
461.559	2386
461.585	3345
461.628	4884
461.665	6800
461.696	7458
461.745	9884
461.764	9670
461.825	3824
461.832	3584
461.901	1047
461.905	1065
461.969	224
461.985	-15
462.037	1121
462.065	1755
462.105	1529
462.145	1284
462.173	1875
462.225	2987
462.241	3294
462.305	5995
462.310	5924
462.378	3684
462.385	3198
462.446	1515
462.465	1314
462.514	623
462.545	491
462.582	690
462.625	482
462.650	477
462.705	1022
462.718	965
462.785	190
462.786	203
462.854	1451
462.865	1671
462.922	2090
462.945	2424
462.990	2917
463.025	2439
463.058	1607
463.104	682
463.126	580
463.184	576
463.194	575
463.262	530
463.264	539
463.330	1006
463.344	1094
463.398	1283
463.424	1244
463.466	1309
463.504	1806
463.533	1956
463.583	1433
463.601	1387
463.663	1658
463.669	1672
463.737	1824
463.743	1862
463.805	3620
463.823	4079
463.873	6562
463.903	8233
463.940	8028
463.982	8631
464.008	7657
464.062	3275
464.076	2890
464.142	809
464.144	788
464.211	1103
464.221	1172
464.279	1481
464.301	1657
464.347	1676
464.381	1536
464.414	1786
464.461	2529
464.482	2403
464.540	1786
464.550	1817
464.617	1907
464.620	1908
464.685	1803
464.699	1777
464.753	2002
464.779	2184
464.820	2322
464.859	2463
464.888	2269
464.938	1730
464.956	1965
465.018	2979
465.023	2941
465.091	2171
465.098	2114
465.158	1798
465.177	1658
465.226	1659
465.257	1718
465.293	1873
465.336	1965
465.361	2473
465.416	3726
465.428	4037
465.495	5526
465.496	5552
465.563	8423
465.575	8956
465.631	9772
465.654	10339
465.698	7242
465.734	3655
465.765	2873
465.813	1930
465.833	1839
465.893	2039
465.900	1952
465.968	1193
465.972	1142
466.035	1774
466.052	1918
466.102	1761
466.131	1685
466.170	1337
466.210	976
466.237	1617
466.290	2885
466.304	2753
466.369	2055
466.372	2050
466.439	1860
466.449	1831
466.506	2307
466.528	2501
466.573	4685
466.607	6249
466.641	8435
466.687	11551
466.708	11973
466.766	13396
466.775	12431
466.842	4788
466.845	4419
466.909	2336
466.925	1915
466.977	1859
467.004	1881
467.044	2214
467.083	2562
467.111	2871
467.163	3419
467.178	3475
467.242	3704
467.245	3674
467.312	2985
467.321	2893
467.379	2979
467.400	3003
467.446	3643
467.480	4103
467.559	2736
467.638	2578
467.717	2415
467.796	3387
467.875	3105
467.955	2759
468.034	7094
468.113	13253
468.192	16525
468.271	3070
468.350	1725
468.429	2658
468.508	2837
468.588	1993
468.667	2049
468.746	3209
468.825	2262
468.904	3224
468.983	3848
469.062	4868
469.141	5961
469.220	2836
469.299	2796
469.378	1662
469.456	3094
469.535	2993
469.614	3087
469.693	2796
469.772	4265
469.851	6128
469.930	3164
470.009	2634
470.088	2016
470.166	2327
470.245	4217
470.324	3610
470.403	2895
470.482	2782
470.560	1953
470.639	2549
470.718	2995
470.797	2428
470.875	3187
470.954	4006
471.033	3934
471.111	1557
471.190	2268
471.269	1787
471.347	1557
471.426	2146
471.505	2380
471.583	2865
471.662	2734
471.740	1613
471.819	1834
471.898	2129
471.976	2327
472.055	1806
472.133	3104
472.212	3845
472.290	3379
472.369	2406
472.447	2137
472.526	1207
472.604	2592
472.683	2695
472.761	1366
472.839	2022
472.918	2682
472.996	2107
473.075	2546
473.153	1964
473.231	2785
473.310	2758
473.388	2330
473.466	2093
473.545	3329
473.623	3539
473.701	2894
473.780	2158
473.858	1115
473.936	3480
474.014	1795
474.093	2288
474.171	3612
474.249	6786
474.327	2582
474.405	1416
474.484	1517
474.562	2368
474.640	1433
474.718	2577
474.796	1560
474.874	1666
474.952	1248
475.030	1450
475.108	1978
475.187	2260
475.265	2275
475.343	3993
475.421	3351
475.499	993
475.577	3016
475.655	4076
475.733	7611
475.811	12515
475.889	10188
475.966	5983
476.044	2048
476.122	1982
476.200	3617
476.278	2146
476.356	2411
476.434	1904
476.512	2810
476.590	3517
476.667	2333
476.745	1668
476.823	1826
476.901	2310
476.979	2883
477.056	2411
477.134	2113
477.212	2550
477.290	2271
477.367	1469
477.445	974
477.523	1227
477.601	1346
477.678	2252
477.756	2649
477.834	3174
477.911	918
477.989	2210
478.066	1607
478.144	2173
478.222	2880
478.299	3640
478.377	2465
478.454	1772
478.532	1979
478.609	1779
478.687	2349
478.764	2411
478.842	1075
478.919	1431
478.997	1398
479.074	1426
479.152	1944
479.229	3704
479.307	1069
479.384	2194
479.461	1554
479.539	1382
479.616	1642
479.694	1935
479.771	1949
479.848	1623
479.926	2890
480.003	3897
480.080	1608
480.157	1514
480.235	1421
480.312	1404
480.389	1921
480.467	4516
480.544	4988
480.621	1738
480.698	2043
480.775	1901
480.853	2031
480.930	1774
481.007	1843
481.084	2732
481.161	2672
481.238	2465
481.315	1620
481.392	1671
481.470	1643
481.547	1443
481.624	1025
481.701	1798
481.778	2063
481.855	2102
481.932	3690
482.009	6452
482.086	2971
482.163	1603
482.240	2542
482.317	4969
482.393	2123
482.470	2763
482.547	2565
482.624	1787
482.701	2116
482.778	2227
482.855	596
482.932	1362
483.009	732
483.085	1805
483.162	1160
483.239	2003
483.316	98
483.393	2339
483.469	1766
483.546	2575
483.623	2302
483.699	1977
483.776	1121
483.853	1991
483.930	4442
484.006	11044
484.083	17490
484.160	6341
484.236	9884
484.313	7480
484.389	4431
484.466	5226
484.543	3901
484.619	4160
484.696	5495
484.772	5615
484.849	6458
484.925	4531
485.002	4489
485.078	5979
485.155	3995
485.231	4189
485.308	3501
485.384	5565
485.461	6630
485.537	10705
485.614	12427
485.690	4149
485.766	4683
485.843	5267
485.919	6070
485.995	5970
486.072	4458
486.148	4180
486.224	3319
486.301	4579
486.377	4855
486.453	4278
486.530	5672
486.606	6818
486.682	6638
486.758	9065
486.835	8424
486.911	8398
486.987	14680
487.063	12044
487.139	12951
487.215	8448
487.292	5038
487.368	4189
487.444	4924
487.520	5458
487.596	3897
487.672	4815
487.748	6143
487.824	5782
487.900	4003
487.976	4013
488.052	4751
488.128	5917
488.204	3651
488.280	5281
488.356	6438
488.432	13831
488.508	16650
488.584	5128
488.660	3377
488.736	3930
488.812	3781
488.888	4672
488.964	7140
489.039	15272
489.115	19750
489.191	8348
489.267	4044
489.343	2597
489.418	2989
489.494	2865
489.570	1460
489.646	4756
489.722	3469
489.797	3738
489.873	7684
489.949	15258
490.024	8863
490.100	3806
490.176	2757
490.251	3988
490.327	4270
490.403	2492
490.478	3275
490.554	2693
490.629	2242
490.705	2351
490.781	2434
490.856	2820
490.932	3008
491.007	3705
491.083	2731
491.158	3081
491.234	5663
491.309	11449
491.385	9320
491.460	2354
491.536	3614
491.611	2421
491.686	2953
491.762	4630
491.837	10247
491.913	15499
491.988	22944
492.063	20415
492.139	6901
492.214	4377
492.289	2200
492.365	1482
492.440	2587
492.515	2822
492.590	3377
492.666	1277
492.741	3819
492.816	4769
492.891	2212
492.967	2810
493.042	1769
493.117	2043
493.192	3319
493.267	7331
493.342	17733
493.418	18528
493.493	1768
493.568	1780
493.643	1822
493.718	4014
493.793	4684
493.868	4223
493.943	1761
494.018	2545
494.093	1450
494.168	1706
494.243	1663
494.318	1650
494.393	2307
494.468	1728
494.543	723
494.618	2091
494.693	688
494.768	1033
494.842	1151
494.917	1336
494.992	1974
495.067	1909
495.142	1687
495.217	1653
495.292	2040
495.366	2152
495.441	3016
495.516	3989
495.591	6487
495.665	23675
495.740	42427
495.815	9817
495.890	2952
495.964	746
496.039	4129
496.114	2593
496.188	2369
496.263	2844
496.338	1656
496.412	2378
496.487	3374
496.561	3442
496.636	2339
496.710	3024
496.785	2127
496.860	4271
496.934	1845
497.009	2401
497.083	2717
497.158	2731
497.232	4079
497.307	4589
497.381	3012
497.455	4602
497.530	5761
497.604	3433
497.679	4648
497.753	7579
497.827	7627
497.902	5951
497.976	10323
498.050	38573
498.125	113860
498.199	78740
498.273	9383
498.348	6834
498.422	5539
498.496	5526
498.570	4933
498.645	4288
498.719	2376
498.793	5962
498.867	8612
498.941	15320
499.016	53825
499.090	107951
499.164	22060
499.238	3351
499.312	3748
499.386	4760
499.460	3064
499.534	3755
499.609	5042
499.683	6770
499.757	8537
499.831	26755
499.905	80854
499.979	51406
500.053	8893
500.127	8043
500.201	4635
500.275	3787
500.349	3038
500.422	4383
500.496	6292
500.570	16832
500.644	45917
500.718	66357
500.792	8746
500.866	4540
500.940	5129
501.013	3778
501.087	4699
501.161	6633
501.235	9956
501.309	31278
501.382	69988
501.456	42499
501.530	11668
501.603	19455
501.677	5442
501.751	1649
501.825	6325
501.898	10682
501.972	26267
502.046	11660
502.119	3969
502.193	13954
502.266	26596
502.340	10379
502.413	14542
502.487	23559
502.561	10992
502.634	3086
502.708	2475
502.781	1146
502.855	2516
502.928	1421
503.002	1509
503.075	1551
503.149	1666
503.222	2091
503.295	1785
503.369	3989
503.442	6352
503.516	24136
503.589	47784
503.662	24403
503.736	9625
503.809	23151
503.882	15688
503.956	26660
504.029	16086
504.102	4413
504.175	3841
504.249	2106
504.322	3282
504.395	1794
504.468	1474
504.542	1164
504.615	547
504.688	2165
504.761	473
504.834	3448
504.907	2490
504.980	3643
505.053	1379
505.127	1103
505.200	4733
505.273	2571
505.346	1545
505.419	891
505.492	1395
505.565	1157
505.638	1095
505.711	749
505.784	475
505.857	628
505.930	2527
506.003	485
506.076	2284
506.149	2384
506.221	1967
506.294	4605
506.367	12303
506.440	34997
506.513	12287
506.586	3270
506.659	1019
506.731	1705
506.804	1992
506.877	1720
506.950	2060
507.022	1178
507.095	2064
507.168	3382
507.241	1662
507.313	1032
507.386	48
507.459	2135
507.531	1620
507.604	730
507.677	1488
507.749	-175
507.822	2422
507.894	3401
507.967	4413
508.040	1694
508.112	3008
508.185	2131
508.257	-6
508.330	3840
508.402	496
508.475	1905
508.547	1915
508.620	2174
508.692	3680
508.765	1388
508.837	654
508.909	2102
508.982	1612
509.054	2417
509.127	1278
509.199	750
509.271	39
509.344	749
509.416	462
509.488	1351
509.560	1430
509.633	912
509.705	1279
509.777	1374
509.849	3490
509.922	274
509.994	1439
510.066	1783
510.138	345
510.210	5064
510.283	1963
510.355	2113
510.427	1966
510.499	2456
510.571	1444
510.643	1251
510.715	4508
510.787	296
510.859	2588
510.931	2535
511.003	3278
511.076	3702
511.148	809
511.219	1846
511.291	3756
511.363	4016
511.435	600
511.507	-63
511.579	1595
511.651	1739
511.723	905
511.795	1053
511.867	1002
511.939	2660
512.010	5542
512.082	3695
512.154	625
512.226	919
512.298	3386
512.369	3528
512.441	2681
512.513	3083
512.585	1184
512.656	2196
512.728	2468
512.800	1246
512.871	2214
512.943	2045
513.015	540
513.086	2053
513.158	1447
513.230	1225
513.301	2334
513.373	3580
513.444	1501
513.516	1675
513.588	1757
513.659	1731
513.731	1441
513.802	719
513.874	7059
513.945	6553
514.016	870
514.088	3181
514.159	68
514.231	2959
514.302	3159
514.374	2602
514.445	1072
514.516	8553
514.588	2104
514.659	3017
514.730	5732
514.802	3591
514.873	-299
514.944	4419
515.016	2868
515.087	2097
515.158	3457
515.229	5802
515.301	878
515.372	2540
515.443	668
515.514	1056
515.585	141
515.656	2108
515.728	1575
515.799	-277
515.870	1858
515.941	1124
516.012	411
516.083	3220
516.154	2282
516.225	3565
516.296	3951
516.367	2201
516.438	2820
516.509	3759
516.580	6035
516.651	23552
516.722	51254
516.793	14724
516.864	5419
516.935	5125
517.006	6218
517.077	8600
517.148	22189
517.219	69540
517.289	67449
517.360	34728
517.431	9622
517.502	2099
517.573	2600
517.643	2294
517.714	3180
517.785	3170
517.856	3123
517.926	5019
517.997	4083
518.068	4750
518.138	7798
518.209	11574
518.280	56849
518.350	132377
518.421	23827
518.492	5883
518.562	3474
518.633	3217
518.703	622
518.774	4528
518.845	4793
518.915	3945
518.986	2976
519.056	4374
519.127	8346
519.197	16370
519.268	37501
519.338	17924
519.408	4391
519.479	4603
519.549	1799
519.620	3443
519.690	1021
519.760	2089
519.831	2043
519.901	1667
519.971	2271
520.042	1836
520.112	1753
520.182	3634
520.253	3253
520.323	1524
520.393	1874
520.463	4417
520.534	1282
520.604	7521
520.674	4247
520.744	3248
520.814	6279
520.885	6932
520.955	16927
521.025	44272
521.095	9717
521.165	3214
521.235	1664
521.305	1246
521.375	2010
521.445	2366
521.515	1650
521.585	3747
521.655	308
521.725	3611
521.795	2179
521.865	337
521.935	5422
522.005	1604
522.075	804
522.145	2563
522.215	926
522.285	3990
522.355	5666
522.424	11409
522.494	6907
522.564	3649
522.634	9443
522.704	19389
522.774	2644
522.843	2445
522.913	1826
522.983	2250
523.053	308
523.122	2867
523.192	3242
523.262	11071
523.331	5458
523.401	1817
523.471	937
523.540	1241
523.610	245
523.680	1025
523.749	1372
523.819	2122
523.888	581
523.958	1085
524.027	1657
524.097	2331
524.166	520
524.236	318
524.305	2405
524.375	976
524.444	-377
524.514	3408
524.583	513
524.653	689
524.722	1632
524.791	-587
524.861	2467
524.930	187
524.999	838
525.069	3089
525.138	1484
525.207	884
525.277	937
525.346	429
525.415	1374
525.484	1025
525.554	1287
525.623	1384
525.692	1465
525.761	343
525.830	814
525.900	558
525.969	1981
526.038	2337
526.107	213
526.176	3718
526.245	1380
526.314	4704
526.383	4150
526.452	485
526.522	7627
526.591	9128
526.660	5561
526.729	1950
526.797	5666
526.867	15359
526.935	54264
527.004	25888
527.073	5532
527.142	1130
527.211	1626
527.280	2516
527.349	1136
527.418	71
527.487	2116
527.555	-255
527.624	63
527.693	-737
527.762	1561
527.831	-1045
527.899	1218
527.968	1577
528.037	-1213
528.106	1170
528.174	2554
528.243	2183
528.312	4078
528.380	3276
528.449	128
528.518	1744
528.586	-1301
528.655	1730
528.723	1140
528.792	-270
528.861	-978
528.929	-359
528.998	1542
529.066	-359
529.135	652
529.203	-323
529.272	-1974
529.340	436
529.409	1699
529.477	-580
529.545	-298
529.614	3550
529.682	189
529.751	1078
529.819	3602
529.887	560
529.956	-205
530.024	1762
530.092	-833
530.161	1688
530.229	1572
530.297	-585
530.365	1432
530.434	77
530.502	-976
530.570	-31
530.638	-1161
530.707	1175
530.775	1511
530.843	-308
530.911	648
530.979	96
531.047	-560
531.115	849
531.183	-299
531.252	908
531.320	-80
531.388	165
531.456	959
531.524	-1284
531.592	449
531.660	1861
531.728	-1056
531.796	-424
531.864	398
531.932	55
532.000	-515
532.067	155
532.135	186
532.203	1683
532.271	-440
532.339	3931
532.407	8279
532.475	2397
532.542	1604
532.610	2173
532.678	1539
532.746	22772
532.814	31773
532.881	4142
532.949	753
533.017	878
533.084	-118
533.152	158
533.220	-22
533.287	-411
533.355	145
533.423	1017
533.490	-915
533.558	-511
533.625	25
533.693	150
533.761	675
533.828	527
533.896	-1426
533.963	3039
534.031	1935
534.098	4194
534.166	244
534.233	58
534.300	1146
534.368	769
534.435	-929
534.503	973
534.570	-40
534.637	-551
534.705	-280
534.772	263
534.840	-671
534.907	2211
534.974	542
535.041	-24
535.109	490
535.176	-39
535.243	814
535.310	-228
535.378	-996
535.445	812
535.512	220
535.579	922
535.646	-961
535.714	-215
535.781	588
535.848	1165
535.915	525
535.982	-651
536.049	-239
536.116	1768
536.183	269
536.250	-169
536.317	-686
536.384	1387
536.451	2751
536.518	2297
536.585	-773
536.652	2949
536.719	3438
536.786	204
536.853	635
536.920	3152
536.987	4498
537.053	4746
537.120	21729
537.187	8813
537.254	-80
537.321	110
537.388	916
537.454	-771
537.521	-334
537.588	-461
537.654	1360
537.721	508
537.788	1058
537.855	174
537.921	780
537.988	-347
538.055	1508
538.121	-410
538.188	255
538.254	2267
538.321	4490
538.388	2158
538.454	34
538.521	1139
538.587	-435
538.654	-207
538.720	182
538.787	977
538.853	-75
538.920	1049
538.986	432
539.053	1211
539.119	1095
539.185	586
539.252	1371
539.318	1392
539.385	1834
539.451	77
539.517	984
539.583	2912
539.650	6610
539.716	10095
539.782	930
539.849	87
539.915	1035
539.981	407
540.047	1199
540.114	649
540.180	1791
540.246	404
540.312	1292
540.378	4471
540.444	3997
540.510	6976
540.576	12656
540.643	1780
540.709	-570
540.775	249
540.841	140
540.907	2722
540.973	3206
541.039	1944
541.105	1987
541.171	1033
541.237	-1000
541.303	1131
541.369	3134
541.435	2421
541.500	3938
541.566	482
541.632	86
541.698	105
541.764	985
541.830	450
541.896	-677
541.961	978
542.027	9
542.093	467
542.159	578
542.224	-19
542.290	2710
542.356	4018
542.421	4373
542.487	2310
542.553	163
542.618	1409
542.684	250
542.750	318
542.815	1415
542.881	4109
542.947	13295
543.012	5506
543.078	121
543.143	1007
543.209	-15
543.274	472
543.340	1402
543.405	5501
543.471	4867
543.536	386
543.602	802
543.667	-306
543.732	1689
543.798	-454
543.863	962
543.928	380
543.994	-1245
544.059	530
544.124	714
544.190	951
544.255	1186
544.320	739
544.386	-465
544.451	1991
544.516	2496
544.581	1494
544.646	9099
544.712	8707
544.777	1711
544.842	1878
544.907	1919
544.972	950
545.037	1715
545.102	2165
545.168	275
545.233	2342
545.298	2644
545.363	1007
545.428	1993
545.493	7092
545.558	8630
545.623	3030
545.688	812
545.753	955
545.818	1034
545.883	1529
545.947	501
546.012	2183
546.077	1530
546.142	2085
546.207	1177
546.272	2029
546.337	1158
546.401	2145
546.466	1003
546.531	-58
546.596	2193
546.661	1811
546.725	1965
546.790	358
546.855	1049
546.919	616
546.984	813
547.049	1377
547.113	1166
547.178	1089
547.243	2552
547.307	2239
547.372	2020
547.436	2817
547.501	873
547.565	1544
547.630	1936
547.695	1693
547.759	2507
547.823	1528
547.888	1334
547.952	1640
548.017	1582
548.081	1774
548.146	2393
548.210	2399
548.274	568
548.339	1325
548.403	1071
548.468	1028
548.532	982
548.596	1108
548.660	1251
548.725	1993
548.789	1815
548.853	2645
548.917	1496
548.982	3594
549.046	1951
549.110	1262
549.174	937
549.238	568
549.303	733
549.367	2017
549.431	672
549.495	564
549.559	-145
549.623	1543
549.687	1050
549.751	3198
549.815	1010
549.879	2350
549.943	441
550.007	2039
550.071	1493
550.135	2291
550.199	1691
550.263	1372
550.327	1839
550.391	2857
550.455	898
550.519	1354
550.582	2029
550.646	2367
550.710	1423
550.774	2228
550.838	330
550.901	2361
550.965	2244
551.029	827
551.093	2742
551.156	4795
551.220	9637
551.284	7210
551.347	4739
551.411	14311
551.475	10159
551.538	2254
551.602	1302
551.666	975
551.729	272
551.793	1060
551.856	742
551.920	637
551.983	1320
552.047	497
552.110	433
552.174	771
552.237	581
552.301	2010
552.364	1432
552.428	239
552.491	67
552.554	1843
552.618	1182
552.681	1392
552.745	1624
552.808	3166
552.871	3489
552.934	2367
552.998	1159
553.061	1662
553.124	550
553.187	1294
553.251	819
553.314	1681
553.377	464
553.440	2523
553.503	8848
553.567	8891
553.630	1338
553.693	1373
553.756	821
553.819	250
553.882	847
553.945	1083
554.008	421
554.071	171
554.134	1179
554.197	758
554.260	437
554.323	1951
554.386	735
554.449	289
554.512	1635
554.575	793
554.638	947
554.701	631
554.764	912
554.827	916
554.889	445
554.952	1063
555.015	377
555.078	107
555.141	1592
555.203	1120
555.266	360
555.329	500
555.391	517
555.454	1442
555.517	842
555.580	945
555.642	326
555.705	782
555.768	271
555.830	556
555.893	462
555.955	920
556.018	728
556.080	842
556.143	553
556.206	133
556.268	924
556.330	1329
556.393	525
556.455	1998
556.518	2857
556.580	2479
556.643	481
556.705	1732
556.767	-399
556.830	1790
556.892	1584
556.955	3110
557.017	292
557.079	1276
557.142	874
557.204	2266
557.266	4102
557.328	2979
557.391	166
557.453	438
557.515	1315
557.577	1589
557.639	1180
557.701	660
557.764	-118
557.826	1536
557.888	1062
557.950	644
558.012	257
558.074	1287
558.136	1414
558.198	1833
558.260	1496
558.322	365
558.384	232
558.446	1614
558.508	1510
558.570	3422
558.632	5876
558.694	6091
558.756	3082
558.818	7206
558.880	8886
558.942	1579
559.003	3124
559.065	345
559.127	-255
559.189	992
559.251	1274
559.312	1684
559.374	3847
559.436	6641
559.498	2422
559.559	1044
559.621	1375
559.683	1617
559.744	3021
559.806	6014
559.868	4637
559.929	1620
559.991	1832
560.052	2475
560.114	3094
560.176	2932
560.237	2807
560.299	2369
560.360	994
560.422	1483
560.483	986
560.545	2170
560.606	2079
560.667	3037
560.729	1299
560.790	765
560.852	1892
560.913	1633
560.974	678
561.036	1563
561.097	1587
561.158	2097
561.220	2128
561.281	1017
561.342	1344
561.403	3140
561.465	2848
561.526	10410
561.587	7524
561.648	989
561.709	1504
561.771	2030
561.832	1275
561.893	1404
561.954	1546
562.015	1381
562.076	1591
562.137	1448
562.198	965
562.259	2080
562.320	595
562.381	2231
562.442	3080
562.503	1827
562.564	1377
562.625	1772
562.686	1723
562.747	1654
562.808	1751
562.869	2236
562.930	3002
562.991	1781
563.051	2410
563.112	1796
563.173	2382
563.234	944
563.294	1542
563.355	1152
563.416	2025
563.477	1150
563.537	2338
563.598	1933
563.659	1315
563.720	1654
563.780	1354
563.841	2376
563.901	758
563.962	2380
564.023	1208
564.083	2475
564.144	2231
564.204	1463
564.265	1026
564.325	2876
564.386	8434
564.446	3754
564.507	1631
564.567	1362
564.628	1832
564.688	1660
564.749	935
564.809	2642
564.869	2334
564.930	1770
564.990	2265
565.050	828
565.111	1417
565.171	1661
565.231	2258
565.292	2278
565.352	500
565.412	1715
565.472	1221
565.532	2359
565.593	1381
565.653	1669
565.713	1785
565.773	1906
565.833	2751
565.893	3438
565.953	1482
566.013	1595
566.074	2139
566.134	4626
566.194	6990
566.254	5935
566.314	2385
566.374	1782
566.434	2029
566.494	2870
566.554	1970
566.614	2541
566.673	1841
566.733	2251
566.793	1709
566.853	1649
566.913	2164
566.973	2944
567.033	2698
567.092	2425
567.152	1870
567.212	1877
567.272	2390
567.331	2900
567.391	2705
567.451	2822
567.511	5269
567.570	4190
567.630	1709
567.690	2984
567.749	1450
567.809	2025
567.868	3364
567.928	2658
567.988	2493
568.047	3657
568.107	3888
568.166	5520
568.226	8547
568.285	10745
568.345	6849
568.404	6191
568.464	4248
568.523	3547
568.582	4281
568.642	5832
568.701	7992
568.761	13818
568.820	19827
568.879	14833
568.939	10143
568.998	6537
569.057	4490
569.116	3910
569.176	2862
569.235	3394
569.294	2162
569.353	2351
569.413	2016
569.472	2111
569.531	2292
569.590	1413
569.649	2781
569.708	1310
569.767	2835
569.827	3244
569.886	1242
569.945	2044
570.004	2031
570.063	2055
570.122	1707
570.181	3039
570.240	2585
570.299	3112
570.358	2311
570.417	1841
570.475	1575
570.534	2772
570.593	2176
570.652	2481
570.711	2176
570.770	2029
570.829	2543
570.887	2575
570.946	2476
571.005	1716
571.064	322
571.122	2205
571.181	2568
571.240	903
571.299	965
571.357	2671
571.416	1597
571.475	3206
571.533	2382
571.592	1703
571.650	1596
571.709	2280
571.768	1279
571.826	1643
571.885	841
571.943	934
572.002	1626
572.060	1651
572.119	1374
572.177	1631
572.236	1749
572.294	1371
572.352	1863
572.411	1285
572.469	1510
572.528	1335
572.586	1148
572.644	2903
572.703	3606
572.761	1869
572.819	1297
572.877	1362
572.936	1102
572.994	1626
573.052	1118
573.110	1243
573.169	1507
573.227	1269
573.285	1329
573.343	1220
573.401	1230
573.459	1635
573.517	966
573.576	627
573.634	1190
573.692	1658
573.750	625
573.808	1514
573.866	1879
573.924	3015
573.982	1645
574.040	1261
574.098	564
574.155	678
574.213	1611
574.271	1457
574.329	778
574.387	1037
574.445	1073
574.503	1521
574.560	-24
574.618	669
574.676	1111
574.734	1028
574.792	962
574.849	1217
574.907	163
574.965	1190
575.022	1428
575.080	1040
575.138	2025
575.195	1342
575.253	1483
575.311	1660
575.368	671
575.426	445
575.483	1442
575.541	1713
575.598	94
575.656	1744
575.713	1154
575.771	667
575.828	357
575.886	1434
575.943	1924
576.001	1734
576.058	1539
576.115	2112
576.173	3401
576.230	3506
576.287	2759
576.345	2333
576.402	1685
576.459	2196
576.517	2177
576.574	2943
576.631	1651
576.688	1810
576.746	1296
576.803	1260
576.860	1615
576.917	2058
576.974	1785
577.031	1567
577.089	1491
577.146	1398
577.203	1443
577.260	2481
577.317	1999
577.374	3432
577.431	1915
577.488	1871
577.545	865
577.602	1992
577.659	1429
577.716	1443
577.773	1160
577.830	1352
577.886	1867
577.943	955
578.000	1085
578.057	1365
578.114	1697
578.171	2356
578.227	1231
578.284	2264
578.341	2099
578.398	1891
578.454	2002
578.511	3116
578.568	2895
578.625	1649
578.681	1644
578.738	1374
578.794	1445
578.851	1667
578.908	1394
578.964	1894
579.021	1846
579.077	1077
579.134	1460
579.190	1471
579.247	505
579.303	1624
579.360	1116
579.416	763
579.473	808
579.529	905
579.586	1983
579.642	2646
579.698	1280
579.755	1833
579.811	1854
579.867	1805
579.924	310
579.980	913
580.036	1726
580.093	2275
580.149	2184
580.205	3189
580.261	2217
580.317	1423
580.374	2386
580.430	2863
580.486	2028
580.542	946
580.598	739
580.619	1275
580.654	2202
580.692	1422
580.710	1029
580.765	1251
580.767	1254
580.823	1667
580.838	1561
580.879	1237
580.911	1096
580.935	991
580.984	1247
580.991	1281
581.047	1999
581.057	1905
581.103	1463
581.130	1569
581.159	1649
581.203	1937
581.215	2021
581.270	2391
581.276	2349
581.326	1838
581.349	1431
581.382	838
581.422	1062
581.438	1139
581.494	2304
581.494	2300
581.550	1521
581.567	1850
581.606	2518
581.640	2482
581.661	2437
581.713	2409
581.717	2408
581.773	2127
581.786	2113
581.829	1963
581.859	1940
581.885	1945
581.932	1781
581.940	1758
581.996	2255
582.004	2266
582.052	2264
582.077	2180
582.107	2041
582.150	2828
582.163	3051
582.219	2207
582.223	2209
582.274	2342
582.296	2642
582.330	3081
582.368	2875
582.386	2827
582.441	2551
582.441	2546
582.497	2486
582.514	2422
582.552	2405
582.587	2600
582.608	2676
582.659	2360
582.663	2327
582.719	3008
582.732	2935
582.774	2796
582.805	2779
582.830	2751
582.877	3316
582.885	3391
582.941	2387
582.950	2495
582.996	3215
583.023	3109
583.052	3025
583.095	3752
583.107	3936
583.162	3947
583.168	3992
583.218	4167
583.240	3679
583.273	2899
583.313	3357
583.328	3643
583.384	2806
583.385	2841
583.439	3648
583.458	3541
583.494	3332
583.531	3080
583.549	3018
583.603	3600
583.605	3614
583.660	3289
583.676	3144
583.715	2746
583.748	3540
583.770	4193
583.820	4261
583.825	4245
583.881	3764
583.893	3672
583.936	3532
583.965	3870
583.991	4138
584.038	4434
584.046	4456
584.101	3977
584.110	4023
584.156	4414
584.183	4122
584.211	3801
584.255	4155
584.266	4228
584.321	4032
584.328	4025
584.376	4218
584.400	4246
584.431	4345
584.472	4350
584.486	4197
584.541	4064
584.545	4034
584.596	4376
584.617	4541
584.651	4816
584.689	5116
584.706	5068
584.761	4821
584.762	4811
584.816	4941
584.834	4989
584.871	5155
584.906	5054
584.926	4989
584.978	5359
584.980	5393
585.035	5425
585.051	5756
585.090	6511
585.123	6867
585.145	6913
585.195	6143
585.200	6142
585.254	6155
585.267	6369
585.309	7310
585.340	7827
585.364	7983
585.412	7253
585.419	7099
585.473	7191
585.484	6993
585.528	6847
585.556	7247
585.583	7763
585.628	8474
585.637	8798
585.692	11279
585.700	11650
585.747	12845
585.772	11856
585.801	9589
585.845	7768
585.856	7753
585.910	7927
585.917	7886
585.965	7657
585.989	7973
586.019	8430
586.061	7844
586.074	7653
586.128	7897
586.133	7901
586.183	9116
586.205	9480
586.237	9670
586.277	9905
586.292	9881
586.346	9708
586.349	9691
586.401	10154
586.421	10225
586.455	11044
586.493	12579
586.509	14673
586.564	21196
586.565	21371
586.618	35776
586.637	37940
586.672	26857
586.709	16479
586.727	14545
586.781	10455
586.781	10480
586.835	9841
586.853	9623
586.889	9898
586.925	10127
586.944	10308
586.996	10784
586.998	10830
587.052	11419
587.068	11476
587.106	11344
587.140	11161
587.161	11175
587.212	11243
587.215	11303
587.269	12114
587.284	12147
587.323	11960
587.356	11995
587.377	12434
587.427	13794
587.431	13867
587.485	13908
587.499	13729
587.539	13731
587.571	14270
587.593	14878
587.643	15611
587.648	15724
587.702	16656
587.715	16837
587.755	17634
587.786	18045
587.810	18320
587.858	18665
587.864	18834
587.917	20272
587.930	20656
587.971	22766
588.001	24132
588.025	24867
588.073	26134
588.079	26530
588.133	29195
588.145	29835
588.187	32863
588.217	35072
588.241	37649
588.288	42154
588.295	42958
588.348	49043
588.360	50428
588.402	57133
588.431	61389
588.456	65778
588.503	74504
588.510	76275
588.564	89684
588.575	92706
588.617	110207
588.646	122651
588.671	139341
588.718	174716
588.725	186294
588.778	282380
588.789	304503
588.832	510852
588.861	661477
588.886	880433
588.932	1301135
588.939	1321691
588.993	1371510
589.004	1364440
589.047	968196
589.075	706698
589.100	548306
589.147	276501
589.154	266494
589.207	192211
589.218	177360
589.261	166939
589.290	160830
589.314	170884
589.361	193436
589.368	206772
589.421	322480
589.433	349090
589.475	620120
589.504	820526
589.528	996325
589.576	1296024
589.582	1259224
589.635	820883
589.647	727622
589.689	417513
589.718	209978
589.742	173769
589.790	104178
589.795	102264
589.849	83033
589.861	78623
589.902	75194
589.932	71191
589.955	62300
590.004	43779
590.009	43409
590.062	38509
590.075	37133
590.115	33930
590.146	31298
590.168	30897
590.218	29701
590.222	29737
590.275	28999
590.289	28661
590.328	28706
590.360	28534
590.381	27623
590.431	25099
590.435	25190
590.488	25113
590.503	25048
590.541	24549
590.574	23993
590.594	23820
590.645	22895
590.647	22957
590.700	22185
590.716	21838
590.753	21531
590.787	21265
590.806	20943
590.859	19799
590.859	19882
590.912	20183
590.930	20196
590.965	19879
591.001	19473
591.018	19535
591.071	19404
591.072	19323
591.124	19689
591.143	19606
591.177	19982
591.214	20350
591.230	20411
591.283	20443
591.285	20354
591.336	21561
591.356	21915
591.389	21821
591.427	21622
591.442	21374
591.495	19981
591.498	19791
591.547	19583
591.569	19430
591.600	19688
591.640	19747
591.653	19863
591.706	20083
591.711	20020
591.759	21834
591.782	22606
591.811	24129
591.853	26102
591.864	25334
591.917	20872
591.924	20133
591.969	19733
591.995	19398
592.022	20101
592.066	21050
592.075	21769
592.127	25670
592.137	26288
592.180	29745
592.208	31707
592.233	28463
592.279	22060
592.285	21900
592.338	19755
592.350	19183
592.390	19172
592.421	19052
592.443	19462
592.491	20058
592.495	20077
592.548	19199
592.562	18875
592.600	19028
592.633	19021
592.653	18653
592.704	17392
592.705	17526
592.775	19248
592.846	19363
592.916	20517
592.987	20447
593.058	20359
593.128	18442
593.199	18743
593.270	18703
593.341	17490
593.411	17935
593.482	18294
593.553	18218
593.623	17936
593.694	19280
593.764	21569
593.835	17675
593.906	17839
593.976	18190
594.047	19904
594.117	23985
594.188	25695
594.258	16844
594.329	17297
594.399	16838
594.470	16498
594.540	16655
594.611	16700
594.681	16105
594.751	17478
594.822	19944
594.892	20974
594.963	20170
595.033	19661
595.103	18602
595.174	21635
595.244	35238
595.314	48161
595.384	21373
595.455	18915
595.525	18437
595.595	17945
595.665	18156
595.736	17817
595.806	16976
595.876	17470
595.946	17219
596.016	16080
596.087	17608
596.157	18350
596.227	17347
596.297	18249
596.367	19076
596.437	21563
596.507	33086
596.577	44683
596.647	20406
596.717	17533
596.787	17449
596.857	17463
596.927	17400
596.997	16975
597.067	17626
597.137	18544
597.207	17993
597.277	17378
597.347	17695
597.417	17496
597.487	17852
597.557	18654
597.626	18128
597.696	21427
597.766	26877
597.836	39983
597.906	22320
597.975	17658
598.045	16553
598.115	17351
598.185	16301
598.254	18159
598.324	18398
598.394	17847
598.464	18167
598.533	17282
598.603	15937
598.672	17190
598.742	16570
598.812	16710
598.881	16201
598.951	16363
599.020	15432
599.090	15315
599.159	15766
599.229	15309
599.299	15007
599.368	15525
599.437	14609
599.507	16737
599.576	17514
599.646	16281
599.715	16185
599.785	16848
599.854	18339
599.924	22294
599.993	19270
600.062	16338
600.132	16390
600.201	16557
600.270	17422
600.340	17125
600.409	15067
600.478	15541
600.547	15428
600.617	17202
600.686	15845
600.755	15855
600.824	15746
600.894	17007
600.963	14618
601.032	14474
601.101	15393
601.170	14420
601.239	14276
601.308	16796
601.378	15802
601.447	15797
601.516	14594
601.585	15473
601.654	16380
601.723	17011
601.792	14632
601.861	14919
601.930	17224
601.999	16731
602.068	14615
602.137	16463
602.206	15978
602.275	15695
602.343	17140
602.412	17584
602.481	13211
602.550	14184
602.619	13840
602.688	15532
602.756	14116
602.825	13885
602.894	14210
602.963	14121
603.032	13830
603.100	13597
603.169	14097
603.238	13913
603.307	13263
603.375	14519
603.444	14305
603.513	14151
603.581	12546
603.650	13043
603.719	12603
603.787	13024
603.856	13395
603.924	13740
603.993	13706
604.061	11984
604.130	12196
604.198	13589
604.267	13434
604.335	12999
604.404	12130
604.472	11863
604.541	12153
604.609	11129
604.678	12358
604.746	12003
604.815	12368
604.883	13056
604.951	12668
605.020	12488
605.088	12629
605.156	13160
605.225	12872
605.293	12150
605.361	12440
605.429	12237
605.498	12258
605.566	13247
605.634	12878
605.702	13375
605.771	13730
605.839	12853
605.907	12649
605.975	12513
606.043	12930
606.111	13037
606.180	13079
606.248	13768
606.316	15017
606.384	14412
606.452	21035
606.520	20194
606.588	14179
606.656	11548
606.724	11698
606.792	11925
606.860	11582
606.928	10647
606.996	10492
607.064	11315
607.132	10889
607.200	10567
607.267	12265
607.335	10549
607.403	10984
607.471	10733
607.539	11843
607.607	11268
607.674	10346
607.742	12396
607.810	12586
607.878	11723
607.946	10187
608.013	11489
608.081	12649
608.149	12147
608.216	11138
608.284	11676
608.352	11078
608.419	13761
608.487	24409
608.555	15539
608.622	10718
608.690	10731
608.757	11488
608.825	10756
608.893	11717
608.960	14620
609.028	20136
609.095	26248
609.163	14019
609.230	12373
609.298	13102
609.365	9815
609.432	10227
609.500	11405
609.567	10958
609.635	12190
609.702	11157
609.769	13787
609.837	16805
609.904	12511
609.971	10915
610.039	12957
610.106	14839
610.173	21412
610.241	45869
610.308	74462
610.375	56672
610.442	16974
610.509	11296
610.577	11481
610.644	11699
610.711	10297
610.778	10922
610.845	10452
610.912	11398
610.980	11633
611.047	13367
611.114	13683
611.181	10886
611.248	10557
611.315	11949
611.382	9014
611.449	10642
611.516	10862
611.583	10442
611.650	11155
611.717	11562
611.784	10869
611.851	11880
611.918	13053
611.984	12258
612.051	15433
612.118	22961
612.185	43913
612.252	27219
612.319	11709
612.386	11655
612.452	11333
612.519	14793
612.586	27103
612.653	17081
612.719	11260
612.786	10326
612.853	10002
612.919	9237
612.986	10385
613.053	9448
613.120	9153
613.186	10164
613.253	11825
613.319	9647
613.386	9729
613.453	10289
613.519	12799
613.586	14654
613.652	22675
613.719	17652
613.785	16112
613.852	10740
613.918	9254
613.985	11310
614.051	14894
614.118	32554
614.184	30931
614.250	10575
614.317	10011
614.383	8825
614.449	9121
614.516	9640
614.582	11794
614.648	9619
614.715	9423
614.781	9028
614.847	11643
614.914	12938
614.980	11744
615.046	10823
615.112	9648
615.179	9893
615.245	10170
615.311	12807
615.377	16796
615.443	16882
615.509	12208
615.575	11974
615.642	10267
615.708	12289
615.774	12345
615.840	15120
615.906	17818
615.972	20303
616.038	33797
616.104	42270
616.170	64127
616.236	50072
616.302	19922
616.368	16351
616.434	13734
616.500	15792
616.565	15600
616.631	15443
616.697	13771
616.763	14451
616.829	15525
616.895	20474
616.961	19341
617.026	15610
617.092	12545
617.158	13101
617.224	12305
617.289	13709
617.355	14325
617.421	14094
617.487	16345
617.552	13604
617.618	13302
617.684	12215
617.749	15048
617.815	13048
617.880	12446
617.946	12908
618.012	12845
618.077	12395
618.143	11921
618.208	12477
618.274	13224
618.339	14223
618.405	13212
618.470	14683
618.536	15563
618.601	18558
618.667	17739
618.732	16454
618.798	14936
618.863	14501
618.928	15426
618.994	16781
619.059	18588
619.124	25150
619.190	18366
619.255	16140
619.320	15929
619.386	15428
619.451	13537
619.516	14711
619.581	16125
619.647	14696
619.712	15149
619.777	15342
619.842	16391
619.907	16867
619.972	15046
620.038	15994
620.103	15422
620.168	13307
620.233	14172
620.298	14468
620.363	14626
620.428	13563
620.493	14693
620.558	14106
620.623	13063
620.688	14070
620.753	14383
620.818	13818
620.883	13889
620.948	14086
621.013	14371
621.078	14405
621.143	14370
621.207	16899
621.272	16299
621.337	17852
621.402	20428
621.467	30421
621.532	31385
621.596	22919
621.661	20704
621.726	18776
621.791	17781
621.855	19165
621.920	20699
621.985	23016
622.049	28060
622.114	25045
622.179	20979
622.243	23485
622.308	21017
622.373	22433
622.437	21545
622.502	20008
622.566	20696
622.631	20226
622.695	20196
622.760	20726
622.824	20169
622.889	20112
622.953	21455
623.018	30563
623.082	27511
623.147	19779
623.211	18790
623.276	18749
623.340	17667
623.404	17657
623.469	18253
623.533	18698
623.597	17653
623.662	17493
623.726	17698
623.790	16828
623.854	18180
623.919	19145
623.983	17451
624.047	18721
624.111	16886
624.176	17896
624.240	19323
624.304	22334
624.368	18371
624.432	18018
624.496	18309
624.560	18788
624.625	20583
624.689	17714
624.753	16850
624.817	16469
624.881	15252
624.945	15725
625.009	16784
625.073	16030
625.137	17940
625.201	21711
625.265	21033
625.329	16623
625.393	18891
625.456	17347
625.520	17973
625.584	21311
625.648	28164
625.712	49004
625.776	127607
625.839	143061
625.903	49669
625.967	24895
626.031	46597
626.095	77347
626.158	24138
626.222	14586
626.286	15176
626.349	15087
626.413	13889
626.477	18046
626.540	14431
626.604	14107
626.668	15825
626.731	15163
626.795	16312
626.858	15698
626.922	14958
626.986	15184
627.049	13247
627.113	14295
627.176	13086
627.240	13311
627.303	14001
627.366	14156
627.430	13460
627.493	14372
627.557	15089
627.620	14639
627.684	14711
627.747	14417
627.810	12491
627.874	14280
627.937	12896
628.000	15646
628.064	14457
628.127	11038
628.190	14091
628.253	13869
628.317	12825
628.380	13396
628.443	13197
628.506	13183
628.569	13056
628.632	11706
628.696	12166
628.759	12142
628.822	12367
628.885	11253
628.948	12371
629.011	13153
629.074	13527
629.137	11156
629.200	11934
629.263	14981
629.326	11785
629.389	11863
629.452	11949
629.515	13174
629.578	12911
629.641	14282
629.704	13295
629.767	12861
629.830	11696
629.892	11138
629.955	10796
630.018	13385
630.081	12381
630.144	15676
630.207	12083
630.269	15031
630.332	15737
630.395	13112
630.458	10730
630.520	10059
630.583	11487
630.646	11074
630.708	9783
630.771	10121
630.834	10864
630.896	9357
630.959	9768
631.021	9429
631.084	10771
631.146	13268
631.209	15882
631.272	9811
631.334	10653
631.397	9299
631.459	9845
631.522	10134
631.584	9790
631.646	10052
631.709	11063
631.771	13729
631.834	12027
631.896	9330
631.958	8371
632.021	9320
632.083	9186
632.145	10346
632.208	9544
632.270	10182
632.332	7917
632.395	8381
632.457	9850
632.519	8742
632.581	9679
632.643	8236
632.706	9245
632.768	7537
632.830	8934
632.892	9229
632.954	8077
633.016	10223
633.078	8351
633.141	7913
633.203	7943
633.265	8821
633.327	8316
633.389	7741
633.451	10612
633.513	11067
633.575	12752
633.637	11794
633.698	10135
633.760	9621
633.822	9100
633.884	7891
633.946	8746
634.008	7460
634.070	8079
634.132	8052
634.193	8282
634.255	7764
634.317	7116
634.379	9667
634.441	7796
634.502	8002
634.564	8390
634.626	8898
634.687	9367
634.749	8284
634.811	8819
634.873	7145
634.934	6691
634.996	8546
635.057	7508
635.119	6887
635.181	7554
635.242	7700
635.304	5867
635.365	9344
635.427	6778
635.488	7552
635.550	7152
635.611	7797
635.673	5492
635.734	9479
635.796	7512
635.857	9528
635.918	6687
635.980	8950
636.041	7135
636.102	7038
636.164	7603
636.225	8308
636.286	6591
636.348	7751
636.409	6693
636.470	6900
636.531	7868
636.593	9454
636.654	9490
636.715	7062
636.776	6846
636.838	5803
636.899	7412
636.960	6501
637.021	5756
637.082	6905
637.143	7983
637.204	4592
637.265	5718
637.326	6100
637.387	6697
637.448	5603
637.509	6455
637.570	6765
637.631	6177
637.692	5220
637.753	4917
637.814	6035
637.875	5447
637.936	7181
637.997	5990
638.058	6530
638.119	6992
638.179	5981
638.240	5386
638.301	6011
638.362	5605
638.423	6501
638.483	6802
638.544	4046
638.605	5979
638.666	5525
638.726	6307
638.787	6677
638.848	5591
638.908	5936
638.969	6300
639.030	5623
639.090	4062
639.151	5352
639.211	6533
639.272	6768
639.332	12949
639.393	7231
639.453	5205
639.514	5635
639.574	5374
639.635	5491
639.695	6536
639.756	4683
639.816	6305
639.877	7205
639.937	11876
639.997	15335
640.058	5583
640.118	4052
640.178	6348
640.239	4789
640.299	4681
640.359	4662
640.420	5286
640.480	5408
640.540	5428
640.600	4940
640.661	6227
640.721	4764
640.781	8069
640.841	4160
640.901	5401
640.961	6076
641.021	5523
641.082	5829
641.142	9120
641.202	6231
641.262	4025
641.322	5054
641.382	3906
641.442	5734
641.502	5503
641.562	5686
641.622	4657
641.682	5042
641.742	4307
641.802	5235
641.861	6490
641.921	5780
641.981	7383
642.041	6216
642.101	8245
642.161	3885
642.221	4647
642.280	4381
642.340	4491
642.400	4228
642.460	6522
642.519	4612
642.579	4476
642.639	5792
642.698	3091
642.758	6481
642.818	4447
642.877	4346
642.937	5367
642.997	6191
643.056	8555
643.116	3154
643.175	6488
643.235	4085
643.294	4616
643.354	4038
643.414	4897
643.473	4740
643.532	4083
643.592	4236
643.651	5222
643.711	7215
643.770	11153
643.830	19393
643.889	40466
643.948	10348
644.008	4841
644.067	4411
644.126	3635
644.186	3867
644.245	4820
644.304	2606
644.363	5899
644.423	2657
644.482	4195
644.541	4242
644.600	1952
644.659	4378
644.719	3692
644.778	4300
644.837	4013
644.896	6269
644.955	8722
645.014	5268
645.073	5019
645.132	4449
645.191	4885
645.250	3535
645.309	5224
645.368	3973
645.427	5033
645.486	3226
645.545	4425
645.604	3109
645.663	4064
645.722	3659
645.781	4111
645.840	4077
645.898	3039
645.957	5511
646.016	3930
646.075	5658
646.134	7925
646.192	17505
646.251	24800
646.310	5367
646.369	3602
646.427	3493
646.486	2397
646.545	3926
646.603	3651
646.662	2712
646.721	4212
646.779	2756
646.838	2566
646.896	3740
646.955	3564
647.014	3392
647.072	3658
647.131	6371
647.189	3394
647.248	2738
647.306	3549
647.365	2859
647.423	1930
647.481	4285
647.540	2276
647.598	4054
647.657	2853
647.715	3021
647.773	3228
647.832	4562
647.890	2040
647.948	3705
648.007	4414
648.065	2747
648.123	3144
648.181	4784
648.240	4052
648.298	3392
648.356	3684
648.414	4855
648.472	3736
648.531	3524
648.589	3948
648.647	4323
648.705	3344
648.763	3766
648.821	3449
648.879	2848
648.937	3974
648.995	4037
649.053	2846
649.111	5597
649.169	4657
649.227	3731
649.285	7220
649.343	14873
649.401	11371
649.459	15576
649.516	11619
649.574	5570
649.632	14358
649.690	15853
649.748	7212
649.806	4868
649.863	7191
649.921	5875
649.979	3502
650.037	3108
650.094	1938
650.152	4050
650.210	2414
650.268	3292
650.325	3216
650.383	2619
650.440	2438
650.498	3477
650.556	2961
650.613	2830
650.671	3480
650.728	2946
650.786	3968
650.843	2675
650.901	1012
650.958	3260
651.016	2848
651.073	3646
651.131	1968
651.188	1629
651.246	3174
651.303	1815
651.360	3101
651.418	1406
651.475	3404
651.532	1956
651.590	2750
651.647	2135
651.704	2898
651.762	2657
651.819	3334
651.876	3202
651.933	2989
651.990	3535
652.048	1320
652.105	2113
652.162	3734
652.219	1812
652.276	2833
652.333	2516
652.390	1940
652.448	1911
652.505	2588
652.562	1737
652.619	2656
652.676	3092
652.733	4221
652.790	3063
652.847	1234
652.904	2815
652.961	1796
653.017	1047
653.074	2895
653.131	2804
653.188	1160
653.245	1967
653.302	2260
653.359	2040
653.415	3071
653.472	1490
653.529	2400
653.586	1386
653.642	2600
653.699	2204
653.756	1706
653.813	2443
653.869	1995
653.926	1398
653.983	2350
654.039	2529
654.096	2154
654.152	3046
654.209	1341
654.266	2789
654.322	1844
654.379	2834
654.435	3565
654.492	4104
654.548	5982
654.605	9682
654.661	5156
654.717	2378
654.774	3636
654.830	3168
654.887	2726
654.943	2342
655.000	2214
655.056	2575
655.112	3221
655.168	1962
655.225	2983
655.281	4874
655.337	6506
655.394	11176
655.450	7860
655.506	5815
655.562	12178
655.618	9231
655.675	1844
655.731	2988
655.787	2534
655.843	3413
655.899	2358
655.955	3042
656.011	3018
656.067	1591
656.123	3422
656.179	3168
656.235	4325
656.291	2173
656.347	4133
656.403	2814
656.459	3250
656.515	4307
656.571	3568
656.627	3341
656.683	2380
656.739	3273
656.795	2690
656.850	2335
656.906	3351
656.962	2798
657.018	1793
657.074	1785
657.129	3214
657.185	3044
657.241	3149
657.297	1897
657.352	2900
657.408	1336
657.464	3406
657.519	3051
657.575	1917
657.630	1983
657.686	2637
657.742	1894
657.797	1840
657.853	1897
657.908	2855
657.964	2173
658.019	2399
658.075	2565
658.130	2262
658.186	802
658.241	3058
658.297	1374
658.352	2718
658.407	2245
658.463	1830
658.518	2789
658.573	2126
658.629	1709
658.684	1655
658.739	2477
658.795	1549
658.850	1987
658.905	1184
658.960	1927
659.016	2197
659.071	2464
659.126	2413
659.181	2899
659.236	5108
659.291	5274
659.346	3285
659.401	2479
659.457	2539
659.512	2974
659.567	2614
659.622	2423
659.677	2570
659.732	2017
659.787	2595
659.842	3335
659.897	5192
659.952	2733
660.007	2526
660.061	2602
660.116	2421
660.171	1110
660.226	2100
660.281	2834
660.336	1244
660.391	3100
660.445	1806
660.500	1547
660.555	3106
660.610	2623
660.664	2479
660.719	1871
660.774	2351
660.828	1492
660.883	2736
660.938	2677
660.992	1778
661.047	2061
661.101	2469
661.156	1862
661.211	1839
661.265	2254
661.320	2428
661.374	1732
661.429	1020
661.483	2437
661.538	1032
661.592	2206
661.647	2772
661.701	2029
661.755	2722
661.810	1803
661.864	1784
661.919	1043
661.973	3088
662.027	2485
662.081	2535
662.136	2132
662.190	3210
662.244	3355
662.299	2494
662.353	2042
662.407	2044
662.461	2301
662.515	3216
662.569	2355
662.624	3534
662.678	2513
662.732	3094
662.786	2508
662.840	2937
662.894	2615
662.948	2388
663.002	953
663.056	1431
663.110	857
663.164	2019
663.218	1765
663.272	2594
663.326	2528
663.380	1961
663.434	2810
663.488	2472
663.542	2734
663.595	2363
663.649	2147
663.703	3122
663.757	2121
663.811	1945
663.864	1753
663.918	2201
663.972	1346
664.026	2544
664.079	2413
664.133	3076
664.187	2102
664.240	2030
664.294	2067
664.348	2590
664.401	1668
664.455	1825
664.508	1505
664.562	2658
664.615	1832
664.669	1666
664.722	1861
664.776	1941
664.829	1579
664.883	2800
664.936	1762
664.990	3014
665.043	3327
665.097	3442
665.150	3471
665.203	3303
665.257	2254
665.310	3314
665.363	2870
665.417	3213
665.470	2659
665.523	2298
665.576	2604
665.630	2918
665.683	2237
665.736	3124
665.789	2791
665.842	2315
665.895	2041
665.949	2863
666.002	2923
666.055	2823
666.108	3287
666.161	2957
666.214	3237
666.267	3278
666.320	3435
666.373	3278
666.426	3122
666.479	3071
666.532	3271
666.585	4069
666.638	4535
666.691	3450
666.744	4637
666.796	4461
666.849	3101
666.902	4040
666.955	2907
667.008	2370
667.060	1759
667.113	2332
667.166	2026
667.219	2938
667.271	1780
667.324	3120
667.377	2268
667.430	2911
667.482	3330
667.535	2715
667.587	3470
667.640	3340
667.693	4319
667.745	5547
667.798	5152
667.850	3109
667.903	2648
667.955	2102
668.008	3325
668.060	3633
668.113	3316
668.165	3575
668.218	3827
668.270	2947
668.322	2998
668.375	2609
668.427	2812
668.479	2842
668.532	2740
668.584	3007
668.636	2224
668.689	2719
668.741	2997
668.793	3178
668.845	2946
668.898	3691
668.950	2794
669.002	3266
669.054	3015
669.106	2582
669.158	3584
669.211	2479
669.263	4042
669.315	3324
669.367	3734
669.419	3587
669.471	4353
669.523	2990
669.575	5671
669.627	4262
669.679	3437
669.731	3249
669.783	3166
669.835	4469
669.886	3928
669.938	3422
669.990	3165
670.042	3116
670.094	3350
670.146	3838
670.197	4296
670.249	5622
670.301	5568
670.353	8550
670.404	10770
670.456	17106
670.508	27361
670.560	48173
670.611	87177
670.663	158504
670.715	397366
670.766	615413
670.818	149549
670.869	24714
670.921	13154
670.972	9782
671.024	7001
671.075	6878
671.127	5396
671.178	4698
671.230	4568
671.281	4161
671.333	4370
671.384	3622
671.436	4822
671.487	4596
671.538	3892
671.590	3782
671.641	5169
671.692	4415
671.744	5259
671.795	4819
671.846	3337
671.897	3868
671.949	3807
672.000	3212
672.051	2981
672.102	3341
672.153	2339
672.204	2504
672.256	4096
672.307	3193
672.358	3736
672.409	3473
672.460	2760
672.511	2484
672.562	3345
672.613	2606
672.664	2974
672.715	3480
672.766	2907
672.817	3685
672.868	2565
672.919	2836
672.970	2320
673.021	2991
673.071	1794
673.122	2433
673.173	2933
673.224	2576
673.275	2109
673.326	2245
673.376	2547
673.427	2106
673.478	3020
673.528	3501
673.579	2719
673.630	3134
673.680	3034
673.731	1988
673.782	2542
673.832	2705
673.883	3107
673.934	2341
673.984	2339
674.035	3043
674.085	2509
674.136	3546
674.186	3452
674.237	4373
674.287	7008
674.338	4628
674.388	1548
674.438	2142
674.489	2239
674.539	2823
674.589	3007
674.640	2912
674.690	2967
674.740	2148
674.791	3951
674.841	3213
674.891	2846
674.942	2727
674.992	2411
675.042	1967
675.092	2192
675.142	2090
675.193	2336
675.243	1707
675.293	3073
675.343	2932
675.393	2390
675.443	2324
675.493	2063
675.543	2386
675.593	2845
675.643	2567
675.693	2439
675.743	2451
675.793	1892
675.843	2375
675.893	1913
675.943	2414
675.993	3188
676.043	2380
676.093	2094
676.142	2335
676.192	2213
676.242	2039
676.292	2037
676.341	2281
676.391	1745
676.441	2012
676.491	1407
676.540	1995
676.590	1499
676.640	1326
676.689	1833
676.739	1906
676.789	1615
676.838	1682
676.888	2517
676.937	2038
676.987	1650
677.037	1418
677.086	1791
677.136	1819
677.185	1636
677.235	1225
677.284	1623
677.333	2535
677.383	1002
677.432	1744
677.482	1804
677.531	1927
677.580	1516
677.630	992
677.679	929
677.728	2003
677.778	1166
677.827	1993
677.876	1273
677.925	1947
677.975	1679
678.024	1979
678.073	1950
678.122	1817
678.171	1599
678.220	2397
678.269	2288
678.319	2516
678.368	1790
678.417	1727
678.466	2203
678.515	2519
678.564	2507
678.613	2155
678.662	1724
678.711	2602
678.760	1696
678.809	1785
678.857	1784
678.906	1920
678.955	2162
679.004	1649
679.053	1432
679.102	1984
679.151	1789
679.199	1098
679.248	1386
679.297	2059
679.346	2091
679.394	2077
679.443	1671
679.492	1815
679.540	1897
679.589	1951
679.638	1720
679.686	1284
679.735	1349
679.784	961
679.832	1073
679.881	1275
679.929	2272
679.978	1182
680.026	1657
680.075	1645
680.123	1420
680.172	2036
680.220	1050
680.268	1810
680.317	414
680.365	2260
680.414	979
680.462	1629
680.510	1242
680.559	1266
680.607	894
680.655	960
680.703	1963
680.752	1235
680.800	818
680.848	847
680.896	1343
680.945	1012
680.993	1825
681.041	1257
681.089	642
681.137	1397
681.185	1026
681.233	349
681.258	1056
681.281	1702
681.329	1157
681.377	1009
681.380	1096
681.425	2218
681.473	1700
681.502	1641
681.521	1559
681.569	2210
681.617	1401
681.624	1460
681.665	1645
681.713	2211
681.745	1815
681.761	1593
681.809	1928
681.857	1470
681.867	1525
681.904	1610
681.952	1886
681.989	2031
682.000	2042
682.048	1588
682.096	1830
682.111	1828
682.143	1745
682.191	1612
682.233	2001
682.239	2032
682.286	1488
682.334	1932
682.354	1884
682.382	1785
682.430	1875
682.476	1250
682.477	1216
682.525	2137
682.572	2697
682.598	1953
682.620	1257
682.667	2115
682.715	2262
682.720	2317
682.763	2653
682.810	1671
682.841	2324
682.857	2627
682.905	1408
682.952	2990
682.963	3006
683.000	2952
683.047	2408
683.085	3534
683.095	3818
683.142	2286
683.190	2534
683.206	2517
683.237	2444
683.284	2770
683.328	2810
683.332	2793
683.379	2634
683.426	2986
683.449	3086
683.473	3191
683.521	2678
683.568	3022
683.571	3031
683.615	2819
683.662	3110
683.693	3000
683.709	2941
683.757	3236
683.804	3334
683.814	3403
683.851	3586
683.898	3080
683.936	3061
683.945	3050
683.992	3590
684.039	3911
684.057	4085
684.086	4272
684.133	3375
684.179	3653
684.180	3644
684.227	4191
684.274	3970
684.300	4010
684.321	4050
684.368	3455
684.415	4425
684.422	4362
684.462	3809
684.509	3607
684.543	3506
684.556	3451
684.603	3597
684.649	3727
684.665	3756
684.696	3924
684.743	4316
684.786	4361
684.790	4357
684.837	3842
684.883	5084
684.908	5240
684.930	5279
684.977	4911
685.023	4742
685.029	4728
685.070	4298
685.117	4009
685.150	4751
685.164	5156
685.210	5795
685.257	5361
685.272	5516
685.303	5615
685.350	4996
685.393	5237
685.396	5252
685.443	5197
685.490	6079
685.514	6021
685.536	5912
685.583	5498
685.629	5150
685.636	5211
685.675	5574
685.722	5467
685.757	5900
685.768	6044
685.815	5797
685.861	6322
685.878	6212
685.908	5986
685.954	5871
686.000	6708
686.000	6725
686.047	6919
686.093	8514
686.121	8842
686.139	8565
686.185	7216
686.232	6752
686.242	6706
686.278	6603
686.324	6771
686.363	5361
686.370	5171
686.416	5460
686.463	5904
686.484	5639
686.509	5418
686.555	5630
686.601	5540
686.606	5623
686.647	6119
686.693	6205
686.727	5865
686.739	5737
686.785	6032
686.831	6065
686.848	6067
686.877	6082
686.923	5575
686.969	5647
686.969	5647
687.015	6130
687.061	5930
687.090	6492
687.107	6767
687.153	6390
687.199	6541
687.211	6211
687.245	5440
687.291	6676
687.332	7199
687.336	7244
687.382	7297
687.428	7161
687.453	6897
687.474	6522
687.520	6645
687.565	6129
687.574	6149
687.611	6448
687.657	6022
687.695	6339
687.702	6416
687.748	6285
687.794	7117
687.816	6696
687.839	6198
687.885	6088
687.931	5983
687.937	5962
687.976	5865
688.022	6473
688.058	6292
688.067	6297
688.113	6580
688.158	6433
688.179	6601
688.204	6675
688.249	6405
688.295	6482
688.300	6500
688.340	6924
688.386	7209
688.421	7131
688.431	7059
688.477	7545
688.522	7689
688.542	7347
688.567	6957
688.613	7403
688.658	6742
688.663	6777
688.703	6989
688.749	7110
688.784	7056
688.794	7056
688.839	6404
688.884	6504
688.905	6478
688.930	6508
688.975	6858
689.020	6749
689.026	6741
689.065	6938
689.110	7148
689.146	7484
689.155	7513
689.201	7215
689.246	6785
689.267	6819
689.291	6927
689.336	7132
689.381	7358
689.388	7343
689.426	7356
689.471	6891
689.509	7260
689.516	7307
689.561	7140
689.606	7119
689.630	6977
689.651	6957
689.696	6837
689.741	7249
689.750	7242
689.785	7341
689.830	7300
689.871	7218
689.875	7174
689.920	7431
689.965	6770
689.992	6546
690.010	6706
690.054	7401
690.099	7777
690.112	7760
690.144	7308
690.189	6912
690.233	6989
690.233	7002
690.278	7095
690.323	7176
690.354	7279
690.367	7336
690.412	7952
690.457	7734
690.474	7619
690.501	7438
690.546	7668
690.590	7599
690.595	7608
690.635	7808
690.680	7462
690.716	7777
690.724	7892
690.769	8092
690.813	8768
690.836	8632
690.857	8968
690.902	10149
690.946	11295
690.957	11589
690.991	13978
691.035	17129
691.077	20392
691.080	20427
691.124	19227
691.168	18596
691.198	18331
691.213	17589
691.257	15292
691.301	12511
691.318	11423
691.346	10659
691.390	9193
691.434	8628
691.439	8494
691.478	8428
691.522	8252
691.559	8435
691.567	8510
691.611	8276
691.655	8313
691.680	8459
691.699	8577
691.743	8678
691.787	8554
691.800	8601
691.831	8892
691.875	9135
691.919	9179
691.921	9157
691.964	9001
692.008	9649
692.041	9533
692.052	9511
692.096	9667
692.139	9886
692.162	9849
692.183	9643
692.227	9433
692.271	9286
692.282	9112
692.315	9046
692.359	9328
692.402	9280
692.403	9297
692.447	9314
692.490	9314
692.523	9287
692.534	9402
692.578	9602
692.622	9390
692.643	9776
692.666	9870
692.709	9276
692.753	8657
692.763	8585
692.797	8856
692.840	9028
692.884	9177
692.884	9198
692.928	9129
692.971	9221
693.004	9534
693.015	9601
693.059	9401
693.102	9366
693.124	9471
693.146	9769
693.189	9706
693.233	10152
693.245	10166
693.276	10290
693.320	10482
693.363	10740
693.365	10731
693.407	11010
693.450	11076
693.485	11181
693.493	11390
693.537	12319
693.580	13009
693.605	13429
693.624	14150
693.667	16083
693.710	17749
693.725	18445
693.753	23316
693.797	30903
693.840	38552
693.845	39283
693.883	36859
693.926	34171
693.966	32125
693.970	31567
694.013	24618
694.056	18117
694.086	13694
694.099	13589
694.142	12937
694.185	12258
694.206	11786
694.229	11725
694.272	11829
694.315	12222
694.326	12156
694.358	11796
694.401	11685
694.444	11481
694.446	11438
694.487	11231
694.530	10724
694.566	10636
694.573	10639
694.616	10306
694.659	9912
694.686	9780
694.702	9663
694.745	9088
694.787	8640
694.806	8432
694.830	8644
694.873	8859
694.916	9094
694.926	9127
694.959	9161
695.002	9265
695.044	9127
695.046	9106
695.087	9188
695.130	9097
695.166	9286
695.172	9396
695.215	9569
695.258	9731
695.286	9974
695.301	10009
695.343	10056
695.386	10020
695.406	9976
695.428	9762
695.471	9134
695.514	8784
695.526	8575
695.556	8684
695.599	9176
695.641	9259
695.646	9258
695.684	9194
695.726	9411
695.766	9183
695.769	9218
695.811	9567
695.854	9791
695.886	10094
695.896	10030
695.938	9389
695.981	8938
696.005	8597
696.023	8676
696.065	8891
696.108	8998
696.125	9054
696.150	9295
696.192	9633
696.235	9930
696.245	9969
696.277	9894
696.319	9981
696.361	9733
696.365	9705
696.404	9936
696.446	10021
696.485	10138
696.488	10153
696.530	9918
696.572	9735
696.604	9580
696.614	9592
696.656	9499
696.698	9399
696.724	9337
696.740	9239
696.783	8783
696.825	8581
696.844	8370
696.867	8559
696.909	8915
696.951	9165
696.964	9270
696.992	9388
697.034	9328
697.076	9449
697.083	9434
697.118	9655
697.160	9868
697.202	10099
697.203	10075
697.244	9834
697.286	9584
697.323	9354
697.327	9369
697.369	9226
697.411	9109
697.442	8882
697.453	8978
697.494	9472
697.536	9901
697.562	10053
697.578	10023
697.620	10039
697.661	9939
697.682	9881
697.703	9905
697.744	9887
697.786	9950
697.801	9894
697.828	10102
697.869	10448
697.911	10815
697.921	10864
697.952	10378
697.994	9732
698.035	9003
698.040	8898
698.077	9131
698.118	9321
698.160	9550
698.160	9523
698.201	9370
698.243	9194
698.279	9045
698.284	9111
698.325	9448
698.367	9804
698.399	10027
698.408	9926
698.449	9333
698.491	8788
698.518	8346
698.532	8431
698.573	8674
698.614	8886
698.638	8982
698.656	9077
698.697	9242
698.738	9403
698.757	9445
698.779	9615
698.820	9903
698.862	10173
698.877	10251
698.903	10610
698.944	11119
698.985	11642
698.996	11754
699.026	11557
699.067	11241
699.116	10836
699.235	9882
699.354	9792
699.474	9107
699.593	11962
699.713	11813
699.832	9895
699.951	11101
700.070	10574
700.190	10423
700.309	10244
700.428	12599
700.547	10293
700.667	10527
700.786	12001
700.905	9763
701.024	10830
701.143	9372
701.262	7270
701.381	8428
701.500	9193
701.619	9489
701.738	8263
701.857	8645
701.976	8293
702.095	8132
702.214	9520
702.333	9308
702.452	7886
702.571	7240
702.690	8121
702.809	7579
702.928	7257
703.047	8370
703.165	8052
703.284	8876
703.403	7784
703.522	10701
703.640	10521
703.759	11588
703.878	18407
703.997	9753
704.115	8159
704.234	7378
704.353	7615
704.471	7451
704.590	6588
704.708	7500
704.827	6607
704.946	7736
705.064	9292
705.183	8715
705.301	9765
705.420	14434
705.538	13373
705.656	10838
705.775	10627
705.893	14086
706.012	17698
706.130	11040
706.249	10785
706.367	11493
706.485	12048
706.604	11589
706.722	11827
706.840	14294
706.958	12960
707.077	10979
707.195	9526
707.313	9970
707.431	9700
707.549	10379
707.668	10288
707.786	10935
707.904	9753
708.022	8965
708.140	9220
708.258	8816
708.376	10089
708.494	9634
708.612	11232
708.730	16388
708.848	15013
708.966	13074
709.084	12874
709.202	12063
709.320	12548
709.438	13079
709.556	13193
709.674	12499
709.791	13088
709.909	12181
710.027	12719
710.145	12534
710.263	12232
710.380	12660
710.498	11874
710.616	12322
710.733	12261
710.851	12888
710.969	13312
711.086	12691
711.204	11362
711.322	12016
711.439	11777
711.557	13647
711.674	11718
711.792	12931
711.909	11866
712.027	11336
712.144	10790
712.262	12228
712.379	13177
712.497	18217
712.614	19756
712.732	15383
712.849	14873
712.966	16066
713.084	19090
713.201	15801
713.318	15219
713.436	14847
713.553	14232
713.670	14959
713.787	17218
713.905	17775
714.022	14356
714.139	14262
714.256	14402
714.373	14333
714.490	14209
714.608	15673
714.725	27415
714.842	30399
714.959	13191
715.076	13016
715.193	12072
715.310	12081
715.427	11566
715.544	11723
715.661	12761
715.778	12123
715.895	13311
716.011	14270
716.128	10905
716.245	12635
716.362	13231
716.479	14594
716.596	12663
716.713	12579
716.829	11093
716.946	12958
717.063	9985
717.180	10662
717.296	10316
717.413	10705
717.530	10896
717.646	10388
717.763	10181
717.880	10387
717.996	10282
718.113	10342
718.229	10724
718.346	9276
718.462	10348
718.579	12084
718.695	17402
718.812	16847
718.928	17093
719.045	12854
719.161	9328
719.277	8847
719.394	10073
719.510	10010
719.626	9078
719.743	11386
719.859	9304
719.975	10215
720.092	11674
720.208	18279
720.324	10286
720.440	9746
720.557	11748
720.673	16650
720.789	25707
720.905	63889
721.021	21786
721.137	9843
721.253	9656
721.369	10376
721.486	11925
721.602	18257
721.718	10111
721.834	8221
721.950	8433
722.066	8095
722.181	7379
722.297	9504
722.413	8642
722.529	8956
722.645	8024
722.761	7000
722.877	7259
722.993	7351
723.108	7727
723.224	6915
723.340	8883
723.456	7848
723.571	8154
723.687	7907
723.803	7251
723.918	6379
724.034	7144
724.150	7958
724.265	9175
724.381	21667
724.497	31948
724.612	7539
724.728	7106
724.843	6416
724.959	9385
725.074	21410
725.190	26534
725.305	9119
725.421	6801
725.536	6236
725.651	7081
725.767	6479
725.882	6312
725.997	6512
726.113	6475
726.228	6049
726.343	6055
726.459	5320
726.574	7601
726.689	5652
726.804	6060
726.920	6652
727.035	5916
727.150	7273
727.265	6043
727.380	7283
727.495	5978
727.610	5479
727.725	5632
727.841	5797
727.956	8821
728.071	8589
728.186	5058
728.301	4997
728.416	5122
728.531	5796
728.645	5254
728.760	6908
728.875	7265
728.990	7142
729.105	6026
729.220	5552
729.335	5706
729.449	5230
729.564	4316
729.679	4106
729.794	4963
729.908	6352
730.023	5597
730.138	4173
730.253	4799
730.367	4922
730.482	4922
730.596	4892
730.711	4437
730.826	4605
730.940	3621
731.055	5171
731.169	4797
731.284	4483
731.398	3995
731.513	5799
731.627	4724
731.742	6702
731.856	6830
731.970	4015
732.085	4606
732.199	3817
732.313	3809
732.428	5157
732.542	6831
732.656	6499
732.771	3559
732.885	3572
732.999	3677
733.113	4852
733.227	4461
733.342	4472
733.456	2637
733.570	4073
733.684	3208
733.798	4033
733.912	3588
734.026	3435
734.140	4317
734.254	4752
734.368	10453
734.482	15706
734.596	4670
734.710	4374
734.824	3178
734.938	3448
735.052	3764
735.166	4761
735.280	4656
735.393	3576
735.507	4112
735.621	6646
735.735	15013
735.849	5610
735.962	4047
736.076	5173
736.190	3384
736.303	6377
736.417	10785
736.531	4150
736.644	5424
736.758	2841
736.872	2864
736.985	3430
737.099	3628
737.212	1844
737.326	3390
737.439	3319
737.553	3846
737.666	3304
737.780	2562
737.893	2467
738.007	2987
738.120	2183
738.233	3297
738.347	2339
738.460	3113
738.573	2697
738.687	3070
738.800	3351
738.913	4342
739.026	3057
739.140	2961
739.253	3749
739.366	2234
739.479	3525
739.592	2185
739.705	2463
739.818	2848
739.932	3288
740.045	2682
740.158	2957
740.271	2379
740.384	3066
740.497	3155
740.610	4282
740.723	3228
740.836	3311
740.949	3716
741.062	3883
741.174	4111
741.287	3093
741.400	3127
741.513	4126
741.626	3984
741.739	3830
741.851	2977
741.964	3455
742.077	3248
742.189	3670
742.302	5111
742.415	4620
742.527	4049
742.640	2668
742.753	3391
742.865	1959
742.978	2544
743.090	3018
743.203	2926
743.316	2717
743.428	1790
743.541	1480
743.653	1622
743.766	1660
743.878	2472
743.990	4690
744.103	4667
744.215	3168
744.327	2411
744.440	3258
744.552	5010
744.664	2380
744.777	2472
744.889	1765
745.001	2995
745.113	2022
745.226	1669
745.338	2471
745.450	1868
745.562	1526
745.674	1557
745.786	2558
745.898	1348
746.010	1179
746.122	2439
746.234	1941
746.347	1692
746.459	2365
746.570	1989
746.682	1917
746.794	2803
746.906	2608
747.018	2088
747.130	2188
747.242	2208
747.354	1868
747.466	3357
747.577	1913
747.689	2018
747.801	1473
747.913	1634
748.024	1226
748.136	1992
748.248	1209
748.359	1498
748.471	2333
748.583	1619
748.694	2236
748.806	3031
748.918	4183
749.029	2172
749.141	2020
749.252	1928
749.364	2998
749.475	6357
749.587	4276
749.698	2522
749.809	2019
749.921	1623
750.032	2030
750.144	1674
750.255	1321
750.366	1129
750.478	1995
750.589	1561
750.700	1352
750.811	2048
750.923	3104
751.034	6132
751.145	6329
751.256	1330
751.367	1833
751.479	1426
751.590	1536
751.701	1439
751.812	1171
751.923	1409
752.034	1697
752.145	1270
752.256	1731
752.367	1173
752.478	1309
752.589	1943
752.700	1449
752.811	1769
752.922	1382
753.032	1628
753.143	2896
753.254	945
753.365	2778
753.476	1714
753.586	1266
753.697	300
753.808	2130
753.919	703
754.029	1191
754.140	1306
754.251	2254
754.361	1649
754.472	1653
754.582	1629
754.693	1025
754.804	1908
754.914	866
755.025	938
755.135	1669
755.246	1224
755.356	1020
755.466	1907
755.577	1450
755.687	1421
755.798	1625
755.908	970
756.018	1544
756.129	1102
756.239	1765
756.349	1605
756.460	1188
756.570	1834
756.680	852
756.790	2372
756.900	1682
757.011	2031
757.121	1761
757.231	1247
757.341	1314
757.451	1053
757.561	716
757.671	1986
757.781	1483
757.891	1372
758.001	2121
758.111	1283
758.221	1681
758.331	1596
758.441	1116
758.551	2989
758.661	1724
758.771	1995
758.880	1909
758.990	1767
759.100	1826
759.210	1830
759.320	2095
759.429	2153
759.539	1740
759.649	821
759.758	1750
759.868	2018
759.978	1532
760.087	1666
760.197	1877
760.307	1192
760.416	1716
760.526	1342
760.635	1958
760.745	2081
760.854	1974
760.964	2042
761.073	1997
761.182	2169
761.292	1927
761.401	2331
761.511	2318
761.620	1851
761.729	2121
761.839	2005
761.948	3061
762.057	2692
762.166	1770
762.276	1810
762.385	2920
762.494	2552
762.603	1936
762.712	2678
762.822	2123
762.931	2421
763.040	2293
763.149	2781
763.258	2445
763.367	3290
763.476	3491
763.585	3039
763.694	3876
763.803	3194
763.912	3356
764.021	3490
764.130	3679
764.238	4007
764.347	4221
764.456	3903
764.565	4342
764.674	4133
764.783	4607
764.891	4422
765.000	5583
765.109	6542
765.217	6102
765.326	8297
765.435	11674
765.543	11450
765.652	13289
765.761	18343
765.869	26885
765.978	41504
766.086	70511
766.195	138819
766.303	322346
766.412	670046
766.520	590764
766.629	257193
766.737	101220
766.846	54574
766.954	36000
767.062	26262
767.171	19461
767.279	15258
767.387	11987
767.496	9885
767.604	9573
767.712	8004
767.820	7337
767.928	7334
768.037	6969
768.145	7397
768.253	5914
768.361	5381
768.469	6025
768.577	5868
768.685	6623
768.793	7221
768.901	6718
769.009	8505
769.117	9025
769.225	12248
769.333	17998
769.441	29132
769.549	52124
769.657	117234
769.765	332074
769.873	571604
769.981	280714
770.088	79599
770.196	36093
770.304	23437
770.412	16708
770.519	12330
770.627	9737
770.735	7624
770.842	7555
770.950	6438
771.058	4995
771.165	5726
771.273	4521
771.380	5184
771.488	3869
771.595	3494
771.703	2848
771.810	3495
771.918	2903
772.025	3456
772.133	3179
772.240	3630
772.348	3529
772.455	2689
772.562	2652
772.670	3003
772.777	2626
772.884	2001
772.991	2561
773.099	2644
773.206	2028
773.313	2733
773.420	1796
773.528	1307
773.635	2096
773.742	2473
773.849	2302
773.956	2455
774.063	1859
774.170	1866
774.277	2394
774.384	1874
774.491	1971
774.598	2049
774.705	1916
774.812	2334
774.919	2295
775.026	2604
775.133	1898
775.239	1303
775.346	1859
775.453	1986
775.560	1810
775.667	2146
775.773	1737
775.880	2349
775.987	1998
776.093	2217
776.200	2200
776.307	1929
776.413	1715
776.520	1622
776.627	1820
776.733	2379
776.840	322
776.946	3213
777.053	2925
777.159	4385
777.266	2397
777.372	4776
777.478	4047
777.585	2992
777.691	2170
777.798	1232
777.904	2398
778.010	2773
778.117	2158
778.223	1909
778.329	1711
778.435	2344
778.542	1818
778.648	1325
778.754	1393
778.860	1312
778.966	1786
779.072	2388
779.178	1727
779.284	1351
779.391	1021
779.497	775
779.603	3027
779.708	1403
779.815	4979
779.920	17521
780.026	39111
780.132	4595
780.238	1783
780.344	1679
780.450	1677
780.556	1001
780.661	819
780.767	972
780.873	986
780.979	1306
781.085	890
781.190	1288
781.296	1394
781.402	1139
781.507	1304
781.613	801
781.719	1752
781.824	884
781.930	1411
782.035	808
782.141	1213
782.246	1472
782.352	1481
782.457	1312
782.563	1423
782.668	876
782.773	1035
782.879	572
782.984	2367
783.090	2465
783.195	2716
783.300	2541
783.405	1999
783.511	1380
783.616	2603
783.721	1695
783.826	1325
783.932	1683
784.037	1270
784.142	818
784.247	1153
784.352	1190
784.457	1222
784.562	965
784.667	764
784.772	751
784.877	994
784.982	1101
785.087	282
785.192	1387
785.297	1336
785.402	528
785.507	275
785.611	1422
785.716	917
785.821	1262
785.926	889
786.031	952
786.135	638
786.240	850
786.345	306
786.450	1345
786.554	399
786.659	396
786.763	-161
786.868	1790
786.973	1311
787.077	867
787.182	632
787.286	1045
787.391	810
787.495	655
787.600	1024
787.704	238
787.809	1175
787.913	1058
788.017	1884
788.122	625
788.226	1340
788.330	291
788.435	1013
788.539	781
788.643	631
788.747	865
788.852	594
788.956	38
789.060	1215
789.164	233
789.268	100
789.372	806
789.476	1207
789.580	340
789.684	636
789.788	1493
789.892	26
789.996	1812
790.100	501
790.204	216
790.308	641
790.412	890
790.516	1387
790.620	737
790.724	661
790.828	531
790.931	887
791.035	1376
791.139	1062
791.242	185
791.346	1579
791.450	577
791.554	1303
791.657	-291
791.761	1549
791.864	1300
791.968	411
792.072	870
792.175	1363
792.279	524
792.382	787
792.486	634
792.589	1590
792.693	983
792.796	714
792.899	1332
793.003	160
793.106	96
793.209	617
793.313	1605
793.416	264
793.519	1362
793.623	1400
793.726	2499
793.829	1067
793.932	1390
794.035	-553
794.138	731
794.242	595
794.345	1183
794.448	3218
794.551	2647
794.654	10198
794.757	19461
794.860	4153
794.963	2242
795.066	511
795.169	696
795.272	654
795.375	510
795.477	336
795.580	997
795.683	333
795.786	1041
795.889	-128
795.991	555
796.094	2378
796.197	598
796.300	1231
796.402	-350
796.505	-160
796.608	76
796.710	664
796.813	90
796.915	-522
797.018	493
797.120	219
797.223	-760
797.326	1603
797.428	-767
797.530	251
797.633	143
797.735	1789
797.838	3473
797.940	3082
798.042	-291
798.145	24
798.247	1286
798.349	-444
798.452	1646
798.554	-491
798.656	-972
798.758	1169
798.860	11
798.962	-459
799.065	42
799.167	-523
799.269	1523
799.371	652
799.473	772
799.575	837
799.677	1446
799.779	2692
799.881	818
799.983	807
800.085	604
800.187	120
800.289	50
800.390	328
800.492	284
800.594	616
800.696	-374
800.798	232
800.899	-538
801.001	-240
801.103	-274
801.205	154
801.306	-11
801.408	-1021
801.509	1360
801.611	493
801.713	265
801.814	-195
801.916	-152
802.017	239
802.119	-241
802.220	466
802.322	-1208
802.423	2917
802.525	-147
802.626	829
802.727	-88
802.829	729
802.930	-1804
803.031	1527
803.133	98
803.234	-319
803.335	36
803.436	-565
803.538	691
803.639	-1458
803.740	500
803.841	-581
803.942	584
804.043	280
804.144	-1099
804.245	-421
804.346	18
804.447	-439
804.548	893
804.649	1849
804.750	125
804.851	-962
804.952	-409
805.053	829
805.154	-557
805.255	90
805.355	-555
805.456	-62
805.557	-1291
805.658	-960
805.758	582
805.859	11
805.960	-691
806.061	-925
806.161	-42
806.262	-181
806.362	-578
806.463	464
806.564	4
806.664	385
806.765	50
806.865	1522
806.966	-524
807.066	-918
807.166	972
807.267	265
807.367	-849
807.468	588
807.568	-946
807.668	480
807.769	367
807.869	-1498
807.969	258
808.069	-461
808.170	-37
808.270	-1082
808.370	-55
808.470	59
808.570	141
808.670	-45
808.770	-235
808.870	-1060
808.970	386
809.070	-245
809.170	-439
809.271	-357
809.370	-254
809.470	-322
809.570	-909
809.670	-419
809.770	-457
809.870	-78
809.970	-41
810.070	163
810.169	-264
810.269	-1411
810.369	-129
810.469	-273
810.568	-1474
810.668	-721
810.768	-817
810.867	-145
810.967	-924
811.066	-754
811.166	-225
811.265	-119
811.365	-851
811.464	-850
811.564	-539
811.663	-202
811.763	-1622
811.862	2
811.962	-109
812.061	-390
812.160	-694
812.260	-89
812.359	-140
812.458	821
812.557	2874
812.657	3934
812.756	921
812.855	-115
812.954	-322
813.053	270
813.153	-531
813.252	-864
813.351	-910
813.450	-804
813.549	-1043
813.648	-74
813.747	-492
813.846	-462
813.945	-1184
814.044	40
814.143	-273
814.242	-69
814.341	-1310
814.439	-499
814.538	30
814.637	-534
814.736	-5
814.835	-735
814.933	-1190
815.032	114
815.131	-270
815.229	-788
815.328	-226
815.427	-419
815.525	158
815.624	80
815.722	-703
815.821	-421
815.919	-702
816.018	124
816.116	738
816.215	-477
816.313	-953
816.412	188
816.510	-486
816.609	1251
816.707	-195
816.805	-337
816.904	-670
817.002	-564
817.100	606
817.198	280
817.296	-481
817.395	385
817.493	1650
817.591	-68
817.689	1478
817.787	1287
817.885	3162
817.983	7172
818.081	15762
818.179	43558
818.277	125213
818.375	113760
818.473	21801
818.571	6661
818.669	4061
818.767	3675
818.865	4151
818.963	4574
819.061	7229
819.158	15078
819.256	37523
819.354	93347
819.452	237379
819.549	150040
819.647	29522
819.745	9832
819.842	5941
819.940	3462
820.038	2036
820.135	1869
820.233	2021
820.330	1017
820.428	-163
820.525	1067
820.623	619
820.720	-493
820.818	451
820.915	-245
821.012	280
821.110	-1414
821.207	842
821.304	-608
821.402	-575
821.499	221
821.596	955
821.693	-182
821.791	973
821.888	690
821.985	3357
822.082	1251
822.179	-36
822.276	421
822.373	201
822.470	-40
822.567	-374
822.664	-621
822.761	512
822.858	-1505
822.955	-8
823.052	493
823.149	57
823.246	-512
823.343	-623
823.440	373
823.536	-537
823.633	-866
823.730	-1017
823.827	-462
823.923	-1374
824.020	1150
824.117	-467
824.213	-427
824.310	-132
824.407	-563
824.503	-544
824.600	371
824.696	-535
824.793	-485
824.889	-1650
824.986	-1056
825.082	-507
825.179	-162
825.275	-146
825.371	-1519
825.468	-30
825.564	-1197
825.660	-105
825.757	552
825.853	526
825.949	-1092
826.045	-444
826.142	-1070
826.238	-1151
826.334	-726
826.430	-1384
826.526	251
826.622	-767
826.718	-248
826.814	-1298
826.910	438
827.006	-47
827.102	-1228
827.198	138
827.294	-707
827.390	-510
827.486	95
827.582	-1318
827.678	-870
827.774	-356
827.869	-1511
827.965	911
828.061	-256
828.157	-984
828.252	-63
828.348	-1241
828.444	61
828.539	-1762
828.635	-1591
828.731	-257
828.826	-1337
828.922	-701
829.017	-854
829.113	31
829.208	-683
829.304	-1144
829.399	347
829.495	-900
829.590	204
829.685	-1699
829.781	-557
829.876	-1149
829.971	-634
830.066	-1105
830.162	-1007
830.257	-545
830.352	-1253
830.447	257
830.543	280
830.638	-1297
830.733	-499
830.828	-1084
830.923	-580
831.018	-406
831.113	-998
831.208	-448
831.303	-829
831.398	-602
831.493	-529
831.588	-351
831.683	-1227
831.778	-408
831.873	-862
831.967	363
832.062	-992
832.157	-2044
832.252	111
832.346	-369
832.441	-261
832.536	354
832.631	1472
832.725	1394
832.820	-489
832.914	-836
833.009	-986
833.104	-651
833.198	1013
833.293	-1012
833.387	-288
833.482	-308
833.576	-1220
833.670	-600
833.765	-852
833.859	-951
833.954	-58
834.048	-302
834.142	-363
834.237	-1486
834.331	-499
834.425	-823
834.519	-1392
834.613	241
834.708	-666
834.802	-429
834.896	-1438
834.990	-1616
835.084	-493
835.178	-764
835.272	-792
835.366	-470
835.460	-308
835.554	-1189
835.648	-633
835.742	-674
835.836	-965
835.930	-1389
836.024	157
836.117	-62
836.211	-291
836.305	110
836.399	2968
836.493	-1482
836.586	125
836.680	-1228
836.774	-950
836.867	847
836.961	-1764
837.055	-1092
837.148	-1335
837.242	-420
837.335	-429
837.429	-425
837.522	-627
837.616	-35
837.709	1908
837.803	314
837.896	219
837.989	-572
838.083	1172
838.176	2647
838.269	3311
838.363	227
838.456	-869
838.549	-579
838.642	930
838.735	2908
838.829	1343
838.922	-1256
839.015	-363
839.108	-1350
839.201	-231
839.294	-630
839.387	428
839.480	-198
839.573	392
839.666	890
839.759	-236
839.852	-841
839.945	-541
840.038	-1142
840.131	-933
840.223	-374
840.316	68
840.409	-1251
840.502	-1489
840.594	588
840.687	-2108
840.780	-427
840.873	-1477
840.965	-830
841.058	692
841.150	2853
841.243	1422
841.336	351
841.428	-733
841.521	-1067
841.613	-713
841.706	-10
841.798	-587
841.890	-1613
841.983	-1606
842.075	742
842.167	-301
842.260	-619
842.352	839
842.444	1244
842.537	2768
842.629	6372
842.721	92
842.813	-540
842.905	-1496
842.997	-144
843.090	-30
843.182	1018
843.274	2827
843.366	9489
843.458	19501
843.550	13597
843.642	657
843.734	757
843.826	-175
843.918	436
844.009	-425
844.101	-927
844.193	-515
844.285	-1705
844.377	118
844.469	297
844.560	462
844.652	-75
844.744	723
844.835	-846
844.927	185
845.019	420
845.110	13
845.202	-820
845.293	-1028
845.385	-1463
845.476	-602
845.568	-438
845.659	-1635
845.751	-416
845.842	-1159
845.934	-1529
846.025	-625
846.116	-668
846.208	-912
846.299	-406
846.390	-498
846.482	-874
846.573	184
846.664	681
846.755	-151
846.846	1652
846.937	-1299
847.029	263
847.120	-452
847.211	-2065
847.302	-163
847.393	-1884
847.484	-41
847.575	-1608
847.666	-395
847.757	-1260
847.847	-32
847.938	-582
848.029	-474
848.120	-1857
848.211	-730
848.302	-1881
848.392	-1799
848.483	38
848.574	-675
848.664	-793
848.755	-812
848.846	-250
848.936	-821
849.027	-1264
849.118	-659
849.208	-888
849.299	-657
849.389	-456
849.480	-321
849.570	-395
849.661	582
849.751	1377
849.841	-477
849.932	-951
850.022	-491
850.112	467
850.203	-1417
850.293	-1017
850.383	-675
850.474	-1246
850.564	-659
850.654	-906
850.744	-839
850.834	-1163
850.924	-1311
851.014	-444
851.104	-852
851.194	-935
851.284	-326
851.374	-203
851.464	-606
851.554	-680
851.644	245
851.734	368
851.824	547
851.914	-333
852.004	-717
852.094	-866
852.183	-907
852.273	-618
852.363	-631
852.452	-783
852.542	-1531
852.632	-757
852.721	-394
852.811	-740
852.901	-914
852.990	-931
853.080	-308
853.169	-1558
853.259	-1451
853.348	-1747
853.438	-1132
853.527	-226
853.617	-1543
853.706	-494
853.795	-372
853.885	1906
853.974	1914
854.063	4985
854.152	8993
854.242	1779
854.331	-12
854.420	-1776
854.509	-624
854.598	-500
854.687	-216
854.777	261
854.866	-1090
854.955	-437
855.044	-587
855.133	-1366
855.222	-393
855.311	-941
855.400	-787
855.488	-1289
855.577	-367
855.666	-728
855.755	17
855.844	-833
855.933	-1227
856.021	-323
856.110	-750
856.199	-847
856.288	-840
856.376	-1103
856.465	-1462
856.554	-1102
856.642	-1001
856.731	-1065
856.819	-669
856.908	-1183
856.996	-1061
857.085	-1068
857.173	-961
857.262	-592
857.350	-1068
857.438	-1552
857.527	-667
857.615	-871
857.703	-1179
857.792	-782
857.880	-978
857.968	-1578
858.056	-744
858.145	-1556
858.233	-1342
858.321	-1729
858.409	-124
858.497	-1008
858.585	-1353
858.673	-731
858.761	-992
858.849	-802
858.937	-1129
859.025	-1053
859.113	-305
859.201	-1461
859.289	-343
859.377	-1137
859.465	-916
859.552	-1095
859.640	-1832
859.728	-111
859.816	-484
859.903	-771
859.991	-821
860.079	-806
860.166	-609
860.254	-1209
860.342	-441
860.429	-1478
860.517	-963
860.604	-365
860.692	-1557
860.779	-981
860.867	183
860.954	-1161
861.042	-634
861.129	-608
861.216	-769
861.304	-1580
861.391	-78
861.478	-1336
861.565	-990
861.653	143
861.740	-1342
861.827	-1131
861.914	-645
862.001	-500
862.089	-1039
862.176	-964
862.263	-1116
862.350	-1127
862.437	-1709
862.524	-1508
862.611	-1194
862.698	-982
862.785	-1155
862.871	-902
862.958	-754
863.045	-891
863.132	-477
863.219	-1358
863.306	-1185
863.392	-1947
863.479	-803
863.566	-383
863.652	-379
863.739	-1605
863.826	-1545
863.912	-1220
863.999	-1223
864.086	-1541
864.172	-915
864.259	-1386
864.345	-848
864.432	-1460
864.518	-1226
864.604	-1363
864.691	-1134
864.777	-1212
864.863	-375
864.950	0
865.036	-1554
865.122	-1270
865.209	-613
865.295	-1840
865.381	-962
865.467	-1188
865.553	-699
865.639	-394
865.726	-1015
865.812	-511
865.898	937
865.984	1158
866.070	4084
866.156	5255
866.242	-270
866.328	-371
866.414	-1235
866.499	-1105
866.585	-1267
866.671	-1144
866.757	-1361
866.843	-1356
866.928	-1167
867.014	-1543
867.100	-744
867.186	-852
867.271	-1069
867.357	-385
867.442	494
867.528	-452
867.614	-1292
867.699	-1658
867.785	-564
867.870	-755
867.956	732
868.041	-320
868.127	31
868.212	-155
868.297	-325
868.383	-543
868.468	-707
868.553	889
868.639	389
868.724	1817
868.809	2086
868.894	-746
868.979	-761
869.065	-637
869.150	-949
869.235	-1133
869.320	-1319
869.405	-1977
869.490	-762
869.575	-1280
869.660	-997
869.745	-885
869.830	-2145
869.915	-1474
870.000	-1639
870.085	-1669
870.169	-966
870.254	-1360
870.339	-1823
870.424	-1408
870.509	-1209
870.593	-1382
870.678	-1208
870.763	-1225
870.847	-1245
870.932	-1399
871.016	-842
871.101	-1474
871.186	-1251
871.270	-1108
871.355	-1630
871.439	-793
871.523	-865
871.608	-979
871.692	-808
871.777	-529
871.861	-1107
871.945	-1462
872.030	67
872.114	-1163
872.198	-763
872.282	-660
872.367	-1076
872.451	-1217
872.535	-1335
872.619	-1082
872.703	-1954
872.787	-1265
872.871	-614
872.955	-1517
873.039	-431
873.123	-1842
873.207	-575
873.291	-1732
873.375	-1494
873.459	-1397
873.543	-712
873.627	-1706
873.711	-2051
873.794	-1256
873.878	-1733
873.962	-1398
874.045	-1470
874.129	-1619
874.137	-1524
874.213	-582
874.245	-1005
874.296	-1685
874.352	-1898
874.380	-2005
874.460	-1508
874.464	-1490
874.547	-746
874.568	-807
874.631	-966
874.676	-1004
874.714	-1053
874.784	-865
874.798	-825
874.881	802
874.892	646
874.965	-368
874.999	-719
875.048	-1264
875.107	-965
875.131	-847
875.215	-391
875.215	-392
875.298	-936
875.323	-876
875.381	-751
875.430	-1194
875.465	-1511
875.538	-1006
875.548	-925
875.631	-1214
875.646	-1207
875.714	-1259
875.753	-1176
875.798	-1025
875.861	-1032
875.881	-1073
875.964	-1022
875.968	-1016
876.047	-731
876.076	-880
876.130	-1280
876.183	-1191
876.213	-1096
876.291	-380
876.296	-332
876.379	-1094
876.398	-1160
876.462	-1307
876.506	-723
876.545	-347
876.613	-527
876.628	-518
876.711	-1113
876.721	-1059
876.794	-713
876.828	-1091
876.877	-1614
876.935	-305
876.960	241
877.043	-832
877.043	-830
877.125	-420
877.150	-531
877.208	-846
877.258	-602
877.291	-380
877.365	-390
877.374	-408
877.456	-499
877.472	-526
877.539	-625
877.579	-632
877.622	-585
877.687	-623
877.704	-657
877.787	-846
877.794	-923
877.869	-1508
877.901	-1024
877.952	-383
878.008	-356
878.034	-350
878.115	-854
878.117	-860
878.199	-776
878.222	-902
878.282	-1221
878.329	-529
878.364	-140
878.437	-625
878.447	-673
878.529	-1887
878.544	-1643
878.611	-481
878.651	-569
878.694	-571
878.758	-810
878.776	-942
878.858	-597
878.865	-637
878.941	-1130
878.972	-1151
879.023	-1068
879.078	-1194
879.105	-1245
879.185	-729
879.187	-715
879.269	-935
879.292	-864
879.351	-844
879.399	-960
879.433	-967
879.506	-748
879.516	-756
879.598	-885
879.613	-978
879.680	-1172
879.720	-952
879.762	-812
879.827	-1027
879.844	-1047
879.926	-1233
879.933	-1205
880.007	-888
880.040	-887
880.089	-986
880.147	-805
880.171	-627
880.253	-133
880.254	-133
880.335	-14
880.360	233
880.417	703
880.467	999
880.499	1167
880.574	1330
880.580	1325
880.662	-178
880.680	-354
880.744	-553
880.787	-332
880.825	-448
880.893	-956
880.907	-977
880.989	-688
881.000	-655
881.070	-453
881.106	-645
881.152	-979
881.213	-505
881.233	-342
881.315	-1245
881.319	-1240
881.396	-603
881.426	-469
881.478	-775
881.532	-920
881.559	-802
881.639	-548
881.641	-541
881.722	-688
881.745	-599
881.803	-405
881.852	-497
881.885	-683
881.958	-511
881.966	-475
882.047	-818
882.064	-834
882.129	-754
882.171	-594
882.210	-367
882.277	270
882.291	289
882.372	-671
882.383	-758
882.454	-384
882.489	-198
882.535	-475
882.596	-531
882.616	-441
882.697	-151
882.702	-156
882.778	-469
882.808	-469
882.859	-338
882.914	-581
882.940	-696
883.020	-798
883.021	-795
883.102	-487
883.127	-504
883.183	-642
883.233	-942
883.264	-854
883.339	-304
883.345	-298
883.426	-477
883.445	-440
883.507	-534
883.551	-734
883.587	-544
883.657	-469
883.668	-513
883.749	-24
883.763	-121
883.830	-867
883.869	-979
883.910	-618
883.975	-49
883.991	-56
884.072	-399
884.081	-436
884.152	-404
884.187	-353
884.233	-266
884.292	-547
884.314	-719
884.394	-482
884.398	-504
884.475	-738
884.504	-650
884.555	-378
884.610	-447
884.636	-481
884.716	-396
884.716	-389
884.797	218
884.821	293
884.877	-125
884.927	-529
884.958	-599
885.033	-367
885.038	-343
885.118	-629
885.139	-597
885.199	-668
885.244	-773
885.279	-658
885.350	-406
885.359	-427
885.439	-659
885.456	-765
885.520	-772
885.561	-523
885.600	-461
885.667	-534
885.680	-433
885.760	263
885.773	325
885.840	-226
885.878	-412
885.920	-389
885.984	-478
886.000	-395
886.080	38
886.089	79
886.160	200
886.195	255
886.240	99
886.300	-184
886.320	-142
886.400	186
886.406	196
886.480	-373
886.511	-596
886.560	-733
886.616	-912
886.640	-731
886.720	-228
886.722	-216
886.800	-292
886.827	-345
886.879	-179
886.932	-2
886.959	108
887.038	471
887.039	474
887.119	231
887.143	165
887.198	84
887.248	-90
887.278	-127
887.354	-115
887.358	-114
887.437	-213
887.459	-264
887.517	-91
887.564	139
887.596	15
887.669	-429
887.676	-436
887.755	-538
887.774	-548
887.835	-358
887.880	-238
887.914	-154
887.985	-13
887.994	-59
888.073	-511
888.090	-613
888.153	-448
888.195	-337
888.232	-416
888.300	-483
888.311	-405
888.391	-42
888.405	54
888.470	30
888.510	-93
888.549	-172
888.615	-145
888.628	-211
888.708	-769
888.720	-848
888.787	-333
888.825	-57
888.866	-380
888.930	-875
888.945	-712
889.024	160
889.035	274
889.103	-101
889.140	-302
889.182	-474
889.245	-740
889.261	-492
889.340	688
889.349	820
889.419	304
889.454	61
889.498	-19
889.559	-171
889.577	-286
889.656	-764
889.664	-809
889.735	-406
889.768	-211
889.814	-130
889.873	-19
889.978	-913
890.083	154
890.187	-743
890.292	-716
890.397	-747
890.501	439
890.606	-282
890.710	240
890.815	75
890.919	523
891.024	-250
891.128	252
891.233	617
891.337	-140
891.442	-167
891.546	-592
891.650	-372
891.755	136
891.859	853
891.963	157
892.068	627
892.172	275
892.276	-431
892.380	-81
892.484	-113
892.589	-514
892.693	490
892.797	-93
892.901	35
893.005	-108
893.109	267
893.213	100
893.317	-11
893.421	-574
893.525	-137
893.629	-955
893.733	-302
893.837	258
893.941	-179
894.045	1404
894.148	336
894.252	234
894.356	104
894.460	685
894.564	33
894.667	-207
894.771	49
894.875	-16
894.978	-110
895.082	-553
895.186	290
895.289	253
895.393	107
895.496	78
895.600	-952
895.703	-1074
895.807	150
895.910	-647
896.014	799
896.117	-300
896.221	475
896.324	-367
896.427	-451
896.531	-966
896.634	-829
896.737	196
896.840	-572
896.944	-498
897.047	209
897.150	290
897.253	-1462
897.356	377
897.460	-109
897.563	506
897.666	-103
897.769	-145
897.872	-308
897.975	218
898.078	-277
898.181	744
898.284	-834
898.387	-593
898.490	-971
898.593	163
898.695	-164
898.798	-452
898.901	-41
899.004	-182
899.107	-577
899.209	180
899.312	-320
899.415	309
899.518	-567
899.620	281
899.723	-334
899.826	95
899.928	125
900.031	-65
900.133	-939
900.236	-746
900.338	257
900.441	349
900.543	439
900.646	-381
900.748	82
900.851	574
900.953	98
901.055	-58
901.158	-623
901.260	-245
901.362	-86
901.465	252
901.567	-1023
901.669	695
901.771	-452
901.873	-376
901.976	126
902.078	-231
902.180	-475
902.282	-494
902.384	-313
902.486	-500
902.588	-197
902.690	-767
902.792	-174
902.894	-65
902.996	-700
903.098	726
903.200	-504
903.302	-369
903.404	-304
903.505	-588
903.607	-377
903.709	112
903.811	-219
903.913	8
904.014	-125
904.116	-770
904.218	246
904.319	272
904.421	-356
904.523	-145
904.624	-305
904.726	168
904.827	-212
904.929	-63
905.030	-607
905.132	-53
905.233	-518
905.335	-457
905.436	-650
905.537	172
905.639	137
905.740	409
905.841	109
905.943	269
906.044	-542
906.145	-254
906.247	-528
906.348	526
906.449	-21
906.550	-174
906.651	-39
906.752	-264
906.854	-164
906.955	-61
907.056	-454
907.157	-347
907.258	-170
907.359	320
907.460	204
907.561	-483
907.662	-1146
907.762	119
907.863	-671
907.964	-386
908.065	-314
908.166	-389
908.267	-490
908.367	552
908.468	-146
908.569	27
908.670	-472
908.770	-545
908.871	-20
908.971	412
909.072	-849
909.173	-419
909.273	-1067
909.374	-894
909.474	250
909.575	-1123
909.675	-730
909.776	202
909.876	181
909.977	-6
910.077	-213
910.177	-275
910.278	-248
910.378	609
910.478	69
910.579	-179
910.679	324
910.779	208
910.879	-469
910.980	-460
911.080	174
911.180	-447
911.280	-531
911.380	-298
911.480	-366
911.580	-588
911.680	-148
911.780	-493
911.880	-387
911.980	-699
912.080	139
912.180	531
912.280	-136
912.380	-463
912.480	-455
912.580	55
912.679	-169
912.779	-130
912.879	-232
912.979	-270
913.078	-579
913.178	-29
913.278	-937
913.377	403
913.477	-136
913.577	-87
913.676	438
913.776	-80
913.875	131
913.975	-456
914.074	-466
914.174	-126
914.273	-163
914.373	353
914.472	-552
914.572	-611
914.671	219
914.770	-884
914.870	-107
914.969	-354
915.068	-192
915.167	-254
915.267	-966
915.366	-196
915.465	-324
915.564	-95
915.663	-356
915.763	-597
915.862	-760
915.961	289
916.060	-975
916.159	-111
916.258	-809
916.357	50
916.456	10
916.555	-256
916.654	357
916.752	-77
916.851	-89
916.950	-305
917.049	-343
917.148	-250
917.247	-99
917.345	-88
917.444	-543
917.543	-115
917.642	-535
917.740	478
917.839	43
917.937	-976
918.036	-308
918.135	-370
918.233	-225
918.332	-318
918.430	-1255
918.529	858
918.627	-352
918.726	-464
918.824	-474
918.923	-624
919.021	-270
919.119	67
919.218	-845
919.316	196
919.414	-33
919.512	-550
919.611	-222
919.709	-545
919.807	-506
919.905	-216
920.003	-549
920.102	-106
920.200	49
920.298	-294
920.396	-718
920.494	555
920.592	-242
920.690	620
920.788	-571
920.886	-632
920.984	-273
921.082	-589
921.180	577
921.277	-506
921.375	-132
921.473	-139
921.571	-303
921.669	-282
921.766	-263
921.864	-347
921.962	87
922.060	-399
922.157	-77
922.255	-733
922.352	-680
922.450	68
922.548	11
922.645	207
922.743	-139
922.840	119
922.938	241
923.035	491
923.133	-260
923.230	-359
923.327	-850
923.425	-702
923.522	38
923.619	-11
923.717	-476
923.814	51
923.911	-481
924.008	-93
924.106	-52
924.203	-385
924.300	-865
924.397	-437
924.494	352
924.591	-504
924.688	-219
924.786	500
924.883	-684
924.979	-847
925.077	19
925.173	-421
925.270	-360
925.367	-125
925.464	-198
925.561	-93
925.658	-438
925.755	594
925.852	-655
925.948	0
926.045	-169
926.142	-456
926.239	62
926.335	-733
926.432	-343
926.529	-738
926.625	-842
926.722	-326
926.818	-311
926.915	611
927.011	-289
927.108	-375
927.204	-526
927.301	-488
927.397	-220
927.494	1
927.590	498
927.687	-340
927.783	-506
927.879	-619
927.976	-367
928.072	273
928.168	-784
928.264	-98
928.361	-483
928.457	-295
928.553	-650
928.649	-125
928.745	-302
928.841	-1034
928.937	-1012
929.033	-456
929.129	-24
929.225	-411
929.321	246
929.417	-376
929.513	-1138
929.609	-382
929.705	-793
929.801	-21
929.897	-344
929.993	-304
930.089	-1290
930.184	-742
930.280	-660
930.376	-258
930.471	-579
930.567	-586
930.663	-171
930.758	-509
930.854	-546
930.950	-169
931.045	-322
931.141	-739
931.236	19
931.332	-146
931.427	-977
931.523	-117
931.618	-532
931.714	373
931.809	-538
931.905	-542
932.000	-377
932.095	-564
932.191	152
932.286	-101
932.381	-1033
932.476	-589
932.572	-274
932.667	289
932.762	-464
932.857	393
932.952	55
933.047	-453
933.142	-874
933.237	-226
933.332	-1151
933.427	311
933.522	-671
933.617	-597
933.712	-273
933.807	-3
933.902	-724
933.997	-563
934.092	-549
934.187	201
934.282	-817
934.376	-1063
934.471	-84
934.566	-538
934.661	-214
934.755	-643
934.850	-714
934.945	-78
935.039	-415
935.134	-582
935.228	-464
935.323	-158
935.417	-155
935.512	-544
935.606	-448
935.701	-871
935.795	-625
935.890	-1039
935.984	-20
936.079	-801
936.173	-239
936.267	18
936.362	-49
936.456	-25
936.550	-572
936.644	-326
936.738	-336
936.833	-142
936.927	177
937.021	-311
937.115	-511
937.209	-841
937.303	411
937.397	434
937.491	628
937.585	-361
937.679	-1019
937.773	-617
937.867	-388
937.961	-210
938.055	-738
938.149	-193
938.243	-529
938.337	-55
938.430	-259
938.524	359
938.618	-353
938.712	-884
938.805	-540
938.899	-505
938.993	-642
939.086	-356
939.180	134
939.274	-317
939.367	-337
939.461	-312
939.554	-634
939.648	3
939.741	-1098
939.835	-492
939.928	-886
940.022	-202
940.115	-682
940.208	-292
940.302	40
940.395	-598
940.488	-1031
940.582	-285
940.675	-773
940.768	-634
940.861	-314
940.954	337
941.048	-1141
941.141	-359
941.234	-614
941.327	-642
941.420	-492
941.513	-895
941.606	-430
941.699	277
941.792	-1145
941.885	-139
941.978	-316
942.071	-743
942.164	-643
942.257	-491
942.349	-57
942.442	-27
942.535	-740
942.628	-186
942.721	32
942.813	-1292
942.906	-432
942.999	-413
943.091	-68
943.184	-900
943.277	-482
943.369	124
943.462	-204
943.554	-888
943.647	-1169
943.739	-316
943.832	-379
943.924	-1446
944.017	-42
944.109	-1149
944.201	-153
944.294	-506
944.386	-283
944.478	-1225
944.571	-222
944.663	-540
944.755	-588
944.847	-141
944.940	-441
945.032	-1312
945.124	-227
945.216	229
945.308	-948
945.400	-583
945.492	-231
945.584	-303
945.676	-434
945.768	-189
945.860	-1264
945.952	-376
946.044	-135
946.136	-403
946.228	-1122
946.320	-671
946.412	-1517
946.503	-637
946.595	97
946.687	-568
946.779	-834
946.870	414
946.962	32
947.054	-431
947.145	-353
947.237	-735
947.329	-277
947.420	-755
947.512	-113
947.603	-512
947.695	-916
947.786	-411
947.878	-946
947.969	-935
948.061	-1073
948.152	-1060
948.243	101
948.335	-141
948.426	-1291
948.517	-514
948.609	-685
948.700	-1446
948.791	-98
948.882	-280
948.973	159
949.065	184
949.156	-264
949.247	-522
949.338	-973
949.429	-575
949.520	-513
949.611	-1250
949.702	-752
949.793	-477
949.884	-369
949.975	-730
950.066	-1213
950.157	-343
950.247	-365
950.338	-695
950.429	-712
950.520	-684
950.611	-591
950.701	398
950.792	-1171
950.883	-284
950.973	-1164
951.064	-755
951.155	-967
951.245	372
951.336	-426
951.427	-1792
951.517	-332
951.608	-1302
951.698	-836
951.788	-609
951.879	-1180
951.969	-11
952.060	-387
952.150	-1111
952.240	-592
952.331	-2435
952.421	-48
952.511	-1118
952.602	65
952.692	119
952.782	-888
952.872	-596
952.962	-1103
953.052	-731
953.143	-334
953.233	-283
953.323	-28
953.413	-1412
953.503	-601
953.593	-535
953.683	-577
953.773	-1128
953.863	-1177
953.953	-570
954.042	-421
954.132	-394
954.222	-804
954.312	-1183
954.402	-284
954.492	-851
954.581	-353
954.671	-694
954.761	-1611
954.850	-130
954.940	-357
955.030	-774
955.119	-1421
955.209	-603
955.298	-806
955.388	-475
955.477	-439
955.567	-1428
955.656	-24
955.746	-624
955.835	-775
955.925	-1040
956.014	-982
956.103	-604
956.193	-699
956.282	-965
956.371	-933
956.461	-668
956.550	-169
956.639	-21
956.728	-1533
956.817	-312
956.906	-1326
956.995	66
957.085	-1566
957.174	-1319
957.263	-193
957.352	-1015
957.441	-763
957.530	-1339
957.619	-512
957.708	-734
957.796	-896
957.885	-343
957.974	-625
958.063	-398
958.152	-1990
958.241	-584
958.329	-1016
958.418	-776
958.507	-1647
958.596	223
958.684	-1398
958.773	-56
958.861	-1112
958.950	-916
959.039	-853
959.127	-746
959.216	-1104
959.304	-888
959.393	-1251
959.481	-695
959.570	-238
959.658	-1032
959.746	-640
959.835	-748
959.923	-1306
960.011	-71
960.100	-974
960.188	-1026
960.276	-759
960.365	-1491
960.453	-772
960.541	-1272
960.629	-1495
960.717	-624
960.805	-1146
960.893	-1021
960.981	-1290
961.069	51
961.158	-253
961.245	-1064
961.333	-590
961.421	-226
961.509	-987
961.597	-598
961.685	-1030
961.773	-1621
961.861	-1263
961.949	-470
962.036	-1423
962.124	159
962.212	-993
962.299	-1182
962.387	-1027
962.475	-232
962.562	-1879
962.650	-727
962.738	-303
962.825	-707
962.913	-1281
963.000	-648
963.088	-1365
963.175	-1491
963.263	-1040
963.350	-1344
963.438	-1322
963.525	-727
963.612	-143
963.700	-547
963.787	966
963.874	-659
963.962	-625
964.049	-225
964.136	-1494
964.223	-1242
964.310	-293
964.398	-1126
964.485	-1218
964.572	-691
964.659	-1190
964.746	-659
964.833	-559
964.920	-1182
965.007	-1151
965.094	-447
965.181	-753
965.268	-1328
965.355	-494
965.441	-226
965.528	-1080
965.615	-50
965.702	-810
965.789	-581
965.875	-2245
965.962	-188
966.049	-1094
966.136	-524
966.222	-1007
966.309	-1115
966.395	-547
966.482	-187
966.569	-891
966.655	-992
966.742	-1607
966.828	-819
966.915	-1011
967.001	-1167
967.087	-1932
967.174	-1166
967.260	30
967.347	-686
967.433	-1431
967.519	287
967.605	-1759
967.692	-850
967.778	-956
967.864	-461
967.950	-1178
968.036	-928
968.123	-576
968.209	-1432
968.295	-1420
968.381	443
968.467	-493
968.553	-1928
968.639	85
968.725	-1839
968.811	-1742
968.897	-981
968.983	-594
969.069	-1812
969.154	4
969.240	-63
969.326	-656
969.412	-1246
969.497	-1532
969.583	-1814
969.669	-884
969.755	-681
969.840	-847
969.926	-95
970.012	-538
970.097	-921
970.183	-1305
970.268	-872
970.354	-1016
970.439	-2177
970.525	83
970.610	-1975
970.696	-1457
970.781	-675
970.866	-886
970.952	315
971.037	-1548
971.122	-922
971.208	-761
971.293	-739
971.378	-1442
971.463	-771
971.549	-1141
971.634	-766
971.719	-1212
971.804	-1702
971.889	-878
971.974	-1127
972.059	-365
972.144	-695
972.229	-1034
972.314	-1427
972.399	-1464
972.484	-1224
972.569	-491
972.654	-1033
972.739	102
972.824	-891
972.908	-1252
972.993	-1259
973.078	-923
973.163	-644
973.247	-1371
973.332	-1901
973.417	587
973.501	-1713
973.586	-1052
973.671	-590
973.755	-1523
973.840	-818
973.924	-634
974.009	-824
974.093	-1890
974.178	-827
974.262	-1026
974.346	-1439
974.431	-829
974.515	-1330
974.600	-781
974.684	-781
974.768	-1514
974.852	-576
974.937	-1437
975.021	-375
975.105	-1029
975.189	-1167
975.273	-474
975.358	-1477
975.442	-1946
975.526	-106
975.610	-2215
975.694	-2017
975.778	-269
975.862	-1848
975.946	-3435
976.030	-50
976.114	-1933
976.198	-574
976.281	-1467
976.365	-329
976.449	-1771
976.533	-493
976.617	-1093
976.700	-816
976.784	-1101
976.868	-1124
976.951	-1454
977.035	-1773
977.119	-992
977.202	-895
977.286	-1380
977.369	-867
977.453	-817
977.536	-1414
977.620	-1928
977.703	-68
977.787	-1685
977.870	-494
977.953	-694
978.037	-1822
978.120	-790
978.203	-983
978.287	-1260
978.370	-1303
978.453	-1189
978.536	-604
978.620	307
978.703	-1048
978.786	-1293
978.869	-881
978.952	-1697
979.035	80
979.118	-1180
979.201	-1468
979.284	-1487
979.367	-1601
979.450	-352
979.533	-1808
979.616	-990
979.699	-943
979.782	-1537
979.865	-1268
979.948	-2051
980.030	-1196
980.113	-633
980.196	-1670
980.279	-123
980.361	-517
980.444	-1499
980.526	-586
980.609	-1602
980.692	-1271
980.774	-1324
980.857	-2090
980.939	-162
981.022	-1624
981.104	-1352
981.187	-2540
981.269	-803
981.352	-778
981.434	-1936
981.516	-1508
981.599	78
981.681	-527
981.763	-657
981.846	-556
981.928	-1036
982.010	-604
982.092	-1940
982.174	-1437
982.256	-1926
982.339	-1428
982.421	-956
982.503	-955
982.585	-1583
982.667	-705
982.749	-752
982.831	-1311
982.913	-1973
982.995	-565
983.077	-2488
983.158	-907
983.240	-2255
983.322	-1024
983.404	-1413
983.486	-1578
983.568	-1112
983.649	-2165
983.731	-1238
983.813	-1312
983.894	-425
983.976	-2522
984.058	-1547
984.139	-279
984.221	-2534
984.302	-958
984.384	-2094
984.465	-1600
984.547	-2000
984.628	-1899
984.710	-717
984.791	-1488
984.872	-982
984.954	-1691
985.035	-1225
985.116	-1765
985.198	-1501
985.279	320
985.360	-2071
985.441	-1343
985.522	-1369
985.604	-973
985.685	-2977
985.766	-827
985.847	-444
985.928	-2253
986.009	-1661
986.090	-1888
986.171	-378
986.252	-1561
986.333	-1137
986.414	-2416
986.495	-1258
986.576	-2101
986.656	-1798
986.737	-1223
986.818	-1310
986.899	-1468
986.980	-1077
987.060	-638
987.141	-1505
987.222	-1119
987.302	-1446
987.383	-337
987.464	-1641
987.544	-791
987.625	-1284
987.705	-1155
987.786	-1785
987.866	-1817
987.947	-1978
988.027	-1223
988.108	-2036
988.188	-1565
988.268	-898
988.349	-597
988.429	-1471
988.509	-1414
988.589	-1390
988.670	-2741
988.750	-591
988.830	-1765
988.910	-1780
988.990	-937
989.070	-995
989.151	-1247
989.231	-2141
989.311	-552
989.391	-1648
989.471	-1675
989.551	-1557
989.631	-1204
989.711	-1082
989.791	-1191
989.870	-1318
989.950	220
990.030	-2350
990.110	-1916
990.190	-1421
990.269	-1791
990.349	-1186
990.429	-1127
990.509	-1372
990.588	-1892
990.668	-1162
990.747	-1191
990.827	-285
990.907	-386
990.986	-1135
991.066	-1136
991.145	-1272
991.225	-829
991.304	-2040
991.383	-777
991.463	-1400
991.542	-381
991.622	-1871
991.701	-951
991.780	-1832
991.859	-603
991.939	-1260
992.018	-1044
992.097	-1709
992.176	-1617
992.256	-1648
992.335	-1527
992.414	-770
992.493	-1726
992.572	-1694
992.651	-633
992.730	-1595
992.809	-562
992.888	-2579
992.967	-1777
993.046	-1837
993.125	-2118
993.203	-1152
993.282	-1456
993.361	-1087
993.440	-1500
993.519	-2214
993.597	-603
993.676	-2410
993.755	-1173
993.834	-1525
993.912	-1030
993.991	-699
994.069	-1923
994.148	-1452
994.226	-1975
994.305	-1604
994.384	-1610
994.462	-856
994.540	-1927
994.619	-1565
994.697	-663
994.776	-2460
994.854	-1026
994.932	-1986
995.011	-960
995.089	-2012
995.167	-1431
995.245	-2037
995.324	-1771
995.402	-659
995.480	-1612
995.558	-959
995.636	-2079
995.714	-1957
995.792	-209
995.870	-1829
995.948	-1973
996.026	-1422
996.104	-2861
996.182	-652
996.260	-2158
996.338	-866
996.416	-2240
996.494	-1986
996.572	-1130
996.649	-1466
996.727	-2081
996.805	-1155
996.883	-2404
996.960	-1872
997.038	-728
997.116	-641
997.193	-1824
997.271	-1119
997.348	-2113
997.426	-1306
997.504	-1553
997.581	-1331
997.658	-803
997.736	-2536
997.813	-1435
997.891	-1240
997.968	-1649
998.046	-1646
998.123	-1211
998.200	-1267
998.277	-1791
998.355	-809
998.432	-1498
998.509	-1422
998.586	-939
998.663	-1518
998.741	-1560
998.818	-1308
998.895	-1781
998.972	-1436
999.049	-2051
999.126	-1805
999.203	-1243
999.280	-1235
999.357	-1594
999.434	-2024
999.511	-1157
999.587	-270
999.664	-1386
999.741	-1628
999.818	-912
999.895	-1847
999.971	-1566
1000.048	-1919
1000.125	-16
1000.202	-1670
1000.278	-1233
1000.355	-1099
1000.431	-1213
1000.508	-1050
1000.584	-700
1000.661	-1165
1000.738	-2054
1000.814	-1737
1000.890	-1052
1000.967	-1659
1001.043	-1018
1001.120	-2010
1001.196	-707
1001.272	-1875
1001.349	-1177
1001.425	-656
1001.501	-1105
1001.577	-1914
1001.654	-889
1001.730	-2008
1001.806	-1402
1001.882	-2677
1001.958	-1055
1002.034	-732
1002.110	-1494
1002.186	-1942
1002.262	-2560
1002.338	-1741
1002.414	-1219
1002.490	-1212
1002.566	-1414
1002.642	-2136
1002.718	-540
1002.794	-1577
1002.870	-2329
1002.945	-1674
1003.021	-1892
1003.097	-1552
1003.173	-1461
1003.248	-1932
1003.324	-2110
1003.400	-1104
1003.475	-1471
1003.551	-369
1003.626	-2316
1003.702	-1067
1003.777	-1554
1003.853	-1536
1003.928	-1033
1004.004	-1276
1004.079	-1580
1004.155	-1415
1004.230	-2384
1004.305	-910
1004.381	-1643
1004.456	-1336
1004.531	-1698
1004.607	-1667
1004.682	-1034
1004.757	-1500
1004.832	-1556
1004.907	-1359
1004.982	-981
1005.057	-2084
1005.133	-2704
1005.208	-1384
1005.283	-1605
1005.358	-1155
1005.433	-2574
1005.508	-1295
1005.583	-2049
1005.657	-1201
1005.732	-1075
1005.807	-2147
1005.882	-1441
1005.957	-1387
1006.032	-1343
1006.106	-1733
1006.181	-1455
1006.256	-1547
1006.331	-2165
1006.405	-2039
1006.480	-1368
1006.554	-1988
1006.629	-502
1006.704	-2117
1006.778	-1150
1006.853	-1018
1006.927	-1852
1007.002	-1898
1007.076	-1037
1007.150	-937
1007.225	-1995
1007.299	-1672
1007.373	-2477
1007.448	-1225
1007.522	-939
1007.596	-1575
1007.671	-1133
1007.745	-1007
1007.819	-2095
1007.893	-1415
1007.967	-1269
1008.041	-2509
1008.115	-590
1008.190	-1972
1008.264	-1476
1008.338	-2538
1008.412	-1611
1008.486	-1539
1008.560	-1404
1008.633	-2233
1008.707	-1684
1008.781	-1028
1008.855	-1734
1008.929	-1208
1009.003	-1895
1009.076	-1969
1009.150	-1952
1009.224	-989
1009.298	-1709
1009.371	-2107
1009.445	-1453
1009.519	-2719
1009.592	-1999
1009.666	-2149
1009.739	-1138
1009.813	-2470
1009.886	-1172
1009.960	-1981
1010.033	-1704
1010.107	-1640
1010.180	-1581
1010.253	-2315
1010.327	-2690
1010.400	-1621
1010.473	-1268
1010.547	-109
1010.620	-1992
1010.693	-1652
1010.766	-1599
1010.840	-1779
1010.913	-1465
1010.986	-2188
1011.059	-1631
1011.132	-2681
1011.205	-1597
1011.278	-2249
1011.351	-2622
1011.424	-1846
1011.497	-2528
1011.570	-1726
1011.643	-1915
1011.716	-1953
1011.789	-955
1011.862	-986
1011.934	-1405
1012.007	-2443
1012.080	-2404
1012.153	-1410
1012.225	-1246
1012.298	-2269
1012.371	-1327
1012.443	-1064
1012.516	-2252
1012.588	-1364
1012.661	-1979
1012.733	-2579
1012.806	-532
1012.879	-1491
1012.951	-1460
1013.023	-1664
1013.096	-1320
1013.168	-1837
1013.241	-988
1013.313	-1728
1013.385	-1750
1013.458	-910
1013.530	-755
1013.602	-2183
1013.674	-1173
1013.746	-1492
1013.819	-1428
1013.891	-1680
1013.963	-2182
1014.035	-1621
1014.107	-1688
1014.179	-1562
1014.251	-1722
1014.323	-1382
1014.395	-1391
1014.467	-1753
1014.539	-2016
1014.611	-3021
1014.683	-1398
1014.754	-1274
1014.826	-2111
1014.898	-1531
1014.970	-2676
1015.042	-1405
1015.113	-1638
1015.185	-1788
1015.257	-2438
1015.328	-1434
1015.400	-1846
1015.471	-1316
1015.543	-2525
1015.615	-1216
1015.686	-1947
1015.757	-2121
1015.829	-1754
1015.901	-2149
1015.972	-1970
1016.043	-2496
1016.115	-2037
1016.186	-2363
1016.257	-1780
1016.328	-1435
1016.400	-1347
1016.471	-2800
1016.542	-1861
1016.613	-1687
1016.685	-2298
1016.756	-1615
1016.827	-1770
1016.898	-2321
1016.969	-1139
1017.040	-1781
1017.111	-1980
1017.182	-1559
1017.253	-1918
1017.324	-2553
1017.395	-1707
1017.466	-1751
1017.537	-1700
1017.608	-2245
1017.678	-1689
1017.749	-1758
1017.820	-1145
1017.891	-2151
1017.961	-2041
1018.032	-2323
1018.103	-1685
1018.173	-1637
1018.244	-2387
1018.315	-1477
1018.385	-1370
1018.456	-2464
1018.526	-1807
1018.597	-1658
1018.667	-2200
1018.738	-2155
1018.808	-1386
1018.878	-2646
1018.949	-1435
1019.019	-2210
1019.089	-1142
1019.160	-2593
1019.230	-2333
1019.300	-1719
1019.371	-2409
1019.441	-1519
1019.511	-1654
1019.581	-1645
1019.651	-1389
1019.721	-1943
1019.791	-2101
1019.861	-2063
1019.931	-1952
1020.001	-2096
1020.071	-2373
1020.141	-1957
1020.211	-2337
1020.281	-1565
1020.351	-3171
1020.421	-1255
1020.491	-1335
1020.560	-2373
1020.630	-2013
1020.700	-2279
1020.770	-2456
1020.839	-2364
1020.909	-2523
1020.979	-2291
1021.048	-2446
1021.118	-2097
1021.187	-1939
1021.257	-2228
1021.326	-1785
1021.396	-2133
1021.465	-2032
1021.535	-2612
1021.604	-1657
1021.674	-1346
1021.743	-2340
1021.812	-1749
1021.882	-1297
1021.951	-2753
1022.020	-1333
1022.089	-1381
1022.159	-2545
1022.228	-1837
1022.297	-2432
1022.366	-1896
1022.435	-2169
1022.504	-1638
1022.573	-2227
1022.642	-2185
1022.711	-2469
1022.781	-1907
1022.849	-1475
1022.918	-2087
1022.987	-2191
1023.056	-2454
1023.125	-1927
1023.194	-2491
1023.263	-2691
1023.331	-1885
1023.400	-2756
1023.469	-2530
1023.538	-2367
1023.606	-2663
1023.675	-1913
1023.744	-2005
1023.812	-3528
1023.881	-2638
1023.949	-2765
1024.018	-2277
1024.086	-2886
1024.155	-1747
1024.223	-2556
1024.292	-1575
1024.360	-2065
1024.429	-2203
1024.497	-2029
1024.565	-2648
1024.634	-2451
1024.702	-2471
1024.770	-1924
1024.838	-1943
1024.907	-2458
1024.975	-2508
1025.043	-1937
1025.111	-2812
1025.179	-2158
1025.247	-2465
1025.315	-1914
1025.383	-1996
1025.451	-1983
1025.519	-2158
1025.587	-3367
1025.655	-2721
1025.723	-2186
1025.791	-2268
1025.859	-1645
1025.927	-1342
1025.995	-3137
1026.062	-1854
1026.130	-2347
1026.198	-2063
1026.266	-2143
1026.333	-1611
1026.401	-1394
1026.469	-1685
1026.536	-2429
1026.604	-2469
1026.671	-2499
1026.739	-2047
1026.806	-1885
1026.874	-2047
1026.941	-2485
1027.009	-2487
1027.076	-2242
1027.144	-1933
1027.211	-2761
1027.278	-2220
1027.345	-1641
1027.413	-1955
1027.480	-1984
1027.547	-2236
1027.614	-2902
1027.682	-1999
1027.749	-2106
1027.816	-2745
1027.883	-2222
1027.950	-1663
1028.017	-2655
1028.084	-2396
1028.151	-2333
1028.218	-2777
1028.285	-1671
1028.352	-2349
1028.419	-2413
1028.486	-2505
1028.553	-2196
1028.619	-2889
1028.686	-2305
1028.753	-3231
1028.820	-2601
1028.886	-2795
1028.953	-1801
1029.020	-2522
1029.086	-2200
1029.153	-2394
1029.220	-2179
1029.286	-2412
1029.353	-2434
1029.419	-1946
1029.486	-2591
1029.552	-2835
1029.619	-2181
1029.685	-2777
1029.751	-2936
1029.818	-2545
1029.884	-2495
1029.951	-1225
1030.017	-1914
1030.083	-2863
1030.149	-2393
1030.216	-2674
1030.282	-2197
1030.348	-2651
1030.414	-2787
1030.480	-2638
1030.546	-2996
1030.612	-2780
1030.678	-2830
1030.744	-1809
1030.810	-3023
1030.876	-2630
1030.942	-2358
1031.008	-1990
1031.074	-2120
1031.140	-2307
1031.206	-1560
1031.272	-3299
1031.337	-1951
1031.403	-1746
1031.469	-2788
1031.534	-2413
1031.600	-2583
1031.666	-3237
1031.731	-2065
1031.797	-2665
1031.863	-2218
1031.928	-3120
1031.994	-2622
1032.059	-2764
1032.125	-2255
1032.190	-2034
1032.256	-2320
1032.321	-2457
1032.386	-1786
1032.452	-2764
1032.517	-2103
1032.582	-2986
1032.647	-2253
1032.713	-2696
1032.778	-2487
1032.843	-2867
1032.908	-2962
1032.974	-2337
1033.039	-2882
1033.104	-2356
1033.169	-2729
1033.234	-2625
1033.299	-1414
1033.364	-2516
1033.429	-3016
1033.494	-2099
1033.559	-2200
1033.624	-2469
1033.688	-1551
1033.753	-1895
1033.818	-2347
1033.883	-2473
1033.948	-2155
1034.013	-2767
1034.077	-2304
1034.142	-1568
1034.207	-2982
1034.271	-2529
1034.336	-1747
1034.400	-1943
1034.465	-2764
1034.530	-2695
1034.594	-2271
1034.658	-2236
1034.723	-2337
1034.787	-2746
1034.852	-2312
1034.916	-2794
1034.981	-2427
1035.045	-2390
1035.109	-2147
1035.173	-1236
1035.238	-2605
1035.302	-2403
1035.366	-2621
1035.430	-3129
1035.495	-2256
1035.559	-2388
1035.623	-3066
1035.687	-2086
1035.751	-2368
1035.815	-3174
1035.879	-2996
1035.943	-2441
1036.007	-2583
1036.071	-1805
1036.135	-2295
1036.198	-2256
1036.262	-2093
1036.326	-1884
1036.390	-1708
1036.454	-1923
1036.517	-1986
1036.581	-3004
1036.645	-2478
1036.709	-1861
1036.772	-3388
1036.836	-2405
1036.900	-1892
1036.963	-2630
1037.026	-2486
1037.090	-2275
1037.154	-1779
1037.217	-2477
1037.280	-2297
1037.344	-2404
1037.407	-2842
1037.471	-1814
1037.534	-2657
1037.597	-2164
1037.661	-2271
1037.724	-3068
1037.787	-2727
1037.850	-2773
1037.913	-2367
1037.977	-1937
1038.040	-2600
1038.103	-3384
1038.166	-2399
1038.229	-2768
1038.292	-2214
1038.355	-2913
1038.418	-2866
1038.481	-2842
1038.544	-2828
1038.607	-2204
1038.670	-2517
1038.732	-2842
1038.795	-3190
1038.858	-2898
1038.921	-2416
1038.984	-2231
1039.046	-2376
1039.109	-2718
1039.172	-2054
1039.234	-2603
1039.297	-2080
1039.360	-2205
1039.422	-2154
1039.485	-2614
1039.547	-2849
1039.610	-2409
1039.672	-2889
1039.734	-2045
1039.797	-2617
1039.859	-1789
1039.922	-2148
1039.984	-2517
1040.046	-2502
1040.109	-2919
1040.171	-2951
1040.233	-2440
1040.295	-2481
1040.358	-1802
1040.420	-1577
1040.482	-2721
1040.544	-3008
1040.606	-2496
1040.668	-2153
1040.730	-2796
1040.792	-2210
1040.854	-2397
1040.916	-1651
1040.978	-3320
1041.040	-2134
1041.102	-2967
1041.164	-2123
1041.225	-2647
1041.287	-2644
1041.349	-3039
1041.411	-2048
1041.472	-2744
1041.534	-2823
1041.596	-2471
1041.657	-2097
1041.719	-2230
1041.781	-2490
1041.842	-2409
1041.904	-2019
1041.965	-2870
1042.027	-1657
1042.088	-2715
1042.150	-2145
1042.211	-2187
1042.272	-2270
1042.334	-2165
1042.395	-2434
1042.456	-1709
1042.518	-2040
1042.579	-2310
1042.640	-3124
1042.701	-2103
1042.763	-3036
1042.824	-2077
1042.885	-2537
1042.946	-2486
1043.007	-2784
1043.068	-2292
1043.129	-2318
1043.190	-2395
1043.251	-2152
1043.312	-2393
1043.373	-2155
1043.434	-3135
1043.495	-2228
1043.556	-1933
1043.616	-1364
1043.677	-1797
1043.738	-2216
1043.799	-2004
1043.859	-2222
1043.920	-2909
1043.981	-2512
1044.041	-1444
1044.102	-2877
1044.162	-2118
1044.223	-2429
1044.284	-2917
1044.344	-2178
1044.405	-2468
1044.465	-2445
1044.525	-2538
1044.586	-2777
1044.646	-3304
1044.707	-2175
1044.767	-2680
1044.827	-1866
1044.887	-2033
1044.948	-1140
1045.008	-3034
1045.068	-1752
1045.128	-2969
1045.188	-2114
1045.249	-1696
1045.309	-1493
1045.369	-2241
1045.429	-2703
1045.489	-2807
1045.549	-2218
1045.609	-2537
1045.669	-2333
1045.729	-1506
1045.789	-2759
1045.848	-2069
1045.908	-1686
1045.968	-1860
1046.028	-2254
1046.088	-2444
1046.147	-1615
1046.207	-1657
1046.267	-1695
1046.326	-2053
1046.386	-3066
1046.446	-1726
1046.505	-1351
1046.565	-1833
1046.624	-1753
1046.684	-1524
1046.743	-1222
1046.803	-709
1046.862	-1060
1046.922	0
