'Start Wavelength	183.907
'End Wavelength	1046.922
'Gate Delay	5.000
'Gate Width (ms)	1.050
'Laser Output Level	0.000
'X Position	0.000
'Y Position	0.000
'Z Position	0.000
'Grid Point Number	1.000
'Shot Number	100.000
183.907	-177.000
183.977	299.000
184.047	522
184.116	713
184.186	106
184.256	1032
184.325	71
184.395	251
184.465	243
184.534	86
184.604	-11
184.674	1592
184.743	73
184.813	1459
184.883	142
184.952	1160
185.022	-607
185.092	638
185.161	-411
185.231	182
185.301	285
185.370	576
185.440	-26
185.509	248
185.579	556
185.649	814
185.718	192
185.788	858
185.857	83
185.927	519
185.996	238
186.066	531
186.136	257
186.205	559
186.275	-336
186.344	-128
186.414	15
186.483	-65
186.553	541
186.622	904
186.692	-100
186.761	235
186.831	16
186.900	545
186.970	173
187.039	613
187.109	215
187.178	732
187.248	-173
187.317	648
187.387	-232
187.456	1125
187.526	535
187.595	1010
187.664	115
187.734	871
187.803	106
187.873	1173
187.942	355
188.012	807
188.081	316
188.150	1071
188.220	846
188.289	1158
188.358	727
188.428	1105
188.497	-569
188.567	783
188.636	517
188.705	451
188.775	-1101
188.844	863
188.913	867
188.983	538
189.052	668
189.121	308
189.191	645
189.260	1164
189.329	171
189.399	630
189.468	167
189.537	861
189.606	462
189.676	1452
189.745	1402
189.814	1582
189.883	569
189.953	1225
190.022	836
190.091	1704
190.161	2637
190.230	828
190.299	163
190.368	932
190.437	13
190.507	385
190.576	876
190.645	757
190.714	-38
190.783	844
190.853	1026
190.922	727
190.991	314
191.060	1024
191.129	-237
191.198	1463
191.268	152
191.337	848
191.406	506
191.475	621
191.544	41
191.613	381
191.682	339
191.752	1246
191.821	226
191.890	1751
191.959	550
192.028	930
192.097	497
192.166	632
192.235	-260
192.304	1068
192.373	-66
192.442	721
192.511	871
192.580	1840
192.650	67
192.719	479
192.788	637
192.857	733
192.926	1166
192.995	1161
193.064	1054
193.133	1715
193.202	1433
193.271	1929
193.340	1404
193.409	2246
193.478	1535
193.547	2190
193.615	2457
193.684	3180
193.753	1835
193.822	2451
193.891	1213
193.960	1767
194.029	810
194.098	2392
194.167	93
194.236	2428
194.305	46
194.374	490
194.443	132
194.512	1472
194.580	384
194.649	1765
194.718	863
194.787	867
194.856	424
194.925	1063
194.994	229
195.062	1640
195.131	1352
195.200	1243
195.269	1116
195.338	1560
195.407	1466
195.475	1088
195.544	1248
195.613	1625
195.682	675
195.751	1450
195.819	759
195.888	1271
195.957	1483
196.026	1796
196.094	1239
196.163	1405
196.232	1476
196.301	1475
196.369	1016
196.438	412
196.507	231
196.576	1050
196.644	548
196.713	910
196.782	987
196.850	2082
196.919	400
196.988	1492
197.056	835
197.125	1283
197.194	864
197.262	1200
197.331	455
197.400	994
197.468	784
197.537	1413
197.606	657
197.674	2376
197.743	2063
197.812	1500
197.880	2866
197.949	2172
198.017	2091
198.086	2496
198.155	961
198.223	1579
198.292	3152
198.360	1488
198.429	1451
198.497	1289
198.566	1824
198.635	3605
198.703	733
198.772	2287
198.840	3473
198.909	3384
198.977	1825
199.046	1160
199.114	788
199.183	1628
199.251	435
199.320	737
199.388	1119
199.457	1327
199.525	574
199.594	1438
199.662	606
199.731	1124
199.799	785
199.867	1269
199.936	921
200.004	1827
200.073	1955
200.141	1780
200.210	139
200.278	1333
200.346	431
200.415	1911
200.483	733
200.552	967
200.620	911
200.688	1189
200.757	506
200.825	1617
200.893	880
200.962	1676
201.030	1008
201.098	1035
201.167	1912
201.235	1494
201.303	1042
201.372	1579
201.440	1762
201.508	1354
201.577	1261
201.645	1897
201.713	1047
201.781	1758
201.850	1614
201.918	2632
201.986	827
202.055	1918
202.123	725
202.191	1228
202.259	748
202.327	2422
202.396	1554
202.464	1804
202.532	402
202.600	3753
202.669	2201
202.737	2282
202.805	804
202.873	2155
202.941	1323
203.009	1882
203.078	899
203.146	1799
203.214	1884
203.282	1275
203.350	1940
203.418	1657
203.487	1334
203.555	1682
203.623	1586
203.691	1987
203.759	913
203.827	1933
203.895	541
203.963	1874
204.031	15
204.099	789
204.168	1188
204.236	2116
204.304	1376
204.372	1586
204.440	1396
204.508	986
204.576	867
204.644	2528
204.712	1163
204.780	1858
204.848	1116
204.916	1195
204.984	1548
205.052	1704
205.120	1392
205.188	2347
205.256	1906
205.324	2157
205.392	2141
205.460	2577
205.528	485
205.596	2438
205.664	1603
205.732	1569
205.799	3078
205.867	6138
205.935	2245
206.003	2452
206.071	1098
206.139	2290
206.207	1374
206.275	1867
206.343	1299
206.411	1796
206.478	1601
206.546	2716
206.614	1176
206.682	2135
206.750	1489
206.818	1933
206.885	1829
206.953	937
207.021	2287
207.089	2355
207.157	2003
207.225	2100
207.292	1643
207.360	2777
207.428	1905
207.496	1694
207.563	2037
207.631	2355
207.699	1143
207.767	2497
207.834	1742
207.902	2016
207.970	669
208.038	1503
208.105	1945
208.173	2262
208.241	2046
208.309	2503
208.376	1807
208.444	3868
208.512	2141
208.579	1856
208.647	2485
208.715	2455
208.782	1583
208.850	2750
208.918	2536
208.985	2383
209.053	1903
209.120	2682
209.188	1180
209.256	2316
209.323	1942
209.391	2671
209.459	2493
209.526	2867
209.594	2420
209.661	2767
209.729	2720
209.796	2132
209.864	1322
209.932	1800
209.999	2433
210.067	2903
210.134	2056
210.202	2104
210.269	3228
210.337	3541
210.404	2036
210.472	2466
210.539	2230
210.607	2678
210.674	2630
210.742	2539
210.809	2133
210.877	2783
210.944	3084
211.012	1707
211.079	4248
211.146	2482
211.214	2550
211.281	2782
211.349	2294
211.416	2534
211.484	3652
211.551	2667
211.618	2841
211.686	2415
211.753	1970
211.821	2343
211.888	2203
211.955	3178
212.023	2556
212.090	3320
212.157	2503
212.225	3417
212.292	5186
212.359	6861
212.427	15848
212.494	8626
212.561	3084
212.629	4290
212.696	2716
212.763	3400
212.831	1923
212.898	3938
212.965	2139
213.032	3497
213.100	3426
213.167	3087
213.234	3212
213.301	3600
213.369	2491
213.436	3152
213.503	1782
213.570	3093
213.638	3294
213.705	2849
213.772	2251
213.839	3086
213.906	3666
213.973	3540
214.041	2086
214.108	2858
214.175	2925
214.242	3576
214.309	2578
214.376	3456
214.444	2016
214.511	3558
214.578	3377
214.645	3720
214.712	3294
214.779	4394
214.846	2831
214.913	3814
214.980	3351
215.048	4782
215.115	3801
215.182	4403
215.249	2599
215.316	3118
215.383	2764
215.450	3571
215.517	2955
215.584	3932
215.651	2374
215.718	2148
215.785	2711
215.852	3263
215.919	3067
215.986	3194
216.053	2020
216.120	2810
216.187	2727
216.254	3669
216.321	3106
216.388	2788
216.455	3682
216.522	3295
216.589	3358
216.656	5694
216.722	5160
216.789	4727
216.856	4908
216.923	4638
216.990	4272
217.057	4302
217.124	5284
217.191	4167
217.258	5472
217.324	7339
217.391	7478
217.458	5763
217.525	4064
217.592	4075
217.659	3206
217.725	4053
217.792	3843
217.859	5385
217.926	2990
217.993	3067
218.059	2387
218.126	2960
218.193	2710
218.260	2681
218.327	1991
218.393	3258
218.460	1916
218.527	2158
218.594	2489
218.660	3619
218.727	4229
218.794	2301
218.860	2692
218.927	2339
218.994	2304
219.061	2849
219.127	1808
219.194	4253
219.261	2333
219.327	1671
219.394	2238
219.461	1222
219.527	1967
219.594	3820
219.661	2520
219.727	1700
219.794	3022
219.860	2354
219.927	2762
219.994	3553
220.060	4274
220.127	4257
220.193	3400
220.260	4056
220.326	5828
220.393	9774
220.460	10654
220.526	7859
220.593	5094
220.659	6927
220.726	5535
220.792	10369
220.859	10360
220.925	14085
220.992	17325
221.058	16654
221.125	14463
221.191	10723
221.258	4027
221.324	4906
221.391	3053
221.457	3321
221.524	3767
221.590	4951
221.657	10700
221.723	9076
221.789	7492
221.856	7584
221.922	3585
221.989	3477
222.055	3185
222.121	2529
222.188	3533
222.254	3207
222.321	1982
222.387	2426
222.453	2403
222.520	2292
222.586	2329
222.652	2136
222.719	1578
222.785	2923
222.851	1897
222.918	2052
222.984	1818
223.050	2694
223.116	722
223.183	3307
223.249	1964
223.315	1638
223.382	1872
223.448	2219
223.514	2036
223.580	1858
223.647	1125
223.713	2110
223.779	1184
223.845	2291
223.911	2215
223.978	1650
224.044	1950
224.110	2355
224.176	1657
224.242	1678
224.309	728
224.375	2206
224.441	2026
224.507	1879
224.573	933
224.639	2373
224.705	1061
224.772	2320
224.838	890
224.904	2285
224.970	1249
225.036	2190
225.102	1705
225.168	2048
225.234	1373
225.300	2392
225.366	1278
225.432	2672
225.499	1510
225.565	2116
225.631	1926
225.697	2130
225.763	3236
225.829	4927
225.895	3181
225.961	4903
226.027	4010
226.093	4249
226.159	5623
226.225	8661
226.291	16466
226.357	24160
226.423	14324
226.489	9748
226.554	5869
226.620	5459
226.686	7698
226.752	10603
226.818	15575
226.884	28227
226.950	24993
227.016	12846
227.082	7537
227.148	6040
227.214	5149
227.279	4591
227.345	4234
227.411	3847
227.477	2630
227.543	3392
227.609	3519
227.674	4417
227.740	3118
227.806	3481
227.872	2322
227.938	3132
228.003	3910
228.069	2653
228.135	2393
228.201	3370
228.267	2313
228.332	2851
228.398	2525
228.464	2545
228.530	573
228.595	2963
228.661	1736
228.727	3100
228.792	3493
228.858	2602
228.924	426
228.990	3896
229.055	1821
229.121	3347
229.187	1843
229.252	3104
229.318	1834
229.384	2614
229.449	2326
229.515	919
229.581	1112
229.646	3012
229.712	2529
229.777	4716
229.843	4710
229.909	3634
229.974	4419
230.040	4452
230.105	3636
230.171	3217
230.236	4443
230.302	7112
230.368	4419
230.433	3279
230.499	2604
230.564	5027
230.630	2332
230.695	3585
230.761	3248
230.826	1361
230.892	4057
230.957	2409
231.023	2305
231.088	2934
231.154	2321
231.219	3402
231.284	3093
231.350	3731
231.415	1938
231.481	3044
231.546	2327
231.612	2856
231.677	764
231.742	1058
231.808	2841
231.873	1932
231.939	1077
232.004	3618
232.069	4220
232.135	2575
232.200	1554
232.265	2841
232.331	1455
232.396	2813
232.461	1113
232.527	1571
232.592	897
232.657	2639
232.723	3010
232.788	2904
232.853	2049
232.918	2403
232.984	1411
233.049	2016
233.114	2403
233.179	3021
233.245	4062
233.310	5980
233.375	1740
233.440	3015
233.506	1755
233.571	1526
233.636	1551
233.701	2647
233.766	3199
233.832	4449
233.897	1911
233.962	1356
234.027	2541
234.092	2222
234.157	2024
234.222	1959
234.288	3327
234.353	10631
234.418	8832
234.483	6041
234.548	4113
234.613	3756
234.678	3513
234.743	4185
234.808	10604
234.873	7191
234.938	4700
235.004	3816
235.069	2771
235.134	3882
235.199	2662
235.264	3768
235.329	1083
235.394	3597
235.459	4215
235.524	3181
235.589	3729
235.654	2812
235.719	1362
235.784	3779
235.849	2466
235.913	6416
235.978	5461
236.043	7322
236.108	4157
236.173	3256
236.238	4179
236.303	3190
236.368	2478
236.433	5952
236.498	8051
236.563	7968
236.627	13319
236.692	37983
236.757	31846
236.822	15415
236.887	9560
236.952	9588
237.017	6983
237.081	8915
237.146	10618
237.211	22162
237.276	38791
237.341	54184
237.405	29739
237.470	13950
237.535	9062
237.600	7615
237.664	5554
237.729	4153
237.794	5723
237.859	14427
237.923	8464
237.988	5642
238.053	6918
238.118	6724
238.182	15283
238.247	14956
238.312	6018
238.376	5408
238.441	3171
238.506	4807
238.570	1419
238.635	4913
238.700	2151
238.764	3428
238.829	6944
238.893	7985
238.958	5587
239.023	3802
239.087	2669
239.152	4025
239.216	1955
239.281	3461
239.346	2842
239.410	3193
239.475	2974
239.539	14118
239.604	9800
239.668	4344
239.733	2843
239.797	2893
239.862	3826
239.926	9657
239.991	4592
240.055	3614
240.120	1421
240.184	2845
240.249	1572
240.313	2398
240.378	2558
240.442	8610
240.507	12689
240.571	4580
240.635	6058
240.700	8436
240.764	3328
240.829	3402
240.893	1318
240.957	3258
241.022	7732
241.086	13324
241.151	5052
241.215	2787
241.279	3659
241.344	6592
241.408	3346
241.472	2880
241.537	3967
241.601	4557
241.665	2511
241.730	2999
241.794	4858
241.858	3114
241.922	3278
241.987	3486
242.051	2809
242.115	3127
242.179	3145
242.244	3254
242.308	4133
242.372	3962
242.436	3083
242.501	4156
242.565	2625
242.629	2279
242.693	3086
242.757	2272
242.822	3060
242.886	3497
242.950	3504
243.014	3829
243.078	3158
243.142	3418
243.206	3220
243.271	3649
243.335	3536
243.399	7040
243.463	19668
243.527	47687
243.591	16622
243.655	7809
243.719	3365
243.783	6273
243.847	8374
243.911	10165
243.975	9986
244.040	6484
244.104	5751
244.168	3755
244.232	5010
244.296	7879
244.360	7829
244.424	5515
244.488	4476
244.552	3848
244.615	1810
244.679	3615
244.743	3361
244.807	3192
244.871	2776
244.935	2853
244.999	1135
245.063	2737
245.127	3945
245.191	6457
245.255	5446
245.319	4828
245.383	2224
245.446	4504
245.510	2427
245.574	3529
245.638	3607
245.702	3046
245.766	8613
245.829	4927
245.893	3620
245.957	3425
246.021	3846
246.085	4319
246.149	4900
246.212	11050
246.276	15062
246.340	7892
246.404	5834
246.467	5593
246.531	6335
246.595	5980
246.659	6118
246.722	3325
246.786	5100
246.850	6324
246.913	7118
246.977	3947
247.041	3536
247.104	4857
247.168	3651
247.232	9506
247.295	21115
247.359	10744
247.423	4468
247.486	9047
247.550	6364
247.614	4436
247.677	5574
247.741	4202
247.804	3451
247.868	4295
247.932	7676
247.995	20626
248.059	7532
248.122	3614
248.186	6147
248.249	9550
248.313	31400
248.376	31725
248.440	20003
248.503	8419
248.567	7537
248.630	10010
248.694	12085
248.757	16201
248.821	34339
248.884	20392
248.948	17523
249.011	25860
249.075	38658
249.138	33182
249.202	12268
249.265	8945
249.328	11349
249.392	7851
249.455	7318
249.519	5908
249.582	7128
249.645	10632
249.709	8009
249.772	7366
249.835	6606
249.899	6823
249.962	5723
250.025	5901
250.089	13343
250.152	18388
250.215	8884
250.279	6833
250.342	7121
250.405	7705
250.468	5989
250.532	9747
250.595	14221
250.658	48317
250.721	76044
250.785	28623
250.848	14634
250.911	9395
250.974	8340
251.038	10922
251.101	22298
251.164	12596
251.227	12267
251.290	13098
251.354	18542
251.417	68525
251.480	63799
251.543	46729
251.606	118618
251.669	86086
251.732	34482
251.795	32077
251.859	33483
251.922	75128
251.985	42677
252.048	18342
252.111	13024
252.174	12054
252.237	20042
252.300	42909
252.363	47392
252.426	92668
252.489	38722
252.552	21070
252.615	13756
252.678	14866
252.741	32521
252.804	45036
252.867	96840
252.930	54363
252.993	28406
253.056	17309
253.119	12546
253.182	10853
253.245	18580
253.308	13862
253.371	11455
253.434	11297
253.497	10385
253.559	20067
253.622	13151
253.685	16051
253.748	14769
253.811	7592
253.874	10714
253.937	9932
254.000	6657
254.062	12546
254.125	20212
254.188	19210
254.251	14801
254.314	7226
254.376	12793
254.439	14423
254.502	12036
254.565	13271
254.628	23182
254.690	13482
254.753	7371
254.816	7241
254.878	6744
254.941	14102
255.004	14925
255.067	6592
255.129	5745
255.192	4873
255.255	3414
255.317	5551
255.380	3330
255.443	3268
255.505	2821
255.568	2799
255.631	3128
255.693	4348
255.756	2322
255.819	3546
255.881	2045
255.944	3412
256.006	2334
256.069	3380
256.132	2671
256.194	4721
256.257	11405
256.319	8601
256.382	7151
256.444	5882
256.507	4704
256.569	4932
256.632	5655
256.694	9302
256.757	24050
256.819	61760
256.882	27309
256.944	11481
257.007	8001
257.069	8249
257.132	5486
257.194	5810
257.257	5622
257.319	6224
257.381	7205
257.444	19279
257.506	70170
257.569	74843
257.631	32294
257.693	18542
257.756	9247
257.818	8505
257.880	5134
257.943	5617
258.005	4072
258.067	5680
258.130	4605
258.192	5417
258.254	9680
258.317	6373
258.379	4380
258.441	10926
258.503	10650
258.566	14439
258.628	17480
258.690	5828
258.753	5522
258.815	9005
258.877	5053
258.939	4086
259.001	4142
259.064	4408
259.126	4967
259.188	6829
259.250	4889
259.312	5488
259.375	12180
259.437	8430
259.499	4719
259.561	3997
259.623	3913
259.685	5042
259.747	5128
259.809	14592
259.872	23694
259.934	38291
259.996	33829
260.058	10926
260.120	3910
260.182	4685
260.244	2758
260.306	3442
260.368	4232
260.430	3407
260.492	9116
260.554	15783
260.616	9262
260.678	18263
260.740	24516
260.802	6247
260.864	4660
260.926	4487
260.988	5686
261.050	4647
261.112	12824
261.174	32061
261.236	20815
261.298	8001
261.359	11202
261.421	16296
261.483	4918
261.545	5216
261.607	2541
261.669	4014
261.731	6634
261.793	16897
261.854	6787
261.916	5593
261.978	5556
262.040	6145
262.102	3522
262.164	6907
262.225	5172
262.287	4049
262.349	8208
262.411	7523
262.472	4178
262.534	7409
262.596	15127
262.658	5899
262.719	2968
262.781	5793
262.843	14062
262.904	6784
262.966	5246
263.028	6806
263.090	30735
263.151	78370
263.213	24826
263.275	13917
263.336	5790
263.398	4866
263.459	2862
263.521	3791
263.583	8284
263.644	7237
263.706	2106
263.767	2283
263.829	2026
263.891	2261
263.952	2007
264.014	3039
264.075	6250
264.137	15876
264.198	6594
264.260	3190
264.321	3222
264.383	8628
264.444	22224
264.506	8370
264.567	4971
264.629	9492
264.690	18745
264.752	8408
264.813	4566
264.875	3225
264.936	4023
264.998	2819
265.059	3134
265.120	4161
265.182	6268
265.243	36423
265.305	36079
265.366	9115
265.427	4782
265.489	4599
265.550	2046
265.611	3858
265.673	3093
265.734	4518
265.795	3359
265.857	3538
265.918	4522
265.979	10514
266.040	54058
266.102	45839
266.163	13641
266.224	10118
266.286	4666
266.347	3333
266.408	3280
266.469	3852
266.530	2900
266.592	3289
266.653	5149
266.714	8803
266.775	3666
266.836	3348
266.898	2002
266.959	6432
267.020	3193
267.081	4200
267.142	1790
267.203	2665
267.264	1083
267.326	4321
267.387	1949
267.448	1775
267.509	2666
267.570	2482
267.631	1756
267.692	1834
267.753	1923
267.814	2050
267.875	3924
267.936	11883
267.997	5960
268.058	4971
268.119	2630
268.180	3263
268.241	2320
268.302	2446
268.363	1114
268.424	3060
268.485	2931
268.546	2534
268.607	1954
268.668	1545
268.729	1763
268.790	2244
268.851	2602
268.912	8361
268.972	8788
269.033	4664
269.094	1806
269.155	2748
269.216	1321
269.277	3006
269.338	1473
269.398	2357
269.459	2448
269.520	4059
269.581	5336
269.642	6588
269.702	4246
269.763	2906
269.824	2352
269.885	4130
269.945	4989
270.006	3866
270.067	1988
270.128	1670
270.188	1146
270.249	2128
270.310	2545
270.370	2390
270.431	2022
270.492	1980
270.553	3000
270.613	5582
270.674	11122
270.734	4980
270.795	3287
270.856	4082
270.916	3826
270.977	3022
271.038	3678
271.098	3312
271.159	5123
271.219	5896
271.280	2714
271.340	3250
271.401	2941
271.462	8307
271.522	4935
271.583	3192
271.643	3286
271.704	3678
271.764	3903
271.825	8699
271.885	29833
271.946	41120
272.006	12471
272.066	17778
272.127	30050
272.187	8558
272.248	4763
272.308	5893
272.369	20497
272.429	11250
272.489	9062
272.550	8774
272.610	8393
272.671	7049
272.731	6454
272.791	10603
272.852	6154
272.912	5353
272.972	3234
273.033	3473
273.093	5484
273.153	5797
273.214	4296
273.274	4535
273.334	16271
273.394	29439
273.455	10749
273.515	11219
273.575	25948
273.635	10001
273.696	13376
273.756	27477
273.816	9706
273.876	5919
273.936	14744
273.997	25559
274.057	7503
274.117	5732
274.177	8142
274.237	36741
274.297	29766
274.358	20403
274.418	21750
274.478	16301
274.538	6100
274.598	5421
274.658	19771
274.718	25235
274.778	9969
274.838	6804
274.898	12032
274.958	36954
275.018	30298
275.078	17719
275.138	6758
275.198	5373
275.258	3404
275.318	5587
275.378	7865
275.438	9652
275.498	5836
275.558	16368
275.618	32787
275.678	19509
275.738	11424
275.798	10683
275.858	6318
275.918	3487
275.978	4353
276.038	3823
276.098	2375
276.157	7333
276.217	18646
276.277	8767
276.337	5903
276.397	3975
276.457	3335
276.517	3137
276.576	3334
276.636	2701
276.696	4125
276.756	12168
276.815	8202
276.875	4013
276.935	4138
276.995	4587
277.055	2037
277.114	3232
277.174	4056
277.234	14393
277.293	6443
277.353	3913
277.413	2699
277.472	3404
277.532	2990
277.592	3312
277.651	9211
277.711	18579
277.771	6087
277.830	24110
277.890	17318
277.950	13168
278.009	38857
278.069	13734
278.128	12358
278.188	17836
278.248	7255
278.307	19293
278.367	11349
278.426	4528
278.486	2358
278.545	3242
278.605	2296
278.664	2465
278.724	2703
278.783	10755
278.843	26854
278.902	7967
278.962	4900
279.021	4807
279.081	4870
279.140	5401
279.199	4548
279.259	4991
279.318	5756
279.378	7400
279.437	10523
279.496	40353
279.556	121322
279.615	89425
279.675	21772
279.734	13297
279.793	19020
279.853	31333
279.912	11577
279.971	7479
280.031	6036
280.090	13839
280.149	22660
280.208	17324
280.268	85808
280.327	82057
280.386	18266
280.445	15159
280.505	13038
280.564	6619
280.623	5378
280.682	9506
280.742	12411
280.801	4299
280.860	3833
280.919	3486
280.978	2814
281.037	3025
281.097	2148
281.156	3503
281.215	2147
281.274	4231
281.333	17784
281.392	13384
281.451	3762
281.510	3108
281.569	2808
281.628	2379
281.688	1939
281.747	3461
281.806	2968
281.865	2357
281.924	1872
281.983	2764
282.042	1285
282.101	2301
282.160	1384
282.219	1071
282.278	1772
282.337	9766
282.396	5531
282.454	3317
282.513	3343
282.572	14769
282.631	8216
282.690	2719
282.749	2216
282.808	3418
282.867	2061
282.926	3339
282.985	2444
283.043	2231
283.102	1682
283.161	3538
283.220	7556
283.279	18260
283.338	5889
283.396	3265
283.455	2617
283.514	3248
283.573	5060
283.631	3712
283.690	2383
283.749	2723
283.808	6200
283.866	7322
283.925	1832
283.984	2592
284.043	3054
284.101	4006
284.160	2717
284.219	5591
284.277	3625
284.336	5112
284.395	19100
284.453	15716
284.512	5030
284.570	7134
284.629	5322
284.688	4673
284.746	4844
284.805	5297
284.863	7178
284.922	9159
284.981	9790
285.039	14365
285.098	24031
285.156	62177
285.215	151382
285.273	141334
285.332	63737
285.390	31720
285.449	18866
285.507	13581
285.566	9306
285.624	8787
285.683	6200
285.741	5437
285.799	4881
285.858	5438
285.916	4323
285.975	3803
286.033	2437
286.091	2885
286.150	2222
286.208	3493
286.267	3624
286.325	3647
286.383	5529
286.442	5231
286.500	1906
286.558	2107
286.616	1453
286.675	4014
286.733	3113
286.791	2422
286.850	3601
286.908	5021
286.966	7668
287.024	3703
287.083	1819
287.141	2678
287.199	2317
287.257	4642
287.315	2758
287.374	4126
287.432	8470
287.490	6064
287.548	3658
287.606	3841
287.664	2387
287.723	5601
287.781	6520
287.839	6128
287.897	5787
287.955	9064
288.013	12245
288.071	24435
288.129	90590
288.187	228686
288.245	104701
288.303	35560
288.361	19375
288.419	14236
288.477	9017
288.535	6647
288.593	5541
288.651	5059
288.709	3113
288.767	4072
288.825	3053
288.883	3409
288.941	2470
288.999	2547
289.057	1726
289.115	3065
289.173	2583
289.231	2418
289.289	2256
289.346	2324
289.404	2499
289.462	4513
289.520	5053
289.578	2790
289.636	1800
289.694	1387
289.751	884
289.809	1640
289.867	1522
289.925	3090
289.983	2365
290.040	2857
290.098	2273
290.156	2548
290.214	2795
290.271	2314
290.329	1084
290.387	1487
290.444	1385
290.502	1386
290.560	798
290.617	2209
290.675	766
290.733	1719
290.790	1524
290.848	1699
290.906	2234
290.963	2516
291.021	1759
291.078	2494
291.136	1922
291.194	9288
291.251	21180
291.309	5535
291.366	2908
291.424	2295
291.481	2095
291.539	1891
291.596	1449
291.654	2228
291.711	2146
291.769	2856
291.826	4846
291.884	3176
291.941	1043
291.999	1877
292.056	1466
292.114	2577
292.171	1796
292.228	2340
292.286	2299
292.343	5676
292.401	5887
292.458	3241
292.515	2173
292.573	3471
292.630	3083
292.687	3633
292.745	2685
292.802	5083
292.859	12545
292.917	18891
292.974	9126
293.031	3739
293.089	1901
293.146	2156
293.203	1196
293.260	1907
293.318	2879
293.375	6134
293.432	2906
293.489	2234
293.546	2703
293.604	4148
293.661	11048
293.718	30800
293.775	14878
293.832	7056
293.889	3561
293.947	4760
294.004	3009
294.061	4106
294.118	7577
294.175	19304
294.232	27302
294.289	9910
294.346	4625
294.403	4808
294.460	3788
294.517	3316
294.574	2268
294.631	3134
294.688	3828
294.745	9093
294.802	36240
294.859	42836
294.916	14413
294.973	7747
295.030	5459
295.087	5692
295.144	3072
295.201	4312
295.258	2516
295.315	3731
295.372	12960
295.429	24543
295.486	11021
295.542	6425
295.599	18712
295.656	31764
295.713	19261
295.770	23375
295.827	9137
295.883	5594
295.940	4359
295.997	7421
296.054	5821
296.111	3762
296.167	3413
296.224	3683
296.281	2424
296.338	3219
296.394	2618
296.451	4409
296.508	11001
296.564	21341
296.621	13527
296.678	28625
296.734	40469
296.791	15643
296.848	7040
296.904	8149
296.961	15737
297.018	26185
297.074	20844
297.131	8485
297.187	4873
297.244	7376
297.301	26068
297.357	47003
297.414	15609
297.470	7396
297.527	5085
297.583	3806
297.640	4228
297.696	3429
297.753	2803
297.809	2499
297.866	1477
297.922	1994
297.979	2257
298.035	2762
298.092	4978
298.148	15678
298.204	14227
298.261	7033
298.317	12924
298.374	34312
298.430	18043
298.486	9196
298.543	6754
298.599	5506
298.656	6292
298.712	10468
298.768	30205
298.824	21977
298.881	6703
298.937	5108
298.993	3016
299.050	5199
299.106	3733
299.162	3761
299.218	3597
299.275	3137
299.331	3521
299.387	7701
299.443	28404
299.500	26819
299.556	8653
299.612	5725
299.668	4727
299.724	4272
299.780	3199
299.837	3091
299.893	6887
299.949	21976
300.005	23846
300.061	21139
300.117	39548
300.173	18421
300.229	7586
300.285	9694
300.341	10462
300.397	5289
300.453	2109
300.510	3024
300.566	3755
300.622	4596
300.678	6150
300.734	15806
300.790	19717
300.845	27381
300.901	13439
300.957	20391
301.013	16075
301.069	6712
301.125	4118
301.181	4909
301.237	2734
301.293	2192
301.349	1915
301.405	2631
301.461	1460
301.516	4012
301.572	3558
301.628	7107
301.684	5946
301.740	10498
301.796	15185
301.851	11039
301.907	17995
301.963	18099
302.019	27470
302.074	81179
302.130	78734
302.186	34892
302.242	14207
302.297	9295
302.353	8114
302.409	15852
302.464	13431
302.520	11824
302.576	27839
302.631	30569
302.687	17269
302.743	7641
302.798	4908
302.854	4335
302.910	3939
302.965	5756
303.021	10107
303.076	8525
303.132	10914
303.187	12774
303.243	6626
303.299	3954
303.354	3528
303.410	3764
303.465	2897
303.521	3109
303.576	3767
303.632	4885
303.687	7823
303.743	25446
303.798	21260
303.853	8154
303.909	4866
303.964	5396
304.020	6012
304.075	10508
304.130	8007
304.186	15252
304.241	16425
304.297	12324
304.352	6149
304.358	6027
304.407	5032
304.449	4292
304.463	4047
304.518	4849
304.539	4209
304.573	3171
304.629	4852
304.630	4883
304.684	6759
304.720	15802
304.739	20204
304.794	29723
304.811	25371
304.850	14987
304.902	6415
304.905	5880
304.960	5218
304.992	5800
305.015	6155
305.071	5402
305.083	4835
305.126	2782
305.173	2766
305.181	2790
305.236	2161
305.264	3023
305.292	3868
305.347	3672
305.354	3785
305.402	4672
305.445	5247
305.457	5353
305.512	7569
305.535	6953
305.567	6155
305.622	5778
305.626	6033
305.678	12922
305.716	25858
305.733	29915
305.788	30627
305.807	26411
305.843	20405
305.897	28217
305.898	28279
305.953	26448
305.988	17812
306.008	13426
306.063	7481
306.078	6690
306.118	5241
306.168	4458
306.173	4370
306.228	3412
306.259	3551
306.283	3868
306.338	2799
306.349	3160
306.393	4669
306.440	5917
306.448	6079
306.503	5338
306.530	5622
306.558	7205
306.613	16478
306.620	17402
306.668	23545
306.711	29253
306.723	29230
306.778	20585
306.801	15713
306.833	11154
306.888	5787
306.892	5596
306.943	4184
306.982	3883
306.997	3892
307.052	4271
307.072	4408
307.107	4927
307.162	7029
307.163	7060
307.217	10604
307.253	13070
307.272	13599
307.327	13766
307.343	12377
307.381	9900
307.434	8429
307.436	8642
307.491	19100
307.524	27616
307.546	29418
307.600	25696
307.614	22791
307.655	14401
307.704	8968
307.710	8930
307.765	10621
307.795	13901
307.819	16414
307.874	25907
307.885	25661
307.929	21838
307.975	18428
307.984	19182
308.038	28384
308.065	35068
308.093	61021
308.148	126541
308.156	139823
308.202	192619
308.246	218597
308.257	210681
308.312	119744
308.336	83496
308.366	62654
308.421	37129
308.426	34878
308.475	23533
308.517	17144
308.530	15838
308.585	13200
308.607	12271
308.639	12366
308.694	13916
308.697	14063
308.748	22570
308.787	33456
308.803	34077
308.857	25768
308.877	22164
308.912	20083
308.967	20441
308.967	20469
309.021	29561
309.058	36146
309.076	46410
309.130	82652
309.148	96711
309.185	166058
309.238	282868
309.239	283468
309.293	281295
309.328	251734
309.348	218922
309.402	113854
309.418	86936
309.457	61534
309.508	36701
309.511	36013
309.566	28484
309.598	24851
309.620	25283
309.674	28907
309.688	29750
309.729	27450
309.778	23205
309.783	22843
309.837	18393
309.868	16392
309.892	21195
309.946	33771
309.959	37612
310.001	45536
310.049	51044
310.055	49200
310.109	28266
310.139	16526
310.163	13271
310.218	8683
310.229	7906
310.272	6965
310.319	6160
310.326	6026
310.381	5366
310.409	5008
310.435	5139
310.489	5026
310.499	5112
310.543	5327
310.589	5456
310.598	5488
310.652	5741
310.679	5733
310.706	5058
310.760	3692
310.769	3481
310.814	3496
310.859	3566
310.868	3513
310.923	3035
310.948	3045
310.977	3667
311.031	4554
311.038	4701
311.085	4567
311.128	4157
311.139	4128
311.193	4201
311.218	4171
311.247	4130
311.301	4105
311.308	4076
311.356	4448
311.398	4915
311.410	4740
311.464	3828
311.488	3429
311.518	3533
311.572	3676
311.578	3694
311.626	5295
311.668	6705
311.680	6723
311.734	6694
311.758	6675
311.788	6404
311.842	5875
311.847	5815
311.896	8235
311.937	10395
311.950	10167
312.004	9047
312.027	8517
312.058	7082
312.112	4549
312.117	4296
312.165	4368
312.207	4431
312.297	6817
312.386	4886
312.476	5965
312.566	8778
312.656	4825
312.745	3985
312.835	5035
312.925	5047
313.015	4783
313.104	4670
313.194	4152
313.284	3512
313.374	6385
313.463	4397
313.553	3756
313.643	3374
313.732	3293
313.822	2415
313.912	4420
314.001	4449
314.091	5477
314.180	7121
314.270	6157
314.360	6958
314.449	5332
314.539	2985
314.628	4339
314.718	4304
314.808	6029
314.897	3764
314.987	3744
315.076	4263
315.166	6439
315.255	5645
315.345	6115
315.434	5649
315.524	5422
315.613	6361
315.703	7254
315.792	6771
315.881	7522
315.971	5966
316.060	11172
316.150	15695
316.239	15890
316.328	4987
316.418	4479
316.507	4152
316.597	5575
316.686	4410
316.775	8900
316.865	14907
316.954	4340
317.043	2304
317.133	4331
317.222	2625
317.311	4012
317.400	2078
317.490	6237
317.579	5314
317.668	4605
317.757	6121
317.847	7895
317.936	11956
318.025	13401
318.114	5455
318.203	6382
318.293	10119
318.382	18030
318.471	14314
318.560	23514
318.649	46249
318.738	8842
318.828	6112
318.917	7134
319.006	8768
319.095	23924
319.184	61425
319.273	28892
319.362	14237
319.451	6208
319.540	4804
319.629	14475
319.718	19258
319.807	8407
319.896	22323
319.985	74882
320.074	20290
320.163	7488
320.252	10218
320.341	10449
320.430	7644
320.519	10855
320.608	5355
320.697	5352
320.786	3996
320.875	6141
320.964	8030
321.053	13864
321.142	20721
321.230	18724
321.319	16685
321.408	36519
321.497	12692
321.586	14282
321.675	16664
321.764	16085
321.852	10434
321.941	21824
322.030	11925
322.119	16937
322.207	37508
322.296	22955
322.385	11956
322.474	14453
322.562	45372
322.651	19778
322.740	15673
322.829	21804
322.917	22312
323.006	12994
323.095	10868
323.183	9230
323.272	13239
323.361	25150
323.449	66350
323.538	19721
323.626	49941
323.715	22961
323.804	12284
323.892	45248
323.981	19990
324.069	7935
324.158	25052
324.246	17998
324.335	9517
324.424	12721
324.512	4923
324.601	7040
324.689	11844
324.778	18306
324.866	15654
324.954	4991
325.043	4718
325.131	10958
325.220	17975
325.308	18814
325.397	15574
325.485	8214
325.574	3595
325.662	3767
325.750	3587
325.839	3311
325.927	2819
326.015	5315
326.104	8396
326.192	10378
326.280	3018
326.369	3873
326.457	6409
326.545	11459
326.634	4189
326.722	3049
326.810	2406
326.898	3211
326.987	4216
327.075	10312
327.163	9038
327.251	4214
327.340	6556
327.428	7183
327.516	2473
327.604	3567
327.692	2835
327.781	4712
327.869	7650
327.957	5430
328.045	4923
328.133	3809
328.221	4521
328.309	3231
328.397	3555
328.485	4581
328.574	6300
328.662	24364
328.750	11349
328.838	4800
328.926	2977
329.014	3028
329.102	4717
329.190	15984
329.278	8230
329.366	2511
329.454	2119
329.542	3287
329.630	2632
329.718	3237
329.806	3813
329.893	3827
329.981	2933
330.069	4789
330.157	14397
330.245	39420
330.333	15872
330.421	3972
330.509	8367
330.597	30175
330.684	16446
330.772	6706
330.860	9197
330.948	13317
331.036	4819
331.123	2897
331.211	2374
331.299	3762
331.387	12519
331.475	18221
331.562	4241
331.650	2512
331.738	3280
331.825	5397
331.913	2632
332.001	1772
332.089	4716
332.176	9829
332.264	24085
332.352	14881
332.439	4727
332.527	4395
332.614	2856
332.702	3823
332.790	3116
332.877	11829
332.965	18347
333.052	4726
333.140	5301
333.228	10451
333.315	2492
333.403	4531
333.490	13191
333.578	8827
333.665	10163
333.753	5922
333.840	2030
333.928	4932
334.015	13929
334.103	24213
334.190	72655
334.278	14317
334.365	4828
334.452	3644
334.540	2493
334.627	4496
334.715	6219
334.802	14431
334.889	83110
334.977	62444
335.064	6592
335.151	3414
335.239	5086
335.326	8024
335.413	40296
335.501	43445
335.588	5004
335.675	4063
335.762	5617
335.850	10267
335.937	4833
336.024	19371
336.111	81227
336.199	22560
336.286	4041
336.373	2371
336.460	1794
336.547	2336
336.635	3717
336.722	3664
336.809	3026
336.896	6145
336.983	23763
337.070	56320
337.157	73616
337.245	54076
337.332	29736
337.419	4443
337.506	3348
337.593	4117
337.680	20288
337.767	51525
337.854	13614
337.941	16268
338.028	16478
338.115	5203
338.202	8198
338.289	16400
338.376	49880
338.463	14783
338.550	33178
338.637	28412
338.724	11050
338.811	14696
338.898	3089
338.984	3060
339.071	3549
339.158	4455
339.245	13632
339.332	7533
339.419	11740
339.506	9219
339.593	677
339.679	2955
339.766	2609
339.853	4596
339.940	9103
340.027	3145
340.113	3366
340.200	5508
340.287	2657
340.374	5673
340.460	8156
340.547	2960
340.634	6783
340.720	29392
340.807	12827
340.894	2620
340.980	2515
341.067	3324
341.154	3680
341.240	6644
341.327	12081
341.414	3273
341.500	2812
341.587	2523
341.674	2354
341.760	9735
341.847	9878
341.933	3686
342.020	660
342.106	1347
342.193	3324
342.279	6993
342.366	5274
342.452	8543
342.539	3932
342.625	13472
342.712	29533
342.798	11107
342.885	4363
342.971	1427
343.058	870
343.144	2463
343.230	2189
343.317	3021
343.403	1420
343.490	1752
343.576	847
343.662	2369
343.749	2731
343.835	3902
343.921	9071
344.008	68687
344.094	126456
344.180	24059
344.267	9275
344.353	38681
344.439	33937
344.525	14656
344.612	10312
344.698	10773
344.784	5169
344.870	3044
344.957	3167
345.043	5034
345.129	2842
345.215	8927
345.301	3601
345.387	2715
345.474	1548
345.560	2281
345.646	2165
345.732	3009
345.818	2762
345.904	3408
345.990	3340
346.076	3974
346.162	6080
346.249	3413
346.335	1070
346.421	3555
346.507	16459
346.593	49432
346.679	8899
346.765	3386
346.851	2378
346.937	2453
347.023	2508
347.108	3828
347.194	1617
347.280	2439
347.366	3425
347.452	15456
347.538	61162
347.624	43543
347.710	32045
347.796	4679
347.882	1313
347.967	3364
348.053	4660
348.139	2951
348.225	2010
348.311	2345
348.397	1874
348.482	3408
348.568	3580
348.654	1609
348.740	1618
348.825	646
348.911	5820
348.997	30752
349.083	51500
349.168	7487
349.254	2169
349.340	2765
349.425	1539
349.511	4208
349.597	3947
349.682	9831
349.768	35240
349.854	13315
349.939	1899
350.025	1766
350.110	2480
350.196	1837
350.282	-263
350.367	2694
350.453	3977
350.538	4407
350.624	3310
350.709	4052
350.795	2127
350.880	2088
350.966	1994
351.051	5623
351.137	2083
351.222	2945
351.308	11174
351.393	29461
351.479	5184
351.564	1672
351.649	2196
351.735	2228
351.820	1732
351.906	2244
351.991	3443
352.076	20572
352.162	25115
352.247	4068
352.332	2732
352.418	5594
352.503	9182
352.588	44893
352.673	31094
352.759	6554
352.844	2850
352.929	4260
353.014	4641
353.100	3525
353.185	5305
353.270	10046
353.355	8911
353.441	3270
353.526	3511
353.611	9598
353.696	10462
353.781	6916
353.866	2481
353.952	4468
354.037	8961
354.122	20801
354.207	17904
354.292	5933
354.377	3352
354.462	1989
354.547	3450
354.632	3590
354.717	5623
354.802	6176
354.887	2097
354.972	2661
355.057	755
355.142	1799
355.227	3128
355.312	6367
355.397	15029
355.482	32565
355.567	14654
355.652	11465
355.737	12561
355.822	43210
355.907	27963
355.991	5214
356.076	1766
356.161	3020
356.246	1509
356.331	3275
356.416	9069
356.501	70676
356.585	60576
356.670	7484
356.755	5693
356.840	9422
356.924	50049
357.009	156576
357.094	50843
357.179	11276
357.263	7186
357.348	7741
357.433	7435
357.517	6750
357.602	5050
357.687	4186
357.771	7472
357.856	25049
357.941	14434
358.025	42551
358.110	157171
358.195	64077
358.279	9127
358.364	6861
358.448	28923
358.533	74433
358.617	50573
358.702	50560
358.787	16519
358.871	9817
358.956	7095
359.040	2821
359.125	1832
359.209	2888
359.294	11709
359.378	18290
359.462	8335
359.547	5399
359.631	2612
359.716	2681
359.800	2212
359.885	6565
359.969	2338
360.053	2069
360.138	2008
360.222	5232
360.306	9286
360.391	7580
360.475	15554
360.559	30643
360.644	27738
360.728	18228
360.812	39239
360.896	95346
360.981	37739
361.065	18543
361.149	4966
361.233	4412
361.318	3561
361.402	4326
361.486	4266
361.570	2876
361.654	3831
361.739	14637
361.823	68077
361.907	91965
361.991	13315
362.075	8610
362.159	18121
362.243	12450
362.327	6048
362.411	7049
362.495	4638
362.580	3180
362.664	1658
362.748	1546
362.832	1927
362.916	2536
363.000	12010
363.084	62517
363.168	102026
363.252	21816
363.336	7828
363.420	13391
363.503	52897
363.587	53577
363.671	8635
363.755	6496
363.839	8532
363.923	3103
364.007	10230
364.091	10377
364.175	18852
364.258	76728
364.342	32638
364.426	12844
364.510	7173
364.594	10254
364.677	19737
364.761	86542
364.845	55894
364.929	17562
365.013	13114
365.096	12468
365.180	12869
365.264	24793
365.347	79825
365.431	30295
365.515	7734
365.598	3157
365.682	4089
365.766	8744
365.849	9286
365.933	4171
366.017	7181
366.100	4576
366.184	1417
366.267	3528
366.351	2233
366.435	1356
366.518	1071
366.602	1831
366.685	1830
366.769	3513
366.852	7130
366.936	13146
367.019	6955
367.103	6059
367.186	10875
367.270	2684
367.353	735
367.436	2866
367.520	1030
367.603	4156
367.687	5643
367.770	11054
367.853	7151
367.937	27384
368.020	38876
368.104	8091
368.187	9011
368.270	12405
368.353	10767
368.437	16892
368.520	32884
368.603	20128
368.687	30633
368.770	51908
368.853	11892
368.936	12553
369.020	11477
369.103	4383
369.186	1600
369.269	3107
369.352	7620
369.436	11209
369.519	5765
369.602	2530
369.685	5315
369.768	3523
369.851	3388
369.934	1666
370.018	3085
370.101	9333
370.184	8710
370.267	6003
370.350	9407
370.433	16227
370.516	44445
370.599	45370
370.682	11148
370.765	27698
370.848	36741
370.931	65237
371.014	23293
371.097	3684
371.180	3107
371.263	2263
371.346	624
371.429	2014
371.511	2172
371.594	6496
371.677	11624
371.760	12463
371.843	10998
371.926	63685
372.009	126672
372.091	38498
372.174	26146
372.257	61559
372.340	22202
372.423	17081
372.505	19307
372.588	8907
372.671	22571
372.754	64193
372.836	30421
372.919	26191
373.002	44246
373.085	12330
373.167	10120
373.250	29815
373.332	61667
373.415	91702
373.498	166364
373.580	57581
373.663	76468
373.746	97605
373.828	21231
373.911	10332
373.993	11415
374.076	45979
374.159	39556
374.241	20035
374.324	52852
374.406	34281
374.489	55584
374.571	137500
374.654	53068
374.736	29250
374.819	86169
374.901	125465
374.983	117119
375.066	19021
375.148	7845
375.231	39870
375.313	67445
375.395	22830
375.478	4250
375.560	4405
375.643	4968
375.725	28604
375.807	106430
375.890	79140
375.972	28902
376.054	18264
376.136	25141
376.219	11185
376.301	34807
376.383	88554
376.465	31927
376.548	19386
376.630	27487
376.712	75287
376.794	31851
376.877	3294
376.959	1390
377.041	3931
377.123	9446
377.205	10773
377.287	1306
377.369	2096
377.452	1486
377.534	2852
377.616	1977
377.698	2144
377.780	1620
377.862	2802
377.944	3049
378.026	1615
378.108	1819
378.190	1113
378.272	1836
378.354	1213
378.436	723
378.518	5216
378.600	19537
378.682	17539
378.764	38143
378.846	27582
378.928	7232
379.010	10415
379.091	5337
379.173	2872
379.255	1575
379.337	4146
379.419	20131
379.501	52856
379.583	19068
379.664	5187
379.746	12455
379.828	37729
379.910	50347
379.991	42452
380.073	6189
380.155	3842
380.237	2824
380.318	2328
380.400	2900
380.482	8326
380.564	11415
380.645	10787
380.727	9307
380.809	5698
380.890	3201
380.972	2688
381.053	1858
381.135	4091
381.217	13915
381.298	38499
381.380	17102
381.461	16848
381.543	78041
381.624	87573
381.706	15866
381.787	7425
381.869	8176
381.951	38245
382.032	124852
382.113	76227
382.195	12924
382.276	9884
382.358	25617
382.439	67537
382.521	80371
382.602	114423
382.684	52142
382.765	91097
382.846	82994
382.928	77736
383.009	41651
383.090	38777
383.172	128645
383.253	171895
383.334	74960
383.416	99485
383.497	47956
383.578	18094
383.659	35347
383.741	126377
383.822	271581
383.903	134945
383.984	68559
384.066	121940
384.147	72122
384.228	13279
384.309	9451
384.390	6748
384.471	4009
384.553	5546
384.634	8929
384.715	8634
384.796	4062
384.877	7577
384.958	33935
385.039	39654
385.120	11815
385.201	6574
385.282	6899
385.363	7456
385.444	5624
385.525	14909
385.606	52341
385.687	44484
385.768	9440
385.849	13927
385.930	65369
386.011	104926
386.092	25087
386.173	6152
386.254	4280
386.335	5061
386.416	5293
386.496	23245
386.577	36106
386.658	12862
386.739	6379
386.820	7398
386.901	4126
386.981	5531
387.062	2697
387.143	8653
387.224	35274
387.304	31758
387.385	10041
387.466	4974
387.547	7625
387.627	4582
387.708	14227
387.789	67256
387.869	76154
387.950	19669
388.031	2626
388.111	2736
388.192	12249
388.273	18235
388.353	8279
388.434	5153
388.514	14318
388.595	64652
388.676	80318
388.756	36298
388.837	32247
388.917	19615
388.998	2323
389.078	3431
389.159	3584
389.239	2004
389.320	6889
389.400	4329
389.480	15759
389.561	38031
389.641	18284
389.722	5984
389.802	9736
389.883	18600
389.963	46408
390.043	28247
390.124	7643
390.204	14026
390.284	40345
390.365	27483
390.445	40423
390.525	106614
390.605	89479
390.686	22931
390.766	7451
390.846	4232
390.927	1615
391.007	2913
391.087	3726
391.167	3191
391.247	1827
391.328	6288
391.408	9697
391.488	6861
391.568	817
391.648	4552
391.728	6402
391.808	5943
391.888	7635
391.969	22458
392.049	32894
392.129	13568
392.209	17621
392.289	43513
392.369	23428
392.449	18146
392.529	10877
392.609	7995
392.689	12210
392.769	40832
392.849	32254
392.929	24460
393.009	56278
393.089	34206
393.169	12040
393.248	43926
393.328	192447
393.408	193555
393.488	35589
393.568	11134
393.648	6395
393.728	6250
393.807	4005
393.887	6717
393.967	6937
394.047	10735
394.127	14456
394.206	31497
394.286	125642
394.366	420253
394.446	427046
394.525	122391
394.605	33953
394.685	22180
394.764	34934
394.844	52130
394.924	33346
395.003	11272
395.083	7443
395.163	7935
395.242	7053
395.322	8153
395.402	4690
395.481	9573
395.561	23855
395.640	52944
395.720	41251
395.799	64204
395.879	57915
395.958	53584
396.038	188333
396.117	539377
396.197	553519
396.276	201369
396.356	65962
396.435	38184
396.515	22095
396.594	17407
396.673	20770
396.753	58600
396.832	175363
396.912	141333
396.991	37517
397.070	10380
397.150	5359
397.229	5384
397.308	3654
397.388	3940
397.467	3426
397.546	2813
397.625	1519
397.705	5865
397.784	5127
397.863	2820
397.942	1921
398.022	2764
398.101	18555
398.180	49229
398.259	24226
398.338	6721
398.417	3194
398.497	2817
398.576	3052
398.655	703
398.734	1869
398.813	2927
398.892	18242
398.971	54473
399.050	24702
399.129	1745
399.208	1342
399.287	2535
399.366	1163
399.445	1055
399.524	1632
399.603	711
399.682	5348
399.761	18855
399.840	57557
399.919	43302
399.998	4782
400.077	310
400.156	373
400.235	4253
400.313	1597
400.392	3053
400.471	19446
400.550	30319
400.629	7887
400.708	4664
400.786	3389
400.865	12163
400.944	12047
401.023	5879
401.102	420
401.180	751
401.259	775
401.338	2830
401.416	3147
401.495	2781
401.574	2068
401.652	1626
401.731	3887
401.810	2141
401.888	871
401.967	735
402.046	1157
402.124	4326
402.203	3569
402.281	3146
402.360	3876
402.438	15100
402.517	8088
402.596	3210
402.674	2465
402.753	1732
402.831	1773
402.910	3062
402.988	12206
403.066	37216
403.145	21574
403.223	13596
403.302	29488
403.380	22759
403.459	19706
403.537	8077
403.615	2365
403.694	92
403.772	1560
403.850	1489
403.929	702
404.007	1517
404.085	4744
404.164	4393
404.242	3480
404.320	19502
404.398	58579
404.477	65238
404.555	103911
404.633	90415
404.711	45148
404.789	26513
404.868	6058
404.946	1938
405.024	1590
405.102	239
405.180	-372
405.258	-367
405.336	1932
405.415	1098
405.493	4043
405.571	4126
405.649	454
405.727	689
405.805	3673
405.883	2713
405.961	3319
406.039	3890
406.117	716
406.195	4630
406.273	23839
406.351	79472
406.429	46232
406.507	7528
406.585	1503
406.663	1976
406.740	3303
406.818	2451
406.896	812
406.974	2619
407.052	6873
407.130	47870
407.208	62578
407.285	12834
407.363	1870
407.441	2248
407.519	377
407.596	2439
407.674	4454
407.752	11181
407.830	14173
407.907	8177
407.985	2305
408.063	1326
408.141	584
408.218	3529
408.296	2239
408.373	2264
408.451	1955
408.529	1816
408.606	458
408.684	236
408.762	-292
408.839	202
408.917	-513
408.994	659
409.072	-1384
409.149	352
409.227	795
409.304	795
409.382	366
409.459	94
409.537	222
409.614	1085
409.692	518
409.769	675
409.846	1419
409.924	2356
410.001	-247
410.079	958
410.156	1524
410.233	1485
410.311	374
410.388	289
410.465	898
410.543	1172
410.620	1019
410.697	1953
410.775	2338
410.852	-331
410.929	1292
411.006	3381
411.083	420
411.161	3621
411.238	5367
411.315	2433
411.392	320
411.469	2411
411.547	1316
411.624	-410
411.701	152
411.778	1757
411.855	4976
411.932	3050
412.009	-330
412.086	1053
412.163	1089
412.240	2498
412.317	2304
412.394	2411
412.471	366
412.548	396
412.625	735
412.702	2087
412.779	3223
412.856	2269
412.933	66
413.010	1085
413.087	3645
413.164	18204
413.241	24033
413.318	5128
413.395	2993
413.471	4629
413.548	1120
413.625	1224
413.702	897
413.779	1731
413.855	645
413.932	682
414.009	-1077
414.086	1050
414.162	1066
414.239	3302
414.316	17656
414.393	38241
414.469	11243
414.546	554
414.623	-261
414.699	22
414.776	784
414.853	612
414.929	596
415.006	727
415.082	1713
415.159	642
415.236	772
415.312	1723
415.389	3420
415.465	4113
415.542	1911
415.618	913
415.695	2692
415.771	1781
415.848	1426
415.924	1657
416.000	736
416.077	1205
416.153	-2255
416.230	-238
416.306	-184
416.383	-895
416.459	380
416.535	297
416.612	-434
416.688	-25
416.764	-501
416.841	212
416.917	397
416.993	410
417.069	720
417.146	3153
417.222	5270
417.298	1955
417.374	301
417.451	1390
417.527	1349
417.603	2121
417.679	553
417.755	1321
417.831	-1006
417.908	784
417.984	-107
418.060	126
418.136	3504
418.212	5877
418.288	1007
418.364	1031
418.440	-18
418.516	2790
418.592	3916
418.668	7983
418.744	10252
418.820	7730
418.896	1002
418.972	-573
419.048	1226
419.124	5826
419.200	2164
419.276	584
419.352	-497
419.428	520
419.504	11
419.579	1057
419.655	382
419.731	290
419.807	7124
419.883	13100
419.959	8247
420.034	2395
420.110	6071
420.186	23221
420.262	17751
420.337	2025
420.413	1094
420.489	888
420.565	925
420.640	-107
420.716	662
420.792	90
420.867	609
420.943	62
421.019	1763
421.094	1582
421.170	159
421.245	-378
421.321	-216
421.397	175
421.472	1263
421.548	3708
421.623	3843
421.699	1157
421.774	983
421.850	868
421.925	3380
422.001	1660
422.076	281
422.152	469
422.227	2206
422.302	2571
422.378	2370
422.453	5613
422.529	15738
422.604	77116
422.679	164865
422.755	81049
422.830	14151
422.905	4225
422.981	872
423.056	1538
423.131	169
423.207	1006
423.282	1384
423.357	5518
423.432	2667
423.508	3795
423.583	8675
423.658	7657
423.733	1485
423.808	1527
423.883	2346
423.959	1908
424.034	37
424.109	763
424.184	-955
424.259	118
424.334	236
424.409	-467
424.484	51
424.559	1348
424.634	19
424.709	1835
424.784	2246
424.859	1008
424.934	3096
425.009	16797
425.084	26013
425.159	8947
425.234	429
425.309	552
425.384	5476
425.459	7578
425.534	2365
425.609	-139
425.683	474
425.758	291
425.833	905
425.908	2101
425.983	9413
426.058	27452
426.132	11081
426.207	2302
426.282	3644
426.357	2476
426.431	402
426.506	923
426.581	-31
426.655	933
426.730	51
426.805	69
426.879	1482
426.954	1033
427.029	3751
427.103	29831
427.178	66045
427.253	27861
427.327	2900
427.402	4536
427.476	10454
427.551	4683
427.625	934
427.700	1491
427.774	-232
427.849	1469
427.923	-1098
427.998	623
428.072	44
428.147	3375
428.221	9293
428.296	16195
428.370	5346
428.444	1852
428.519	4125
428.593	10332
428.667	9482
428.742	10705
428.816	7772
428.890	17366
428.965	20373
429.039	11805
429.113	11029
429.188	3367
429.262	-232
429.336	3603
429.410	11471
429.485	8951
429.559	8101
429.633	6255
429.707	1437
429.781	5611
429.855	24526
429.930	32949
430.004	29531
430.078	49065
430.152	35090
430.226	22762
430.300	19510
430.374	1660
430.448	2646
430.522	19028
430.596	47974
430.670	26447
430.744	42229
430.818	64452
430.892	13467
430.966	1890
431.040	474
431.114	479
431.188	-450
431.262	-358
431.336	126
431.410	4922
431.484	12831
431.557	7514
431.631	-266
431.705	739
431.779	1257
431.853	10521
431.927	5791
432.000	834
432.074	416
432.148	1634
432.222	708
432.295	305
432.369	-345
432.443	3438
432.516	28500
432.590	64781
432.664	22812
432.737	2410
432.811	224
432.885	-932
432.958	-219
433.032	-922
433.106	-1155
433.179	-148
433.253	-802
433.326	-66
433.400	-671
433.473	-249
433.547	-924
433.620	563
433.694	1607
433.767	1995
433.841	-650
433.914	-111
433.988	-817
434.061	28
434.134	-549
434.208	-18
434.281	-826
434.355	-112
434.428	-237
434.501	-442
434.575	-931
434.648	-14
434.721	-785
434.795	-361
434.868	-1028
434.941	-757
435.014	-781
435.088	-157
435.161	0
435.234	1922
435.307	1540
435.381	-63
435.454	-647
435.527	66
435.600	-1030
435.673	418
435.746	-842
435.819	-149
435.892	-850
435.966	105
436.039	-1721
436.112	-228
436.185	-1153
436.258	-357
436.331	-1971
436.404	-906
436.477	-704
436.550	-416
436.623	-660
436.696	-493
436.769	-231
436.842	-265
436.915	-527
436.987	501
437.060	-461
437.133	-484
437.206	-757
437.279	-333
437.352	-668
437.425	23
437.498	-120
437.570	2437
437.643	1830
437.716	486
437.789	-570
437.861	1970
437.934	4919
438.007	2295
438.080	-987
438.152	1245
438.225	4460
438.298	38835
438.370	90399
438.443	35301
438.516	4298
438.588	440
438.661	-600
438.734	209
438.806	-730
438.879	348
438.951	568
439.024	1990
439.096	-617
439.169	-543
439.241	-743
439.314	-102
439.386	-417
439.459	2654
439.531	2609
439.604	-35
439.676	737
439.749	-774
439.821	-849
439.893	-84
439.966	-546
440.038	447
440.110	31
440.183	379
440.255	-1153
440.327	2063
440.400	15884
440.472	56442
440.544	32623
440.617	3596
440.689	1973
440.761	2397
440.833	4223
440.905	2541
440.978	-452
441.050	-545
441.122	323
441.194	-236
441.266	-1121
441.338	3
441.411	1644
441.483	17757
441.555	22266
441.627	5030
441.699	1503
441.771	2039
441.843	-18
441.915	-78
441.987	-605
442.059	-349
442.131	-30
442.203	1226
442.275	843
442.347	902
442.419	19
442.491	2512
442.563	6113
442.635	6530
442.706	11270
442.778	8064
442.850	-2
442.922	-694
442.994	660
443.066	1470
443.137	729
443.209	320
443.281	98
443.353	2437
443.425	6280
443.496	14749
443.568	11322
443.640	3575
443.711	-48
443.783	-245
443.855	-10
443.926	-584
443.998	197
444.070	849
444.141	669
444.213	1965
444.285	2012
444.356	2481
444.428	1020
444.499	720
444.571	-900
444.642	-720
444.714	-283
444.785	1376
444.857	2562
444.928	8332
445.000	3822
445.071	4723
445.143	5089
445.214	1821
445.285	3149
445.357	12531
445.428	16873
445.500	30462
445.571	19840
445.642	7729
445.714	9525
445.785	13328
445.856	1993
445.928	2110
445.999	1517
446.070	1056
446.141	1331
446.213	2206
446.284	189
446.355	1530
446.426	448
446.497	337
446.569	1934
446.640	3211
446.711	1849
446.782	109
446.853	420
446.924	1082
446.995	550
447.066	377
447.138	2231
447.209	1204
447.280	-671
447.351	-954
447.422	-688
447.493	463
447.564	1047
447.635	1841
447.706	-493
447.777	-995
447.847	-255
447.918	-465
447.989	370
448.060	1952
448.131	5404
448.202	4839
448.273	2318
448.344	1249
448.414	343
448.485	-461
448.556	-463
448.627	-485
448.698	-275
448.768	376
448.839	-712
448.910	2731
448.981	1146
449.051	906
449.122	-581
449.193	-557
449.263	-812
449.334	194
449.405	858
449.475	3992
449.546	2069
449.616	3067
449.687	1587
449.758	1177
449.828	-940
449.899	-61
449.969	-564
450.040	11
450.110	-312
450.181	1070
450.251	-1054
450.322	-293
450.392	-229
450.463	402
450.533	-812
450.604	-404
450.674	-116
450.744	-185
450.815	-1166
450.885	639
450.955	-693
451.026	-428
451.096	-1269
451.166	951
451.237	2711
451.307	9044
451.377	1609
451.447	-426
451.518	-369
451.588	-365
451.658	639
451.728	2380
451.799	10099
451.869	10225
451.939	831
452.009	138
452.079	-159
452.149	983
452.219	2200
452.289	11919
452.360	5994
452.430	375
452.500	364
452.570	308
452.640	1774
452.710	6568
452.780	8143
452.850	6283
452.920	4940
452.990	1339
453.060	529
453.129	1360
453.199	2019
453.269	15631
453.339	27271
453.409	38954
453.479	43991
453.549	62113
453.619	61064
453.688	18666
453.758	2532
453.828	1618
453.898	601
453.968	69
454.037	-185
454.087	382
454.107	602
454.168	-582
454.177	-769
454.247	292
454.249	273
454.316	-661
454.330	-210
454.386	1363
454.411	2854
454.456	5190
454.492	6478
454.525	7656
454.574	2871
454.595	795
454.655	-59
454.665	-190
454.734	734
454.736	836
454.804	3141
454.817	4532
454.873	9685
454.898	10045
454.943	10640
454.979	6270
455.013	2433
455.060	2057
455.082	2037
455.141	2725
455.152	2837
455.221	9792
455.222	9964
455.291	16307
455.303	17169
455.360	20288
455.384	28489
455.430	41674
455.465	29560
455.499	18758
455.546	13036
455.569	10197
455.627	6102
455.638	5460
455.707	223
455.708	241
455.777	625
455.789	539
455.846	-21
455.869	300
455.916	1004
455.950	973
455.985	824
456.031	711
456.054	732
456.112	189
456.124	34
456.193	491
456.193	480
456.262	622
456.274	793
456.332	1417
456.355	1505
456.401	1414
456.436	1146
456.470	891
456.516	356
456.540	157
456.597	775
456.609	879
456.678	118
456.678	105
456.747	318
456.759	168
456.817	-334
456.840	-79
456.886	220
456.920	142
456.955	195
457.001	232
457.024	336
457.082	632
457.093	667
457.162	2579
457.163	2598
457.232	2121
457.243	2040
457.301	1584
457.324	1045
457.370	205
457.405	129
457.439	200
457.485	578
457.508	707
457.566	861
457.577	905
457.646	1225
457.647	1241
457.715	1762
457.727	1583
457.784	676
457.808	986
457.853	1683
457.889	1534
457.922	1206
457.969	1475
457.991	1730
458.050	2188
458.060	2193
458.129	2163
458.130	2166
458.198	1432
458.211	1304
458.267	826
458.292	575
458.336	412
458.372	937
458.405	1522
458.453	1390
458.474	1244
458.533	1850
458.543	1974
458.611	3133
458.614	3178
458.680	2556
458.694	2121
458.749	1212
458.775	1207
458.818	1298
458.855	1256
458.887	1045
458.936	1279
458.955	1408
459.016	627
459.024	601
459.093	2151
459.097	2161
459.162	1575
459.177	1652
459.230	1901
459.257	1890
459.299	1870
459.338	1923
459.368	2028
459.418	2193
459.437	2038
459.499	1751
459.505	1786
459.574	1567
459.579	1586
459.643	1567
459.659	1477
459.711	1537
459.740	1857
459.780	2068
459.820	1912
459.849	1872
459.900	2010
459.917	1841
459.981	1565
459.986	1600
460.054	1744
460.061	1793
460.123	2124
460.141	2194
460.191	2790
460.222	3020
460.260	2926
460.302	3352
460.328	3261
460.382	2318
460.397	2290
460.462	2467
460.465	2490
460.534	2703
460.543	2840
460.602	5950
460.623	7171
460.671	9979
460.703	13099
460.739	12063
460.783	8614
460.808	7585
460.864	2698
460.876	2232
460.944	2220
460.945	2208
461.013	2467
461.024	2350
461.081	1969
461.104	2136
461.150	2062
461.184	1694
461.218	1798
461.264	2090
461.286	2162
461.345	2346
461.355	2343
461.423	2656
461.425	2645
461.491	2216
461.505	2305
461.559	6034
461.585	7625
461.628	10147
461.665	13468
461.696	14714
461.745	17020
461.764	15032
461.825	4529
461.832	4329
461.901	2914
461.905	2957
461.969	2404
461.985	2083
462.037	2638
462.065	3195
462.105	3610
462.145	4043
462.173	5481
462.225	8201
462.241	8685
462.305	11170
462.310	10821
462.378	5491
462.385	4618
462.446	2616
462.465	2394
462.514	2638
462.545	2809
462.582	2723
462.625	2771
462.650	2707
462.705	2339
462.718	2481
462.785	3506
462.786	3534
462.854	4997
462.865	5295
462.922	5818
462.945	5978
462.990	4628
463.025	3216
463.058	2867
463.104	2210
463.126	2039
463.184	2401
463.194	2507
463.262	2737
463.264	2759
463.330	3083
463.344	3083
463.398	3658
463.424	3887
463.466	3252
463.504	2862
463.533	3201
463.583	3671
463.601	3857
463.663	4160
463.669	4268
463.737	5894
463.743	6036
463.805	9812
463.823	10910
463.873	15209
463.903	18091
463.940	17931
463.982	17844
464.008	14306
464.062	5079
464.076	4746
464.142	3484
464.144	3461
464.211	3257
464.221	3234
464.279	3076
464.301	2936
464.347	3511
464.381	4089
464.414	4418
464.461	4748
464.482	4883
464.540	5468
464.550	5329
464.617	3858
464.620	3808
464.685	4953
464.699	5211
464.753	7034
464.779	7980
464.820	8720
464.859	9385
464.888	8842
464.938	7777
464.956	7827
465.018	7843
465.023	7763
465.091	6432
465.098	6309
465.158	5830
465.177	5711
465.226	6320
465.257	6580
465.293	6680
465.336	6884
465.361	7558
465.416	8935
465.428	9520
465.495	12717
465.496	12771
465.563	17896
465.575	18824
465.631	21396
465.654	22532
465.698	14140
465.734	6609
465.765	6200
465.813	5670
465.833	5863
465.893	6818
465.900	6710
465.968	5600
465.972	5513
466.035	5512
466.052	5490
466.102	5907
466.131	6170
466.170	5402
466.210	4464
466.237	5007
466.290	6192
466.304	6298
466.369	6591
466.372	6589
466.439	6240
466.449	6170
466.506	7271
466.528	7682
466.573	12094
466.607	15334
466.641	19961
466.687	26465
466.708	28101
466.766	32592
466.775	30014
466.842	9973
466.845	9004
466.909	7156
466.925	6782
466.977	7860
467.004	8429
467.044	8566
467.083	8654
467.111	9631
467.163	11433
467.178	11597
467.242	12188
467.245	12187
467.312	11728
467.321	11647
467.379	11226
467.400	11043
467.446	11221
467.480	11315
467.559	10492
467.638	9634
467.717	10419
467.796	10537
467.875	10518
467.955	10775
468.034	18755
468.113	31336
468.192	40997
468.271	10094
468.350	9139
468.429	9383
468.508	7947
468.588	8863
468.667	8186
468.746	7940
468.825	8393
468.904	7789
468.983	10832
469.062	14620
469.141	15849
469.220	7379
469.299	9763
469.378	9310
469.456	12699
469.535	10788
469.614	9895
469.693	11165
469.772	13689
469.851	16689
469.930	10719
470.009	9198
470.088	8746
470.166	10167
470.245	10764
470.324	10923
470.403	9922
470.482	8564
470.560	9179
470.639	8350
470.718	10547
470.797	8444
470.875	10741
470.954	12564
471.033	13246
471.111	7548
471.190	7583
471.269	7192
471.347	6998
471.426	7991
471.505	10400
471.583	9869
471.662	9653
471.740	8690
471.819	9084
471.898	8719
471.976	8731
472.055	8060
472.133	9532
472.212	11837
472.290	11393
472.369	8289
472.447	8088
472.526	7158
472.604	8884
472.683	7658
472.761	8043
472.839	7286
472.918	7686
472.996	8523
473.075	8757
473.153	8575
473.231	7449
473.310	8152
473.388	8901
473.466	7765
473.545	8862
473.623	12025
473.701	10422
473.780	8279
473.858	6930
473.936	8773
474.014	7606
474.093	9688
474.171	12486
474.249	15710
474.327	10638
474.405	6999
474.484	7372
474.562	6801
474.640	6765
474.718	7365
474.796	6534
474.874	6104
474.952	5831
475.030	6058
475.108	6651
475.187	6633
475.265	7357
475.343	9373
475.421	10296
475.499	7460
475.577	7344
475.655	11826
475.733	20388
475.811	32373
475.889	27210
475.966	16405
476.044	7379
476.122	8534
476.200	9533
476.278	7132
476.356	6331
476.434	7934
476.512	8692
476.590	9266
476.667	8845
476.745	5833
476.823	7474
476.901	6539
476.979	6846
477.056	6877
477.134	7408
477.212	7468
477.290	6686
477.367	6371
477.445	5795
477.523	6202
477.601	5427
477.678	7052
477.756	7087
477.834	9037
477.911	6223
477.989	6086
478.066	5706
478.144	6580
478.222	7331
478.299	10198
478.377	8698
478.454	5208
478.532	5425
478.609	6231
478.687	6328
478.764	5702
478.842	5916
478.919	6363
478.997	6040
479.074	6508
479.152	6930
479.229	8701
479.307	5441
479.384	4724
479.461	5384
479.539	6595
479.616	6374
479.694	5924
479.771	5940
479.848	7466
479.926	7788
480.003	9783
480.080	5667
480.157	5572
480.235	4742
480.312	6634
480.389	6375
480.467	11604
480.544	12770
480.621	6422
480.698	6193
480.775	6969
480.853	7320
480.930	6514
481.007	6568
481.084	6705
481.161	7128
481.238	7531
481.315	4631
481.392	5333
481.470	5138
481.547	5581
481.624	4637
481.701	5968
481.778	5806
481.855	6913
481.932	10622
482.009	17206
482.086	9388
482.163	6481
482.240	7423
482.317	10584
482.393	7482
482.470	5236
482.547	5729
482.624	5416
482.701	5164
482.778	5092
482.855	4045
482.932	4662
483.009	3679
483.085	5594
483.162	5390
483.239	5013
483.316	4615
483.393	5149
483.469	4740
483.546	7181
483.623	6987
483.699	4873
483.776	5488
483.853	6834
483.930	12742
484.006	28747
484.083	45600
484.160	29562
484.236	44690
484.313	31717
484.389	23593
484.466	22432
484.543	20110
484.619	19609
484.696	21376
484.772	21962
484.849	22285
484.925	19771
485.002	18796
485.078	19668
485.155	19708
485.231	18597
485.308	17763
485.384	19054
485.461	24182
485.537	33356
485.614	36570
485.690	18718
485.766	16497
485.843	18815
485.919	22222
485.995	21766
486.072	16208
486.148	16529
486.224	15416
486.301	16875
486.377	18721
486.453	18467
486.530	19905
486.606	25878
486.682	28929
486.758	30612
486.835	33572
486.911	29156
486.987	42688
487.063	38157
487.139	41458
487.215	28816
487.292	19721
487.368	18549
487.444	18198
487.520	19622
487.596	16351
487.672	20248
487.748	24272
487.824	26278
487.900	18121
487.976	17592
488.052	16369
488.128	19604
488.204	16925
488.280	17048
488.356	21239
488.432	38348
488.508	51437
488.584	17842
488.660	14195
488.736	15184
488.812	16869
488.888	19493
488.964	26655
489.039	43182
489.115	53987
489.191	31012
489.267	15815
489.343	15157
489.418	12763
489.494	13912
489.570	12432
489.646	13957
489.722	12766
489.797	14478
489.873	23366
489.949	40678
490.024	30492
490.100	12092
490.176	12290
490.251	14368
490.327	17588
490.403	11078
490.478	12256
490.554	10183
490.629	11442
490.705	9684
490.781	11459
490.856	11486
490.932	12254
491.007	12317
491.083	11522
491.158	12292
491.234	17580
491.309	31199
491.385	28277
491.460	11361
491.536	12434
491.611	11101
491.686	11919
491.762	16355
491.837	27287
491.913	43881
491.988	58447
492.063	62533
492.139	20761
492.214	14452
492.289	9963
492.365	9685
492.440	10625
492.515	10279
492.590	10249
492.666	8649
492.741	13553
492.816	17367
492.891	10474
492.967	10160
493.042	8892
493.117	9706
493.192	12138
493.267	28539
493.342	77037
493.418	88750
493.493	13305
493.568	7147
493.643	7391
493.718	11181
493.793	14691
493.868	14662
493.943	9607
494.018	8865
494.093	7368
494.168	8083
494.243	7287
494.318	7529
494.393	6593
494.468	6889
494.543	6942
494.618	7576
494.693	7138
494.768	7209
494.842	7147
494.917	6788
494.992	6852
495.067	5997
495.142	7779
495.217	7489
495.292	6666
495.366	8551
495.441	9157
495.516	11874
495.591	20073
495.665	58559
495.740	108405
495.815	35153
495.890	9535
495.964	7590
496.039	10641
496.114	6981
496.188	7956
496.263	9062
496.338	7544
496.412	9464
496.487	10574
496.561	10713
496.636	10496
496.710	9441
496.785	10090
496.860	11420
496.934	8444
497.009	9495
497.083	7299
497.158	8867
497.232	10663
497.307	12817
497.381	9428
497.455	11987
497.530	16829
497.604	10826
497.679	11659
497.753	18653
497.827	20089
497.902	15346
497.976	25502
498.050	88509
498.125	259721
498.199	202954
498.273	23251
498.348	16330
498.422	13570
498.496	14001
498.570	12650
498.645	10228
498.719	11158
498.793	14786
498.867	23483
498.941	39743
499.016	125090
499.090	260019
499.164	64669
499.238	10367
499.312	10281
499.386	11415
499.460	10782
499.534	10084
499.609	12556
499.683	17331
499.757	21016
499.831	62295
499.905	186673
499.979	138532
500.053	22159
500.127	22701
500.201	13943
500.275	10261
500.349	10208
500.422	11545
500.496	18182
500.570	43034
500.644	111149
500.718	170537
500.792	28925
500.866	11558
500.940	14245
501.013	10899
501.087	12312
501.161	17140
501.235	26726
501.309	75066
501.382	168561
501.456	118026
501.530	32037
501.603	49445
501.677	17157
501.751	7469
501.825	12824
501.898	27743
501.972	64886
502.046	32953
502.119	11308
502.193	35555
502.266	67633
502.340	29652
502.413	36384
502.487	60170
502.561	31355
502.634	10143
502.708	8581
502.781	6768
502.855	6738
502.928	5971
503.002	6112
503.075	5729
503.149	7170
503.222	6641
503.295	7848
503.369	9087
503.442	16326
503.516	60007
503.589	122106
503.662	67844
503.736	25552
503.809	55712
503.882	43957
503.956	65247
504.029	46456
504.102	15290
504.175	12598
504.249	6820
504.322	8984
504.395	7938
504.468	6210
504.542	5913
504.615	4751
504.688	5272
504.761	4100
504.834	8382
504.907	7682
504.980	10996
505.053	6564
505.127	7534
505.200	10998
505.273	10567
505.346	6232
505.419	5027
505.492	4304
505.565	4172
505.638	4523
505.711	3792
505.784	3860
505.857	3523
505.930	5503
506.003	3645
506.076	6825
506.149	7322
506.221	7466
506.294	11589
506.367	33178
506.440	88350
506.513	36777
506.586	9693
506.659	5305
506.731	5275
506.804	5577
506.877	8244
506.950	6945
507.022	6142
507.095	6026
507.168	8337
507.241	6061
507.313	4625
507.386	5497
507.459	8085
507.531	5116
507.604	3882
507.677	4937
507.749	3608
507.822	7828
507.894	14757
507.967	19569
508.040	10911
508.112	8819
508.185	8006
508.257	7044
508.330	11275
508.402	6741
508.475	8510
508.547	8305
508.620	9184
508.692	13127
508.765	8221
508.837	6058
508.909	7048
508.982	6471
509.054	8557
509.127	6526
509.199	5876
509.271	5627
509.344	6007
509.416	6485
509.488	6685
509.560	7080
509.633	6480
509.705	7329
509.777	8700
509.849	10416
509.922	7575
509.994	7682
510.066	7913
510.138	8573
510.210	19060
510.283	15266
510.355	13635
510.427	11129
510.499	10418
510.571	9833
510.643	9596
510.715	13737
510.787	10130
510.859	10987
510.931	11618
511.003	13816
511.076	12035
511.148	7984
511.219	9650
511.291	15575
511.363	15953
511.435	8547
511.507	7547
511.579	9287
511.651	9260
511.723	7975
511.795	8009
511.867	8096
511.939	11759
512.010	19138
512.082	14333
512.154	7539
512.226	8702
512.298	14974
512.369	19328
512.441	15336
512.513	13326
512.585	10025
512.656	11329
512.728	11031
512.800	9543
512.871	9549
512.943	9286
513.015	6974
513.086	9383
513.158	10333
513.230	9578
513.301	13061
513.373	13839
513.444	9341
513.516	8059
513.588	8228
513.659	9622
513.731	10709
513.802	8941
513.874	19692
513.945	24704
514.016	10071
514.088	8805
514.159	8396
514.231	12652
514.302	16382
514.374	12757
514.445	12375
514.516	23274
514.588	15340
514.659	12671
514.730	19122
514.802	14713
514.873	7815
514.944	10451
515.016	9528
515.087	10941
515.158	14202
515.229	17202
515.301	7627
515.372	10376
515.443	7349
515.514	7464
515.585	6405
515.656	7958
515.728	8221
515.799	7196
515.870	7936
515.941	7960
516.012	8680
516.083	13407
516.154	13014
516.225	15627
516.296	13417
516.367	11098
516.438	10111
516.509	12332
516.580	19154
516.651	57065
516.722	138388
516.793	54615
516.864	17715
516.935	17859
517.006	17160
517.077	24382
517.148	57082
517.219	162900
517.289	197730
517.360	96916
517.431	30997
517.502	11192
517.573	11463
517.643	11998
517.714	13451
517.785	13344
517.856	12093
517.926	14919
517.997	14511
518.068	15336
518.138	19805
518.209	34027
518.280	131029
518.350	330750
518.421	100545
518.492	16580
518.562	12460
518.633	12784
518.703	9148
518.774	13737
518.845	16061
518.915	14255
518.986	11796
519.056	14805
519.127	26920
519.197	45898
519.268	100242
519.338	50722
519.408	15300
519.479	16409
519.549	10894
519.620	11406
519.690	7453
519.760	8429
519.831	8640
519.901	8448
519.971	7589
520.042	8284
520.112	9089
520.182	11498
520.253	10877
520.323	8510
520.393	11274
520.463	15068
520.534	9758
520.604	20351
520.674	11698
520.744	12233
520.814	21512
520.885	20769
520.955	42861
521.025	115664
521.095	32999
521.165	10093
521.235	8575
521.305	6186
521.375	7331
521.445	9210
521.515	9425
521.585	12359
521.655	7868
521.725	9616
521.795	9198
521.865	5478
521.935	13039
522.005	8354
522.075	6425
522.145	8050
522.215	8487
522.285	12056
522.355	17418
522.424	32188
522.494	22719
522.564	12423
522.634	25125
522.704	54701
522.774	17458
522.843	6744
522.913	7173
522.983	8448
523.053	5028
523.122	8317
523.192	11549
523.262	33932
523.331	23694
523.401	7559
523.471	5524
523.540	6101
523.610	4726
523.680	5414
523.749	5578
523.819	8340
523.888	6569
523.958	4260
524.027	5480
524.097	6244
524.166	4734
524.236	5655
524.305	6890
524.375	4622
524.444	4405
524.514	7669
524.583	6745
524.653	6939
524.722	7984
524.791	4649
524.861	6510
524.930	4605
524.999	5349
525.069	8962
525.138	7184
525.207	7185
525.277	5672
525.346	5491
525.415	6046
525.484	5927
525.554	6227
525.623	6194
525.692	4607
525.761	4430
525.830	4285
525.900	4917
525.969	7485
526.038	6684
526.107	7370
526.176	18353
526.245	13968
526.314	13167
526.383	15888
526.452	13230
526.522	27547
526.591	32829
526.660	24604
526.729	11501
526.797	14977
526.867	43844
526.935	149456
527.004	99908
527.073	33445
527.142	5419
527.211	6537
527.280	7018
527.349	6742
527.418	3529
527.487	5798
527.555	3166
527.624	3884
527.693	2797
527.762	4789
527.831	3268
527.899	4466
527.968	4251
528.037	3555
528.106	6980
528.174	10059
528.243	9499
528.312	14459
528.380	14529
528.449	4128
528.518	5948
528.586	1926
528.655	4638
528.723	3204
528.792	3968
528.861	3498
528.929	2829
528.998	5115
529.066	3665
529.135	3966
529.203	2808
529.272	1906
529.340	3805
529.409	4334
529.477	2959
529.545	4044
529.614	7781
529.682	5691
529.751	7435
529.819	8866
529.887	4899
529.956	3488
530.024	5012
530.092	3328
530.161	5637
530.229	6109
530.297	2763
530.365	3593
530.434	2810
530.502	2668
530.570	3630
530.638	1544
530.707	3166
530.775	5240
530.843	2612
530.911	2957
530.979	3540
531.047	2984
531.115	3608
531.183	3505
531.252	3606
531.320	3270
531.388	2813
531.456	2630
531.524	1667
531.592	4596
531.660	5052
531.728	2458
531.796	2026
531.864	3641
531.932	3672
532.000	2762
532.067	3798
532.135	4367
532.203	6283
532.271	5109
532.339	13221
532.407	25558
532.475	12085
532.542	6271
532.610	6484
532.678	12110
532.746	59089
532.814	96477
532.881	18601
532.949	4619
533.017	3860
533.084	4284
533.152	3271
533.220	3882
533.287	3277
533.355	3124
533.423	4475
533.490	2143
533.558	3456
533.625	3558
533.693	5452
533.761	5198
533.828	4911
533.896	5042
533.963	13207
534.031	12997
534.098	16129
534.166	7014
534.233	5289
534.300	7108
534.368	5732
534.435	4315
534.503	4638
534.570	5074
534.637	2961
534.705	3767
534.772	3668
534.840	3762
534.907	10404
534.974	9107
535.041	4751
535.109	5868
535.176	3258
535.243	4631
535.310	4032
535.378	2619
535.445	3158
535.512	2685
535.579	3790
535.646	3668
535.714	5399
535.781	6340
535.848	6991
535.915	7955
535.982	7665
536.049	6355
536.116	8277
536.183	4818
536.250	5903
536.317	5006
536.384	6876
536.451	8226
536.518	8438
536.585	4083
536.652	9428
536.719	11491
536.786	6105
536.853	7352
536.920	12966
536.987	14726
537.053	17286
537.120	62373
537.187	35819
537.254	4759
537.321	4322
537.388	5955
537.454	3432
537.521	3737
537.588	2879
537.654	5944
537.721	7547
537.788	6762
537.855	4837
537.921	4830
537.988	5965
538.055	5330
538.121	4849
538.188	5400
538.254	9999
538.321	15407
538.388	8704
538.454	5298
538.521	4973
538.587	3920
538.654	4388
538.720	3298
538.787	3992
538.853	5149
538.920	7162
538.986	7116
539.053	5803
539.119	5553
539.185	5035
539.252	7234
539.318	8684
539.385	7848
539.451	6440
539.517	8088
539.583	9348
539.650	21690
539.716	38912
539.782	9255
539.849	5317
539.915	5640
539.981	5087
540.047	6761
540.114	6241
540.180	6756
540.246	5101
540.312	8932
540.378	16019
540.444	15183
540.510	22071
540.576	44214
540.643	11256
540.709	4604
540.775	5112
540.841	5146
540.907	8871
540.973	13903
541.039	10973
541.105	10363
541.171	6077
541.237	4764
541.303	5692
541.369	9079
541.435	9799
541.500	13837
541.566	7200
541.632	4440
541.698	4285
541.764	5204
541.830	3682
541.896	4425
541.961	5978
542.027	5144
542.093	5658
542.159	6310
542.224	6473
542.290	11949
542.356	16968
542.421	14546
542.487	9174
542.553	5327
542.618	7439
542.684	5456
542.750	5584
542.815	7137
542.881	14780
542.947	44700
543.012	21876
543.078	5466
543.143	4829
543.209	5503
543.274	5617
543.340	7299
543.405	20107
543.471	20127
543.536	6420
543.602	5789
543.667	4722
543.732	5952
543.798	4353
543.863	5672
543.928	4892
543.994	4108
544.059	5230
544.124	4449
544.190	4666
544.255	6145
544.320	5523
544.386	5093
544.451	8898
544.516	8729
544.581	10024
544.646	32136
544.712	34408
544.777	8371
544.842	8395
544.907	8211
544.972	6696
545.037	6939
545.102	7082
545.168	7137
545.233	8449
545.298	8775
545.363	10717
545.428	10722
545.493	20293
545.558	31358
545.623	12207
545.688	7160
545.753	7097
545.818	6438
545.883	8264
545.947	6553
546.012	7670
546.077	7613
546.142	7648
546.207	7510
546.272	10772
546.337	8702
546.401	7968
546.466	7583
546.531	5854
546.596	7944
546.661	7369
546.725	7242
546.790	5529
546.855	6890
546.919	5625
546.984	6816
547.049	7270
547.113	8422
547.178	6056
547.243	7938
547.307	8249
547.372	9705
547.436	9937
547.501	6346
547.565	7386
547.630	9099
547.695	9442
547.759	11735
547.823	8757
547.888	7192
547.952	6685
548.017	6955
548.081	9671
548.146	11669
548.210	10558
548.274	5730
548.339	6050
548.403	6608
548.468	5257
548.532	5756
548.596	6657
548.660	6003
548.725	8648
548.789	7758
548.853	9448
548.917	8244
548.982	13118
549.046	11337
549.110	6165
549.174	6486
549.238	6141
549.303	5205
549.367	7687
549.431	5341
549.495	6764
549.559	5379
549.623	7326
549.687	8278
549.751	11434
549.815	7455
549.879	7804
549.943	6131
550.007	8848
550.071	7631
550.135	10237
550.199	7486
550.263	6446
550.327	9843
550.391	11329
550.455	7882
550.519	7060
550.582	8437
550.646	10737
550.710	9809
550.774	7248
550.838	6981
550.901	7972
550.965	7749
551.029	7802
551.093	9979
551.156	14734
551.220	30770
551.284	23573
551.347	16060
551.411	40798
551.475	31840
551.538	8085
551.602	7307
551.666	7282
551.729	5603
551.793	7396
551.856	6825
551.920	7468
551.983	6359
552.047	6336
552.110	6374
552.174	6782
552.237	5739
552.301	6356
552.364	6012
552.428	6596
552.491	6546
552.554	6656
552.618	5937
552.681	7111
552.745	6773
552.808	10995
552.871	12718
552.934	8526
552.998	7810
553.061	8265
553.124	7513
553.187	8556
553.251	7510
553.314	9884
553.377	9820
553.440	20972
553.503	73389
553.567	86780
553.630	12140
553.693	7945
553.756	6511
553.819	5452
553.882	5425
553.945	6065
554.008	5906
554.071	5010
554.134	5758
554.197	5263
554.260	5368
554.323	7018
554.386	6182
554.449	5132
554.512	6150
554.575	5631
554.638	7232
554.701	6180
554.764	5041
554.827	5715
554.889	4916
554.952	4751
555.015	4425
555.078	5277
555.141	5060
555.203	4541
555.266	5205
555.329	5639
555.391	4417
555.454	6038
555.517	5436
555.580	4834
555.642	4029
555.705	4841
555.768	4918
555.830	5595
555.893	5469
555.955	4608
556.018	4909
556.080	4675
556.143	4987
556.206	5446
556.268	6075
556.330	6109
556.393	5189
556.455	6318
556.518	11752
556.580	10105
556.643	4879
556.705	6004
556.767	3917
556.830	5544
556.892	6364
556.955	9898
557.017	6944
557.079	5578
557.142	5355
557.204	7039
557.266	14295
557.328	10139
557.391	4369
557.453	5063
557.515	5520
557.577	6348
557.639	5939
557.701	4899
557.764	3782
557.826	4490
557.888	5550
557.950	4771
558.012	4920
558.074	6113
558.136	9103
558.198	13264
558.260	7087
558.322	5762
558.384	5057
558.446	6483
558.508	6898
558.570	8944
558.632	18172
558.694	21641
558.756	13827
558.818	36559
558.880	63298
558.942	17418
559.003	14041
559.065	7008
559.127	6093
559.189	5790
559.251	6440
559.312	8034
559.374	16275
559.436	40122
559.498	16259
559.559	5685
559.621	5165
559.683	6870
559.744	12428
559.806	26835
559.868	26185
559.929	8902
559.991	7504
560.052	9580
560.114	14934
560.176	10724
560.237	13318
560.299	14570
560.360	7009
560.422	6301
560.483	6692
560.545	5716
560.606	5949
560.667	5228
560.729	5800
560.790	5421
560.852	5664
560.913	5707
560.974	5710
561.036	5492
561.097	5938
561.158	6417
561.220	5880
561.281	5289
561.342	6232
561.403	8158
561.465	10643
561.526	25315
561.587	23743
561.648	7491
561.709	7016
561.771	5918
561.832	6167
561.893	6328
561.954	5501
562.015	5983
562.076	6357
562.137	6295
562.198	5645
562.259	5916
562.320	6080
562.381	6783
562.442	9952
562.503	6738
562.564	6417
562.625	5646
562.686	5734
562.747	6313
562.808	6439
562.869	6388
562.930	9230
562.991	7581
563.051	7364
563.112	6556
563.173	6171
563.234	5295
563.294	6232
563.355	5921
563.416	6566
563.477	6811
563.537	6687
563.598	7942
563.659	6496
563.720	6431
563.780	6433
563.841	6619
563.901	5559
563.962	6319
564.023	5797
564.083	5841
564.144	6454
564.204	6887
564.265	6938
564.325	9197
564.386	19007
564.446	12195
564.507	6001
564.567	5168
564.628	5739
564.688	5781
564.749	5530
564.809	8288
564.869	8499
564.930	6061
564.990	5914
565.050	6251
565.111	5284
565.171	6056
565.231	6443
565.292	6955
565.352	4953
565.412	6023
565.472	5512
565.532	6163
565.593	6486
565.653	5398
565.713	5203
565.773	6014
565.833	7079
565.893	8984
565.953	5389
566.013	6541
566.074	6735
566.134	9738
566.194	16811
566.254	13992
566.314	8917
566.374	6685
566.434	7072
566.494	7287
566.554	5573
566.614	6420
566.673	6314
566.733	7049
566.793	7688
566.853	6371
566.913	6414
566.973	6903
567.033	7019
567.092	7427
567.152	6638
567.212	7208
567.272	6442
567.331	7337
567.391	7634
567.451	7962
567.511	11399
567.570	10810
567.630	6618
567.690	6399
567.749	6357
567.809	7055
567.868	7275
567.928	7337
567.988	8458
568.047	7333
568.107	8349
568.166	10216
568.226	13952
568.285	16308
568.345	13587
568.404	13178
568.464	11096
568.523	10112
568.582	10380
568.642	11094
568.701	14027
568.761	18253
568.820	24989
568.879	23541
568.939	21057
568.998	14473
569.057	11312
569.116	10060
569.176	8453
569.235	8917
569.294	7480
569.353	6935
569.413	5939
569.472	6023
569.531	5828
569.590	5928
569.649	6480
569.708	5125
569.767	6211
569.827	7642
569.886	4705
569.945	4717
570.004	5840
570.063	6034
570.122	7198
570.181	7135
570.240	7511
570.299	7263
570.358	5574
570.417	5480
570.475	5317
570.534	5622
570.593	5621
570.652	5705
570.711	5675
570.770	6566
570.829	6584
570.887	6070
570.946	6268
571.005	4736
571.064	5280
571.122	6811
571.181	6235
571.240	5865
571.299	5167
571.357	6194
571.416	6022
571.475	7140
571.533	7846
571.592	4814
571.650	4642
571.709	5040
571.768	5129
571.826	4957
571.885	4572
571.943	4765
572.002	5568
572.060	4650
572.119	4152
572.177	4712
572.236	3549
572.294	4375
572.352	3835
572.411	4390
572.469	3388
572.528	4034
572.586	3627
572.644	5694
572.703	6692
572.761	5722
572.819	4095
572.877	4401
572.936	3935
572.994	4395
573.052	4200
573.110	3274
573.169	4107
573.227	4333
573.285	4258
573.343	4449
573.401	4110
573.459	3109
573.517	3560
573.576	3830
573.634	4762
573.692	3832
573.750	4164
573.808	3858
573.866	4668
573.924	6981
573.982	5919
574.040	4576
574.098	3794
574.155	4048
574.213	3950
574.271	2539
574.329	3450
574.387	3224
574.445	3705
574.503	3076
574.560	3767
574.618	3155
574.676	2904
574.734	4276
574.792	4652
574.849	3355
574.907	3426
574.965	4137
575.022	2709
575.080	4125
575.138	3641
575.195	4254
575.253	3906
575.311	3919
575.368	3964
575.426	3354
575.483	4207
575.541	3754
575.598	4317
575.656	3153
575.713	2653
575.771	4045
575.828	3246
575.886	4153
575.943	4377
576.001	4248
576.058	3994
576.115	4472
576.173	6397
576.230	5950
576.287	5455
576.345	5438
576.402	4315
576.459	4158
576.517	3844
576.574	6069
576.631	6247
576.688	4595
576.746	4469
576.803	4853
576.860	4006
576.917	4281
576.974	3738
577.031	4091
577.089	4472
577.146	4023
577.203	3795
577.260	5273
577.317	4912
577.374	6626
577.431	5122
577.488	4541
577.545	4164
577.602	4598
577.659	3880
577.716	5222
577.773	6065
577.830	4839
577.886	4964
577.943	4714
578.000	4299
578.057	5725
578.114	6414
578.171	7107
578.227	9880
578.284	9102
578.341	7050
578.398	5734
578.454	5535
578.511	7070
578.568	6594
578.625	4618
578.681	4208
578.738	3590
578.794	3723
578.851	3907
578.908	4050
578.964	4235
579.021	5018
579.077	3494
579.134	3569
579.190	4566
579.247	4067
579.303	4004
579.360	3315
579.416	3833
579.473	3514
579.529	3699
579.586	3630
579.642	4569
579.698	4282
579.755	4737
579.811	4413
579.867	4720
579.924	4903
579.980	5015
580.036	7170
580.093	9820
580.149	15459
580.205	15425
580.261	11160
580.317	8625
580.374	7193
580.430	7573
580.486	5920
580.542	4542
580.598	5292
580.619	4968
580.654	4407
580.692	3700
580.710	3350
580.765	3838
580.767	3853
580.823	4120
580.838	4288
580.879	4746
580.911	4303
580.935	3970
580.984	4306
580.991	4360
581.047	4298
581.057	4414
581.103	4904
581.130	5507
581.159	6154
581.203	6905
581.215	7102
581.270	6893
581.276	6738
581.326	5274
581.349	5170
581.382	5011
581.422	5021
581.438	5029
581.494	5157
581.494	5147
581.550	4003
581.567	4325
581.606	5049
581.640	4505
581.661	4164
581.713	5059
581.717	5132
581.773	4353
581.786	4258
581.829	3886
581.859	4164
581.885	4489
581.932	4433
581.940	4402
581.996	5339
582.004	5240
582.052	4725
582.077	4648
582.107	4527
582.150	4404
582.163	4383
582.219	5370
582.223	5308
582.274	4544
582.296	4711
582.330	4971
582.368	4962
582.386	4964
582.441	4521
582.441	4519
582.497	4859
582.514	4881
582.552	5023
582.587	5435
582.608	5611
582.659	5067
582.663	5015
582.719	4679
582.732	4767
582.774	5303
582.805	5209
582.830	5063
582.877	5313
582.885	5340
582.941	4871
582.950	5004
582.996	5793
583.023	5920
583.052	6310
583.095	7904
583.107	8336
583.162	10551
583.168	10586
583.218	10527
583.240	9997
583.273	8839
583.313	7935
583.328	7722
583.384	7573
583.385	7539
583.439	6247
583.458	5984
583.494	5602
583.531	5555
583.549	5657
583.603	5266
583.605	5244
583.660	5427
583.676	5490
583.715	5650
583.748	5710
583.770	5922
583.820	5947
583.825	5912
583.881	5521
583.893	5469
583.936	5489
583.965	5551
583.991	5613
584.038	5267
584.046	5193
584.101	5397
584.110	5398
584.156	5379
584.183	5260
584.211	5258
584.255	5115
584.266	5013
584.321	5399
584.328	5395
584.376	5841
584.400	5832
584.431	5522
584.472	5485
584.486	5479
584.541	5727
584.545	5690
584.596	5239
584.617	5426
584.651	6144
584.689	6176
584.706	5844
584.761	5622
584.762	5611
584.816	5579
584.834	5891
584.871	6245
584.906	6086
584.926	6088
584.978	6226
584.980	6229
585.035	6880
585.051	6857
585.090	7025
585.123	7040
585.145	7025
585.195	7837
585.200	7966
585.254	8511
585.267	9152
585.309	11421
585.340	11910
585.364	11628
585.412	9679
585.419	9346
585.473	7832
585.484	7681
585.528	8297
585.556	8855
585.583	9402
585.628	11395
585.637	12068
585.692	16791
585.700	17443
585.747	20153
585.772	17953
585.801	13265
585.845	9341
585.856	8930
585.910	8581
585.917	8476
585.965	8178
585.989	8183
586.019	8267
586.061	8281
586.074	8343
586.128	9043
586.133	9043
586.183	9131
586.205	9338
586.237	9913
586.277	10114
586.292	9996
586.346	9662
586.349	9632
586.401	9278
586.421	9624
586.455	10685
586.493	11591
586.509	12515
586.564	16423
586.565	16549
586.618	24072
586.637	23755
586.672	17836
586.709	13260
586.727	11990
586.781	10119
586.781	10133
586.835	10092
586.853	10390
586.889	10596
586.925	10337
586.944	10499
586.996	11223
586.998	11251
587.052	11385
587.068	11459
587.106	11708
587.140	11714
587.161	11867
587.212	12541
587.215	12588
587.269	13231
587.284	13155
587.323	12877
587.356	12980
587.377	13390
587.427	14770
587.431	14824
587.485	14744
587.499	14604
587.539	14791
587.571	15279
587.593	15740
587.643	16146
587.648	16258
587.702	17588
587.715	17964
587.755	18656
587.786	18481
587.810	18869
587.858	20657
587.864	20890
587.917	23100
587.930	23454
587.971	25558
588.001	27202
588.025	28182
588.073	29634
588.079	30106
588.133	34685
588.145	35568
588.187	38684
588.217	41232
588.241	44546
588.288	50543
588.295	51524
588.348	59270
588.360	60938
588.402	68975
588.431	75014
588.456	81264
588.503	92693
588.510	94889
588.564	113741
588.575	117658
588.617	138022
588.646	153373
588.671	174170
588.718	219577
588.725	233106
588.778	349254
588.789	377042
588.832	612806
588.861	792081
588.886	1041499
588.932	1528098
588.939	1556429
588.993	1630957
589.004	1619244
589.047	1134920
589.075	822330
589.100	635648
589.147	330607
589.154	318122
589.207	232385
589.218	215487
589.261	202998
589.290	197023
589.314	208093
589.361	236074
589.368	250776
589.421	381833
589.433	413491
589.475	716887
589.504	949434
589.528	1162250
589.576	1518905
589.582	1478311
589.635	956827
589.647	848994
589.689	484670
589.718	248387
589.742	203116
589.790	118876
589.795	115915
589.849	88336
589.861	82151
589.902	72470
589.932	64526
589.955	58909
590.004	47162
590.009	46673
590.062	40996
590.075	39439
590.115	36513
590.146	34379
590.168	33464
590.218	31097
590.222	31023
590.275	29214
590.289	28600
590.328	27827
590.360	27156
590.381	26528
590.431	24695
590.435	24716
590.488	23900
590.503	23706
590.541	23271
590.574	22660
590.594	22306
590.645	21229
590.647	21284
590.700	21271
590.716	21075
590.753	20058
590.787	19294
590.806	19310
590.859	19169
590.859	19211
590.912	18382
590.930	18041
590.965	18033
591.001	18105
591.018	18177
591.071	18013
591.072	17958
591.124	18452
591.143	18498
591.177	18002
591.214	17363
591.230	17701
591.283	18800
591.285	18783
591.336	18516
591.356	18324
591.389	18409
591.427	18335
591.442	18097
591.495	17033
591.498	16904
591.547	16918
591.569	16842
591.600	16879
591.640	16811
591.653	16864
591.706	16836
591.711	16781
591.759	17170
591.782	17345
591.811	17913
591.853	18487
591.864	18388
591.917	17567
591.924	17410
591.969	16974
591.995	16590
592.022	16793
592.066	17038
592.075	17268
592.127	18413
592.137	18579
592.180	19553
592.208	20004
592.233	19179
592.279	17506
592.285	17472
592.338	16769
592.350	16567
592.390	16010
592.421	15485
592.443	15771
592.491	16273
592.495	16298
592.548	15955
592.562	15818
592.600	15463
592.633	15072
592.653	14973
592.704	14539
592.705	14637
592.775	15378
592.846	15986
592.916	15548
592.987	16568
593.058	15831
593.128	14995
593.199	14770
593.270	14575
593.341	14410
593.411	15191
593.482	14729
593.553	14769
593.623	13909
593.694	14652
593.764	14164
593.835	14867
593.906	13661
593.976	14298
594.047	14692
594.117	16383
594.188	15957
594.258	13806
594.329	14194
594.399	13173
594.470	12907
594.540	13233
594.611	12415
594.681	13928
594.751	12880
594.822	14703
594.892	14933
594.963	15172
595.033	13528
595.103	14264
595.174	15778
595.244	20758
595.314	23921
595.384	14641
595.455	13445
595.525	12793
595.595	13969
595.665	13953
595.736	13199
595.806	13729
595.876	13347
595.946	13101
596.016	12511
596.087	13164
596.157	12954
596.227	12538
596.297	12651
596.367	12989
596.437	13761
596.507	17955
596.577	21049
596.647	15068
596.717	13042
596.787	13155
596.857	13193
596.927	13460
596.997	13487
597.067	13681
597.137	16542
597.207	14903
597.277	12840
597.347	13191
597.417	11398
597.487	14383
597.557	13592
597.626	14530
597.696	14567
597.766	17072
597.836	20561
597.906	14388
597.975	12901
598.045	12439
598.115	12168
598.185	12412
598.254	12963
598.324	13839
598.394	13927
598.464	13561
598.533	12344
598.603	12353
598.672	13214
598.742	12355
598.812	11957
598.881	12394
598.951	12097
599.020	11494
599.090	11213
599.159	11993
599.229	11090
599.299	12283
599.368	11219
599.437	11466
599.507	12593
599.576	12855
599.646	13954
599.715	14792
599.785	12330
599.854	12936
599.924	13791
599.993	12745
600.062	12559
600.132	12215
600.201	11775
600.270	12926
600.340	11792
600.409	11629
600.478	11254
600.547	11774
600.617	11097
600.686	12371
600.755	11422
600.824	12583
600.894	11072
600.963	11629
601.032	9828
601.101	11663
601.170	11358
601.239	11084
601.308	11665
601.378	12097
601.447	11435
601.516	10456
601.585	10955
601.654	12065
601.723	11150
601.792	11776
601.861	12907
601.930	16465
601.999	14372
602.068	12021
602.137	11960
602.206	12452
602.275	13014
602.343	13389
602.412	13455
602.481	10778
602.550	10925
602.619	10732
602.688	11083
602.756	11117
602.825	10708
602.894	10674
602.963	10365
603.032	11302
603.100	10352
603.169	10947
603.238	9928
603.307	10620
603.375	10294
603.444	10812
603.513	9932
603.581	10355
603.650	10435
603.719	10659
603.787	9387
603.856	10786
603.924	10585
603.993	11061
604.061	9678
604.130	10210
604.198	10453
604.267	9899
604.335	9898
604.404	10398
604.472	9250
604.541	10815
604.609	10732
604.678	10957
604.746	10748
604.815	10759
604.883	9943
604.951	10577
605.020	9622
605.088	10420
605.156	9829
605.225	10880
605.293	9890
605.361	10372
605.429	10470
605.498	10675
605.566	11132
605.634	10666
605.702	10210
605.771	10102
605.839	10438
605.907	10152
605.975	9267
606.043	10568
606.111	10756
606.180	11158
606.248	14789
606.316	17282
606.384	10950
606.452	14138
606.520	14555
606.588	12078
606.656	8946
606.724	9475
606.792	9550
606.860	8970
606.928	8402
606.996	8752
607.064	8328
607.132	9073
607.200	9055
607.267	8823
607.335	7746
607.403	9283
607.471	8415
607.539	8771
607.607	8414
607.674	7936
607.742	9729
607.810	9581
607.878	9242
607.946	9016
608.013	9293
608.081	9989
608.149	9318
608.216	9119
608.284	9930
608.352	8575
608.419	8715
608.487	13803
608.555	9604
608.622	9150
608.690	9215
608.757	7752
608.825	9281
608.893	9893
608.960	11220
609.028	13382
609.095	13979
609.163	9982
609.230	8616
609.298	10186
609.365	7860
609.432	9436
609.500	9676
609.567	9846
609.635	10210
609.702	10043
609.769	11183
609.837	11652
609.904	10920
609.971	10476
610.039	14887
610.106	19374
610.173	33440
610.241	74721
610.308	119027
610.375	79395
610.442	22672
610.509	13842
610.577	12630
610.644	10925
610.711	10284
610.778	10258
610.845	9722
610.912	11559
610.980	14328
611.047	21397
611.114	15452
611.181	10288
611.248	7995
611.315	9905
611.382	8057
611.449	8978
611.516	9477
611.583	9581
611.650	9146
611.717	9929
611.784	8479
611.851	10684
611.918	11463
611.984	12416
612.051	15403
612.118	27002
612.185	56944
612.252	41437
612.319	13207
612.386	11214
612.452	10348
612.519	10640
612.586	14069
612.653	11161
612.719	9168
612.786	9252
612.853	8361
612.919	8504
612.986	9084
613.053	8299
613.120	7796
613.186	8267
613.253	9190
613.319	8901
613.386	8934
613.453	9162
613.519	10755
613.586	14092
613.652	20326
613.719	16781
613.785	14501
613.852	9631
613.918	8893
613.985	13916
614.051	22521
614.118	56678
614.184	54336
614.250	13276
614.317	10090
614.383	8301
614.449	8112
614.516	8935
614.582	9544
614.648	8576
614.715	8717
614.781	8532
614.847	9007
614.914	9461
614.980	8670
615.046	9585
615.112	8158
615.179	8969
615.245	8701
615.311	9570
615.377	13300
615.443	14882
615.509	10596
615.575	10230
615.642	8928
615.708	10756
615.774	10356
615.840	11854
615.906	14392
615.972	17254
616.038	28305
616.104	45951
616.170	82656
616.236	73453
616.302	21705
616.368	14395
616.434	10794
616.500	12499
616.565	12065
616.631	12362
616.697	10314
616.763	11523
616.829	13491
616.895	18986
616.961	18768
617.026	14245
617.092	10300
617.158	10369
617.224	9158
617.289	10621
617.355	9608
617.421	10167
617.487	11131
617.552	9808
617.618	9504
617.684	8091
617.749	11194
617.815	8924
617.880	9059
617.946	9225
618.012	10138
618.077	9471
618.143	9203
618.208	9967
618.274	9791
618.339	11011
618.405	9595
618.470	10269
618.536	10332
618.601	11348
618.667	10457
618.732	10384
618.798	10367
618.863	10160
618.928	10404
618.994	12043
619.059	13219
619.124	18007
619.190	13294
619.255	10313
619.320	10300
619.386	10798
619.451	9542
619.516	10545
619.581	9906
619.647	10638
619.712	10658
619.777	10513
619.842	10672
619.907	10767
619.972	9277
620.038	10732
620.103	9134
620.168	8599
620.233	10455
620.298	10344
620.363	9262
620.428	9909
620.493	9637
620.558	8988
620.623	9553
620.688	9995
620.753	9897
620.818	9541
620.883	9219
620.948	9600
621.013	9614
621.078	10041
621.143	8135
621.207	11860
621.272	10868
621.337	11234
621.402	13344
621.467	14939
621.532	16533
621.596	13099
621.661	11775
621.726	11485
621.791	10353
621.855	12655
621.920	13251
621.985	13211
622.049	14562
622.114	13593
622.179	12663
622.243	13895
622.308	11578
622.373	13730
622.437	13159
622.502	11859
622.566	12223
622.631	11177
622.695	14197
622.760	12572
622.824	11988
622.889	12636
622.953	14087
623.018	22168
623.082	20494
623.147	13353
623.211	11966
623.276	13831
623.340	11284
623.404	12657
623.469	11035
623.533	11593
623.597	10950
623.662	12230
623.726	11287
623.790	10730
623.854	11036
623.919	11704
623.983	11107
624.047	11459
624.111	11314
624.176	11574
624.240	12317
624.304	14860
624.368	11453
624.432	12143
624.496	12088
624.560	13103
624.625	13122
624.689	12030
624.753	11457
624.817	11384
624.881	9746
624.945	10300
625.009	10525
625.073	11712
625.137	12040
625.201	15959
625.265	14614
625.329	11600
625.393	11847
625.456	11040
625.520	12650
625.584	13204
625.648	14586
625.712	22729
625.776	48593
625.839	55779
625.903	22254
625.967	14075
626.031	22411
626.095	30777
626.158	13832
626.222	10137
626.286	10816
626.349	10290
626.413	8675
626.477	12125
626.540	9708
626.604	9695
626.668	10714
626.731	9553
626.795	10500
626.858	9181
626.922	8748
626.986	10212
627.049	7822
627.113	9492
627.176	8757
627.240	8856
627.303	8579
627.366	9165
627.430	9316
627.493	9172
627.557	8109
627.620	10603
627.684	8451
627.747	9257
627.810	8044
627.874	9284
627.937	7524
628.000	11015
628.064	9189
628.127	7098
628.190	8971
628.253	8492
628.317	7803
628.380	8965
628.443	7827
628.506	8259
628.569	8453
628.632	7499
628.696	7727
628.759	7913
628.822	7274
628.885	8018
628.948	8194
629.011	8534
629.074	7563
629.137	7767
629.200	8103
629.263	8764
629.326	7413
629.389	7848
629.452	7999
629.515	8485
629.578	6928
629.641	9198
629.704	8995
629.767	9067
629.830	7809
629.892	8089
629.955	6714
630.018	9997
630.081	7622
630.144	11901
630.207	7077
630.269	9930
630.332	8743
630.395	8063
630.458	7103
630.520	5750
630.583	9209
630.646	8378
630.708	6924
630.771	6070
630.834	7887
630.896	6541
630.959	6294
631.021	7074
631.084	6656
631.146	8720
631.209	8655
631.272	6713
631.334	6499
631.397	6287
631.459	6311
631.522	7026
631.584	6724
631.646	7777
631.709	7304
631.771	9265
631.834	7693
631.896	6690
631.958	5484
632.021	7018
632.083	5254
632.145	7342
632.208	5949
632.270	7552
632.332	5570
632.395	5330
632.457	7045
632.519	6113
632.581	7061
632.643	6260
632.706	6065
632.768	5567
632.830	6010
632.892	6626
632.954	5677
633.016	7353
633.078	5764
633.141	5604
633.203	5852
633.265	6205
633.327	6215
633.389	6278
633.451	6770
633.513	8079
633.575	7975
633.637	8221
633.698	7370
633.760	6690
633.822	5779
633.884	5968
633.946	6459
634.008	5862
634.070	6436
634.132	9711
634.193	5930
634.255	6918
634.317	5246
634.379	6888
634.441	5276
634.502	5174
634.564	6275
634.626	5502
634.687	5903
634.749	6151
634.811	5639
634.873	5247
634.934	5473
634.996	6392
635.057	4925
635.119	4798
635.181	4912
635.242	5807
635.304	3831
635.365	8072
635.427	5030
635.488	6095
635.550	4912
635.611	5773
635.673	2971
635.734	7209
635.796	5084
635.857	6831
635.918	4181
635.980	6675
636.041	5065
636.102	4793
636.164	5457
636.225	6377
636.286	2994
636.348	6156
636.409	5064
636.470	5844
636.531	5794
636.593	5669
636.654	6511
636.715	5247
636.776	3993
636.838	4313
636.899	5644
636.960	4722
637.021	4366
637.082	4676
637.143	4893
637.204	4281
637.265	3690
637.326	5090
637.387	4574
637.448	4415
637.509	4832
637.570	4617
637.631	4675
637.692	4054
637.753	3271
637.814	5293
637.875	3838
637.936	5916
637.997	4065
638.058	4516
638.119	5122
638.179	4611
638.240	4501
638.301	4916
638.362	3079
638.423	4155
638.483	6045
638.544	3030
638.605	3982
638.666	3598
638.726	4975
638.787	4178
638.848	4682
638.908	4584
638.969	3690
639.030	4387
639.090	3696
639.151	4293
639.211	4792
639.272	6046
639.332	10758
639.393	6955
639.453	3656
639.514	4099
639.574	4633
639.635	3193
639.695	4520
639.756	3137
639.816	5465
639.877	5880
639.937	8757
639.997	12952
640.058	4237
640.118	4191
640.178	5062
640.239	4588
640.299	3694
640.359	2178
640.420	3536
640.480	4430
640.540	3489
640.600	3869
640.661	4267
640.721	4354
640.781	6914
640.841	3584
640.901	5726
640.961	4520
641.021	5117
641.082	4723
641.142	7214
641.202	6293
641.262	2472
641.322	4984
641.382	1873
641.442	4659
641.502	3134
641.562	4668
641.622	3549
641.682	4363
641.742	3444
641.802	4311
641.861	4475
641.921	3598
641.981	5533
642.041	5204
642.101	6259
642.161	3390
642.221	2990
642.280	4007
642.340	2869
642.400	3246
642.460	3398
642.519	3449
642.579	3495
642.639	4067
642.698	602
642.758	5298
642.818	2974
642.877	3112
642.937	4004
642.997	4894
643.056	7552
643.116	3999
643.175	4374
643.235	2639
643.294	3658
643.354	3550
643.414	3451
643.473	4278
643.532	2540
643.592	3729
643.651	5079
643.711	8895
643.770	13081
643.830	27121
643.889	56555
643.948	15912
644.008	4513
644.067	3356
644.126	1763
644.186	3483
644.245	3762
644.304	1575
644.363	4404
644.423	2446
644.482	2974
644.541	3910
644.600	1283
644.659	3773
644.719	2470
644.778	4139
644.837	4132
644.896	6853
644.955	10835
645.014	6328
645.073	5530
645.132	3681
645.191	3890
645.250	2140
645.309	4528
645.368	2486
645.427	3197
645.486	2967
645.545	4560
645.604	2743
645.663	4083
645.722	3671
645.781	2723
645.840	2415
645.898	3531
645.957	4152
646.016	3368
646.075	7067
646.134	9933
646.192	25058
646.251	37528
646.310	7347
646.369	3723
646.427	4183
646.486	1930
646.545	3611
646.603	2575
646.662	3165
646.721	2557
646.779	1500
646.838	1056
646.896	3903
646.955	2524
647.014	4150
647.072	2972
647.131	8677
647.189	3814
647.248	2070
647.306	3139
647.365	4059
647.423	941
647.481	3601
647.540	1717
647.598	3461
647.657	1691
647.715	3644
647.773	2053
647.832	3077
647.890	1654
647.948	2032
648.007	3524
648.065	2338
648.123	1797
648.181	5225
648.240	5206
648.298	4169
648.356	2109
648.414	2746
648.472	2592
648.531	3223
648.589	2338
648.647	2608
648.705	3093
648.763	2063
648.821	3246
648.879	2413
648.937	2204
648.995	2812
649.053	2822
649.111	3893
649.169	4562
649.227	5936
649.285	8481
649.343	21141
649.401	14437
649.459	15240
649.516	12710
649.574	9027
649.632	22674
649.690	29907
649.748	8799
649.806	9455
649.863	15252
649.921	8395
649.979	3688
650.037	3090
650.094	1180
650.152	2587
650.210	2109
650.268	3289
650.325	2413
650.383	1886
650.440	1442
650.498	2797
650.556	1852
650.613	2110
650.671	1881
650.728	1752
650.786	2575
650.843	2585
650.901	566
650.958	3090
651.016	2126
651.073	2230
651.131	1495
651.188	1365
651.246	1121
651.303	1127
651.360	1561
651.418	2000
651.475	2359
651.532	964
651.590	2502
651.647	1758
651.704	2503
651.762	1975
651.819	2114
651.876	1679
651.933	2234
651.990	2809
652.048	589
652.105	1995
652.162	2624
652.219	1096
652.276	1763
652.333	2379
652.390	975
652.448	2530
652.505	2367
652.562	2159
652.619	3364
652.676	6608
652.733	6872
652.790	2552
652.847	582
652.904	2314
652.961	731
653.017	1800
653.074	2604
653.131	2061
653.188	807
653.245	2192
653.302	1780
653.359	1312
653.415	2237
653.472	1262
653.529	1912
653.586	1064
653.642	1427
653.699	2526
653.756	498
653.813	1313
653.869	1804
653.926	936
653.983	935
654.039	2343
654.096	1288
654.152	2811
654.209	1017
654.266	1837
654.322	1198
654.379	2049
654.435	2017
654.492	2547
654.548	3507
654.605	5620
654.661	3643
654.717	2115
654.774	2534
654.830	2212
654.887	1915
654.943	2439
655.000	2724
655.056	2333
655.112	1446
655.168	2127
655.225	1686
655.281	2606
655.337	2378
655.394	4787
655.450	3758
655.506	4334
655.562	4237
655.618	5135
655.675	1420
655.731	2576
655.787	1424
655.843	2456
655.899	574
655.955	2335
656.011	2776
656.067	1330
656.123	2940
656.179	3242
656.235	3260
656.291	793
656.347	2897
656.403	2620
656.459	1235
656.515	2883
656.571	2001
656.627	2388
656.683	1880
656.739	2751
656.795	2034
656.850	2674
656.906	2000
656.962	2948
657.018	1305
657.074	1299
657.129	1030
657.185	2732
657.241	928
657.297	1085
657.352	2033
657.408	1119
657.464	2634
657.519	1430
657.575	739
657.630	2263
657.686	1568
657.742	1383
657.797	1297
657.853	1106
657.908	2075
657.964	807
658.019	912
658.075	2023
658.130	2419
658.186	1077
658.241	2107
658.297	880
658.352	1028
658.407	1958
658.463	925
658.518	2362
658.573	1501
658.629	1650
658.684	1413
658.739	2706
658.795	1164
658.850	1280
658.905	460
658.960	1835
659.016	1266
659.071	1593
659.126	1482
659.181	1915
659.236	4216
659.291	5453
659.346	2612
659.401	3082
659.457	2960
659.512	4484
659.567	3771
659.622	1146
659.677	1147
659.732	1213
659.787	1673
659.842	2022
659.897	2683
659.952	2244
660.007	1158
660.061	1164
660.116	572
660.171	110
660.226	582
660.281	2328
660.336	469
660.391	2658
660.445	19
660.500	1726
660.555	1635
660.610	943
660.664	1679
660.719	505
660.774	1623
660.828	2013
660.883	641
660.938	1925
660.992	313
661.047	1886
661.101	1042
661.156	1220
661.211	980
661.265	1526
661.320	834
661.374	1389
661.429	790
661.483	1699
661.538	85
661.592	1229
661.647	925
661.701	1364
661.755	1507
661.810	1575
661.864	1029
661.919	999
661.973	1086
662.027	1191
662.081	416
662.136	1295
662.190	1704
662.244	1888
662.299	1517
662.353	1080
662.407	1018
662.461	1607
662.515	1416
662.569	1048
662.624	2444
662.678	1810
662.732	1398
662.786	1582
662.840	1160
662.894	1748
662.948	1090
663.002	2347
663.056	1769
663.110	1315
663.164	1265
663.218	1195
663.272	1385
663.326	1644
663.380	731
663.434	1259
663.488	260
663.542	1041
663.595	1348
663.649	2007
663.703	1810
663.757	1695
663.811	577
663.864	1585
663.918	1256
663.972	919
664.026	958
664.079	1707
664.133	1110
664.187	1104
664.240	1395
664.294	1720
664.348	964
664.401	1179
664.455	1542
664.508	570
664.562	1984
664.615	2041
664.669	664
664.722	2107
664.776	757
664.829	1152
664.883	949
664.936	860
664.990	794
665.043	1730
665.097	1411
665.150	2441
665.203	497
665.257	1184
665.310	1357
665.363	1807
665.417	1302
665.470	2009
665.523	1266
665.576	1379
665.630	986
665.683	1489
665.736	1113
665.789	1348
665.842	1054
665.895	1456
665.949	1144
666.002	1383
666.055	2188
666.108	1914
666.161	806
666.214	2538
666.267	1499
666.320	2082
666.373	2281
666.426	1902
666.479	516
666.532	2167
666.585	2062
666.638	1907
666.691	743
666.744	2244
666.796	1667
666.849	1758
666.902	722
666.955	1303
667.008	1163
667.060	366
667.113	144
667.166	926
667.219	772
667.271	1499
667.324	1117
667.377	2063
667.430	1213
667.482	2787
667.535	1897
667.587	2232
667.640	1988
667.693	2015
667.745	3694
667.798	4746
667.850	1504
667.903	673
667.955	830
668.008	1060
668.060	1988
668.113	1653
668.165	1071
668.218	2551
668.270	1455
668.322	1668
668.375	1140
668.427	2398
668.479	1093
668.532	2066
668.584	2004
668.636	1273
668.689	1578
668.741	1324
668.793	1569
668.845	1719
668.898	1694
668.950	1929
669.002	1665
669.054	1696
669.106	2032
669.158	1741
669.211	2599
669.263	2328
669.315	2913
669.367	3792
669.419	2426
669.471	3748
669.523	3779
669.575	5712
669.627	4223
669.679	2671
669.731	3022
669.783	2791
669.835	3450
669.886	2299
669.938	2928
669.990	2446
670.042	1922
670.094	3305
670.146	3178
670.197	4117
670.249	5693
670.301	6729
670.353	10523
670.404	16665
670.456	22134
670.508	39262
670.560	64460
670.611	110634
670.663	195891
670.715	449185
670.766	685957
670.818	230399
670.869	41386
670.921	19673
670.972	13545
671.024	9806
671.075	7237
671.127	6115
671.178	4471
671.230	4548
671.281	3288
671.333	2498
671.384	2412
671.436	3618
671.487	3256
671.538	3691
671.590	2829
671.641	3756
671.692	3111
671.744	4453
671.795	3275
671.846	2450
671.897	2233
671.949	2157
672.000	1979
672.051	1563
672.102	1990
672.153	1747
672.204	2016
672.256	1925
672.307	1979
672.358	2302
672.409	1351
672.460	1862
672.511	1032
672.562	1297
672.613	1512
672.664	1738
672.715	727
672.766	2021
672.817	918
672.868	1427
672.919	715
672.970	1368
673.021	1072
673.071	1269
673.122	1633
673.173	1561
673.224	729
673.275	1093
673.326	1695
673.376	1272
673.427	858
673.478	1483
673.528	1780
673.579	688
673.630	640
673.680	2471
673.731	1140
673.782	1077
673.832	746
673.883	1756
673.934	910
673.984	903
674.035	900
674.085	1617
674.136	1307
674.186	957
674.237	1413
674.287	3176
674.338	1604
674.388	1217
674.438	200
674.489	1274
674.539	1383
674.589	1449
674.640	1020
674.690	1301
674.740	373
674.791	812
674.841	866
674.891	2724
674.942	1211
674.992	1325
675.042	783
675.092	902
675.142	638
675.193	610
675.243	524
675.293	1180
675.343	812
675.393	1274
675.443	1661
675.493	1181
675.543	662
675.593	1255
675.643	352
675.693	906
675.743	938
675.793	863
675.843	748
675.893	951
675.943	1029
675.993	790
676.043	779
676.093	828
676.142	-131
676.192	1036
676.242	519
676.292	280
676.341	442
676.391	353
676.441	318
676.491	923
676.540	263
676.590	682
676.640	960
676.689	1245
676.739	-207
676.789	451
676.838	85
676.888	1110
676.937	1168
676.987	434
677.037	250
677.086	1627
677.136	524
677.185	816
677.235	19
677.284	1378
677.333	-159
677.383	986
677.432	-612
677.482	1249
677.531	834
677.580	16
677.630	-76
677.679	671
677.728	259
677.778	959
677.827	277
677.876	490
677.925	246
677.975	58
678.024	-209
678.073	-12
678.122	210
678.171	908
678.220	-280
678.269	569
678.319	-86
678.368	245
678.417	-101
678.466	1770
678.515	424
678.564	237
678.613	218
678.662	675
678.711	897
678.760	-36
678.809	261
678.857	254
678.906	68
678.955	914
679.004	911
679.053	588
679.102	-147
679.151	-7
679.199	162
679.248	478
679.297	108
679.346	702
679.394	592
679.443	-94
679.492	146
679.540	401
679.589	-371
679.638	465
679.686	882
679.735	-244
679.784	228
679.832	835
679.881	50
679.929	620
679.978	-822
680.026	362
680.075	617
680.123	153
680.172	-125
680.220	379
680.268	-162
680.317	-170
680.365	23
680.414	-317
680.462	18
680.510	837
680.559	-494
680.607	254
680.655	-469
680.703	212
680.752	59
680.800	604
680.848	-771
680.896	18
680.945	194
680.993	527
681.041	-9
681.089	569
681.137	79
681.185	334
681.233	83
681.258	147
681.281	189
681.329	269
681.377	29
681.380	46
681.425	13
681.473	756
681.502	598
681.521	449
681.569	794
681.617	315
681.624	468
681.665	1328
681.713	333
681.745	701
681.761	849
681.809	139
681.857	1138
681.867	821
681.904	-357
681.952	660
681.989	92
682.000	-107
682.048	523
682.096	583
682.111	634
682.143	697
682.191	566
682.233	1154
682.239	1220
682.286	665
682.334	938
682.354	541
682.382	-32
682.430	1112
682.476	1579
682.477	1572
682.525	522
682.572	650
682.598	349
682.620	82
682.667	829
682.715	1940
682.720	1899
682.763	1293
682.810	1655
682.841	1510
682.857	1433
682.905	1420
682.952	1240
682.963	1433
683.000	1990
683.047	613
683.085	1831
683.095	2170
683.142	1340
683.190	1884
683.206	1912
683.237	1841
683.284	2229
683.328	1178
683.332	1080
683.379	1629
683.426	1494
683.449	1644
683.473	1790
683.521	1502
683.568	2465
683.571	2430
683.615	1689
683.662	2644
683.693	1744
683.709	1261
683.757	1890
683.804	2222
683.814	2180
683.851	1958
683.898	2110
683.936	2004
683.945	1960
683.992	1733
684.039	1805
684.057	1991
684.086	2278
684.133	2581
684.179	1952
684.180	1920
684.227	2948
684.274	2226
684.300	2449
684.321	2611
684.368	2532
684.415	2567
684.422	2572
684.462	2359
684.509	2248
684.543	2079
684.556	2062
684.603	2278
684.649	2127
684.665	2306
684.696	2654
684.743	3186
684.786	3162
684.790	3141
684.837	2683
684.883	1890
684.908	2267
684.930	2628
684.977	2954
685.023	2466
685.029	2633
685.070	3825
685.117	2708
685.150	3056
685.164	3190
685.210	3130
685.257	3659
685.272	3747
685.303	3827
685.350	3563
685.393	3508
685.396	3500
685.443	3408
685.490	3534
685.514	3426
685.536	3357
685.583	3783
685.629	3569
685.636	3622
685.675	3760
685.722	3977
685.757	3463
685.768	3312
685.815	3760
685.861	3808
685.878	3934
685.908	4158
685.954	3045
686.000	4331
686.000	4346
686.047	3960
686.093	4428
686.121	4327
686.139	4236
686.185	4366
686.232	4303
686.242	4339
686.278	4341
686.324	4483
686.363	4540
686.370	4564
686.416	3895
686.463	4837
686.484	4587
686.509	4311
686.555	4354
686.601	4773
686.606	4688
686.647	3917
686.693	3998
686.727	4297
686.739	4429
686.785	3820
686.831	4659
686.848	4377
686.877	3677
686.923	3863
686.969	4187
686.969	4190
687.015	4607
687.061	4005
687.090	4490
687.107	4635
687.153	4851
687.199	4623
687.211	4374
687.245	3861
687.291	4379
687.332	4231
687.336	4223
687.382	4884
687.428	4725
687.453	4807
687.474	4764
687.520	4858
687.565	4877
687.574	4707
687.611	4178
687.657	4432
687.695	4268
687.702	4242
687.748	5166
687.794	5209
687.816	5050
687.839	4854
687.885	5128
687.931	4921
687.937	4880
687.976	4759
688.022	5228
688.058	5701
688.067	5772
688.113	5486
688.158	5014
688.179	4871
688.204	4833
688.249	5291
688.295	5542
688.300	5492
688.340	5130
688.386	5842
688.421	5425
688.431	5297
688.477	5645
688.522	5626
688.542	5637
688.567	5658
688.613	5472
688.658	5447
688.663	5380
688.703	5053
688.749	5379
688.784	5802
688.794	5864
688.839	5980
688.884	5501
688.905	5481
688.930	5563
688.975	5222
689.020	6003
689.026	5897
689.065	5344
689.110	5868
689.146	5769
689.155	5703
689.201	5779
689.246	5794
689.267	5962
689.291	6146
689.336	5579
689.381	5800
689.388	5757
689.426	5825
689.471	6509
689.509	6255
689.516	6173
689.561	5790
689.606	5807
689.630	5932
689.651	6131
689.696	5525
689.741	6230
689.750	6158
689.785	5910
689.830	6310
689.871	6012
689.875	6003
689.920	6529
689.965	6595
689.992	6579
690.010	6564
690.054	6783
690.099	6891
690.112	6804
690.144	6514
690.189	6564
690.233	6733
690.233	6744
690.278	6738
690.323	6266
690.354	6408
690.367	6688
690.412	6942
690.457	7446
690.474	7705
690.501	7945
690.546	8424
690.590	8448
690.595	8483
690.635	9396
690.680	10080
690.716	10797
690.724	11102
690.769	12572
690.813	14711
690.836	15230
690.857	17343
690.902	22960
690.946	28568
690.957	30008
690.991	42270
691.035	59234
691.077	75411
691.080	75613
691.124	72805
691.168	69468
691.198	67790
691.213	62385
691.257	47593
691.301	32549
691.318	26493
691.346	23553
691.390	19090
691.434	14877
691.439	14349
691.478	13066
691.522	12077
691.559	10793
691.567	10704
691.611	10182
691.655	9519
691.680	9371
691.699	9347
691.743	8838
691.787	8691
691.800	8414
691.831	8048
691.875	8694
691.919	8399
691.921	8389
691.964	8586
692.008	8644
692.041	8469
692.052	8441
692.096	8129
692.139	8703
692.162	8398
692.183	8085
692.227	8092
692.271	7609
692.282	7700
692.315	8265
692.359	8094
692.402	8522
692.403	8540
692.447	7878
692.490	8171
692.523	7775
692.534	7790
692.578	8211
692.622	8647
692.643	8782
692.666	8790
692.709	8605
692.753	8943
692.763	8851
692.797	8848
692.840	9380
692.884	9484
692.884	9504
692.928	9654
692.971	9684
693.004	9575
693.015	9631
693.059	9803
693.102	10158
693.124	10135
693.146	10140
693.189	10860
693.233	10712
693.245	10790
693.276	11816
693.320	13068
693.363	14437
693.365	14439
693.407	15667
693.450	17690
693.485	18817
693.493	19639
693.537	24193
693.580	28786
693.605	31298
693.624	36171
693.667	47952
693.710	59925
693.725	64130
693.753	87300
693.797	124813
693.840	162562
693.845	166368
693.883	162627
693.926	156632
693.966	152300
693.970	149100
694.013	113608
694.056	78151
694.086	53620
694.099	50542
694.142	40584
694.185	30743
694.206	25894
694.229	24130
694.272	20878
694.315	17728
694.326	16802
694.358	15865
694.401	14798
694.444	13354
694.446	13275
694.487	13251
694.530	12823
694.566	12738
694.573	12684
694.616	11578
694.659	10981
694.686	10457
694.702	10452
694.745	10454
694.787	10195
694.806	10278
694.830	10447
694.873	10268
694.916	10100
694.926	10090
694.959	10078
695.002	9876
695.044	9675
695.046	9640
695.087	9476
695.130	9479
695.166	9408
695.172	9441
695.215	9159
695.258	9305
695.286	9092
695.301	9073
695.343	9498
695.386	9509
695.406	9497
695.428	9489
695.471	9589
695.514	9662
695.526	9569
695.556	9331
695.599	9513
695.641	9471
695.646	9421
695.684	9036
695.726	8533
695.766	8440
695.769	8502
695.811	8568
695.854	9019
695.886	9243
695.896	9254
695.938	9268
695.981	8947
696.005	8905
696.023	9001
696.065	9091
696.108	9387
696.125	9405
696.150	9570
696.192	9831
696.235	9929
696.245	10006
696.277	10033
696.319	9801
696.361	9588
696.365	9545
696.404	9996
696.446	10722
696.485	10920
696.488	10928
696.530	10851
696.572	10727
696.604	10642
696.614	10617
696.656	10472
696.698	10290
696.724	9997
696.740	9790
696.783	9440
696.825	8985
696.844	8799
696.867	9124
696.909	9379
696.951	10021
696.964	10126
696.992	9821
697.034	9435
697.076	8859
697.083	8768
697.118	9196
697.160	9578
697.202	9965
697.203	9946
697.244	9829
697.286	9738
697.323	9583
697.327	9599
697.369	9507
697.411	9369
697.442	9290
697.453	9382
697.494	9557
697.536	9783
697.562	9866
697.578	9783
697.620	9577
697.661	9258
697.682	9118
697.703	9223
697.744	9353
697.786	9546
697.801	9548
697.828	9730
697.869	9987
697.911	10278
697.921	10322
697.952	10171
697.994	9925
698.035	9702
698.040	9642
698.077	9734
698.118	9801
698.160	9878
698.160	9847
698.201	9889
698.243	9802
698.279	9730
698.284	9749
698.325	9651
698.367	9586
698.399	9437
698.408	9484
698.449	9613
698.491	9782
698.518	9827
698.532	9869
698.573	9924
698.614	10019
698.638	10016
698.656	10050
698.697	10086
698.738	10097
698.757	10090
698.779	10108
698.820	10071
698.862	10031
698.877	9991
698.903	10179
698.944	10429
698.985	10677
698.996	10717
699.026	10638
699.067	10486
699.116	10276
699.235	9699
699.354	9734
699.474	9403
699.593	10992
699.713	10322
699.832	9738
699.951	9318
700.070	9540
700.190	8919
700.309	9576
700.428	9900
700.547	9615
700.667	8867
700.786	9479
700.905	8931
701.024	9841
701.143	8051
701.262	8688
701.381	9171
701.500	9674
701.619	9508
701.738	8184
701.857	9426
701.976	9121
702.095	8605
702.214	9103
702.333	8752
702.452	9197
702.571	8352
702.690	9078
702.809	7723
702.928	8212
703.047	8718
703.165	9064
703.284	8981
703.403	9181
703.522	8496
703.640	9602
703.759	8952
703.878	11053
703.997	8470
704.115	8241
704.234	8696
704.353	8811
704.471	7562
704.590	8471
704.708	7851
704.827	8245
704.946	8631
705.064	8604
705.183	8903
705.301	9064
705.420	11996
705.538	11790
705.656	10554
705.775	11339
705.893	19259
706.012	23319
706.130	10536
706.249	10321
706.367	9541
706.485	10811
706.604	9272
706.722	10487
706.840	10295
706.958	10837
707.077	10045
707.195	9307
707.313	9104
707.431	9845
707.549	8892
707.668	8959
707.786	8984
707.904	9193
708.022	8558
708.140	9109
708.258	9340
708.376	9935
708.494	8985
708.612	10823
708.730	13007
708.848	12842
708.966	11180
709.084	11337
709.202	11267
709.320	10944
709.438	10700
709.556	11177
709.674	10856
709.791	11602
709.909	10771
710.027	11684
710.145	10673
710.263	11127
710.380	10561
710.498	11227
710.616	10557
710.733	11187
710.851	10455
710.969	10641
711.086	9920
711.204	11199
711.322	9788
711.439	10307
711.557	10219
711.674	11046
711.792	10233
711.909	11308
712.027	10713
712.144	9472
712.262	9506
712.379	10844
712.497	14562
712.614	14602
712.732	12705
712.849	11708
712.966	12139
713.084	13482
713.201	11160
713.318	12842
713.436	11670
713.553	12536
713.670	12749
713.787	13600
713.905	12215
714.022	11707
714.139	11032
714.256	11766
714.373	11474
714.490	12819
714.608	13085
714.725	25093
714.842	23486
714.959	12349
715.076	10606
715.193	10944
715.310	10583
715.427	10886
715.544	11085
715.661	10623
715.778	10250
715.895	11213
716.011	10222
716.128	10852
716.245	9705
716.362	11912
716.479	11335
716.596	10212
716.713	9268
716.829	10109
716.946	10157
717.063	10207
717.180	9803
717.296	9633
717.413	9259
717.530	9558
717.646	8771
717.763	9890
717.880	9260
717.996	8670
718.113	8931
718.229	9402
718.346	8400
718.462	8690
718.579	9975
718.695	12126
718.812	11356
718.928	10298
719.045	9797
719.161	9165
719.277	8810
719.394	9034
719.510	9369
719.626	8649
719.743	9936
719.859	9002
719.975	9090
720.092	11849
720.208	15656
720.324	10273
720.440	9220
720.557	9871
720.673	11163
720.789	13578
720.905	21608
721.021	11353
721.137	8645
721.253	9312
721.369	8566
721.486	9663
721.602	9617
721.718	9167
721.834	7558
721.950	8589
722.066	7262
722.181	8109
722.297	9518
722.413	8561
722.529	8097
722.645	8091
722.761	7090
722.877	7633
722.993	7679
723.108	7993
723.224	6786
723.340	7434
723.456	8077
723.571	7576
723.687	7095
723.803	7808
723.918	6441
724.034	7186
724.150	7131
724.265	8143
724.381	10859
724.497	11598
724.612	8095
724.728	6805
724.843	6311
724.959	7963
725.074	10840
725.190	10891
725.305	6671
725.421	6444
725.536	7182
725.651	6743
725.767	5997
725.882	6995
725.997	6434
726.113	6718
726.228	6675
726.343	6597
726.459	5165
726.574	6269
726.689	6187
726.804	6440
726.920	6021
727.035	7083
727.150	6178
727.265	6414
727.380	7019
727.495	6934
727.610	6291
727.725	6692
727.841	8214
727.956	12886
728.071	10797
728.186	5944
728.301	6021
728.416	6087
728.531	5461
728.645	6013
728.760	6024
728.875	6465
728.990	7009
729.105	7040
729.220	6382
729.335	6293
729.449	5814
729.564	5016
729.679	5370
729.794	5337
729.908	6164
730.023	6388
730.138	5163
730.253	5543
730.367	5668
730.482	5749
730.596	5129
730.711	6384
730.826	5091
730.940	5738
731.055	4097
731.169	4926
731.284	5445
731.398	5298
731.513	5422
731.627	5724
731.742	5253
731.856	6294
731.970	4280
732.085	5978
732.199	5535
732.313	5801
732.428	5746
732.542	8162
732.656	6328
732.771	5389
732.885	5754
732.999	5482
733.113	4630
733.227	5816
733.342	4916
733.456	5259
733.570	4635
733.684	5011
733.798	4289
733.912	4315
734.026	4080
734.140	4585
734.254	5683
734.368	6582
734.482	7356
734.596	4691
734.710	4881
734.824	5247
734.938	5484
735.052	4585
735.166	4613
735.280	5513
735.393	4474
735.507	5018
735.621	5569
735.735	6908
735.849	4710
735.962	5639
736.076	4827
736.190	5617
736.303	5746
736.417	6350
736.531	4171
736.644	4846
736.758	3852
736.872	5608
736.985	4883
737.099	5076
737.212	4325
737.326	5561
737.439	4591
737.553	4338
737.666	4752
737.780	4343
737.893	4659
738.007	4317
738.120	3596
738.233	4544
738.347	3916
738.460	5204
738.573	4349
738.687	4555
738.800	5185
738.913	4893
739.026	5188
739.140	4862
739.253	4002
739.366	4835
739.479	4059
739.592	4208
739.705	4039
739.818	5520
739.932	3711
740.045	4613
740.158	4333
740.271	4546
740.384	4165
740.497	5187
740.610	5499
740.723	4195
740.836	4575
740.949	5242
741.062	4577
741.174	5227
741.287	4317
741.400	4972
741.513	4605
741.626	4427
741.739	4617
741.851	4163
741.964	3975
742.077	4696
742.189	4658
742.302	6061
742.415	5639
742.527	4218
742.640	4211
742.753	4411
742.865	3730
742.978	4068
743.090	3985
743.203	3376
743.316	4886
743.428	4779
743.541	4066
743.653	3168
743.766	3881
743.878	5081
743.990	4466
744.103	6252
744.215	6389
744.327	5396
744.440	4902
744.552	5843
744.664	3635
744.777	4036
744.889	3969
745.001	4668
745.113	4712
745.226	3918
745.338	3966
745.450	4437
745.562	3412
745.674	3974
745.786	4078
745.898	3882
746.010	3810
746.122	4588
746.234	4372
746.347	4693
746.459	4580
746.570	4311
746.682	5074
746.794	8128
746.906	5076
747.018	4444
747.130	3955
747.242	3752
747.354	3794
747.466	5767
747.577	3436
747.689	4213
747.801	3788
747.913	4793
748.024	3320
748.136	3870
748.248	3625
748.359	4176
748.471	4018
748.583	4120
748.694	4162
748.806	5325
748.918	4532
749.029	4191
749.141	4869
749.252	4690
749.364	5213
749.475	6294
749.587	5479
749.698	5120
749.809	4910
749.921	4236
750.032	3502
750.144	4715
750.255	4057
750.366	4803
750.478	3785
750.589	4676
750.700	4814
750.811	4688
750.923	5090
751.034	6655
751.145	5898
751.256	4581
751.367	4388
751.479	4857
751.590	3936
751.701	5086
751.812	4144
751.923	4435
752.034	3761
752.145	4267
752.256	4358
752.367	4501
752.478	3688
752.589	4785
752.700	3917
752.811	4775
752.922	3366
753.032	5103
753.143	4287
753.254	4671
753.365	3924
753.476	4477
753.586	4702
753.697	4675
753.808	5089
753.919	4473
754.029	4461
754.140	5348
754.251	4121
754.361	4789
754.472	4361
754.582	4851
754.693	4263
754.804	5660
754.914	4977
755.025	5555
755.135	4990
755.246	5231
755.356	5057
755.466	5736
755.577	5126
755.687	5149
755.798	4853
755.908	6276
756.018	5397
756.129	6003
756.239	4748
756.349	4923
756.460	5104
756.570	4875
756.680	4930
756.790	6598
756.900	5869
757.011	5254
757.121	5424
757.231	5879
757.341	5720
757.451	6388
757.561	5916
757.671	6430
757.781	5868
757.891	7522
758.001	5881
758.111	6936
758.221	6023
758.331	6696
758.441	6190
758.551	6468
758.661	6536
758.771	7128
758.880	5913
758.990	7055
759.100	7103
759.210	6978
759.320	8036
759.429	7458
759.539	7040
759.649	7778
759.758	6734
759.868	8396
759.978	7625
760.087	8992
760.197	8890
760.307	9336
760.416	8755
760.526	8138
760.635	9577
760.745	9561
760.854	8466
760.964	10269
761.073	9502
761.182	10352
761.292	9945
761.401	10399
761.511	10531
761.620	11295
761.729	11691
761.839	11981
761.948	11910
762.057	13232
762.166	12704
762.276	12620
762.385	13829
762.494	14556
762.603	15092
762.712	16421
762.822	16141
762.931	17322
763.040	16065
763.149	18586
763.258	18226
763.367	20532
763.476	21493
763.585	21552
763.694	22872
763.803	24885
763.912	25741
764.021	26682
764.130	27804
764.238	31008
764.347	32989
764.456	36537
764.565	39701
764.674	43654
764.783	46905
764.891	52586
765.000	58794
765.109	66828
765.217	77491
765.326	89384
765.435	106782
765.543	129743
765.652	160284
765.761	206007
765.869	275247
765.978	385136
766.086	555776
766.195	823836
766.303	1136683
766.412	1072338
766.520	1047721
766.629	990669
766.737	709419
766.846	491755
766.954	349769
767.062	256861
767.171	196382
767.279	152901
767.387	122766
767.496	101333
767.604	86119
767.712	76470
767.820	67056
767.928	62076
768.037	56722
768.145	53577
768.253	51210
768.361	50654
768.469	49511
768.577	50551
768.685	54269
768.793	58214
768.901	64441
769.009	74694
769.117	89697
769.225	115852
769.333	160264
769.441	237002
769.549	379735
769.657	659644
769.765	1017405
769.873	970415
769.981	883904
770.088	577776
770.196	351587
770.304	235487
770.412	168436
770.519	126561
770.627	99380
770.735	81026
770.842	67010
770.950	57809
771.058	50599
771.165	43949
771.273	39522
771.380	36421
771.488	32575
771.595	29997
771.703	27626
771.810	26111
771.918	23455
772.025	22884
772.133	19979
772.240	19882
772.348	18656
772.455	18847
772.562	16954
772.670	16463
772.777	15688
772.884	14550
772.991	14615
773.099	14306
773.206	12725
773.313	14223
773.420	12719
773.528	11929
773.635	11537
773.742	11580
773.849	9946
773.956	11181
774.063	9603
774.170	9772
774.277	10482
774.384	9194
774.491	9592
774.598	9169
774.705	8936
774.812	9256
774.919	8606
775.026	9003
775.133	7839
775.239	8866
775.346	8078
775.453	7512
775.560	7383
775.667	6982
775.773	7171
775.880	7538
775.987	7708
776.093	7819
776.200	7357
776.307	7682
776.413	6777
776.520	6158
776.627	6249
776.733	6499
776.840	5396
776.946	7391
777.053	8548
777.159	12600
777.266	8627
777.372	11009
777.478	9201
777.585	7370
777.691	5203
777.798	5791
777.904	6181
778.010	6974
778.117	5999
778.223	5043
778.329	4926
778.435	4812
778.542	4767
778.648	4860
778.754	4478
778.860	4493
778.966	4173
779.072	5008
779.178	5152
779.284	4764
779.391	4161
779.497	4876
779.603	8728
779.708	13471
779.815	30421
779.920	107453
780.026	194280
780.132	32120
780.238	8247
780.344	6539
780.450	5056
780.556	5644
780.661	3772
780.767	4287
780.873	4010
780.979	4232
781.085	3028
781.190	3818
781.296	2809
781.402	3238
781.507	2863
781.613	3807
781.719	2395
781.824	3696
781.930	3758
782.035	3700
782.141	3491
782.246	3625
782.352	3779
782.457	3343
782.563	2182
782.668	3073
782.773	2880
782.879	2599
782.984	4381
783.090	4281
783.195	3362
783.300	4282
783.405	2209
783.511	3050
783.616	2931
783.721	2810
783.826	3203
783.932	3980
784.037	3543
784.142	3469
784.247	2367
784.352	3179
784.457	3069
784.562	2189
784.667	2671
784.772	2236
784.877	2293
784.982	2914
785.087	2677
785.192	3959
785.297	1642
785.402	2329
785.507	2137
785.611	3543
785.716	1470
785.821	2892
785.926	1737
786.031	2261
786.135	1555
786.240	2957
786.345	1093
786.450	2954
786.554	2327
786.659	2650
786.763	1994
786.868	2928
786.973	2668
787.077	1777
787.182	2962
787.286	2121
787.391	2293
787.495	2652
787.600	2574
787.704	2448
787.809	1878
787.913	2409
788.017	2737
788.122	2795
788.226	1988
788.330	1375
788.435	1999
788.539	2144
788.643	2694
788.747	1873
788.852	1954
788.956	1485
789.060	2860
789.164	1999
789.268	1298
789.372	2401
789.476	1258
789.580	2147
789.684	1574
789.788	2188
789.892	625
789.996	2579
790.100	1352
790.204	2379
790.308	1897
790.412	1615
790.516	2611
790.620	2700
790.724	1556
790.828	1980
790.931	1525
791.035	3968
791.139	1394
791.242	633
791.346	3111
791.450	1689
791.554	1695
791.657	1669
791.761	2853
791.864	3089
791.968	1335
792.072	2236
792.175	1372
792.279	1707
792.382	1974
792.486	1832
792.589	1330
792.693	1779
792.796	510
792.899	2097
793.003	1995
793.106	-263
793.209	1403
793.313	2248
793.416	230
793.519	2300
793.623	2533
793.726	2689
793.829	1538
793.932	2296
794.035	556
794.138	3308
794.242	2994
794.345	3473
794.448	6453
794.551	14466
794.654	57420
794.757	109792
794.860	20047
794.963	3759
795.066	2016
795.169	3209
795.272	940
795.375	2107
795.477	598
795.580	2249
795.683	205
795.786	1689
795.889	69
795.991	2001
796.094	2172
796.197	725
796.300	1329
796.402	1346
796.505	1392
796.608	1351
796.710	1689
796.813	1210
796.915	1157
797.018	2173
797.120	1367
797.223	-357
797.326	1962
797.428	1128
797.530	1433
797.633	1291
797.735	2255
797.838	1421
797.940	1406
798.042	1061
798.145	500
798.247	1976
798.349	255
798.452	1768
798.554	678
798.656	760
798.758	2405
798.860	776
798.962	705
799.065	726
799.167	984
799.269	1550
799.371	1417
799.473	1802
799.575	-15
799.677	1213
799.779	2758
799.881	775
799.983	1611
800.085	2172
800.187	1231
800.289	1318
800.390	857
800.492	1120
800.594	2926
800.696	1056
800.798	1156
800.899	1625
801.001	1211
801.103	1142
801.205	989
801.306	957
801.408	34
801.509	877
801.611	1239
801.713	1052
801.814	661
801.916	1066
802.017	1028
802.119	162
802.220	1728
802.322	-364
802.423	1656
802.525	533
802.626	1143
802.727	687
802.829	528
802.930	-1185
803.031	2244
803.133	-355
803.234	-169
803.335	956
803.436	858
803.538	1104
803.639	484
803.740	1798
803.841	-102
803.942	1632
804.043	1064
804.144	359
804.245	534
804.346	613
804.447	-262
804.548	786
804.649	1782
804.750	1497
804.851	753
804.952	545
805.053	1393
805.154	636
805.255	1313
805.355	755
805.456	-382
805.557	94
805.658	-419
805.758	1019
805.859	896
805.960	630
806.061	58
806.161	160
806.262	548
806.362	1185
806.463	524
806.564	1825
806.664	823
806.765	848
806.865	745
806.966	1487
807.066	427
807.166	1733
807.267	1252
807.367	693
807.468	120
807.568	182
807.668	1456
807.769	513
807.869	130
807.969	675
808.069	554
808.170	753
808.270	271
808.370	550
808.470	1008
808.570	61
808.670	520
808.770	1475
808.870	22
808.970	556
809.070	428
809.170	898
809.271	493
809.370	496
809.470	749
809.570	1128
809.670	723
809.770	676
809.870	575
809.970	827
810.070	-294
810.169	871
810.269	-841
810.369	2153
810.469	1056
810.568	688
810.668	65
810.768	604
810.867	252
810.967	329
811.066	-1
811.166	80
811.265	1379
811.365	458
811.464	215
811.564	840
811.663	1089
811.763	-571
811.862	887
811.962	663
812.061	1047
812.160	812
812.260	260
812.359	986
812.458	1190
812.557	3999
812.657	4683
812.756	2139
812.855	854
812.954	-238
813.053	600
813.153	616
813.252	-205
813.351	956
813.450	516
813.549	37
813.648	11
813.747	33
813.846	937
813.945	286
814.044	-69
814.143	358
814.242	744
814.341	-949
814.439	351
814.538	755
814.637	284
814.736	-211
814.835	427
814.933	69
815.032	-299
815.131	-553
815.229	-19
815.328	374
815.427	135
815.525	972
815.624	490
815.722	236
815.821	131
815.919	39
816.018	-742
816.116	449
816.215	-334
816.313	337
816.412	514
816.510	562
816.609	1293
816.707	1325
816.805	-213
816.904	-82
817.002	1142
817.100	1045
817.198	976
817.296	110
817.395	-114
817.493	975
817.591	-446
817.689	1827
817.787	1600
817.885	3163
817.983	5771
818.081	14031
818.179	33134
818.277	84242
818.375	80609
818.473	21917
818.571	7837
818.669	4886
818.767	5026
818.865	4201
818.963	4407
819.061	7153
819.158	12111
819.256	30376
819.354	71102
819.452	163054
819.549	112593
819.647	29361
819.745	10298
819.842	6733
819.940	4099
820.038	2161
820.135	1778
820.233	2101
820.330	683
820.428	1015
820.525	1982
820.623	1053
820.720	-193
820.818	1003
820.915	707
821.012	782
821.110	-461
821.207	1465
821.304	-6
821.402	643
821.499	1773
821.596	3239
821.693	1277
821.791	1199
821.888	704
821.985	2594
822.082	900
822.179	1999
822.276	1199
822.373	1116
822.470	-148
822.567	789
822.664	-495
822.761	1442
822.858	-492
822.955	873
823.052	998
823.149	715
823.246	-374
823.343	598
823.440	242
823.536	-108
823.633	-432
823.730	1119
823.827	-388
823.923	292
824.020	1259
824.117	181
824.213	69
824.310	1015
824.407	-455
824.503	470
824.600	263
824.696	724
824.793	-173
824.889	-38
824.986	391
825.082	-44
825.179	1062
825.275	147
825.371	-725
825.468	586
825.564	-749
825.660	620
825.757	206
825.853	1247
825.949	-356
826.045	-180
826.142	-976
826.238	-69
826.334	873
826.430	-560
826.526	1298
826.622	-33
826.718	-468
826.814	-1065
826.910	699
827.006	453
827.102	-967
827.198	677
827.294	-1738
827.390	504
827.486	889
827.582	-1202
827.678	-1084
827.774	651
827.869	-398
827.965	786
828.061	-860
828.157	-456
828.252	135
828.348	-1305
828.444	719
828.539	-1364
828.635	-527
828.731	900
828.826	-982
828.922	-147
829.017	342
829.113	841
829.208	-546
829.304	-148
829.399	1301
829.495	-577
829.590	752
829.685	-764
829.781	-100
829.876	-338
829.971	-308
830.066	12
830.162	-437
830.257	-384
830.352	-371
830.447	969
830.543	73
830.638	-855
830.733	678
830.828	-477
830.923	420
831.018	88
831.113	-620
831.208	-295
831.303	-673
831.398	-616
831.493	-984
831.588	961
831.683	-1038
831.778	451
831.873	-585
831.967	388
832.062	-786
832.157	-974
832.252	127
832.346	-514
832.441	199
832.536	672
832.631	1955
832.725	1680
832.820	-571
832.914	-692
833.009	-771
833.104	4
833.198	479
833.293	-253
833.387	-179
833.482	-598
833.576	-17
833.670	796
833.765	90
833.859	-567
833.954	-360
834.048	-230
834.142	-205
834.237	1243
834.331	-59
834.425	326
834.519	-893
834.613	551
834.708	-615
834.802	-417
834.896	-907
834.990	-231
835.084	-397
835.178	45
835.272	-671
835.366	56
835.460	-105
835.554	147
835.648	-192
835.742	-231
835.836	-206
835.930	-910
836.024	410
836.117	-22
836.211	-1096
836.305	373
836.399	881
836.493	-289
836.586	422
836.680	-1024
836.774	-1379
836.867	1030
836.961	-1232
837.055	-766
837.148	172
837.242	-346
837.335	-676
837.429	175
837.522	-766
837.616	172
837.709	148
837.803	464
837.896	811
837.989	-284
838.083	513
838.176	1102
838.269	592
838.363	-41
838.456	-205
838.549	515
838.642	23
838.735	2371
838.829	756
838.922	64
839.015	-570
839.108	-215
839.201	-280
839.294	-522
839.387	-348
839.480	-449
839.573	482
839.666	-68
839.759	-735
839.852	-1034
839.945	-519
840.038	-102
840.131	351
840.223	115
840.316	-66
840.409	252
840.502	-1145
840.594	883
840.687	-1304
840.780	66
840.873	-1223
840.965	303
841.058	-147
841.150	535
841.243	174
841.336	154
841.428	-381
841.521	-731
841.613	-1110
841.706	-40
841.798	-460
841.890	302
841.983	-1275
842.075	337
842.167	-765
842.260	-546
842.352	444
842.444	-93
842.537	566
842.629	1961
842.721	382
842.813	-301
842.905	-738
842.997	-157
843.090	-395
843.182	244
843.274	53
843.366	3531
843.458	4810
843.550	4155
843.642	158
843.734	501
843.826	-415
843.918	684
844.009	-109
844.101	-353
844.193	-331
844.285	-215
844.377	-319
844.469	2032
844.560	1054
844.652	1761
844.744	509
844.835	377
844.927	483
845.019	613
845.110	-588
845.202	238
845.293	-516
845.385	-424
845.476	-496
845.568	-406
845.659	-501
845.751	313
845.842	-118
845.934	112
846.025	228
846.116	16
846.208	-285
846.299	-234
846.390	664
846.482	-99
846.573	-517
846.664	-52
846.755	23
846.846	175
846.937	-866
847.029	22
847.120	-1087
847.211	99
847.302	1273
847.393	-860
847.484	110
847.575	-364
847.666	-359
847.757	-829
847.847	232
847.938	509
848.029	-401
848.120	-116
848.211	-713
848.302	30
848.392	-738
848.483	654
848.574	-705
848.664	198
848.755	150
848.846	244
848.936	-1002
849.027	87
849.118	-666
849.208	-271
849.299	-713
849.389	419
849.480	247
849.570	835
849.661	231
849.751	191
849.841	-256
849.932	-68
850.022	-530
850.112	884
850.203	-902
850.293	-109
850.383	-1088
850.474	-697
850.564	-785
850.654	892
850.744	-626
850.834	-835
850.924	104
851.014	-39
851.104	-438
851.194	-91
851.284	78
851.374	315
851.464	-426
851.554	160
851.644	-742
851.734	384
851.824	-39
851.914	1489
852.004	1471
852.094	2130
852.183	-898
852.273	689
852.363	-496
852.452	-713
852.542	-694
852.632	306
852.721	23
852.811	-744
852.901	-698
852.990	-599
853.080	-19
853.169	-443
853.259	-17
853.348	229
853.438	-687
853.527	220
853.617	-645
853.706	-136
853.795	289
853.885	1333
853.974	1263
854.063	4205
854.152	4313
854.242	1200
854.331	-88
854.420	-103
854.509	-1021
854.598	322
854.687	-512
854.777	442
854.866	-1106
854.955	550
855.044	-1377
855.133	-1053
855.222	-920
855.311	-984
855.400	-574
855.488	773
855.577	-1210
855.666	159
855.755	311
855.844	548
855.933	-481
856.021	-196
856.110	-194
856.199	-1293
856.288	-451
856.376	-238
856.465	-779
856.554	-636
856.642	-1101
856.731	5
856.819	24
856.908	176
856.996	-621
857.085	-437
857.173	-858
857.262	-9
857.350	-209
857.438	-531
857.527	-626
857.615	-521
857.703	-426
857.792	-1262
857.880	16
857.968	-509
858.056	-1512
858.145	-392
858.233	-627
858.321	-370
858.409	-796
858.497	-85
858.585	-1205
858.673	624
858.761	-354
858.849	-191
858.937	-190
859.025	333
859.113	-944
859.201	-724
859.289	6
859.377	-817
859.465	-851
859.552	-472
859.640	-1085
859.728	-320
859.816	-987
859.903	199
859.991	-810
860.079	-694
860.166	-716
860.254	-360
860.342	-248
860.429	-1046
860.517	-1137
860.604	420
860.692	-727
860.779	-786
860.867	-968
860.954	-261
861.042	-901
861.129	68
861.216	-761
861.304	-1263
861.391	-883
861.478	-524
861.565	-84
861.653	253
861.740	-1181
861.827	-552
861.914	-1458
862.001	3
862.089	-661
862.176	-426
862.263	-754
862.350	-102
862.437	-1243
862.524	146
862.611	-185
862.698	399
862.785	-280
862.871	696
862.958	-1561
863.045	-862
863.132	-362
863.219	-696
863.306	-1733
863.392	91
863.479	-1237
863.566	-374
863.652	155
863.739	-382
863.826	367
863.912	-1012
863.999	-1291
864.086	-302
864.172	-779
864.259	-231
864.345	-1473
864.432	660
864.518	-649
864.604	-256
864.691	-1420
864.777	-815
864.863	-122
864.950	282
865.036	-738
865.122	-685
865.209	-179
865.295	35
865.381	-1153
865.467	-345
865.553	-334
865.639	-549
865.726	77
865.812	263
865.898	701
865.984	857
866.070	2067
866.156	2490
866.242	-323
866.328	85
866.414	-1272
866.499	-187
866.585	-1232
866.671	-1068
866.757	-334
866.843	-476
866.928	-1193
867.014	-279
867.100	341
867.186	-751
867.271	186
867.357	-56
867.442	-949
867.528	-212
867.614	-1190
867.699	-13
867.785	898
867.870	1266
867.956	1050
868.041	1017
868.127	750
868.212	1356
868.297	258
868.383	364
868.468	147
868.553	688
868.639	387
868.724	1324
868.809	785
868.894	603
868.979	-643
869.065	-136
869.150	-1279
869.235	-455
869.320	-798
869.405	-1072
869.490	-918
869.575	-1234
869.660	-1216
869.745	-386
869.830	-387
869.915	-107
870.000	-870
870.085	-582
870.169	-853
870.254	406
870.339	-1277
870.424	-348
870.509	-205
870.593	-301
870.678	-805
870.763	-386
870.847	-513
870.932	-1089
871.016	-532
871.101	332
871.186	140
871.270	-815
871.355	-1321
871.439	606
871.523	-412
871.608	-930
871.692	-421
871.777	337
871.861	-1272
871.945	-701
872.030	-948
872.114	194
872.198	-1539
872.282	-895
872.367	-777
872.451	-868
872.535	-7
872.619	-265
872.703	-212
872.787	-726
872.871	-964
872.955	-789
873.039	-901
873.123	-1257
873.207	245
873.291	-350
873.375	-751
873.459	-359
873.543	-1149
873.627	-1089
873.711	-736
873.794	-232
873.878	-1043
873.962	-934
874.045	-1442
874.129	-881
874.137	-793
874.213	87
874.245	-287
874.296	-889
874.352	-806
874.380	-773
874.460	-75
874.464	-47
874.547	-637
874.568	-550
874.631	-295
874.676	-574
874.714	-803
874.784	-523
874.798	-474
874.881	434
874.892	324
874.965	-404
874.999	-783
875.048	-1344
875.107	-683
875.131	-409
875.215	-253
875.215	-253
875.298	-107
875.323	-397
875.381	-1079
875.430	-843
875.465	-682
875.538	-1002
875.548	-1047
875.631	-726
875.646	-747
875.714	-878
875.753	-799
875.798	-665
875.861	-769
875.881	-807
875.964	-357
875.968	-362
876.047	-442
876.076	-65
876.130	582
876.183	-38
876.213	-364
876.291	93
876.296	120
876.379	-1507
876.398	-1318
876.462	-578
876.506	-349
876.545	-182
876.613	40
876.628	57
876.711	-306
876.721	-354
876.794	-458
876.828	-520
876.877	-645
876.935	-399
876.960	-304
877.043	-125
877.043	-125
877.125	-424
877.150	-564
877.208	-599
877.258	-133
877.291	101
877.365	-389
877.374	-445
877.456	-26
877.472	-89
877.539	-389
877.579	-246
877.622	-100
877.687	-381
877.704	-453
877.787	-259
877.794	-291
877.869	-602
877.901	-510
877.952	-357
878.008	-350
878.034	-346
878.115	-280
878.117	-279
878.199	-568
878.222	-546
878.282	-403
878.329	-286
878.364	-230
878.437	-133
878.447	-138
878.529	-732
878.544	-641
878.611	-65
878.651	-379
878.694	-657
878.758	-71
878.776	49
878.858	-349
878.865	-350
878.941	-314
878.972	-395
879.023	-652
879.078	-575
879.105	-340
879.185	-467
879.187	-478
879.269	-35
879.292	-381
879.351	-1141
879.399	-200
879.433	369
879.506	-790
879.516	-862
879.598	-150
879.613	-64
879.680	-234
879.720	-193
879.762	-40
879.827	-650
879.844	-791
879.926	-307
879.933	-318
880.007	-579
880.040	-557
880.089	-477
880.147	-253
880.171	-78
880.253	58
880.254	58
880.335	-8
880.360	84
880.417	292
880.467	471
880.499	798
880.574	1855
880.580	1860
880.662	512
880.680	283
880.744	-124
880.787	-242
880.825	-507
880.893	-840
880.907	-819
880.989	-665
881.000	-630
881.070	-479
881.106	-449
881.152	-533
881.213	-414
881.233	-259
881.315	-39
881.319	-10
881.396	232
881.426	-80
881.478	-687
881.532	-117
881.559	255
881.639	-311
881.641	-323
881.722	357
881.745	348
881.803	42
881.852	-301
881.885	-412
881.958	-592
881.966	-592
882.047	-150
882.064	-228
882.129	-716
882.171	-383
882.210	39
882.277	356
882.291	443
882.372	623
882.383	572
882.454	-122
882.489	-330
882.535	-530
882.596	-530
882.616	-484
882.697	-187
882.702	-178
882.778	-152
882.808	-269
882.859	-269
882.914	-9
882.940	26
883.020	-349
883.021	-350
883.102	-407
883.127	-529
883.183	-713
883.233	-585
883.264	-410
883.339	-130
883.345	-117
883.426	-547
883.445	-418
883.507	-29
883.551	-238
883.587	-316
883.657	-17
883.668	-37
883.749	-885
883.763	-831
883.830	-138
883.869	-100
883.910	-61
883.975	22
883.991	46
884.072	-25
884.081	0
884.152	254
884.187	312
884.233	98
884.292	101
884.314	252
884.394	-74
884.398	-62
884.475	-302
884.504	-465
884.555	-424
884.610	-360
884.636	-384
884.716	-621
884.716	-618
884.797	-292
884.821	-393
884.877	-370
884.927	-184
884.958	-184
885.033	-75
885.038	-78
885.118	-245
885.139	-385
885.199	-531
885.244	-302
885.279	28
885.350	415
885.359	385
885.439	42
885.456	-20
885.520	-185
885.561	-246
885.600	-264
885.667	-674
885.680	-637
885.760	199
885.773	262
885.840	-207
885.878	-416
885.920	-235
885.984	164
886.000	79
886.080	-447
886.089	-538
886.160	-210
886.195	140
886.240	152
886.300	-230
886.320	-329
886.400	-99
886.406	-112
886.480	24
886.511	126
886.560	20
886.616	-234
886.640	-164
886.720	355
886.722	360
886.800	-8
886.827	-84
886.879	138
886.932	275
886.959	296
887.038	361
887.039	355
887.119	-493
887.143	-745
887.198	-336
887.248	71
887.278	101
887.354	183
887.358	160
887.437	-517
887.459	-674
887.517	-45
887.564	530
887.596	495
887.669	216
887.676	231
887.755	403
887.774	451
887.835	149
887.880	-68
887.914	-149
887.985	-419
887.994	-359
888.073	269
888.090	405
888.153	114
888.195	-159
888.232	-62
888.300	145
888.311	198
888.391	514
888.405	587
888.470	719
888.510	755
888.549	601
888.615	372
888.628	326
888.708	-37
888.720	-80
888.787	394
888.825	614
888.866	575
888.930	565
888.945	480
889.024	-22
889.035	-88
889.103	121
889.140	218
889.182	264
889.245	394
889.261	390
889.340	287
889.349	282
889.419	187
889.454	119
889.498	-32
889.559	-215
889.577	-227
889.656	-287
889.664	-289
889.735	661
889.768	1104
889.814	828
889.873	461
889.978	1074
890.083	489
890.187	496
890.292	247
890.397	549
890.501	394
890.606	393
890.710	622
890.815	495
890.919	791
891.024	94
891.128	819
891.233	131
891.337	679
891.442	-311
891.546	-366
891.650	-100
891.755	571
891.859	1610
891.963	-64
892.068	1067
892.172	439
892.276	-89
892.380	-120
892.484	494
892.589	338
892.693	581
892.797	803
892.901	-237
893.005	8
893.109	-270
893.213	515
893.317	241
893.421	515
893.525	129
893.629	4
893.733	931
893.837	236
893.941	414
894.045	483
894.148	293
894.252	941
894.356	-453
894.460	1178
894.564	542
894.667	-344
894.771	-138
894.875	-146
894.978	314
895.082	-20
895.186	-338
895.289	384
895.393	268
895.496	783
895.600	450
895.703	906
895.807	241
895.910	-484
896.014	629
896.117	-204
896.221	439
896.324	289
896.427	-362
896.531	-296
896.634	491
896.737	-12
896.840	330
896.944	-214
897.047	-209
897.150	197
897.253	511
897.356	87
897.460	237
897.563	137
897.666	409
897.769	288
897.872	3
897.975	41
898.078	437
898.181	-317
898.284	416
898.387	86
898.490	246
898.593	-31
898.695	85
898.798	596
898.901	351
899.004	653
899.107	-239
899.209	166
899.312	-138
899.415	-236
899.518	190
899.620	-205
899.723	-383
899.826	607
899.928	1139
900.031	-918
900.133	-299
900.236	359
900.338	410
900.441	21
900.543	-250
900.646	-186
900.748	-450
900.851	260
900.953	192
901.055	117
901.158	-737
901.260	-421
901.362	320
901.465	10
901.567	-378
901.669	156
901.771	-401
901.873	-250
901.976	-288
902.078	-176
902.180	-221
902.282	-566
902.384	-323
902.486	87
902.588	61
902.690	459
902.792	642
902.894	17
902.996	836
903.098	137
903.200	89
903.302	-508
903.404	210
903.505	-328
903.607	92
903.709	792
903.811	70
903.913	-279
904.014	-544
904.116	-217
904.218	187
904.319	-736
904.421	-322
904.523	105
904.624	-518
904.726	-433
904.827	12
904.929	187
905.030	-294
905.132	413
905.233	-210
905.335	84
905.436	-519
905.537	-111
905.639	278
905.740	562
905.841	-51
905.943	-323
906.044	-407
906.145	-602
906.247	-49
906.348	186
906.449	-41
906.550	-693
906.651	152
906.752	-161
906.854	-207
906.955	-554
907.056	-542
907.157	162
907.258	-460
907.359	206
907.460	-654
907.561	205
907.662	-673
907.762	-26
907.863	-839
907.964	-484
908.065	195
908.166	-906
908.267	44
908.367	-762
908.468	-1
908.569	-548
908.670	-234
908.770	67
908.871	-35
908.971	167
909.072	607
909.173	-689
909.273	-52
909.374	-540
909.474	-361
909.575	55
909.675	-639
909.776	-40
909.876	-160
909.977	-783
910.077	123
910.177	-420
910.278	-286
910.378	-292
910.478	33
910.579	-752
910.679	-334
910.779	-119
910.879	-337
910.980	-445
911.080	-232
911.180	-378
911.280	-297
911.380	5
911.480	-492
911.580	-916
911.680	-25
911.780	-406
911.880	530
911.980	-484
912.080	116
912.180	-53
912.280	-130
912.380	-237
912.480	-226
912.580	-526
912.679	80
912.779	311
912.879	-367
912.979	-51
913.078	-216
913.178	-290
913.278	-204
913.377	236
913.477	-467
913.577	-970
913.676	623
913.776	790
913.875	-39
913.975	699
914.074	61
914.174	-832
914.273	-399
914.373	416
914.472	105
914.572	126
914.671	-466
914.770	-455
914.870	296
914.969	-544
915.068	-164
915.167	336
915.267	-152
915.366	-512
915.465	144
915.564	3
915.663	-96
915.763	-211
915.862	-224
915.961	-618
916.060	-382
916.159	-393
916.258	-486
916.357	-718
916.456	-293
916.555	-524
916.654	-858
916.752	-520
916.851	-525
916.950	-31
917.049	253
917.148	-691
917.247	24
917.345	45
917.444	-221
917.543	-429
917.642	-813
917.740	-646
917.839	-735
917.937	-522
918.036	-354
918.135	-341
918.233	-68
918.332	-322
918.430	-775
918.529	-385
918.627	-543
918.726	-703
918.824	-587
918.923	-316
919.021	-618
919.119	-124
919.218	-76
919.316	383
919.414	210
919.512	-183
919.611	-515
919.709	-742
919.807	-597
919.905	-962
920.003	-847
920.102	118
920.200	-521
920.298	209
920.396	-571
920.494	157
920.592	-631
920.690	-484
920.788	-124
920.886	-643
920.984	117
921.082	-692
921.180	666
921.277	394
921.375	-457
921.473	-376
921.571	-509
921.669	218
921.766	-1109
921.864	67
921.962	601
922.060	-498
922.157	128
922.255	-554
922.352	-114
922.450	257
922.548	-1042
922.645	309
922.743	-551
922.840	-512
922.938	284
923.035	-185
923.133	-190
923.230	-685
923.327	-480
923.425	398
923.522	-530
923.619	-465
923.717	-184
923.814	-6
923.911	-432
924.008	473
924.106	30
924.203	-590
924.300	-1004
924.397	-548
924.494	497
924.591	-122
924.688	-629
924.786	-186
924.883	-521
924.979	-481
925.077	-274
925.173	113
925.270	-451
925.367	-60
925.464	-1056
925.561	-195
925.658	-624
925.755	186
925.852	861
925.948	-129
926.045	718
926.142	292
926.239	-207
926.335	435
926.432	596
926.529	445
926.625	564
926.722	203
926.818	-286
926.915	-668
927.011	-750
927.108	-415
927.204	-461
927.301	-541
927.397	-1079
927.494	257
927.590	-508
927.687	-1097
927.783	-519
927.879	-375
927.976	-395
928.072	-356
928.168	-425
928.264	-720
928.361	-327
928.457	-646
928.553	-535
928.649	-301
928.745	952
928.841	-816
928.937	-658
929.033	103
929.129	-234
929.225	-874
929.321	-328
929.417	-16
929.513	-791
929.609	-727
929.705	-638
929.801	-51
929.897	-673
929.993	-1162
930.089	-169
930.184	-316
930.280	-727
930.376	-734
930.471	-962
930.567	258
930.663	-216
930.758	-493
930.854	-1051
930.950	-366
931.045	-812
931.141	-134
931.236	-175
931.332	-1457
931.427	-822
931.523	-127
931.618	-182
931.714	-306
931.809	-457
931.905	-169
932.000	-623
932.095	169
932.191	507
932.286	-502
932.381	-788
932.476	-636
932.572	-499
932.667	-290
932.762	-609
932.857	-124
932.952	-762
933.047	-849
933.142	-466
933.237	-1346
933.332	-484
933.427	-628
933.522	187
933.617	-883
933.712	-472
933.807	-531
933.902	-1413
933.997	-598
934.092	366
934.187	-439
934.282	-377
934.376	-308
934.471	-216
934.566	152
934.661	-544
934.755	-513
934.850	-380
934.945	-690
935.039	-639
935.134	-297
935.228	-917
935.323	-709
935.417	-996
935.512	-795
935.606	-162
935.701	-622
935.795	-727
935.890	-605
935.984	-555
936.079	-1073
936.173	196
936.267	-871
936.362	-836
936.456	-317
936.550	-494
936.644	-650
936.738	-335
936.833	-362
936.927	341
937.021	71
937.115	-649
937.209	-292
937.303	998
937.397	-779
937.491	-830
937.585	-105
937.679	-312
937.773	-677
937.867	-883
937.961	-376
938.055	-334
938.149	-295
938.243	-810
938.337	-197
938.430	-500
938.524	378
938.618	634
938.712	-139
938.805	-175
938.899	-461
938.993	744
939.086	101
939.180	266
939.274	432
939.367	268
939.461	-567
939.554	-615
939.648	354
939.741	-224
939.835	-266
939.928	-99
940.022	695
940.115	-958
940.208	107
940.302	-187
940.395	-118
940.488	-1014
940.582	-415
940.675	-1456
940.768	-562
940.861	-622
940.954	356
941.048	-434
941.141	-469
941.234	-978
941.327	-517
941.420	434
941.513	-974
941.606	-918
941.699	455
941.792	176
941.885	-498
941.978	-480
942.071	-1010
942.164	-1225
942.257	-251
942.349	-655
942.442	-733
942.535	-496
942.628	-329
942.721	-533
942.813	-1279
942.906	-362
942.999	-127
943.091	-661
943.184	-432
943.277	-647
943.369	-692
943.462	48
943.554	-501
943.647	-544
943.739	-974
943.832	-295
943.924	-1569
944.017	-692
944.109	-1079
944.201	-524
944.294	-470
944.386	-616
944.478	-131
944.571	-806
944.663	-1427
944.755	-583
944.847	130
944.940	-670
945.032	-1091
945.124	-679
945.216	-121
945.308	-607
945.400	270
945.492	243
945.584	-1371
945.676	-689
945.768	-1029
945.860	17
945.952	-700
946.044	-175
946.136	-127
946.228	-822
946.320	-539
946.412	-998
946.503	304
946.595	-403
946.687	104
946.779	57
946.870	-93
946.962	-616
947.054	573
947.145	-638
947.237	-896
947.329	-1147
947.420	-1210
947.512	-303
947.603	-807
947.695	-718
947.786	-599
947.878	-1055
947.969	-414
948.061	-595
948.152	-867
948.243	-563
948.335	-379
948.426	-1594
948.517	-1035
948.609	-169
948.700	-1397
948.791	-700
948.882	93
948.973	-945
949.065	-437
949.156	-430
949.247	-1357
949.338	-343
949.429	-1203
949.520	-404
949.611	-955
949.702	-393
949.793	-129
949.884	-433
949.975	9
950.066	-1171
950.157	-1433
950.247	-874
950.338	-1013
950.429	-1008
950.520	-589
950.611	-347
950.701	-1244
950.792	-284
950.883	-243
950.973	-475
951.064	-1056
951.155	-616
951.245	-461
951.336	31
951.427	-1184
951.517	-314
951.608	-521
951.698	-1297
951.788	64
951.879	-521
951.969	-1049
952.060	-637
952.150	-1207
952.240	-692
952.331	-2347
952.421	198
952.511	-1306
952.602	195
952.692	-881
952.782	-442
952.872	-689
952.962	-926
953.052	-167
953.143	-1142
953.233	-385
953.323	-590
953.413	-473
953.503	-1010
953.593	-1031
953.683	-108
953.773	-1343
953.863	-647
953.953	-633
954.042	-784
954.132	-1445
954.222	-526
954.312	-463
954.402	-858
954.492	-123
954.581	-133
954.671	-1278
954.761	-1043
954.850	537
954.940	-1028
955.030	-1216
955.119	-458
955.209	-766
955.298	-1056
955.388	-854
955.477	120
955.567	-748
955.656	-942
955.746	-1028
955.835	-727
955.925	-1030
956.014	-574
956.103	-1487
956.193	-654
956.282	-406
956.371	-142
956.461	-1070
956.550	-893
956.639	-99
956.728	-1117
956.817	-835
956.906	-411
956.995	76
957.085	-1034
957.174	-1537
957.263	-419
957.352	-149
957.441	-1207
957.530	-889
957.619	-273
957.708	-371
957.796	-580
957.885	-613
957.974	-211
958.063	509
958.152	-1153
958.241	-1013
958.329	108
958.418	-761
958.507	-1246
958.596	-58
958.684	-412
958.773	-205
958.861	-1141
958.950	54
959.039	-748
959.127	-573
959.216	508
959.304	-842
959.393	-471
959.481	-211
959.570	-659
959.658	-613
959.746	316
959.835	803
959.923	-201
960.011	-206
960.100	-51
960.188	-1055
960.276	-988
960.365	-547
960.453	116
960.541	-1407
960.629	-1336
960.717	-868
960.805	-1636
960.893	951
960.981	-1292
961.069	-183
961.158	-1743
961.245	-273
961.333	-651
961.421	-1282
961.509	226
961.597	-613
961.685	-888
961.773	-1401
961.861	-1427
961.949	-141
962.036	-943
962.124	-241
962.212	-275
962.299	-1415
962.387	-664
962.475	-1186
962.562	-1164
962.650	-855
962.738	-120
962.825	-936
962.913	-881
963.000	-1100
963.088	-411
963.175	-1312
963.263	-751
963.350	-548
963.438	-1388
963.525	-329
963.612	393
963.700	1264
963.787	3583
963.874	128
963.962	67
964.049	-953
964.136	-1215
964.223	-1325
964.310	-506
964.398	-650
964.485	-1230
964.572	-500
964.659	-73
964.746	-749
964.833	-729
964.920	-1295
965.007	-658
965.094	-306
965.181	-1336
965.268	-1162
965.355	-759
965.441	-1021
965.528	-948
965.615	249
965.702	-611
965.789	-502
965.875	-760
965.962	-555
966.049	-452
966.136	-357
966.222	-1128
966.309	-250
966.395	-1642
966.482	-1175
966.569	-1564
966.655	-1262
966.742	-920
966.828	-1175
966.915	-1024
967.001	-212
967.087	-1176
967.174	-981
967.260	-1276
967.347	-516
967.433	405
967.519	1817
967.605	-73
967.692	-1111
967.778	-1306
967.864	-1037
967.950	-533
968.036	-1430
968.123	-1326
968.209	-1829
968.295	-1290
968.381	-204
968.467	-905
968.553	-1625
968.639	-438
968.725	-1576
968.811	-325
968.897	-63
968.983	-526
969.069	-1126
969.154	-393
969.240	-999
969.326	-1535
969.412	-1454
969.497	-1130
969.583	-917
969.669	-582
969.755	-1291
969.840	-1207
969.926	-1449
970.012	-1500
970.097	-1229
970.183	-1501
970.268	-271
970.354	-621
970.439	-636
970.525	1759
970.610	-622
970.696	-1025
970.781	-648
970.866	-2167
970.952	-978
971.037	-1935
971.122	-1290
971.208	-1234
971.293	-514
971.378	-1910
971.463	-1171
971.549	-255
971.634	-474
971.719	-523
971.804	-582
971.889	-472
971.974	-1525
972.059	-1071
972.144	14
972.229	-1691
972.314	-1630
972.399	-219
972.484	-1536
972.569	-500
972.654	-1426
972.739	702
972.824	-52
972.908	-124
972.993	-1478
973.078	-939
973.163	-1592
973.247	-943
973.332	-2560
973.417	190
973.501	-1175
973.586	-995
973.671	-818
973.755	-1091
973.840	-1025
973.924	-1186
974.009	-727
974.093	-913
974.178	-208
974.262	-608
974.346	-1132
974.431	-649
974.515	-1180
974.600	-1221
974.684	-1333
974.768	-1893
974.852	-251
974.937	-2448
975.021	-1339
975.105	-1806
975.189	-1170
975.273	-1143
975.358	-1667
975.442	-1568
975.526	-357
975.610	-2139
975.694	-2215
975.778	275
975.862	-1121
975.946	-3207
976.030	737
976.114	-1524
976.198	-956
976.281	-738
976.365	-521
976.449	-1476
976.533	-1573
976.617	-1302
976.700	-885
976.784	-952
976.868	-1539
976.951	-170
977.035	-1215
977.119	-1085
977.202	-708
977.286	-481
977.369	-1487
977.453	-157
977.536	-1994
977.620	-1389
977.703	-711
977.787	-2185
977.870	-1169
977.953	-266
978.037	-2204
978.120	-746
978.203	-992
978.287	-1183
978.370	-652
978.453	-1232
978.536	-1288
978.620	-928
978.703	-406
978.786	-1036
978.869	-1578
978.952	-2031
979.035	-365
979.118	-1345
979.201	-2047
979.284	-510
979.367	-1624
979.450	-293
979.533	-1625
979.616	-854
979.699	-1787
979.782	-978
979.865	-1486
979.948	-1342
980.030	-1379
980.113	-968
980.196	-2061
980.279	-329
980.361	-1070
980.444	-935
980.526	-951
980.609	-1211
980.692	-1525
980.774	-1166
980.857	-2004
980.939	-816
981.022	-1057
981.104	-1258
981.187	-742
981.269	37
981.352	-1258
981.434	-1483
981.516	-1579
981.599	-40
981.681	-189
981.763	-1968
981.846	-1712
981.928	-1969
982.010	-1500
982.092	-1629
982.174	-177
982.256	-1313
982.339	-1111
982.421	-1574
982.503	-1641
982.585	-1410
982.667	-1414
982.749	-772
982.831	-1714
982.913	-1653
982.995	-873
983.077	-1943
983.158	-1281
983.240	-2632
983.322	-1575
983.404	-923
983.486	-1127
983.568	-1194
983.649	-1429
983.731	-833
983.813	-1459
983.894	-1374
983.976	-1607
984.058	-1818
984.139	-493
984.221	-2166
984.302	-353
984.384	-268
984.465	-1741
984.547	-1228
984.628	-1803
984.710	-988
984.791	-1684
984.872	-1104
984.954	-2299
985.035	-652
985.116	-1921
985.198	-2593
985.279	-88
985.360	-2144
985.441	-721
985.522	-431
985.604	-1076
985.685	-3090
985.766	-809
985.847	186
985.928	-1278
986.009	-932
986.090	-1318
986.171	-1308
986.252	-2364
986.333	-746
986.414	-2228
986.495	-1272
986.576	-1079
986.656	-1600
986.737	-1350
986.818	-1047
986.899	-1384
986.980	-2055
987.060	-695
987.141	-956
987.222	-1767
987.302	-1026
987.383	-1329
987.464	-1640
987.544	-1715
987.625	-1535
987.705	-1127
987.786	-1512
987.866	-1591
987.947	-1387
988.027	-871
988.108	-2121
988.188	-1173
988.268	-1373
988.349	-2188
988.429	-1883
988.509	-1403
988.589	-1335
988.670	-3089
988.750	-676
988.830	-1133
988.910	-1461
988.990	-1017
989.070	-1896
989.151	-1432
989.231	-1974
989.311	-1610
989.391	-1509
989.471	-1364
989.551	-948
989.631	-2617
989.711	-847
989.791	-2248
989.870	-1769
989.950	-783
990.030	-2039
990.110	-1898
990.190	-1653
990.269	-1205
990.349	-1202
990.429	-563
990.509	-640
990.588	-1339
990.668	-1011
990.747	-2284
990.827	-1940
990.907	-1312
990.986	-1840
991.066	-1013
991.145	-2052
991.225	-1013
991.304	-1765
991.383	-1157
991.463	-816
991.542	-1561
991.622	-2175
991.701	-2007
991.780	-1040
991.859	-618
991.939	-1205
992.018	-1209
992.097	-1573
992.176	-1131
992.256	-1216
992.335	-1658
992.414	-825
992.493	-2029
992.572	-1346
992.651	-362
992.730	-1035
992.809	-916
992.888	-2531
992.967	-2058
993.046	-1199
993.125	-2172
993.203	-1466
993.282	-1559
993.361	-2377
993.440	-418
993.519	-2016
993.597	-630
993.676	-2051
993.755	-1208
993.834	-982
993.912	-1751
993.991	-836
994.069	-2026
994.148	-1493
994.226	-1602
994.305	-883
994.384	-2008
994.462	-727
994.540	-1531
994.619	-1804
994.697	-1478
994.776	-2164
994.854	-1242
994.932	-2033
995.011	-1257
995.089	-2274
995.167	-1313
995.245	-1592
995.324	-2288
995.402	-830
995.480	-1155
995.558	-749
995.636	-2291
995.714	-1991
995.792	-1183
995.870	-1449
995.948	-1177
996.026	-1018
996.104	-2434
996.182	-1392
996.260	-1369
996.338	-879
996.416	-2008
996.494	-1094
996.572	-829
996.649	-810
996.727	-2272
996.805	-1721
996.883	-1557
996.960	-1346
997.038	-1335
997.116	-526
997.193	-2166
997.271	-1068
997.348	-1368
997.426	-1507
997.504	-1795
997.581	-567
997.658	-1045
997.736	-2086
997.813	-2734
997.891	-1046
997.968	-2526
998.046	-1318
998.123	-2087
998.200	-938
998.277	-2497
998.355	-937
998.432	-1961
998.509	-829
998.586	-986
998.663	-633
998.741	-799
998.818	-1666
998.895	-1671
998.972	-1070
999.049	-601
999.126	-1430
999.203	-1254
999.280	-1580
999.357	-1311
999.434	-1804
999.511	-1502
999.587	-1214
999.664	-1769
999.741	-1503
999.818	-252
999.895	-2275
999.971	-832
1000.048	-1749
1000.125	-1008
1000.202	-1577
1000.278	-798
1000.355	-947
1000.431	-1935
1000.508	-1231
1000.584	-145
1000.661	-1326
1000.738	-1794
1000.814	-2046
1000.890	-639
1000.967	-2204
1001.043	-1174
1001.120	-2623
1001.196	-1503
1001.272	-1924
1001.349	-986
1001.425	-942
1001.501	-1171
1001.577	-1965
1001.654	-1024
1001.730	-2580
1001.806	-1840
1001.882	-1192
1001.958	-576
1002.034	-1572
1002.110	-895
1002.186	-2400
1002.262	-1441
1002.338	-1988
1002.414	-1224
1002.490	-1162
1002.566	-2108
1002.642	-1389
1002.718	-993
1002.794	-1707
1002.870	-2076
1002.945	-1559
1003.021	-1560
1003.097	-1390
1003.173	-756
1003.248	-1798
1003.324	-731
1003.400	-1550
1003.475	-808
1003.551	-1025
1003.626	-901
1003.702	-1273
1003.777	-936
1003.853	-1643
1003.928	-1412
1004.004	-1372
1004.079	-715
1004.155	-926
1004.230	-3249
1004.305	-420
1004.381	-966
1004.456	-1322
1004.531	-902
1004.607	-1165
1004.682	-1806
1004.757	-195
1004.832	-2098
1004.907	-883
1004.982	-1462
1005.057	-1385
1005.133	-2199
1005.208	-1131
1005.283	-1386
1005.358	-1008
1005.433	-2106
1005.508	-833
1005.583	-1890
1005.657	-1209
1005.732	-831
1005.807	-1523
1005.882	-1426
1005.957	-1826
1006.032	-1431
1006.106	-1266
1006.181	-1635
1006.256	-1370
1006.331	-2043
1006.405	-1754
1006.480	-1300
1006.554	-1448
1006.629	-850
1006.704	-1332
1006.778	-1081
1006.853	-680
1006.927	-1652
1007.002	-660
1007.076	-782
1007.150	-1238
1007.225	-1691
1007.299	-1170
1007.373	-2071
1007.448	-1720
1007.522	-1452
1007.596	-1326
1007.671	-1529
1007.745	-1691
1007.819	-2452
1007.893	-1136
1007.967	-1002
1008.041	-2068
1008.115	-1145
1008.190	-1464
1008.264	-1119
1008.338	-2413
1008.412	-1734
1008.486	-957
1008.560	-1427
1008.633	-1858
1008.707	-1257
1008.781	-303
1008.855	-2120
1008.929	-1059
1009.003	-1418
1009.076	-848
1009.150	-1555
1009.224	-1338
1009.298	-1106
1009.371	-1626
1009.445	-1005
1009.519	-1442
1009.592	-2490
1009.666	-1203
1009.739	-1674
1009.813	-2189
1009.886	-762
1009.960	-1965
1010.033	-683
1010.107	-1987
1010.180	-2343
1010.253	-1439
1010.327	-1853
1010.400	-1867
1010.473	-1529
1010.547	-11
1010.620	-1938
1010.693	-1219
1010.766	-1889
1010.840	-1361
1010.913	-2397
1010.986	-1974
1011.059	-1966
1011.132	-787
1011.205	-861
1011.278	-1945
1011.351	-1257
1011.424	-834
1011.497	-2050
1011.570	-1588
1011.643	-1727
1011.716	-2374
1011.789	-1281
1011.862	-1657
1011.934	-1039
1012.007	-1615
1012.080	-723
1012.153	-2443
1012.225	-290
1012.298	-1159
1012.371	-1697
1012.443	-1106
1012.516	-2223
1012.588	-2174
1012.661	-1756
1012.733	-2047
1012.806	-764
1012.879	-1360
1012.951	-1833
1013.023	-776
1013.096	-1638
1013.168	-1908
1013.241	-644
1013.313	-439
1013.385	-2020
1013.458	-1413
1013.530	-1056
1013.602	-1683
1013.674	-935
1013.746	-1811
1013.819	-2198
1013.891	-1487
1013.963	-1683
1014.035	-1501
1014.107	-1011
1014.179	-1972
1014.251	-2101
1014.323	-1075
1014.395	-1183
1014.467	-1461
1014.539	-1611
1014.611	-1895
1014.683	-1111
1014.754	-1226
1014.826	-2095
1014.898	-1480
1014.970	-2263
1015.042	-168
1015.113	-1590
1015.185	-1298
1015.257	-1999
1015.328	-1724
1015.400	-2422
1015.471	-2423
1015.543	-1791
1015.615	-1268
1015.686	-1749
1015.757	-1106
1015.829	-1151
1015.901	-1157
1015.972	-1578
1016.043	-2019
1016.115	-1179
1016.186	-1491
1016.257	-1761
1016.328	-478
1016.400	-1449
1016.471	-2170
1016.542	-1536
1016.613	-1460
1016.685	-1903
1016.756	-1482
1016.827	-1604
1016.898	-2479
1016.969	-1515
1017.040	-2501
1017.111	-1672
1017.182	-2231
1017.253	-2009
1017.324	-1792
1017.395	-2194
1017.466	-1403
1017.537	-1715
1017.608	-1631
1017.678	-2069
1017.749	-1540
1017.820	-1909
1017.891	-1812
1017.961	-2245
1018.032	-1910
1018.103	-1147
1018.173	-2062
1018.244	-2284
1018.315	-1507
1018.385	-1241
1018.456	-1373
1018.526	-1786
1018.597	-1552
1018.667	-1700
1018.738	-2183
1018.808	-1953
1018.878	-2561
1018.949	-1934
1019.019	-1483
1019.089	-1740
1019.160	-1522
1019.230	-2281
1019.300	-2044
1019.371	-2387
1019.441	-1994
1019.511	-2040
1019.581	-1610
1019.651	-1626
1019.721	-1180
1019.791	-2471
1019.861	-1965
1019.931	-1858
1020.001	-2296
1020.071	-2032
1020.141	-1676
1020.211	-1796
1020.281	-2156
1020.351	-2378
1020.421	-2164
1020.491	-2100
1020.560	-2241
1020.630	-1990
1020.700	-2063
1020.770	-2275
1020.839	-2129
1020.909	-2660
1020.979	-1868
1021.048	-1733
1021.118	-1158
1021.187	-2165
1021.257	-1769
1021.326	-1910
1021.396	-2510
1021.465	-2101
1021.535	-2356
1021.604	-3396
1021.674	-2339
1021.743	-2213
1021.812	-1799
1021.882	-1817
1021.951	-1875
1022.020	-2401
1022.089	-1684
1022.159	-2275
1022.228	-1888
1022.297	-2107
1022.366	-2146
1022.435	-1562
1022.504	-1614
1022.573	-2151
1022.642	-2279
1022.711	-2928
1022.781	-1337
1022.849	-1247
1022.918	-2436
1022.987	-2059
1023.056	-1791
1023.125	-2515
1023.194	-1491
1023.263	-1596
1023.331	-1784
1023.400	-3089
1023.469	-2777
1023.538	-1331
1023.606	-2142
1023.675	-1827
1023.744	-2528
1023.812	-2030
1023.881	-1758
1023.949	-2979
1024.018	-2440
1024.086	-1812
1024.155	-2182
1024.223	-3173
1024.292	-1737
1024.360	-2197
1024.429	-1957
1024.497	-2423
1024.565	-1709
1024.634	-3310
1024.702	-2379
1024.770	-1914
1024.838	-2108
1024.907	-2347
1024.975	-2642
1025.043	-1700
1025.111	-2332
1025.179	-1745
1025.247	-1854
1025.315	-1809
1025.383	-1858
1025.451	-2932
1025.519	-1473
1025.587	-2013
1025.655	-1564
1025.723	-1930
1025.791	-2164
1025.859	-2220
1025.927	-1935
1025.995	-1901
1026.062	-2507
1026.130	-2346
1026.198	-2829
1026.266	-2430
1026.333	-1657
1026.401	-1599
1026.469	-2589
1026.536	-1757
1026.604	-2786
1026.671	-2958
1026.739	-2373
1026.806	-2472
1026.874	-2168
1026.941	-3083
1027.009	-2013
1027.076	-2114
1027.144	-1309
1027.211	-2348
1027.278	-2688
1027.345	-1871
1027.413	-2624
1027.480	-2278
1027.547	-2078
1027.614	-2520
1027.682	-2417
1027.749	-2078
1027.816	-2558
1027.883	-1657
1027.950	-2296
1028.017	-2885
1028.084	-1854
1028.151	-2508
1028.218	-1601
1028.285	-2831
1028.352	-2619
1028.419	-2433
1028.486	-1646
1028.553	-2609
1028.619	-2551
1028.686	-1716
1028.753	-2999
1028.820	-1807
1028.886	-2279
1028.953	-2559
1029.020	-2260
1029.086	-2177
1029.153	-2634
1029.220	-2971
1029.286	-2951
1029.353	-1909
1029.419	-3205
1029.486	-2732
1029.552	-1822
1029.619	-2707
1029.685	-3173
1029.751	-1838
1029.818	-1180
1029.884	-3139
1029.951	-1690
1030.017	-2761
1030.083	-2281
1030.149	-2505
1030.216	-2455
1030.282	-1593
1030.348	-2552
1030.414	-2543
1030.480	-2626
1030.546	-2759
1030.612	-2292
1030.678	-2224
1030.744	-2149
1030.810	-2426
1030.876	-2411
1030.942	-2550
1031.008	-2838
1031.074	-2283
1031.140	-1530
1031.206	-1887
1031.272	-2780
1031.337	-2509
1031.403	-2119
1031.469	-2532
1031.534	-2187
1031.600	-1988
1031.666	-2121
1031.731	-2725
1031.797	-1844
1031.863	-2753
1031.928	-1586
1031.994	-2480
1032.059	-1622
1032.125	-2477
1032.190	-2465
1032.256	-2839
1032.321	-1534
1032.386	-2488
1032.452	-1813
1032.517	-1917
1032.582	-2343
1032.647	-2834
1032.713	-1706
1032.778	-1956
1032.843	-1961
1032.908	-1969
1032.974	-2279
1033.039	-3034
1033.104	-1570
1033.169	-2815
1033.234	-2057
1033.299	-2029
1033.364	-1548
1033.429	-2317
1033.494	-1024
1033.559	-2678
1033.624	-2110
1033.688	-1814
1033.753	-1724
1033.818	-2588
1033.883	-2203
1033.948	-1848
1034.013	-2260
1034.077	-2472
1034.142	-1658
1034.207	-2274
1034.271	-1720
1034.336	-1938
1034.400	-2240
1034.465	-1334
1034.530	-1852
1034.594	-1325
1034.658	-1252
1034.723	-2192
1034.787	-1530
1034.852	-1833
1034.916	-2018
1034.981	-2479
1035.045	-2448
1035.109	-2191
1035.173	-1979
1035.238	-2653
1035.302	-2530
1035.366	-2473
1035.430	-2293
1035.495	-2602
1035.559	-1729
1035.623	-2527
1035.687	-2295
1035.751	-2549
1035.815	-2933
1035.879	-2327
1035.943	-2271
1036.007	-2120
1036.071	-2353
1036.135	-1961
1036.198	-1688
1036.262	-2916
1036.326	-1673
1036.390	-1608
1036.454	-2732
1036.517	-2300
1036.581	-1769
1036.645	-1760
1036.709	-2070
1036.772	-1469
1036.836	-2995
1036.900	-2423
1036.963	-1725
1037.026	-2323
1037.090	-2500
1037.154	-2673
1037.217	-1947
1037.280	-2265
1037.344	-2113
1037.407	-2958
1037.471	-2279
1037.534	-1803
1037.597	-2031
1037.661	-2674
1037.724	-1893
1037.787	-2013
1037.850	-1941
1037.913	-2272
1037.977	-2350
1038.040	-2277
1038.103	-2373
1038.166	-2451
1038.229	-1708
1038.292	-2248
1038.355	-1951
1038.418	-2237
1038.481	-1608
1038.544	-2337
1038.607	-2189
1038.670	-2576
1038.732	-2131
1038.795	-2666
1038.858	-2549
1038.921	-2213
1038.984	-1990
1039.046	-1686
1039.109	-1845
1039.172	-2153
1039.234	-2408
1039.297	-2202
1039.360	-1976
1039.422	-1889
1039.485	-2080
1039.547	-2402
1039.610	-1776
1039.672	-2078
1039.734	-2341
1039.797	-2194
1039.859	-2247
1039.922	-2429
1039.984	-2529
1040.046	-2037
1040.109	-2609
1040.171	-2014
1040.233	-2166
1040.295	-2015
1040.358	-2001
1040.420	-1844
1040.482	-2271
1040.544	-2492
1040.606	-1933
1040.668	-1952
1040.730	-2362
1040.792	-1878
1040.854	-1689
1040.916	-2219
1040.978	-2532
1041.040	-2131
1041.102	-2574
1041.164	-2341
1041.225	-2330
1041.287	-2123
1041.349	-1888
1041.411	-2171
1041.472	-1527
1041.534	-2150
1041.596	-2644
1041.657	-1581
1041.719	-1830
1041.781	-1579
1041.842	-1821
1041.904	-2098
1041.965	-1772
1042.027	-2332
1042.088	-2053
1042.150	-1624
1042.211	-1984
1042.272	-1530
1042.334	-2659
1042.395	-2327
1042.456	-1296
1042.518	-1636
1042.579	-1826
1042.640	-2172
1042.701	-1774
1042.763	-2396
1042.824	-2627
1042.885	-1561
1042.946	-2858
1043.007	-2325
1043.068	-2239
1043.129	-1600
1043.190	-2573
1043.251	-1761
1043.312	-1740
1043.373	-2146
1043.434	-1938
1043.495	-2769
1043.556	-2107
1043.616	-1552
1043.677	-2040
1043.738	-2760
1043.799	-2409
1043.859	-1898
1043.920	-1988
1043.981	-1751
1044.041	-1881
1044.102	-2125
1044.162	-2322
1044.223	-3180
1044.284	-2111
1044.344	-2093
1044.405	-1755
1044.465	-2453
1044.525	-2173
1044.586	-1733
1044.646	-1653
1044.707	-1448
1044.767	-1612
1044.827	-2286
1044.887	-2648
1044.948	-1761
1045.008	-1966
1045.068	-1194
1045.128	-2036
1045.188	-1711
1045.249	-1151
1045.309	-1999
1045.369	-2576
1045.429	-2444
1045.489	-2492
1045.549	-1670
1045.609	-1307
1045.669	-2366
1045.729	-1570
1045.789	-1827
1045.848	-1565
1045.908	-1389
1045.968	-1201
1046.028	-2182
1046.088	-1880
1046.147	-2064
1046.207	-2155
1046.267	-1682
1046.326	-1487
1046.386	-1495
1046.446	-814
1046.505	-1480
1046.565	-1780
1046.624	-1424
1046.684	-1208
1046.743	104
1046.803	-1388
1046.862	-1225
1046.922	0
