'Start Wavelength	183.907
'End Wavelength	1046.922
'Gate Delay	5.000
'Gate Width (ms)	1.050
'Laser Output Level	0.000
'X Position	0.000
'Y Position	0.000
'Z Position	0.000
'Grid Point Number	1.000
'Shot Number	100.000
183.907	285.000
183.977	-818.000
184.047	-165
184.116	64
184.186	-90
184.256	-490
184.325	-215
184.395	93
184.465	3
184.534	614
184.604	-225
184.674	-367
184.743	-67
184.813	236
184.883	150
184.952	-335
185.022	-150
185.092	-339
185.161	-159
185.231	-393
185.301	-565
185.370	972
185.440	-155
185.509	-35
185.579	-919
185.649	270
185.718	-73
185.788	-454
185.857	240
185.927	-812
185.996	282
186.066	198
186.136	-299
186.205	-425
186.275	-256
186.344	-738
186.414	-480
186.483	-501
186.553	323
186.622	-308
186.692	-943
186.761	-730
186.831	-105
186.900	-398
186.970	39
187.039	61
187.109	514
187.178	-356
187.248	-127
187.317	350
187.387	-269
187.456	-758
187.526	183
187.595	393
187.664	-234
187.734	-512
187.803	429
187.873	-868
187.942	402
188.012	568
188.081	-56
188.150	-109
188.220	-101
188.289	-164
188.358	-286
188.428	262
188.497	-172
188.567	-83
188.636	-261
188.705	-234
188.775	-343
188.844	-515
188.913	502
188.983	-196
189.052	224
189.121	15
189.191	-391
189.260	624
189.329	925
189.399	-491
189.468	1055
189.537	-284
189.606	105
189.676	240
189.745	166
189.814	633
189.883	228
189.953	-848
190.022	61
190.091	1272
190.161	866
190.230	337
190.299	-361
190.368	-603
190.437	549
190.507	144
190.576	-134
190.645	-888
190.714	336
190.783	-483
190.853	925
190.922	563
190.991	140
191.060	-330
191.129	-781
191.198	828
191.268	-885
191.337	-663
191.406	251
191.475	535
191.544	-549
191.613	353
191.682	-971
191.752	-423
191.821	-896
191.890	-86
191.959	303
192.028	-150
192.097	162
192.166	460
192.235	-647
192.304	382
192.373	-716
192.442	14
192.511	-378
192.580	52
192.650	217
192.719	889
192.788	702
192.857	113
192.926	32
192.995	-491
193.064	109
193.133	381
193.202	-205
193.271	1451
193.340	504
193.409	544
193.478	845
193.547	1183
193.615	1125
193.684	1348
193.753	642
193.822	297
193.891	-527
193.960	-122
194.029	-187
194.098	467
194.167	-862
194.236	700
194.305	395
194.374	155
194.443	-314
194.512	-116
194.580	-153
194.649	154
194.718	759
194.787	615
194.856	-456
194.925	502
194.994	-283
195.062	128
195.131	-24
195.200	-264
195.269	428
195.338	79
195.407	-850
195.475	117
195.544	-5
195.613	-397
195.682	-275
195.751	1304
195.819	87
195.888	354
195.957	915
196.026	118
196.094	-163
196.163	267
196.232	782
196.301	455
196.369	133
196.438	-464
196.507	95
196.576	-513
196.644	-305
196.713	-404
196.782	735
196.850	572
196.919	415
196.988	-384
197.056	-209
197.125	340
197.194	483
197.262	392
197.331	547
197.400	86
197.468	194
197.537	-4
197.606	578
197.674	1607
197.743	1303
197.812	793
197.880	813
197.949	241
198.017	555
198.086	359
198.155	1216
198.223	808
198.292	1419
198.360	728
198.429	318
198.497	92
198.566	252
198.635	1604
198.703	642
198.772	1096
198.840	1418
198.909	1608
198.977	83
199.046	392
199.114	1411
199.183	-70
199.251	230
199.320	-234
199.388	211
199.457	131
199.525	109
199.594	87
199.662	668
199.731	142
199.799	163
199.867	23
199.936	-193
200.004	1074
200.073	741
200.141	471
200.210	-437
200.278	133
200.346	-47
200.415	285
200.483	404
200.552	1049
200.620	108
200.688	-474
200.757	647
200.825	564
200.893	72
200.962	-94
201.030	132
201.098	-703
201.167	-44
201.235	454
201.303	-269
201.372	-162
201.440	614
201.508	402
201.577	287
201.645	469
201.713	560
201.781	319
201.850	267
201.918	857
201.986	392
202.055	115
202.123	270
202.191	533
202.259	599
202.327	129
202.396	69
202.464	380
202.532	541
202.600	1542
202.669	193
202.737	97
202.805	-483
202.873	573
202.941	-163
203.009	874
203.078	532
203.146	828
203.214	281
203.282	-131
203.350	1315
203.418	554
203.487	1268
203.555	467
203.623	390
203.691	260
203.759	-287
203.827	-182
203.895	735
203.963	1210
204.031	-31
204.099	618
204.168	384
204.236	-23
204.304	412
204.372	541
204.440	519
204.508	-306
204.576	494
204.644	758
204.712	56
204.780	360
204.848	562
204.916	208
204.984	666
205.052	671
205.120	357
205.188	417
205.256	579
205.324	649
205.392	56
205.460	904
205.528	312
205.596	610
205.664	949
205.732	263
205.799	1571
205.867	2442
205.935	263
206.003	991
206.071	396
206.139	394
206.207	971
206.275	729
206.343	239
206.411	497
206.478	345
206.546	136
206.614	-342
206.682	-126
206.750	-23
206.818	783
206.885	436
206.953	-806
207.021	624
207.089	803
207.157	660
207.225	368
207.292	-314
207.360	1286
207.428	185
207.496	725
207.563	1471
207.631	548
207.699	203
207.767	152
207.834	-14
207.902	515
207.970	357
208.038	652
208.105	648
208.173	672
208.241	814
208.309	1012
208.376	823
208.444	2032
208.512	1166
208.579	-542
208.647	685
208.715	1123
208.782	978
208.850	473
208.918	534
208.985	606
209.053	1048
209.120	1220
209.188	157
209.256	558
209.323	369
209.391	235
209.459	1856
209.526	481
209.594	692
209.661	906
209.729	527
209.796	855
209.864	1280
209.932	375
209.999	1909
210.067	1922
210.134	816
210.202	224
210.269	1127
210.337	1385
210.404	1112
210.472	581
210.539	1126
210.607	949
210.674	422
210.742	1731
210.809	318
210.877	1305
210.944	2221
211.012	-131
211.079	2162
211.146	887
211.214	539
211.281	670
211.349	1515
211.416	1035
211.484	667
211.551	169
211.618	1124
211.686	714
211.753	554
211.821	982
211.888	1171
211.955	717
212.023	1142
212.090	228
212.157	1000
212.225	1320
212.292	1976
212.359	3516
212.427	8611
212.494	3628
212.561	2352
212.629	1593
212.696	1485
212.763	1223
212.831	809
212.898	1597
212.965	1166
213.032	1477
213.100	1530
213.167	-54
213.234	2120
213.301	987
213.369	1160
213.436	1452
213.503	1421
213.570	1270
213.638	1252
213.705	473
213.772	1043
213.839	1779
213.906	2018
213.973	1497
214.041	1221
214.108	1517
214.175	1484
214.242	1036
214.309	1603
214.376	1595
214.444	1196
214.511	1435
214.578	810
214.645	1505
214.712	1604
214.779	1112
214.846	1373
214.913	1915
214.980	2193
215.048	1217
215.115	2001
215.182	2021
215.249	876
215.316	1186
215.383	1672
215.450	1883
215.517	741
215.584	1644
215.651	1374
215.718	650
215.785	1055
215.852	1156
215.919	1265
215.986	1455
216.053	1834
216.120	1126
216.187	1230
216.254	1659
216.321	669
216.388	1784
216.455	1756
216.522	1211
216.589	1691
216.656	2391
216.722	2650
216.789	2628
216.856	2538
216.923	1510
216.990	2126
217.057	1131
217.124	2632
217.191	2400
217.258	2616
217.324	2765
217.391	3562
217.458	2339
217.525	3017
217.592	1260
217.659	612
217.725	2412
217.792	1136
217.859	2479
217.926	1476
217.993	1137
218.059	1626
218.126	1040
218.193	234
218.260	1780
218.327	1410
218.393	1257
218.460	905
218.527	536
218.594	2021
218.660	2191
218.727	2270
218.794	1018
218.860	1855
218.927	1538
218.994	529
219.061	843
219.127	1068
219.194	1130
219.261	817
219.327	1034
219.394	1623
219.461	538
219.527	838
219.594	1159
219.661	580
219.727	-67
219.794	1025
219.860	880
219.927	2022
219.994	1767
220.060	1953
220.127	1743
220.193	2103
220.260	1048
220.326	3109
220.393	4071
220.460	5116
220.526	3611
220.593	2457
220.659	3576
220.726	2695
220.792	5227
220.859	4950
220.925	6566
220.992	8589
221.058	8145
221.125	7595
221.191	4938
221.258	2389
221.324	2673
221.391	1556
221.457	1189
221.524	2124
221.590	2338
221.657	6427
221.723	3856
221.789	3659
221.856	4259
221.922	2005
221.989	2097
222.055	1645
222.121	687
222.188	3235
222.254	1005
222.321	1483
222.387	758
222.453	945
222.520	1082
222.586	1080
222.652	1418
222.719	715
222.785	2029
222.851	901
222.918	907
222.984	1802
223.050	1133
223.116	1047
223.183	1707
223.249	328
223.315	319
223.382	1024
223.448	1239
223.514	153
223.580	1757
223.647	453
223.713	575
223.779	727
223.845	958
223.911	1661
223.978	866
224.044	1371
224.110	478
224.176	2322
224.242	1142
224.309	948
224.375	1627
224.441	844
224.507	301
224.573	415
224.639	1270
224.705	-96
224.772	1647
224.838	246
224.904	2236
224.970	1027
225.036	926
225.102	453
225.168	1383
225.234	991
225.300	586
225.366	779
225.432	1556
225.499	744
225.565	1304
225.631	755
225.697	1438
225.763	2135
225.829	2154
225.895	1053
225.961	2956
226.027	2587
226.093	2069
226.159	4016
226.225	4529
226.291	8419
226.357	12849
226.423	7599
226.489	3955
226.554	2954
226.620	3301
226.686	2654
226.752	4452
226.818	7307
226.884	16096
226.950	13713
227.016	6436
227.082	4218
227.148	2661
227.214	3058
227.279	2436
227.345	2122
227.411	2560
227.477	1984
227.543	2255
227.609	2119
227.674	3421
227.740	1693
227.806	1816
227.872	2027
227.938	1761
228.003	2404
228.069	1247
228.135	1072
228.201	1833
228.267	1063
228.332	1841
228.398	1102
228.464	1414
228.530	437
228.595	887
228.661	533
228.727	1003
228.792	1758
228.858	891
228.924	-195
228.990	2600
229.055	-28
229.121	1886
229.187	913
229.252	802
229.318	1063
229.384	1473
229.449	2423
229.515	-117
229.581	-194
229.646	2408
229.712	1225
229.777	2268
229.843	1850
229.909	2300
229.974	3819
230.040	2466
230.105	2366
230.171	1687
230.236	3978
230.302	4111
230.368	2457
230.433	2277
230.499	2330
230.564	3746
230.630	1730
230.695	1819
230.761	2796
230.826	167
230.892	2592
230.957	1313
231.023	1090
231.088	2072
231.154	1905
231.219	1217
231.284	1759
231.350	2464
231.415	766
231.481	1785
231.546	975
231.612	1449
231.677	971
231.742	-74
231.808	2103
231.873	920
231.939	82
232.004	2462
232.069	1926
232.135	970
232.200	1111
232.265	1690
232.331	844
232.396	1236
232.461	1124
232.527	447
232.592	115
232.657	1598
232.723	1700
232.788	776
232.853	636
232.918	1555
232.984	828
233.049	1370
233.114	175
233.179	1038
233.245	2025
233.310	2604
233.375	1335
233.440	1326
233.506	1855
233.571	493
233.636	692
233.701	845
233.766	1525
233.832	2056
233.897	673
233.962	288
234.027	2196
234.092	1023
234.157	1530
234.222	628
234.288	1537
234.353	4270
234.418	4339
234.483	3161
234.548	1891
234.613	2607
234.678	2760
234.743	1624
234.808	5108
234.873	2972
234.938	3386
235.004	1645
235.069	1635
235.134	1193
235.199	2977
235.264	1817
235.329	427
235.394	2006
235.459	2595
235.524	1051
235.589	2759
235.654	1459
235.719	493
235.784	2407
235.849	1184
235.913	3361
235.978	2628
236.043	2939
236.108	1412
236.173	1232
236.238	3158
236.303	809
236.368	1607
236.433	2882
236.498	3608
236.563	3854
236.627	6503
236.692	20687
236.757	16429
236.822	7426
236.887	4645
236.952	4197
237.017	2800
237.081	5549
237.146	4509
237.211	10743
237.276	19634
237.341	30091
237.405	15030
237.470	7184
237.535	5262
237.600	3395
237.664	3890
237.729	2512
237.794	3690
237.859	7861
237.923	4390
237.988	3162
238.053	3696
238.118	2402
238.182	6858
238.247	7156
238.312	1917
238.376	3037
238.441	337
238.506	2929
238.570	1293
238.635	2530
238.700	1232
238.764	2275
238.829	2994
238.893	3277
238.958	2740
239.023	2520
239.087	1331
239.152	1931
239.216	434
239.281	2260
239.346	1411
239.410	1929
239.475	1224
239.539	6931
239.604	3705
239.668	2197
239.733	1466
239.797	1262
239.862	1702
239.926	3813
239.991	2613
240.055	2030
240.120	1576
240.184	1193
240.249	831
240.313	820
240.378	1078
240.442	2661
240.507	4797
240.571	2002
240.635	2007
240.700	3278
240.764	1767
240.829	1478
240.893	323
240.957	1637
241.022	3573
241.086	5160
241.151	2354
241.215	248
241.279	2422
241.344	2258
241.408	2880
241.472	2219
241.537	3542
241.601	2937
241.665	1620
241.730	2259
241.794	3484
241.858	2409
241.922	1952
241.987	2683
242.051	1813
242.115	1430
242.179	2852
242.244	976
242.308	2572
242.372	2823
242.436	2708
242.501	2684
242.565	1268
242.629	2060
242.693	2809
242.757	1909
242.822	1781
242.886	1938
242.950	1741
243.014	1608
243.078	2548
243.142	2146
243.206	1728
243.271	2432
243.335	2528
243.399	4542
243.463	9887
243.527	26525
243.591	8124
243.655	3726
243.719	2277
243.783	3640
243.847	3989
243.911	5139
243.975	4082
244.040	2633
244.104	3456
244.168	1944
244.232	1948
244.296	3552
244.360	4107
244.424	1516
244.488	2007
244.552	2010
244.615	727
244.679	2015
244.743	1189
244.807	1585
244.871	2088
244.935	1760
244.999	-95
245.063	1182
245.127	2729
245.191	3755
245.255	2744
245.319	2019
245.383	587
245.446	2391
245.510	824
245.574	1247
245.638	1996
245.702	1317
245.766	4138
245.829	3175
245.893	2314
245.957	1164
246.021	2264
246.085	1439
246.149	1956
246.212	5979
246.276	8422
246.340	3584
246.404	2969
246.467	3339
246.531	2550
246.595	3957
246.659	3407
246.722	1173
246.786	2567
246.850	3080
246.913	3738
246.977	1163
247.041	1876
247.104	2328
247.168	2848
247.232	5132
247.295	10888
247.359	5509
247.423	2950
247.486	4132
247.550	2509
247.614	2428
247.677	2730
247.741	2467
247.804	2261
247.868	3172
247.932	4049
247.995	10827
248.059	3455
248.122	1182
248.186	3861
248.249	4800
248.313	17542
248.376	17627
248.440	10363
248.503	3523
248.567	4874
248.630	4391
248.694	6191
248.757	9056
248.821	19971
248.884	10755
248.948	9459
249.011	14019
249.075	21261
249.138	16995
249.202	7190
249.265	4619
249.328	4785
249.392	4231
249.455	4598
249.519	3186
249.582	3981
249.645	5778
249.709	5061
249.772	4323
249.835	4170
249.899	3440
249.962	3806
250.025	3423
250.089	7513
250.152	9151
250.215	5285
250.279	3405
250.342	4580
250.405	3619
250.468	3563
250.532	5111
250.595	7424
250.658	27159
250.721	45647
250.785	14778
250.848	8760
250.911	5132
250.974	5549
251.038	7011
251.101	12436
251.164	6249
251.227	7307
251.290	6514
251.354	10192
251.417	39724
251.480	37042
251.543	26212
251.606	74995
251.669	51067
251.732	18540
251.795	17451
251.859	18817
251.922	45260
251.985	23974
252.048	11629
252.111	8245
252.174	6703
252.237	10986
252.300	23240
252.363	24980
252.426	55864
252.489	20959
252.552	11601
252.615	7667
252.678	8411
252.741	17668
252.804	25166
252.867	58339
252.930	30019
252.993	16260
253.056	9296
253.119	5733
253.182	5621
253.245	9319
253.308	6551
253.371	5016
253.434	4969
253.497	4996
253.559	10572
253.622	6714
253.685	5698
253.748	6318
253.811	3025
253.874	4602
253.937	3692
254.000	2782
254.062	5707
254.125	9860
254.188	10304
254.251	7637
254.314	3188
254.376	5069
254.439	6276
254.502	4807
254.565	5864
254.628	11440
254.690	5219
254.753	2956
254.816	2575
254.878	3338
254.941	5843
255.004	7038
255.067	3325
255.129	2363
255.192	1750
255.255	1373
255.317	2423
255.380	1670
255.443	1756
255.505	947
255.568	1529
255.631	1557
255.693	2247
255.756	970
255.819	2534
255.881	1254
255.944	1918
256.006	1183
256.069	1763
256.132	809
256.194	2034
256.257	4438
256.319	3210
256.382	2164
256.444	3352
256.507	3445
256.569	2575
256.632	2965
256.694	3483
256.757	12639
256.819	36026
256.882	13597
256.944	5498
257.007	4632
257.069	4045
257.132	3644
257.194	3752
257.257	3360
257.319	2941
257.381	4552
257.444	9934
257.506	38994
257.569	41104
257.631	14254
257.693	8580
257.756	4811
257.818	3139
257.880	3562
257.943	2906
258.005	2802
258.067	3099
258.130	2405
258.192	2984
258.254	4545
258.317	3142
258.379	3057
258.441	5891
258.503	5667
258.566	6541
258.628	7950
258.690	1474
258.753	3789
258.815	4821
258.877	2086
258.939	2515
259.001	3417
259.064	2361
259.126	1886
259.188	2974
259.250	3769
259.312	3034
259.375	5892
259.437	3048
259.499	2780
259.561	2777
259.623	3293
259.685	3164
259.747	2072
259.809	5715
259.872	10778
259.934	18089
259.996	18296
260.058	6726
260.120	1979
260.182	2056
260.244	2377
260.306	1445
260.368	2201
260.430	1304
260.492	6414
260.554	10484
260.616	4385
260.678	7645
260.740	10013
260.802	2892
260.864	3119
260.926	1422
260.988	3072
261.050	3235
261.112	9966
261.174	19463
261.236	8503
261.298	3096
261.359	5544
261.421	6521
261.483	2357
261.545	3247
261.607	988
261.669	1825
261.731	3606
261.793	6912
261.854	2080
261.916	3088
261.978	4310
262.040	4700
262.102	2026
262.164	3152
262.225	2161
262.287	2170
262.349	4281
262.411	4005
262.472	2287
262.534	2826
262.596	5437
262.658	2719
262.719	1022
262.781	1957
262.843	5422
262.904	2598
262.966	2900
263.028	3703
263.090	14198
263.151	39837
263.213	13564
263.275	8739
263.336	2447
263.398	1975
263.459	1599
263.521	1687
263.583	4582
263.644	3575
263.706	1162
263.767	979
263.829	1940
263.891	1388
263.952	1457
264.014	1045
264.075	3973
264.137	13477
264.198	4698
264.260	2121
264.321	1484
264.383	5656
264.444	18243
264.506	6016
264.567	3232
264.629	7694
264.690	15105
264.752	5290
264.813	3523
264.875	2229
264.936	2694
264.998	1351
265.059	1808
265.120	2230
265.182	3594
265.243	18693
265.305	18813
265.366	3964
265.427	2938
265.489	2359
265.550	54
265.611	1955
265.673	1750
265.734	1513
265.795	2129
265.857	1673
265.918	1495
265.979	5774
266.040	30772
266.102	24345
266.163	7178
266.224	6279
266.286	2377
266.347	1225
266.408	1292
266.469	2277
266.530	1804
266.592	1504
266.653	2732
266.714	3979
266.775	1936
266.836	1493
266.898	1571
266.959	4380
267.020	2370
267.081	2226
267.142	1903
267.203	812
267.264	779
267.326	2546
267.387	1860
267.448	495
267.509	1101
267.570	804
267.631	505
267.692	948
267.753	1224
267.814	575
267.875	2306
267.936	6941
267.997	5424
268.058	2292
268.119	1853
268.180	484
268.241	753
268.302	1275
268.363	1260
268.424	818
268.485	828
268.546	1053
268.607	-126
268.668	1298
268.729	797
268.790	1219
268.851	1298
268.912	4695
268.972	3827
269.033	2200
269.094	967
269.155	1115
269.216	1603
269.277	870
269.338	254
269.398	361
269.459	795
269.520	2327
269.581	1910
269.642	3235
269.702	1715
269.763	1730
269.824	1452
269.885	1916
269.945	1677
270.006	1859
270.067	1037
270.128	1056
270.188	943
270.249	973
270.310	237
270.370	1409
270.431	1067
270.492	699
270.553	900
270.613	2592
270.674	4866
270.734	2535
270.795	1450
270.856	1430
270.916	1016
270.977	1501
271.038	1893
271.098	1373
271.159	2990
271.219	1874
271.280	858
271.340	1566
271.401	764
271.462	2596
271.522	2033
271.583	1275
271.643	1488
271.704	1925
271.764	2201
271.825	4275
271.885	16058
271.946	22960
272.006	6358
272.066	10074
272.127	17099
272.187	4967
272.248	2220
272.308	3510
272.369	11150
272.429	7248
272.489	4552
272.550	4944
272.610	3422
272.671	3549
272.731	3283
272.791	4537
272.852	1696
272.912	1616
272.972	1823
273.033	1429
273.093	2403
273.153	3528
273.214	2552
273.274	2078
273.334	10742
273.394	16989
273.455	5982
273.515	6502
273.575	14535
273.635	5722
273.696	7274
273.756	14959
273.816	5311
273.876	2873
273.936	5909
273.997	10712
274.057	3782
274.117	1780
274.177	4102
274.237	21698
274.297	17473
274.358	8318
274.418	11644
274.478	8716
274.538	2816
274.598	2066
274.658	7333
274.718	9028
274.778	3919
274.838	1823
274.898	4315
274.958	13355
275.018	14501
275.078	10359
275.138	2800
275.198	2032
275.258	891
275.318	2326
275.378	3604
275.438	4270
275.498	2535
275.558	5803
275.618	14334
275.678	10469
275.738	7277
275.798	6216
275.858	4225
275.918	1663
275.978	1514
276.038	1285
276.098	1554
276.157	3559
276.217	9382
276.277	3063
276.337	3983
276.397	1627
276.457	1814
276.517	1612
276.576	879
276.636	511
276.696	1645
276.756	6142
276.815	3152
276.875	1564
276.935	2023
276.995	1921
277.055	1631
277.114	257
277.174	1871
277.234	7929
277.293	3317
277.353	1203
277.413	1326
277.472	1950
277.532	1640
277.592	1524
277.651	3989
277.711	7666
277.771	1584
277.830	10906
277.890	7781
277.950	5696
278.009	18660
278.069	7362
278.128	6326
278.188	7356
278.248	3066
278.307	8584
278.367	5638
278.426	2207
278.486	1945
278.545	655
278.605	1201
278.664	899
278.724	1710
278.783	5412
278.843	16180
278.902	4377
278.962	1602
279.021	2455
279.081	2341
279.140	2188
279.199	1760
279.259	2007
279.318	3041
279.378	2892
279.437	5003
279.496	21251
279.556	64815
279.615	43789
279.675	10589
279.734	5638
279.793	8138
279.853	16232
279.912	5693
279.971	3433
280.031	2636
280.090	7144
280.149	11474
280.208	8452
280.268	47621
280.327	40662
280.386	8587
280.445	6087
280.505	6206
280.564	4467
280.623	3084
280.682	4541
280.742	7015
280.801	2515
280.860	1680
280.919	2427
280.978	1067
281.037	1140
281.097	124
281.156	1894
281.215	1732
281.274	1416
281.333	10427
281.392	6646
281.451	1760
281.510	1659
281.569	1036
281.628	629
281.688	882
281.747	2407
281.806	1269
281.865	1215
281.924	546
281.983	432
282.042	735
282.101	572
282.160	1074
282.219	413
282.278	351
282.337	5061
282.396	3292
282.454	1768
282.513	1265
282.572	7953
282.631	4772
282.690	723
282.749	261
282.808	2287
282.867	1357
282.926	1690
282.985	1438
283.043	240
283.102	335
283.161	870
283.220	4344
283.279	9184
283.338	4219
283.396	1463
283.455	1669
283.514	1417
283.573	3124
283.631	2580
283.690	1342
283.749	1284
283.808	3641
283.866	3508
283.925	431
283.984	1021
284.043	1843
284.101	1652
284.160	883
284.219	2660
284.277	1610
284.336	3188
284.395	11158
284.453	8183
284.512	2535
284.570	3552
284.629	3290
284.688	1724
284.746	1776
284.805	2067
284.863	3522
284.922	4416
284.981	5400
285.039	7969
285.098	13474
285.156	34875
285.215	97092
285.273	89413
285.332	38330
285.390	17842
285.449	11041
285.507	7356
285.566	4699
285.624	4596
285.683	3855
285.741	2630
285.799	2292
285.858	2505
285.916	2408
285.975	1998
286.033	1105
286.091	878
286.150	1157
286.208	1831
286.267	1888
286.325	2064
286.383	2891
286.442	2974
286.500	1234
286.558	952
286.616	612
286.675	1829
286.733	1001
286.791	1041
286.850	2486
286.908	2304
286.966	3702
287.024	2038
287.083	1375
287.141	1855
287.199	1053
287.257	2357
287.315	2079
287.374	1741
287.432	5222
287.490	3669
287.548	2223
287.606	1554
287.664	2121
287.723	3619
287.781	4209
287.839	2276
287.897	2781
287.955	4674
288.013	6396
288.071	13408
288.129	55384
288.187	144190
288.245	65922
288.303	20797
288.361	11522
288.419	8584
288.477	5984
288.535	4177
288.593	2919
288.651	2371
288.709	1810
288.767	1859
288.825	1937
288.883	1533
288.941	1551
288.999	1401
289.057	1690
289.115	1764
289.173	1079
289.231	1204
289.289	1153
289.346	484
289.404	1107
289.462	2157
289.520	2491
289.578	1086
289.636	1063
289.694	857
289.751	590
289.809	332
289.867	356
289.925	1778
289.983	2040
290.040	1035
290.098	641
290.156	1134
290.214	1891
290.271	549
290.329	696
290.387	722
290.444	825
290.502	607
290.560	1152
290.617	1306
290.675	1526
290.733	739
290.790	1466
290.848	362
290.906	1411
290.963	1915
291.021	1599
291.078	1522
291.136	1906
291.194	7959
291.251	16695
291.309	5180
291.366	1898
291.424	1275
291.481	1861
291.539	439
291.596	1523
291.654	668
291.711	951
291.769	538
291.826	2211
291.884	1812
291.941	724
291.999	436
292.056	503
292.114	1231
292.171	185
292.228	836
292.286	1528
292.343	2196
292.401	2804
292.458	1595
292.515	1174
292.573	1755
292.630	688
292.687	2005
292.745	2000
292.802	3390
292.859	11405
292.917	11836
292.974	6609
293.031	1864
293.089	1870
293.146	1034
293.203	1471
293.260	1240
293.318	1822
293.375	6508
293.432	3872
293.489	1488
293.546	2624
293.604	2494
293.661	6727
293.718	20736
293.775	12379
293.832	4656
293.889	3204
293.947	2352
294.004	2872
294.061	2351
294.118	4375
294.175	14071
294.232	25548
294.289	9252
294.346	4803
294.403	4442
294.460	2558
294.517	2441
294.574	2597
294.631	2492
294.688	2555
294.745	6253
294.802	26777
294.859	35261
294.916	12620
294.973	5631
295.030	4872
295.087	3408
295.144	2447
295.201	2994
295.258	2551
295.315	3540
295.372	8522
295.429	16522
295.486	7568
295.542	5472
295.599	17153
295.656	29875
295.713	18301
295.770	17923
295.827	7406
295.883	4497
295.940	3569
295.997	4997
296.054	4240
296.111	2409
296.167	4032
296.224	1237
296.281	2578
296.338	2765
296.394	2369
296.451	3137
296.508	8288
296.564	15906
296.621	12027
296.678	20572
296.734	29631
296.791	12041
296.848	6774
296.904	5622
296.961	10440
297.018	18331
297.074	15524
297.131	7093
297.187	4209
297.244	5332
297.301	17786
297.357	32285
297.414	11398
297.470	5456
297.527	3326
297.583	4042
297.640	2437
297.696	2910
297.753	3350
297.809	1956
297.866	2561
297.922	2139
297.979	1604
298.035	2043
298.092	3883
298.148	10928
298.204	9198
298.261	4368
298.317	10715
298.374	25346
298.430	13447
298.486	6305
298.543	4200
298.599	4345
298.656	4931
298.712	6823
298.768	19164
298.824	14345
298.881	5486
298.937	3327
298.993	2965
299.050	2848
299.106	3224
299.162	2214
299.218	3361
299.275	2429
299.331	2545
299.387	5219
299.443	18270
299.500	17964
299.556	7304
299.612	3981
299.668	2646
299.724	2051
299.780	2403
299.837	1733
299.893	4675
299.949	13134
300.005	15254
300.061	14255
300.117	28958
300.173	14102
300.229	6037
300.285	4927
300.341	6834
300.397	3690
300.453	2340
300.510	2920
300.566	2046
300.622	2447
300.678	3902
300.734	8866
300.790	13000
300.845	18128
300.901	9235
300.957	11730
301.013	10711
301.069	4506
301.125	3503
301.181	3236
301.237	2752
301.293	2295
301.349	1763
301.405	1875
301.461	2001
301.516	3318
301.572	3355
301.628	4210
301.684	4076
301.740	7627
301.796	11389
301.851	7452
301.907	11087
301.963	12207
302.019	18944
302.074	53785
302.130	53064
302.186	23431
302.242	9712
302.297	7628
302.353	6608
302.409	11616
302.464	10015
302.520	7917
302.576	17824
302.631	20400
302.687	11705
302.743	6008
302.798	4713
302.854	3952
302.910	3873
302.965	4757
303.021	6634
303.076	6599
303.132	7279
303.187	8443
303.243	5485
303.299	3697
303.354	2058
303.410	3968
303.465	3148
303.521	2567
303.576	3046
303.632	3703
303.687	6854
303.743	18092
303.798	15841
303.853	7040
303.909	4101
303.964	3657
304.020	5214
304.075	6092
304.130	5710
304.186	9567
304.241	10479
304.297	8829
304.352	4561
304.358	4473
304.407	3753
304.449	3644
304.463	3617
304.518	3699
304.539	3423
304.573	2958
304.629	4204
304.630	4214
304.684	4922
304.720	10383
304.739	13061
304.794	20653
304.811	17762
304.850	10897
304.902	5625
304.905	5293
304.960	3955
304.992	4372
305.015	4657
305.071	4568
305.083	4260
305.126	3125
305.173	2478
305.181	2387
305.236	2180
305.264	2520
305.292	2848
305.347	3528
305.354	3622
305.402	4237
305.445	3800
305.457	3659
305.512	4999
305.535	4644
305.567	4253
305.622	5016
305.626	5169
305.678	8852
305.716	16107
305.733	18503
305.788	20182
305.807	17641
305.843	13870
305.897	18837
305.898	18878
305.953	18224
305.988	12251
306.008	9137
306.063	6248
306.078	5590
306.118	4130
306.168	2978
306.173	2873
306.228	2910
306.259	2807
306.283	2839
306.338	2519
306.349	2687
306.393	3159
306.440	3781
306.448	3951
306.503	4438
306.530	4754
306.558	6483
306.613	15201
306.620	16206
306.668	19335
306.711	19487
306.723	19142
306.778	13697
306.801	10569
306.833	7440
306.888	4198
306.892	4088
306.943	3249
306.982	3128
306.997	3126
307.052	3677
307.072	3811
307.107	4825
307.162	7023
307.163	7059
307.217	11771
307.253	14948
307.272	15209
307.327	14297
307.343	12795
307.381	10130
307.434	8050
307.436	8257
307.491	15976
307.524	23438
307.546	23969
307.600	18186
307.614	15438
307.655	10147
307.704	6711
307.710	6751
307.765	9232
307.795	12135
307.819	14749
307.874	24057
307.885	24320
307.929	18712
307.975	12014
307.984	12040
308.038	15743
308.065	19307
308.093	33623
308.148	70030
308.156	78249
308.202	112418
308.246	129809
308.257	126026
308.312	69555
308.336	47101
308.366	34446
308.421	20499
308.426	19501
308.475	13451
308.517	9930
308.530	9210
308.585	8446
308.607	8311
308.639	8844
308.694	9870
308.697	10012
308.748	20900
308.787	32353
308.803	31487
308.857	21671
308.877	17015
308.912	13853
308.967	11974
308.967	11967
309.021	15056
309.058	18124
309.076	22834
309.130	39957
309.148	47017
309.185	90909
309.238	167155
309.239	167390
309.293	165123
309.328	143070
309.348	123529
309.402	58864
309.418	43098
309.457	30051
309.508	18434
309.511	17984
309.566	14479
309.598	12931
309.620	13146
309.674	14807
309.688	15486
309.729	14104
309.778	11108
309.783	10907
309.837	8646
309.868	7803
309.892	9944
309.946	15757
309.959	17572
310.001	22112
310.049	26266
310.055	25483
310.109	15396
310.139	9758
310.163	8127
310.218	5724
310.229	5349
310.272	5336
310.319	5628
310.326	5542
310.381	5074
310.409	4791
310.435	4871
310.489	5061
310.499	5102
310.543	5715
310.589	6374
310.598	6396
310.652	6567
310.679	6514
310.706	5661
310.760	3908
310.769	3628
310.814	3219
310.859	2891
310.868	2948
310.923	3280
310.948	3501
310.977	4066
311.031	5059
311.038	5231
311.085	4880
311.128	4116
311.139	4148
311.193	4377
311.218	4597
311.247	4345
311.301	3765
311.308	3677
311.356	4115
311.398	4614
311.410	4470
311.464	3682
311.488	3309
311.518	3435
311.572	3670
311.578	3702
311.626	4623
311.668	5399
311.680	5763
311.734	7391
311.758	8101
311.788	7638
311.842	6735
311.847	6633
311.896	9874
311.937	12747
311.950	12193
312.004	9612
312.027	8450
312.058	6913
312.112	4205
312.117	3939
312.165	4409
312.207	4823
312.297	9333
312.386	6428
312.476	4579
312.566	6641
312.656	4059
312.745	3808
312.835	5467
312.925	5681
313.015	5965
313.104	6356
313.194	4092
313.284	3683
313.374	4598
313.463	4177
313.553	3558
313.643	3703
313.732	3290
313.822	2691
313.912	4579
314.001	4544
314.091	6847
314.180	9399
314.270	6043
314.360	7497
314.449	4810
314.539	3754
314.628	3927
314.718	5293
314.808	7246
314.897	3416
314.987	3275
315.076	4233
315.166	5857
315.255	6142
315.345	5540
315.434	6615
315.524	6169
315.613	5109
315.703	4707
315.792	4803
315.881	5298
315.971	4888
316.060	10960
316.150	24590
316.239	25109
316.328	7072
316.418	3219
316.507	3339
316.597	4036
316.686	3813
316.775	11810
316.865	25233
316.954	4602
317.043	3409
317.133	2525
317.222	3373
317.311	2915
317.400	1518
317.490	4451
317.579	3479
317.668	2920
317.757	3818
317.847	4977
317.936	6417
318.025	6677
318.114	3686
318.203	4283
318.293	7630
318.382	13843
318.471	10996
318.560	23276
318.649	52218
318.738	8521
318.828	4415
318.917	5789
319.006	10943
319.095	28716
319.184	63015
319.273	21868
319.362	7299
319.451	4254
319.540	3708
319.629	7410
319.718	10473
319.807	8072
319.896	20433
319.985	73291
320.074	16837
320.163	9170
320.252	16427
320.341	13715
320.430	10029
320.519	7896
320.608	3933
320.697	5101
320.786	4831
320.875	4601
320.964	5688
321.053	7153
321.142	8702
321.230	9381
321.319	11049
321.408	25243
321.497	10620
321.586	10411
321.675	23291
321.764	17706
321.852	11543
321.941	13488
322.030	7005
322.119	12961
322.207	25386
322.296	33186
322.385	14643
322.474	10497
322.562	23464
322.651	14096
322.740	10533
322.829	19832
322.917	32645
323.006	10986
323.095	8747
323.183	10517
323.272	13408
323.361	27075
323.449	84181
323.538	24758
323.626	66258
323.715	30260
323.804	16156
323.892	60443
323.981	22561
324.069	9414
324.158	38764
324.246	26765
324.335	7418
324.424	7401
324.512	3784
324.601	4639
324.689	5330
324.778	10722
324.866	20637
324.954	5649
325.043	5139
325.131	14624
325.220	30236
325.308	31026
325.397	22440
325.485	10102
325.574	3395
325.662	2653
325.750	2408
325.839	4343
325.927	3555
326.015	4634
326.104	12759
326.192	14180
326.280	3514
326.369	4365
326.457	4201
326.545	5747
326.634	2533
326.722	3092
326.810	2522
326.898	3055
326.987	3869
327.075	7207
327.163	11105
327.251	6239
327.340	4042
327.428	4096
327.516	2797
327.604	3377
327.692	4324
327.781	7050
327.869	13164
327.957	5990
328.045	3760
328.133	3899
328.221	6064
328.309	3604
328.397	3573
328.485	3563
328.574	4062
328.662	11561
328.750	11257
328.838	6778
328.926	3609
329.014	3089
329.102	5218
329.190	18560
329.278	6109
329.366	2343
329.454	3502
329.542	3443
329.630	2766
329.718	3885
329.806	2627
329.893	5112
329.981	3354
330.069	3299
330.157	8046
330.245	18724
330.333	8168
330.421	2937
330.509	4512
330.597	13388
330.684	10840
330.772	8264
330.860	15892
330.948	20540
331.036	5502
331.123	2585
331.211	3704
331.299	5341
331.387	17308
331.475	25086
331.562	7371
331.650	2903
331.738	6068
331.825	8382
331.913	3293
332.001	3194
332.089	6142
332.176	14196
332.264	38709
332.352	22519
332.439	6594
332.527	4828
332.614	4561
332.702	7034
332.790	3708
332.877	15314
332.965	29374
333.052	4579
333.140	5066
333.228	10565
333.315	3299
333.403	5842
333.490	22962
333.578	12401
333.665	6432
333.753	4901
333.840	3960
333.928	5732
334.015	22692
334.103	30855
334.190	85285
334.278	16703
334.365	8162
334.452	4249
334.540	2944
334.627	7546
334.715	9618
334.802	18815
334.889	116658
334.977	82689
335.064	8010
335.151	4991
335.239	6076
335.326	9024
335.413	45881
335.501	45816
335.588	5928
335.675	4133
335.762	9247
335.850	14652
335.937	6489
336.024	25045
336.111	108743
336.199	31709
336.286	5307
336.373	3778
336.460	2497
336.547	3936
336.635	5219
336.722	3729
336.809	3988
336.896	6595
336.983	26221
337.070	62351
337.157	81713
337.245	73656
337.332	41384
337.419	5930
337.506	4232
337.593	6416
337.680	26413
337.767	66736
337.854	16758
337.941	22516
338.028	26873
338.115	7938
338.202	11516
338.289	22103
338.376	70590
338.463	18509
338.550	43627
338.637	36016
338.724	18082
338.811	25052
338.898	5236
338.984	4237
339.071	6568
339.158	4615
339.245	9423
339.332	6811
339.419	18818
339.506	14578
339.593	1443
339.679	2600
339.766	2226
339.853	4449
339.940	4959
340.027	3626
340.113	2572
340.200	3690
340.287	2664
340.374	3257
340.460	4818
340.547	1560
340.634	4577
340.720	13743
340.807	6576
340.894	2045
340.980	2466
341.067	2167
341.154	4066
341.240	2861
341.327	5183
341.414	3161
341.500	2648
341.587	3186
341.674	2440
341.760	5030
341.847	4425
341.933	2010
342.020	1233
342.106	1699
342.193	2168
342.279	3955
342.366	2270
342.452	4220
342.539	2518
342.625	4923
342.712	11556
342.798	5110
342.885	2403
342.971	1511
343.058	969
343.144	985
343.230	2680
343.317	1381
343.403	1429
343.490	1325
343.576	1465
343.662	1746
343.749	2517
343.835	3234
343.921	6829
344.008	39750
344.094	73004
344.180	14058
344.267	5549
344.353	23690
344.439	25565
344.525	8355
344.612	6854
344.698	5054
344.784	3062
344.870	2151
344.957	1393
345.043	3280
345.129	1679
345.215	3630
345.301	2778
345.387	1919
345.474	1998
345.560	2891
345.646	4154
345.732	3495
345.818	2087
345.904	2709
345.990	3026
346.076	4441
346.162	11079
346.249	3132
346.335	1519
346.421	2476
346.507	9844
346.593	27723
346.679	4969
346.765	3721
346.851	2023
346.937	2092
347.023	2718
347.108	1561
347.194	1620
347.280	1304
347.366	2652
347.452	9043
347.538	34537
347.624	24849
347.710	22336
347.796	5173
347.882	2517
347.967	3054
348.053	5866
348.139	3648
348.225	2412
348.311	715
348.397	1434
348.482	2686
348.568	3097
348.654	467
348.740	446
348.825	-517
348.911	3355
348.997	19774
349.083	33402
349.168	5304
349.254	1983
349.340	2823
349.425	1597
349.511	2687
349.597	3913
349.682	5326
349.768	17518
349.854	7804
349.939	3157
350.025	2371
350.110	1852
350.196	2011
350.282	746
350.367	2322
350.453	7100
350.538	6339
350.624	3062
350.709	4082
350.795	1182
350.880	634
350.966	2615
351.051	5651
351.137	5271
351.222	1963
351.308	5623
351.393	12214
351.479	2302
351.564	1331
351.649	2253
351.735	1891
351.820	1247
351.906	2029
351.991	2832
352.076	10340
352.162	12143
352.247	2430
352.332	1621
352.418	3193
352.503	4818
352.588	19870
352.673	12409
352.759	3926
352.844	1803
352.929	2889
353.014	3027
353.100	1620
353.185	3106
353.270	3361
353.355	4043
353.441	2392
353.526	4057
353.611	4665
353.696	4742
353.781	3138
353.866	963
353.952	2375
354.037	4286
354.122	8566
354.207	7349
354.292	3188
354.377	1506
354.462	2479
354.547	1424
354.632	3034
354.717	4213
354.802	1740
354.887	1541
354.972	1455
355.057	719
355.142	692
355.227	2037
355.312	3546
355.397	5812
355.482	12810
355.567	5196
355.652	6023
355.737	5584
355.822	21037
355.907	13518
355.991	3437
356.076	962
356.161	1416
356.246	1170
356.331	2316
356.416	5668
356.501	40194
356.585	32716
356.670	3464
356.755	3735
356.840	4806
356.924	26921
357.009	84303
357.094	25270
357.179	4929
357.263	3258
357.348	4941
357.433	4702
357.517	3339
357.602	1940
357.687	2129
357.771	5021
357.856	16503
357.941	9227
358.025	23288
358.110	88505
358.195	33004
358.279	3704
358.364	3390
358.448	12872
358.533	33286
358.617	21785
358.702	22674
358.787	7417
358.871	3686
358.956	3792
359.040	1960
359.125	1587
359.209	2227
359.294	8343
359.378	11607
359.462	3303
359.547	3719
359.631	2920
359.716	981
359.800	2452
359.885	6665
359.969	1626
360.053	2009
360.138	1880
360.222	2705
360.306	3714
360.391	3988
360.475	9111
360.559	15288
360.644	11799
360.728	7905
360.812	21976
360.896	54111
360.981	24637
361.065	12819
361.149	3181
361.233	3030
361.318	2302
361.402	3476
361.486	2275
361.570	1828
361.654	1537
361.739	6909
361.823	37839
361.907	51041
361.991	7285
362.075	3999
362.159	6365
362.243	4562
362.327	1978
362.411	3916
362.495	3693
362.580	2168
362.664	1760
362.748	830
362.832	984
362.916	623
363.000	6748
363.084	33797
363.168	57267
363.252	10629
363.336	4485
363.420	10120
363.503	56003
363.587	58558
363.671	7025
363.755	3866
363.839	6576
363.923	1960
364.007	4840
364.091	7977
364.175	20761
364.258	82659
364.342	31221
364.426	7768
364.510	3794
364.594	8501
364.677	14258
364.761	47439
364.845	30552
364.929	7617
365.013	6292
365.096	5607
365.180	7380
365.264	25833
365.347	86532
365.431	35871
365.515	7941
365.598	1515
365.682	3930
365.766	11945
365.849	14128
365.933	4043
366.017	9369
366.100	6639
366.184	1374
366.267	3017
366.351	2281
366.435	932
366.518	890
366.602	1145
366.685	903
366.769	1769
366.852	8179
366.936	11559
367.019	3247
367.103	7121
367.186	17173
367.270	3265
367.353	416
367.436	1595
367.520	885
367.603	1412
367.687	1743
367.770	4731
367.853	3434
367.937	16017
368.020	21115
368.104	2940
368.187	4160
368.270	5904
368.353	5447
368.437	17408
368.520	49667
368.603	20085
368.687	16126
368.770	25770
368.853	6186
368.936	10568
369.020	12412
369.103	2932
369.186	2035
369.269	1734
369.352	3210
369.436	6246
369.519	3552
369.602	1224
369.685	3022
369.768	1832
369.851	3266
369.934	1468
370.018	2579
370.101	3637
370.184	6191
370.267	5698
370.350	6633
370.433	11268
370.516	25878
370.599	26315
370.682	5255
370.765	13830
370.848	19946
370.931	34390
371.014	17283
371.097	2502
371.180	1948
371.263	1693
371.346	302
371.429	1698
371.511	664
371.594	4054
371.677	9892
371.760	15482
371.843	7683
371.926	35923
372.009	70639
372.091	21621
372.174	17800
372.257	38807
372.340	13706
372.423	18532
372.505	24255
372.588	7944
372.671	11553
372.754	30723
372.836	15877
372.919	30092
373.002	53002
373.085	11394
373.167	5604
373.250	14160
373.332	33509
373.415	52076
373.498	92502
373.580	31442
373.663	44767
373.746	55437
373.828	11323
373.911	6744
373.993	11549
374.076	53660
374.159	46463
374.241	13698
374.324	27450
374.406	17182
374.489	33879
374.571	79156
374.654	28557
374.736	17425
374.819	52085
374.901	72337
374.983	66178
375.066	9856
375.148	7323
375.231	44396
375.313	77976
375.395	26073
375.478	5341
375.560	3053
375.643	4097
375.725	18497
375.807	65842
375.890	66185
375.972	37771
376.054	21097
376.136	40818
376.219	14701
376.301	20237
376.383	48714
376.465	16199
376.548	8060
376.630	14807
376.712	39502
376.794	16199
376.877	1677
376.959	1248
377.041	3584
377.123	14144
377.205	15856
377.287	1179
377.369	1333
377.452	764
377.534	1506
377.616	943
377.698	784
377.780	16
377.862	1253
377.944	1705
378.026	150
378.108	1254
378.190	1554
378.272	1908
378.354	659
378.436	487
378.518	6243
378.600	21957
378.682	14342
378.764	18196
378.846	13359
378.928	5805
379.010	5004
379.091	2889
379.173	1793
379.255	850
379.337	1929
379.419	9264
379.501	25356
379.583	10754
379.664	3068
379.746	4999
379.828	18940
379.910	23823
379.991	19193
380.073	3264
380.155	2123
380.237	2179
380.318	1151
380.400	1410
380.482	4055
380.564	5233
380.645	4494
380.727	3957
380.809	3586
380.890	1332
380.972	630
381.053	810
381.135	2984
381.217	6005
381.298	17790
381.380	8997
381.461	10382
381.543	42625
381.624	45902
381.706	7671
381.787	6176
381.869	5514
381.951	23936
382.032	73682
382.113	42971
382.195	7799
382.276	7296
382.358	12686
382.439	36312
382.521	47348
382.602	66651
382.684	28566
382.765	46899
382.846	39314
382.928	33466
383.009	16743
383.090	14690
383.172	51595
383.253	74313
383.334	36417
383.416	53871
383.497	24673
383.578	6953
383.659	13742
383.741	51203
383.822	117230
383.903	55589
383.984	31753
384.066	60964
384.147	33899
384.228	7415
384.309	4716
384.390	2177
384.471	2412
384.553	3541
384.634	5445
384.715	5306
384.796	1476
384.877	3316
384.958	16147
385.039	17600
385.120	5891
385.201	4074
385.282	7148
385.363	9728
385.444	4955
385.525	9440
385.606	30925
385.687	25155
385.768	8810
385.849	11866
385.930	38568
386.011	59626
386.092	13938
386.173	3906
386.254	4207
386.335	4457
386.416	4238
386.496	12442
386.577	20091
386.658	11395
386.739	6915
386.820	10486
386.901	7247
386.981	5525
387.062	2100
387.143	4849
387.224	17207
387.304	17770
387.385	7445
387.466	5902
387.547	9982
387.627	3167
387.708	8345
387.789	34148
387.869	39824
387.950	11314
388.031	2261
388.111	3865
388.192	20500
388.273	28907
388.353	12394
388.434	3359
388.514	8949
388.595	39471
388.676	41922
388.756	17976
388.837	15008
388.917	8768
388.998	1294
389.078	2328
389.159	2396
389.239	1289
389.320	4206
389.400	2090
389.480	12211
389.561	23524
389.641	10279
389.722	3671
389.802	5361
389.883	11369
389.963	28796
390.043	22816
390.124	9687
390.204	8057
390.284	18526
390.365	14713
390.445	39193
390.525	79233
390.605	50761
390.686	10958
390.766	3648
390.846	2172
390.927	1206
391.007	1037
391.087	3926
391.167	3504
391.247	2426
391.328	9296
391.408	15337
391.488	9798
391.568	569
391.648	2290
391.728	2933
391.808	3449
391.888	3408
391.969	12339
392.049	16842
392.129	11950
392.209	12374
392.289	23613
392.369	16796
392.449	24805
392.529	12109
392.609	5643
392.689	7874
392.769	22271
392.849	17616
392.929	21200
393.009	42503
393.089	20110
393.169	4481
393.248	14758
393.328	66985
393.408	65263
393.488	11663
393.568	3338
393.648	2008
393.728	2252
393.807	2117
393.887	3554
393.967	2723
394.047	3349
394.127	5714
394.206	14291
394.286	64940
394.366	246225
394.446	238013
394.525	52046
394.605	12525
394.685	13830
394.764	36342
394.844	58160
394.924	35467
395.003	6647
395.083	3501
395.163	3116
395.242	2985
395.322	3715
395.402	1671
395.481	6583
395.561	24455
395.640	55432
395.720	36709
395.799	65450
395.879	49160
395.958	25584
396.038	97461
396.117	321739
396.197	322250
396.276	100718
396.356	34728
396.435	26245
396.515	12138
396.594	5887
396.673	8223
396.753	19357
396.832	56945
396.912	47733
396.991	13726
397.070	3768
397.150	1037
397.229	1762
397.308	1504
397.388	1813
397.467	1604
397.546	1607
397.625	-936
397.705	3147
397.784	1705
397.863	473
397.942	1408
398.022	3085
398.101	22535
398.180	61867
398.259	31976
398.338	6777
398.417	2314
398.497	2083
398.576	3328
398.655	428
398.734	1187
398.813	3229
398.892	21166
398.971	64644
399.050	29020
399.129	2278
399.208	1142
399.287	1467
399.366	997
399.445	2101
399.524	1614
399.603	241
399.682	3491
399.761	17340
399.840	66534
399.919	49749
399.998	6103
400.077	1314
400.156	307
400.235	4587
400.313	1609
400.392	3126
400.471	10166
400.550	12867
400.629	2676
400.708	3021
400.786	5091
400.865	17514
400.944	17828
401.023	6757
401.102	627
401.180	1201
401.259	1689
401.338	3428
401.416	3326
401.495	2004
401.574	3249
401.652	2652
401.731	3945
401.810	2412
401.888	870
401.967	636
402.046	1113
402.124	3135
402.203	4133
402.281	2646
402.360	5564
402.438	21179
402.517	14542
402.596	5138
402.674	4289
402.753	2772
402.831	1483
402.910	1847
402.988	6568
403.066	17733
403.145	10355
403.223	7001
403.302	11587
403.380	9554
403.459	7963
403.537	3113
403.615	2490
403.694	147
403.772	1107
403.850	1235
403.929	265
404.007	455
404.085	2463
404.164	1432
404.242	1852
404.320	13834
404.398	33432
404.477	32244
404.555	56131
404.633	49524
404.711	24790
404.789	11882
404.868	1294
404.946	703
405.024	466
405.102	367
405.180	-724
405.258	-606
405.336	1482
405.415	1060
405.493	5632
405.571	3197
405.649	528
405.727	1086
405.805	3672
405.883	3025
405.961	3507
406.039	5553
406.117	894
406.195	3152
406.273	12437
406.351	41964
406.429	26386
406.507	7453
406.585	2036
406.663	961
406.740	1402
406.818	587
406.896	789
406.974	2354
407.052	3585
407.130	24452
407.208	29730
407.285	5899
407.363	-118
407.441	348
407.519	-17
407.596	1161
407.674	3165
407.752	10239
407.830	17605
407.907	10439
407.985	1666
408.063	856
408.141	384
408.218	5196
408.296	2566
408.373	-117
408.451	711
408.529	13
408.606	-256
408.684	-570
408.762	-70
408.839	335
408.917	-708
408.994	-528
409.072	-734
409.149	-248
409.227	900
409.304	213
409.382	-123
409.459	-622
409.537	1272
409.614	446
409.692	-897
409.769	-49
409.846	679
409.924	2674
410.001	-542
410.079	229
410.156	949
410.233	1199
410.311	317
410.388	531
410.465	925
410.543	677
410.620	528
410.697	876
410.775	377
410.852	-848
410.929	1442
411.006	1933
411.083	473
411.161	2738
411.238	5603
411.315	3913
411.392	555
411.469	1467
411.547	1289
411.624	-105
411.701	191
411.778	872
411.855	2079
411.932	769
412.009	16
412.086	792
412.163	1452
412.240	2708
412.317	3943
412.394	2959
412.471	996
412.548	-92
412.625	264
412.702	2526
412.779	4161
412.856	2088
412.933	578
413.010	1598
413.087	2843
413.164	8736
413.241	10194
413.318	1878
413.395	1628
413.471	1993
413.548	1062
413.625	910
413.702	1706
413.779	2239
413.855	101
413.932	-180
414.009	231
414.086	529
414.162	-122
414.239	2639
414.316	9179
414.393	17650
414.469	4239
414.546	866
414.623	-228
414.699	421
414.776	615
414.853	-88
414.929	896
415.006	1727
415.082	1668
415.159	1595
415.236	570
415.312	1100
415.389	1707
415.465	1379
415.542	139
415.618	-426
415.695	782
415.771	476
415.848	544
415.924	1792
416.000	1938
416.077	1310
416.153	-864
416.230	-685
416.306	-200
416.383	742
416.459	959
416.535	-228
416.612	-165
416.688	532
416.764	-182
416.841	-103
416.917	685
416.993	454
417.069	2000
417.146	1911
417.222	2643
417.298	743
417.374	33
417.451	1451
417.527	296
417.603	264
417.679	-44
417.755	34
417.831	-614
417.908	-97
417.984	-484
418.060	-54
418.136	1690
418.212	1706
418.288	591
418.364	379
418.440	-396
418.516	2322
418.592	5985
418.668	6446
418.744	4595
418.820	3764
418.896	133
418.972	-655
419.048	2
419.124	2488
419.200	487
419.276	57
419.352	-387
419.428	-678
419.504	-734
419.579	327
419.655	-964
419.731	322
419.807	1741
419.883	4088
419.959	2591
420.034	1197
420.110	2710
420.186	9805
420.262	8038
420.337	1856
420.413	663
420.489	-191
420.565	55
420.640	-336
420.716	734
420.792	-1111
420.867	-126
420.943	-223
421.019	155
421.094	483
421.170	-65
421.245	-826
421.321	200
421.397	-12
421.472	842
421.548	2932
421.623	2775
421.699	480
421.774	86
421.850	-966
421.925	265
422.001	456
422.076	-160
422.152	-435
422.227	485
422.302	1889
422.378	627
422.453	1438
422.529	5458
422.604	29095
422.679	61518
422.755	26429
422.830	3690
422.905	527
422.981	-17
423.056	-169
423.131	106
423.207	-96
423.282	-15
423.357	1666
423.432	300
423.508	1865
423.583	2491
423.658	2392
423.733	742
423.808	2600
423.883	1749
423.959	373
424.034	-366
424.109	541
424.184	-765
424.259	-238
424.334	-498
424.409	-1053
424.484	-33
424.559	-79
424.634	-892
424.709	553
424.784	741
424.859	829
424.934	1512
425.009	6220
425.084	11278
425.159	3608
425.234	495
425.309	-92
425.384	3841
425.459	5773
425.534	735
425.609	1875
425.683	326
425.758	246
425.833	202
425.908	1618
425.983	3361
426.058	11788
426.132	5097
426.207	1943
426.282	6569
426.357	5988
426.431	732
426.506	1547
426.581	1491
426.655	917
426.730	237
426.805	-282
426.879	385
426.954	1248
427.029	1721
427.103	14502
427.178	32611
427.253	14204
427.327	2605
427.402	6069
427.476	13375
427.551	5052
427.625	2367
427.700	2318
427.774	253
427.849	1924
427.923	175
427.998	99
428.072	251
428.147	3866
428.221	6953
428.296	8883
428.370	1964
428.444	2293
428.519	7012
428.593	17803
428.667	15797
428.742	17751
428.816	13001
428.890	20483
428.965	21573
429.039	15254
429.113	19425
429.188	5849
429.262	-184
429.336	2277
429.410	6109
429.485	6311
429.559	13869
429.633	11074
429.707	2421
429.781	7371
429.855	30164
429.930	34126
430.004	41080
430.078	73018
430.152	47403
430.226	9715
430.300	3966
430.374	657
430.448	3986
430.522	23826
430.596	62838
430.670	29469
430.744	21124
430.818	30968
430.892	8074
430.966	932
431.040	1248
431.114	41
431.188	712
431.262	665
431.336	1004
431.410	8164
431.484	18920
431.557	9239
431.631	125
431.705	50
431.779	937
431.853	5901
431.927	3564
432.000	-40
432.074	415
432.148	2446
432.222	2423
432.295	577
432.369	-196
432.443	2922
432.516	18893
432.590	36668
432.664	13460
432.737	1171
432.811	-568
432.885	-339
432.958	1027
433.032	16
433.106	-57
433.179	-419
433.253	19
433.326	-1158
433.400	-148
433.473	-216
433.547	-580
433.620	99
433.694	-232
433.767	1696
433.841	903
433.914	-60
433.988	-140
434.061	219
434.134	-288
434.208	-590
434.281	-628
434.355	-280
434.428	422
434.501	81
434.575	610
434.648	962
434.721	-874
434.795	-1262
434.868	-345
434.941	53
435.014	-627
435.088	-525
435.161	210
435.234	995
435.307	244
435.381	-552
435.454	152
435.527	-402
435.600	-744
435.673	448
435.746	-1264
435.819	88
435.892	-35
435.966	178
436.039	308
436.112	521
436.185	-72
436.258	-34
436.331	-1135
436.404	-388
436.477	-225
436.550	-175
436.623	-349
436.696	-682
436.769	-137
436.842	-354
436.915	705
436.987	800
437.060	-231
437.133	-358
437.206	-778
437.279	1448
437.352	-450
437.425	-276
437.498	775
437.570	1284
437.643	528
437.716	22
437.789	-360
437.861	1188
437.934	4158
438.007	1384
438.080	-899
438.152	60
438.225	2885
438.298	22431
438.370	52678
438.443	20327
438.516	3095
438.588	801
438.661	-661
438.734	845
438.806	198
438.879	821
438.951	-306
439.024	2098
439.096	-97
439.169	-324
439.241	-458
439.314	391
439.386	2626
439.459	5408
439.531	6532
439.604	1362
439.676	-635
439.749	-152
439.821	-929
439.893	302
439.966	690
440.038	808
440.110	640
440.183	333
440.255	-168
440.327	1444
440.400	11913
440.472	35022
440.544	19165
440.617	2398
440.689	2210
440.761	2882
440.833	3376
440.905	1352
440.978	-266
441.050	-738
441.122	467
441.194	-808
441.266	231
441.338	-174
441.411	1549
441.483	8837
441.555	10552
441.627	2999
441.699	3652
441.771	5095
441.843	388
441.915	20
441.987	-344
442.059	-354
442.131	233
442.203	2421
442.275	2488
442.347	2507
442.419	644
442.491	436
442.563	2862
442.635	7670
442.706	17643
442.778	12282
442.850	461
442.922	469
442.994	1019
443.066	2248
443.137	1512
443.209	314
443.281	947
443.353	2791
443.425	6411
443.496	3610
443.568	2433
443.640	2184
443.711	1373
443.783	577
443.855	-472
443.926	-416
443.998	975
444.070	3560
444.141	1559
444.213	936
444.285	2103
444.356	1964
444.428	3289
444.499	104
444.571	-701
444.642	-213
444.714	-71
444.785	1143
444.857	6009
444.928	16063
445.000	9441
445.071	10983
445.143	11396
445.214	2521
445.285	7749
445.357	22204
445.428	15104
445.500	16665
445.571	20168
445.642	8126
445.714	15199
445.785	24587
445.856	4981
445.928	387
445.999	505
446.070	1321
446.141	767
446.213	1836
446.284	1275
446.355	3202
446.426	1790
446.497	1486
446.569	4552
446.640	5894
446.711	1605
446.782	148
446.853	3114
446.924	2662
446.995	531
447.066	2632
447.138	6002
447.209	3102
447.280	-376
447.351	-5
447.422	-459
447.493	1828
447.564	1824
447.635	728
447.706	456
447.777	-411
447.847	580
447.918	219
447.989	2232
448.060	4739
448.131	11248
448.202	8198
448.273	2635
448.344	1512
448.414	366
448.485	-113
448.556	813
448.627	20
448.698	1120
448.768	-45
448.839	1042
448.910	5423
448.981	5167
449.051	568
449.122	-39
449.193	-271
449.263	432
449.334	233
449.405	292
449.475	2547
449.546	2535
449.616	6589
449.687	5243
449.758	1086
449.828	662
449.899	52
449.969	-260
450.040	92
450.110	1471
450.181	3120
450.251	-311
450.322	658
450.392	1234
450.463	873
450.533	70
450.604	232
450.674	-138
450.744	338
450.815	358
450.885	72
450.955	265
451.026	-95
451.096	-318
451.166	2259
451.237	7880
451.307	19687
451.377	7577
451.447	149
451.518	-180
451.588	960
451.658	1305
451.728	4226
451.799	21937
451.869	24211
451.939	4982
452.009	956
452.079	760
452.149	1362
452.219	6093
452.289	24826
452.360	17694
452.430	2438
452.500	1047
452.570	1421
452.640	2794
452.710	12150
452.780	20085
452.850	8093
452.920	3444
452.990	1233
453.060	897
453.129	1847
453.199	4484
453.269	25276
453.339	49416
453.409	73600
453.479	78662
453.549	116735
453.619	124373
453.688	48442
453.758	7563
453.828	2614
453.898	1526
453.968	1969
454.037	1105
454.087	1012
454.107	953
454.168	471
454.177	380
454.247	675
454.249	702
454.316	703
454.330	1334
454.386	3477
454.411	7059
454.456	12835
454.492	15917
454.525	18764
454.574	9434
454.595	5403
454.655	2069
454.665	1542
454.734	2272
454.736	2455
454.804	6455
454.817	9684
454.873	22169
454.898	23873
454.943	27060
454.979	17869
455.013	9845
455.060	5855
455.082	4167
455.141	5182
455.152	5288
455.221	18191
455.222	18483
455.291	31975
455.303	30606
455.360	24054
455.384	29042
455.430	35943
455.465	28824
455.499	22701
455.546	21976
455.569	21319
455.627	14445
455.638	13379
455.707	2300
455.708	2324
455.777	2479
455.789	2466
455.846	2503
455.869	2303
455.916	1771
455.950	1713
455.985	1549
456.031	2033
456.054	2274
456.112	2125
456.124	2146
456.193	2212
456.193	2186
456.262	2595
456.274	2916
456.332	4085
456.355	4207
456.401	4170
456.436	3539
456.470	3160
456.516	1721
456.540	980
456.597	863
456.609	821
456.678	1563
456.678	1547
456.747	1098
456.759	1071
456.817	1335
456.840	1363
456.886	1043
456.920	1001
456.955	1163
457.001	1249
457.024	1337
457.082	2782
457.093	2996
457.162	4214
457.163	4241
457.232	6174
457.243	5800
457.301	4060
457.324	3164
457.370	1550
457.405	1587
457.439	1704
457.485	1556
457.508	1433
457.566	2273
457.577	2455
457.646	2074
457.647	2098
457.715	2530
457.727	2488
457.784	2242
457.808	2185
457.853	2324
457.889	2418
457.922	2433
457.969	2853
457.991	2904
458.050	3033
458.060	3025
458.129	3345
458.130	3349
458.198	2833
458.211	2570
458.267	1471
458.292	1662
458.336	2177
458.372	1962
458.405	1896
458.453	2844
458.474	3044
458.533	3185
458.543	3337
458.611	4831
458.614	4886
458.680	3949
458.694	3590
458.749	3212
458.775	3225
458.818	2861
458.855	2676
458.887	2641
458.936	2719
458.955	2683
459.016	2744
459.024	2824
459.093	3611
459.097	3629
459.162	3168
459.177	3273
459.230	4027
459.257	4062
459.299	3797
459.338	3913
459.368	4112
459.418	4691
459.437	4555
459.499	3623
459.505	3634
459.574	3645
459.579	3651
459.643	3331
459.659	3269
459.711	3084
459.740	3343
459.780	3705
459.820	3823
459.849	3986
459.900	4459
459.917	4526
459.981	4938
459.986	4949
460.054	4645
460.061	4622
460.123	4323
460.141	4307
460.191	4909
460.222	5253
460.260	5174
460.302	4922
460.328	4636
460.382	4208
460.397	4154
460.462	4458
460.465	4575
460.534	7115
460.543	7387
460.602	11582
460.623	13556
460.671	19509
460.703	24499
460.739	20384
460.783	13052
460.808	11459
460.864	5867
460.876	5384
460.944	4701
460.945	4685
461.013	4457
461.024	4375
461.081	4153
461.104	4229
461.150	4326
461.184	4158
461.218	3952
461.264	4225
461.286	4479
461.345	4488
461.355	4564
461.423	5492
461.425	5511
461.491	6112
461.505	6305
461.559	11976
461.585	14692
461.628	20169
461.665	26402
461.696	27321
461.745	31994
461.764	29638
461.825	11850
461.832	11410
461.901	5899
461.905	5870
461.969	5242
461.985	5245
462.037	5869
462.065	6039
462.105	7295
462.145	9057
462.173	11513
462.225	15473
462.241	16357
462.305	22623
462.310	22033
462.378	12390
462.385	10605
462.446	6715
462.465	6341
462.514	5895
462.545	6016
462.582	5588
462.625	5365
462.650	5549
462.705	5558
462.718	5823
462.785	7491
462.786	7530
462.854	9857
462.865	10286
462.922	11782
462.945	12610
462.990	10403
463.025	7382
463.058	6680
463.104	5864
463.126	5558
463.184	5668
463.194	5805
463.262	6499
463.264	6521
463.330	6508
463.344	6521
463.398	7460
463.424	7856
463.466	7269
463.504	6943
463.533	7482
463.583	7959
463.601	7936
463.663	7820
463.669	8067
463.737	11330
463.743	11605
463.805	18084
463.823	20076
463.873	29184
463.903	35270
463.940	34295
463.982	34071
464.008	28849
464.062	13524
464.076	12719
464.142	7567
464.144	7477
464.211	6904
464.221	6872
464.279	6709
464.301	6566
464.347	7910
464.381	9142
464.414	9838
464.461	10610
464.482	10773
464.540	11698
464.550	11432
464.617	8744
464.620	8628
464.685	9874
464.699	10221
464.753	12099
464.779	13163
464.820	15050
464.859	16703
464.888	15794
464.938	14074
464.956	14369
465.018	15495
465.023	15338
465.091	12802
465.098	12490
465.158	12092
465.177	12076
465.226	11990
465.257	11896
465.293	12271
465.336	12552
465.361	13066
465.416	14378
465.428	15911
465.495	23954
465.496	24070
465.563	36156
465.575	38358
465.631	42425
465.654	44321
465.698	28856
465.734	14447
465.765	13366
465.813	11847
465.833	11154
465.893	10100
465.900	10195
465.968	10776
465.972	10807
466.035	9903
466.052	9609
466.102	10296
466.131	10690
466.170	11023
466.210	11290
466.237	11483
466.290	11909
466.304	11925
466.369	11749
466.372	11788
466.439	12413
466.449	12450
466.506	13692
466.528	14200
466.573	21986
466.607	27736
466.641	36348
466.687	48309
466.708	50408
466.766	56412
466.775	52056
466.842	18216
466.845	16574
466.909	13636
466.925	13062
466.977	13320
467.004	13511
467.044	14883
467.083	16199
467.111	17773
467.163	20638
467.178	20959
467.242	22107
467.245	22018
467.312	19279
467.321	18881
467.379	19493
467.400	19656
467.446	21042
467.480	21974
467.559	19583
467.638	17414
467.717	17299
467.796	17172
467.875	18529
467.955	19843
468.034	35482
468.113	60587
468.192	76117
468.271	19176
468.350	15606
468.429	15533
468.508	14239
468.588	15254
468.667	16354
468.746	16451
468.825	16623
468.904	15077
468.983	19209
469.062	27181
469.141	28686
469.220	15056
469.299	16312
469.378	17355
469.456	22021
469.535	18107
469.614	17827
469.693	19800
469.772	24006
469.851	30512
469.930	18890
470.009	15882
470.088	15767
470.166	15322
470.245	16701
470.324	15334
470.403	17135
470.482	15594
470.560	14671
470.639	14449
470.718	17402
470.797	15356
470.875	18175
470.954	23085
471.033	23989
471.111	12765
471.190	14175
471.269	13251
471.347	14732
471.426	15701
471.505	18685
471.583	18391
471.662	17652
471.740	15198
471.819	15393
471.898	15416
471.976	15269
472.055	15199
472.133	17253
472.212	21549
472.290	21915
472.369	14810
472.447	14500
472.526	12771
472.604	15046
472.683	14311
472.761	13931
472.839	13882
472.918	13290
472.996	16112
473.075	15483
473.153	15926
473.231	15018
473.310	16109
473.388	15147
473.466	14889
473.545	15838
473.623	16464
473.701	15851
473.780	13546
473.858	13129
473.936	15782
474.014	14438
474.093	16761
474.171	22173
474.249	27360
474.327	17260
474.405	12317
474.484	12452
474.562	12566
474.640	13155
474.718	13575
474.796	13193
474.874	11744
474.952	10834
475.030	10912
475.108	11695
475.187	11243
475.265	11591
475.343	14241
475.421	15354
475.499	12694
475.577	14697
475.655	20239
475.733	35068
475.811	54318
475.889	46985
475.966	26210
476.044	14313
476.122	15594
476.200	15234
476.278	14632
476.356	13528
476.434	14701
476.512	15649
476.590	15717
476.667	15323
476.745	13063
476.823	14741
476.901	14617
476.979	15105
477.056	14624
477.134	14719
477.212	13815
477.290	13684
477.367	12603
477.445	13538
477.523	12497
477.601	13150
477.678	13308
477.756	16737
477.834	16889
477.911	13828
477.989	12685
478.066	12958
478.144	14417
478.222	13349
478.299	13937
478.377	13948
478.454	11372
478.532	12264
478.609	11430
478.687	13644
478.764	11649
478.842	12286
478.919	12478
478.997	11804
479.074	12174
479.152	15327
479.229	17535
479.307	11619
479.384	10050
479.461	11200
479.539	11695
479.616	13808
479.694	11716
479.771	14081
479.848	13817
479.926	17146
480.003	17315
480.080	12013
480.157	11153
480.235	11281
480.312	11564
480.389	15454
480.467	22609
480.544	23950
480.621	14550
480.698	14315
480.775	16080
480.853	15747
480.930	12615
481.007	14229
481.084	15395
481.161	14533
481.238	14320
481.315	11886
481.392	12214
481.470	12520
481.547	12947
481.624	12004
481.701	12946
481.778	13236
481.855	15479
481.932	22902
482.009	32225
482.086	18795
482.163	12066
482.240	12754
482.317	14180
482.393	14066
482.470	12776
482.547	12409
482.624	10778
482.701	12777
482.778	11444
482.855	10428
482.932	10871
483.009	10605
483.085	11773
483.162	12118
483.239	11275
483.316	10414
483.393	11302
483.469	12129
483.546	13597
483.623	14718
483.699	11747
483.776	12118
483.853	13036
483.930	24715
484.006	52245
484.083	78852
484.160	46414
484.236	67899
484.313	47054
484.389	37653
484.466	33151
484.543	32694
484.619	30988
484.696	35001
484.772	36459
484.849	37161
484.925	32100
485.002	32331
485.078	33216
485.155	32360
485.231	30193
485.308	30750
485.384	31978
485.461	38427
485.537	54832
485.614	56960
485.690	30527
485.766	27610
485.843	28341
485.919	31206
485.995	30438
486.072	27243
486.148	26242
486.224	26688
486.301	27179
486.377	30696
486.453	29991
486.530	32717
486.606	42489
486.682	45082
486.758	49395
486.835	51704
486.911	46460
486.987	65434
487.063	45866
487.139	43614
487.215	36096
487.292	29860
487.368	27410
487.444	30324
487.520	31651
487.596	26247
487.672	27984
487.748	31288
487.824	29304
487.900	26946
487.976	27856
488.052	27780
488.128	31077
488.204	28276
488.280	26991
488.356	34891
488.432	61894
488.508	77921
488.584	28088
488.660	24315
488.736	23684
488.812	25126
488.888	28494
488.964	32346
489.039	41966
489.115	49556
489.191	32389
489.267	25021
489.343	24458
489.418	22101
489.494	21835
489.570	21090
489.646	22380
489.722	22968
489.797	24031
489.873	39984
489.949	66329
490.024	46382
490.100	20690
490.176	21240
490.251	21639
490.327	24169
490.403	17621
490.478	19116
490.554	17391
490.629	18732
490.705	16950
490.781	19838
490.856	19009
490.932	19821
491.007	18490
491.083	20222
491.158	18214
491.234	30364
491.309	51763
491.385	44269
491.460	19155
491.536	20458
491.611	16725
491.686	18589
491.762	20228
491.837	29151
491.913	42533
491.988	53935
492.063	51083
492.139	31817
492.214	22622
492.289	15091
492.365	14784
492.440	17473
492.515	16623
492.590	18179
492.666	14404
492.741	22643
492.816	28479
492.891	16372
492.967	14895
493.042	13355
493.117	14927
493.192	16413
493.267	35652
493.342	83836
493.418	86680
493.493	16388
493.568	12252
493.643	14353
493.718	17422
493.793	22590
493.868	19297
493.943	12324
494.018	13799
494.093	14103
494.168	13082
494.243	11917
494.318	11873
494.393	12904
494.468	11508
494.543	11348
494.618	13616
494.693	11404
494.768	12437
494.842	12216
494.917	11029
494.992	12463
495.067	10845
495.142	11672
495.217	11814
495.292	12367
495.366	14870
495.441	17314
495.516	20272
495.591	26062
495.665	52509
495.740	82918
495.815	33060
495.890	18766
495.964	16820
496.039	21238
496.114	15903
496.188	17789
496.263	17268
496.338	16518
496.412	19555
496.487	21938
496.561	18865
496.636	19456
496.710	18117
496.785	20231
496.860	21777
496.934	17372
497.009	15952
497.083	17108
497.158	17353
497.232	21160
497.307	22831
497.381	18888
497.455	23492
497.530	28375
497.604	19214
497.679	22140
497.753	31479
497.827	33073
497.902	26890
497.976	40135
498.050	123912
498.125	350798
498.199	248209
498.273	31511
498.348	21797
498.422	21628
498.496	20985
498.570	20143
498.645	19125
498.719	20509
498.793	24955
498.867	39970
498.941	61819
499.016	181963
499.090	349608
499.164	80094
499.238	18240
499.312	17370
499.386	19038
499.460	18467
499.534	18656
499.609	23760
499.683	33989
499.757	36170
499.831	96846
499.905	271945
499.979	182041
500.053	40105
500.127	34904
500.201	20950
500.275	19103
500.349	18572
500.422	20878
500.496	27755
500.570	56928
500.644	163998
500.718	239652
500.792	40339
500.866	21337
500.940	28288
501.013	21104
501.087	21185
501.161	28052
501.235	43816
501.309	122814
501.382	270932
501.456	165712
501.530	54614
501.603	86123
501.677	28299
501.751	17383
501.825	23403
501.898	50396
501.972	110224
502.046	50786
502.119	23758
502.193	58134
502.266	115684
502.340	47865
502.413	65387
502.487	99047
502.561	49864
502.634	17891
502.708	14846
502.781	12978
502.855	12906
502.928	12101
503.002	13536
503.075	12290
503.149	14500
503.222	13617
503.295	15629
503.369	18211
503.442	30902
503.516	102807
503.589	196959
503.662	101779
503.736	44988
503.809	96128
503.882	70752
503.956	115207
504.029	70293
504.102	18899
504.175	16669
504.249	11724
504.322	17111
504.395	14958
504.468	12421
504.542	13321
504.615	10306
504.688	10150
504.761	9725
504.834	12931
504.907	12629
504.980	15037
505.053	12859
505.127	12012
505.200	18934
505.273	18891
505.346	13033
505.419	9831
505.492	10803
505.565	9697
505.638	9763
505.711	9721
505.784	9318
505.857	9045
505.930	12666
506.003	9501
506.076	13479
506.149	15180
506.221	17200
506.294	20007
506.367	57718
506.440	142631
506.513	51823
506.586	17354
506.659	11236
506.731	9645
506.804	11165
506.877	12418
506.950	11495
507.022	10491
507.095	13894
507.168	14498
507.241	9814
507.313	6936
507.386	8267
507.459	10864
507.531	8941
507.604	8093
507.677	9978
507.749	6898
507.822	12831
507.894	21148
507.967	25152
508.040	16121
508.112	15136
508.185	14656
508.257	12827
508.330	16362
508.402	13795
508.475	14678
508.547	14980
508.620	16714
508.692	22168
508.765	14005
508.837	10957
508.909	12376
508.982	13457
509.054	12936
509.127	11617
509.199	11526
509.271	11634
509.344	10717
509.416	10770
509.488	10884
509.560	12372
509.633	11114
509.705	12904
509.777	14010
509.849	15618
509.922	12124
509.994	14631
510.066	13901
510.138	16600
510.210	29601
510.283	22884
510.355	18817
510.427	17811
510.499	16286
510.571	15772
510.643	15741
510.715	18463
510.787	14579
510.859	16764
510.931	16418
511.003	18012
511.076	16928
511.148	14923
511.219	17038
511.291	27262
511.363	24912
511.435	14380
511.507	14102
511.579	14543
511.651	13749
511.723	13860
511.795	12388
511.867	12783
511.939	18593
512.010	30594
512.082	20768
512.154	12053
512.226	13890
512.298	23187
512.369	26259
512.441	19243
512.513	17661
512.585	14781
512.656	17192
512.728	15629
512.800	14376
512.871	14864
512.943	14761
513.015	12190
513.086	14108
513.158	14011
513.230	13893
513.301	16588
513.373	15129
513.444	13292
513.516	12977
513.588	12702
513.659	13469
513.731	14566
513.802	11538
513.874	20605
513.945	21278
514.016	11863
514.088	11750
514.159	13728
514.231	16575
514.302	22804
514.374	18397
514.445	20192
514.516	37744
514.588	22056
514.659	20112
514.730	32966
514.802	18865
514.873	12888
514.944	15000
515.016	14763
515.087	15193
515.158	24427
515.229	27571
515.301	12627
515.372	14418
515.443	11598
515.514	11696
515.585	11181
515.656	12171
515.728	12182
515.799	10788
515.870	11572
515.941	11503
516.012	12607
516.083	17962
516.154	16819
516.225	15896
516.296	17346
516.367	13631
516.438	14576
516.509	14912
516.580	21096
516.651	54013
516.722	110915
516.793	44574
516.864	25054
516.935	24747
517.006	25963
517.077	31495
517.148	55481
517.219	135065
517.289	162528
517.360	141653
517.431	43919
517.502	19055
517.573	20035
517.643	20964
517.714	21432
517.785	20843
517.856	20166
517.926	21760
517.997	21062
518.068	21458
518.138	25775
518.209	34585
518.280	109359
518.350	238868
518.421	61721
518.492	21854
518.562	20097
518.633	20353
518.703	16712
518.774	19612
518.845	21153
518.915	18780
518.986	18704
519.056	22373
519.127	33010
519.197	62817
519.268	155953
519.338	73488
519.408	24776
519.479	20858
519.549	16763
519.620	17370
519.690	14815
519.760	15351
519.831	14883
519.901	14185
519.971	14412
520.042	15785
520.112	17325
520.182	16670
520.253	16566
520.323	15369
520.393	20798
520.463	24048
520.534	21104
520.604	33230
520.674	19350
520.744	21049
520.814	35810
520.885	32406
520.955	75943
521.025	179423
521.095	47129
521.165	16346
521.235	15147
521.305	13384
521.375	13397
521.445	13984
521.515	13159
521.585	16040
521.655	11868
521.725	13828
521.795	14353
521.865	12124
521.935	23962
522.005	16728
522.075	11493
522.145	14098
522.215	15302
522.285	21011
522.355	30290
522.424	53242
522.494	35958
522.564	16803
522.634	26495
522.704	43591
522.774	16448
522.843	12483
522.913	11579
522.983	12003
523.053	10283
523.122	11575
523.192	12886
523.262	27499
523.331	19985
523.401	11616
523.471	9658
523.540	11191
523.610	8645
523.680	10592
523.749	10986
523.819	15334
523.888	12366
523.958	10334
524.027	12039
524.097	12817
524.166	11109
524.236	9765
524.305	13359
524.375	9340
524.444	10122
524.514	12917
524.583	11906
524.653	15038
524.722	16665
524.791	10044
524.861	12806
524.930	9540
524.999	10305
525.069	13802
525.138	13583
525.207	15774
525.277	10859
525.346	10683
525.415	11480
525.484	10882
525.554	12225
525.623	10997
525.692	9365
525.761	10562
525.830	8936
525.900	9199
525.969	12143
526.038	11810
526.107	9910
526.176	14364
526.245	11254
526.314	15844
526.383	16336
526.452	11337
526.522	22797
526.591	30098
526.660	21689
526.729	11857
526.797	18157
526.867	40836
526.935	120196
527.004	60349
527.073	20692
527.142	9673
527.211	9835
527.280	10331
527.349	9787
527.418	6830
527.487	9739
527.555	8334
527.624	8175
527.693	7485
527.762	8818
527.831	6944
527.899	8904
527.968	8355
528.037	8131
528.106	10860
528.174	12914
528.243	14098
528.312	20083
528.380	16143
528.449	9127
528.518	9910
528.586	6360
528.655	8659
528.723	8296
528.792	7641
528.861	8734
528.929	7593
528.998	8948
529.066	6251
529.135	8591
529.203	6512
529.272	7202
529.340	7285
529.409	9633
529.477	6977
529.545	11371
529.614	12122
529.682	13905
529.751	13727
529.819	15111
529.887	8197
529.956	7059
530.024	7479
530.092	6475
530.161	8248
530.229	9766
530.297	6607
530.365	8159
530.434	6741
530.502	5931
530.570	6679
530.638	5544
530.707	7860
530.775	9101
530.843	7860
530.911	7727
530.979	7305
531.047	7052
531.115	8359
531.183	7114
531.252	7998
531.320	8657
531.388	6808
531.456	8320
531.524	5756
531.592	7736
531.660	9521
531.728	7135
531.796	6786
531.864	7211
531.932	7117
532.000	7504
532.067	7096
532.135	8667
532.203	9651
532.271	9682
532.339	15192
532.407	21337
532.475	11998
532.542	10858
532.610	10588
532.678	15445
532.746	53130
532.814	74654
532.881	15966
532.949	9264
533.017	8591
533.084	7718
533.152	6985
533.220	8467
533.287	6482
533.355	7840
533.423	8020
533.490	7416
533.558	8205
533.625	9218
533.693	9383
533.761	9630
533.828	9403
533.896	10240
533.963	17216
534.031	17710
534.098	18271
534.166	11965
534.233	9954
534.300	12156
534.368	11953
534.435	9788
534.503	9827
534.570	8688
534.637	7547
534.705	7548
534.772	8546
534.840	7239
534.907	10913
534.974	9140
535.041	8541
535.109	10380
535.176	7507
535.243	7871
535.310	7155
535.378	7305
535.445	6756
535.512	7003
535.579	8655
535.646	7347
535.714	9470
535.781	12829
535.848	11372
535.915	15226
535.982	14653
536.049	13639
536.116	12799
536.183	9839
536.250	9572
536.317	9444
536.384	10479
536.451	11178
536.518	10686
536.585	7981
536.652	12637
536.719	12754
536.786	9029
536.853	9310
536.920	14583
536.987	16626
537.053	16976
537.120	52947
537.187	26203
537.254	8126
537.321	7799
537.388	9044
537.454	7344
537.521	7659
537.588	7289
537.654	11606
537.721	10417
537.788	10611
537.855	7964
537.921	8940
537.988	7830
538.055	9616
538.121	8303
538.188	9408
538.254	10604
538.321	14691
538.388	10549
538.454	8639
538.521	8024
538.587	8158
538.654	7811
538.720	7532
538.787	8706
538.853	9229
538.920	10158
538.986	10984
539.053	9603
539.119	9514
539.185	8776
539.252	11170
539.318	9820
539.385	12409
539.451	10499
539.517	11542
539.583	12695
539.650	25482
539.716	33424
539.782	12208
539.849	7121
539.915	9449
539.981	8897
540.047	9323
540.114	9398
540.180	10144
540.246	8302
540.312	10460
540.378	15652
540.444	15506
540.510	22944
540.576	35628
540.643	11074
540.709	7925
540.775	8974
540.841	9655
540.907	15583
540.973	19218
541.039	14230
541.105	11635
541.171	8532
541.237	9369
541.303	10495
541.369	11533
541.435	11233
541.500	14908
541.566	8565
541.632	8741
541.698	7483
541.764	9416
541.830	7314
541.896	8246
541.961	9360
542.027	8364
542.093	8544
542.159	9975
542.224	9770
542.290	13983
542.356	14638
542.421	14452
542.487	11149
542.553	10280
542.618	11748
542.684	8417
542.750	9048
542.815	11877
542.881	17488
542.947	37735
543.012	19118
543.078	8260
543.143	8899
543.209	10001
543.274	8987
543.340	10867
543.405	19174
543.471	18690
543.536	9284
543.602	10009
543.667	8080
543.732	11277
543.798	8251
543.863	9994
543.928	8244
543.994	8200
544.059	8592
544.124	8492
544.190	8816
544.255	8489
544.320	8255
544.386	7925
544.451	11641
544.516	9856
544.581	14038
544.646	30299
544.712	29875
544.777	12754
544.842	14607
544.907	14799
544.972	12661
545.037	13299
545.102	14584
545.168	14017
545.233	13612
545.298	15696
545.363	16273
545.428	16501
545.493	23054
545.558	29222
545.623	16566
545.688	13349
545.753	13321
545.818	12543
545.883	14786
545.947	13723
546.012	15733
546.077	14600
546.142	14121
546.207	12722
546.272	14218
546.337	13388
546.401	14591
546.466	14514
546.531	12631
546.596	14648
546.661	11891
546.725	13744
546.790	11550
546.855	11893
546.919	10800
546.984	13033
547.049	12569
547.113	15211
547.178	11863
547.243	14229
547.307	15219
547.372	17142
547.436	16348
547.501	12214
547.565	12476
547.630	13437
547.695	13698
547.759	19447
547.823	14257
547.888	13184
547.952	12181
548.017	12715
548.081	16217
548.146	20417
548.210	15250
548.274	12072
548.339	11048
548.403	11547
548.468	10128
548.532	11255
548.596	12076
548.660	11106
548.725	11586
548.789	14791
548.853	15591
548.917	12961
548.982	20576
549.046	17717
549.110	10686
549.174	11705
549.238	10506
549.303	9798
549.367	11848
549.431	11116
549.495	11251
549.559	11000
549.623	11247
549.687	13219
549.751	15583
549.815	12495
549.879	13112
549.943	10849
550.007	13307
550.071	13358
550.135	13743
550.199	11981
550.263	12907
550.327	17897
550.391	18447
550.455	13350
550.519	12385
550.582	13539
550.646	14213
550.710	14122
550.774	12199
550.838	13636
550.901	12667
550.965	13646
551.029	13297
551.093	16410
551.156	23491
551.220	48352
551.284	35779
551.347	25788
551.411	66796
551.475	47746
551.538	13796
551.602	12644
551.666	11179
551.729	10256
551.793	12098
551.856	12231
551.920	11906
551.983	12524
552.047	11829
552.110	11201
552.174	11818
552.237	11045
552.301	11227
552.364	11151
552.428	10413
552.491	10915
552.554	10679
552.618	12069
552.681	11657
552.745	11683
552.808	14644
552.871	16001
552.934	11748
552.998	12314
553.061	13379
553.124	12532
553.187	12738
553.251	14918
553.314	14714
553.377	16144
553.440	29942
553.503	99293
553.567	89440
553.630	16986
553.693	12530
553.756	11939
553.819	10802
553.882	11090
553.945	11212
554.008	10242
554.071	9770
554.134	10832
554.197	10433
554.260	10084
554.323	12011
554.386	11316
554.449	10230
554.512	11108
554.575	10668
554.638	12353
554.701	10106
554.764	10748
554.827	10606
554.889	9685
554.952	9218
555.015	10254
555.078	9399
555.141	9967
555.203	8496
555.266	10130
555.329	10521
555.391	9744
555.454	10596
555.517	11220
555.580	9647
555.642	9616
555.705	8563
555.768	10327
555.830	9124
555.893	9637
555.955	9826
556.018	11219
556.080	9048
556.143	9296
556.206	9771
556.268	10615
556.330	10554
556.393	9748
556.455	11800
556.518	19405
556.580	14258
556.643	9623
556.705	9018
556.767	9690
556.830	11416
556.892	10515
556.955	12137
557.017	10624
557.079	9587
557.142	10244
557.204	9978
557.266	15934
557.328	12795
557.391	9597
557.453	8745
557.515	10198
557.577	11360
557.639	10759
557.701	9556
557.764	9103
557.826	9597
557.888	10947
557.950	8768
558.012	9235
558.074	9571
558.136	11012
558.198	11445
558.260	11157
558.322	9097
558.384	9222
558.446	9142
558.508	10435
558.570	11764
558.632	16465
558.694	15871
558.756	11847
558.818	17489
558.880	22449
558.942	10961
559.003	11230
559.065	9032
559.127	11033
559.189	9134
559.251	9497
559.312	10005
559.374	12966
559.436	17216
559.498	12500
559.559	9736
559.621	9790
559.683	12391
559.744	20397
559.806	25137
559.868	20616
559.929	14858
559.991	14389
560.052	14214
560.114	15323
560.176	12656
560.237	15332
560.299	13670
560.360	12803
560.422	13587
560.483	14440
560.545	12612
560.606	13077
560.667	13494
560.729	12618
560.790	12799
560.852	13177
560.913	12968
560.974	13280
561.036	12249
561.097	12331
561.158	12057
561.220	13507
561.281	12567
561.342	13766
561.403	13180
561.465	14955
561.526	23835
561.587	20884
561.648	12967
561.709	13419
561.771	13299
561.832	12936
561.893	12699
561.954	12184
562.015	12540
562.076	12960
562.137	12520
562.198	12829
562.259	13500
562.320	13183
562.381	13258
562.442	14047
562.503	13277
562.564	13464
562.625	12676
562.686	12429
562.747	12815
562.808	13528
562.869	15521
562.930	19750
562.991	16930
563.051	15850
563.112	13771
563.173	13615
563.234	12710
563.294	14175
563.355	12504
563.416	13073
563.477	13212
563.537	13801
563.598	14394
563.659	14987
563.720	14299
563.780	14287
563.841	13484
563.901	14254
563.962	13065
564.023	14222
564.083	13803
564.144	14434
564.204	13532
564.265	15637
564.325	18088
564.386	33619
564.446	22585
564.507	13431
564.567	11864
564.628	12596
564.688	12465
564.749	13183
564.809	15531
564.869	17493
564.930	12537
564.990	12307
565.050	11870
565.111	13387
565.171	12585
565.231	11855
565.292	12650
565.352	11160
565.412	13033
565.472	11943
565.532	12502
565.593	12240
565.653	11268
565.713	12527
565.773	11810
565.833	13093
565.893	13763
565.953	11713
566.013	11858
566.074	14263
566.134	20759
566.194	30126
566.254	23742
566.314	16538
566.374	12467
566.434	13792
566.494	13736
566.554	13245
566.614	12935
566.673	12185
566.733	13610
566.793	14881
566.853	14544
566.913	13981
566.973	14233
567.033	15597
567.092	13250
567.152	13445
567.212	13650
567.272	15093
567.331	14693
567.391	14888
567.451	16038
567.511	22138
567.570	18483
567.630	13635
567.690	12971
567.749	12074
567.809	13226
567.868	14578
567.928	14343
567.988	16447
568.047	14377
568.107	14560
568.166	16553
568.226	18505
568.285	21266
568.345	19825
568.404	17437
568.464	16116
568.523	14825
568.582	16719
568.642	16400
568.701	18644
568.761	23551
568.820	30537
568.879	29649
568.939	27363
568.998	19929
569.057	16977
569.116	15265
569.176	13627
569.235	12343
569.294	13383
569.353	12103
569.413	14047
569.472	12156
569.531	12658
569.590	11898
569.649	11586
569.708	10884
569.767	13278
569.827	13724
569.886	11378
569.945	10642
570.004	11573
570.063	11074
570.122	12267
570.181	12653
570.240	14572
570.299	13784
570.358	12616
570.417	10880
570.475	10990
570.534	11722
570.593	11536
570.652	11058
570.711	11702
570.770	11255
570.829	12643
570.887	11063
570.946	12100
571.005	10548
571.064	10976
571.122	10816
571.181	14014
571.240	10736
571.299	10453
571.357	12998
571.416	12217
571.475	15580
571.533	14802
571.592	12075
571.650	12569
571.709	9634
571.768	10464
571.826	10232
571.885	10582
571.943	10146
572.002	11144
572.060	10395
572.119	9597
572.177	9653
572.236	10229
572.294	10961
572.352	10349
572.411	8534
572.469	10292
572.528	9446
572.586	9183
572.644	11046
572.703	12039
572.761	11061
572.819	10316
572.877	10530
572.936	10327
572.994	9592
573.052	9479
573.110	9105
573.169	9352
573.227	8430
573.285	9760
573.343	8513
573.401	8949
573.459	9219
573.517	8964
573.576	9076
573.634	9742
573.692	9309
573.750	9865
573.808	9121
573.866	11905
573.924	15238
573.982	12865
574.040	8974
574.098	9440
574.155	8251
574.213	8912
574.271	8454
574.329	8763
574.387	8156
574.445	8472
574.503	8223
574.560	8625
574.618	7777
574.676	7753
574.734	8071
574.792	8225
574.849	7267
574.907	7909
574.965	7483
575.022	7697
575.080	7331
575.138	9026
575.195	8833
575.253	8554
575.311	8645
575.368	8478
575.426	7438
575.483	8404
575.541	8216
575.598	8432
575.656	9194
575.713	8732
575.771	7766
575.828	7549
575.886	8447
575.943	10308
576.001	9688
576.058	9482
576.115	10784
576.173	12602
576.230	13420
576.287	11816
576.345	11092
576.402	9993
576.459	9946
576.517	11237
576.574	11549
576.631	12635
576.688	10360
576.746	10147
576.803	9922
576.860	9614
576.917	10148
576.974	9800
577.031	9448
577.089	9221
577.146	9731
577.203	9714
577.260	11347
577.317	12451
577.374	13016
577.431	11488
577.488	9426
577.545	9116
577.602	9918
577.659	10525
577.716	10394
577.773	10985
577.830	9922
577.886	10237
577.943	8933
578.000	10390
578.057	11447
578.114	11944
578.171	13947
578.227	17744
578.284	15498
578.341	13345
578.398	11537
578.454	12256
578.511	13826
578.568	14404
578.625	10896
578.681	9929
578.738	9019
578.794	9744
578.851	9390
578.908	8759
578.964	10144
579.021	9845
579.077	8507
579.134	9185
579.190	9090
579.247	9386
579.303	8270
579.360	8155
579.416	7977
579.473	8551
579.529	8070
579.586	8736
579.642	8663
579.698	9420
579.755	9963
579.811	10125
579.867	9122
579.924	9069
579.980	10901
580.036	13354
580.093	16963
580.149	23134
580.205	22854
580.261	17429
580.317	14846
580.374	13665
580.430	13851
580.486	12021
580.542	9065
580.598	9465
580.619	9772
580.654	10317
580.692	9884
580.710	9687
580.765	8905
580.767	8891
580.823	9449
580.838	9401
580.879	9320
580.911	8932
580.935	8656
580.984	8844
580.991	8888
581.047	10093
581.057	10075
581.103	10031
581.130	11093
581.159	12223
581.203	13078
581.215	13324
581.270	11449
581.276	11437
581.326	11332
581.349	10990
581.382	10543
581.422	10661
581.438	10737
581.494	10360
581.494	10347
581.550	9737
581.567	10027
581.606	10627
581.640	9582
581.661	9010
581.713	10455
581.717	10575
581.773	9614
581.786	9733
581.829	10054
581.859	9660
581.885	9409
581.932	9452
581.940	9456
581.996	9772
582.004	9689
582.052	9255
582.077	9390
582.107	9536
582.150	9653
582.163	9719
582.219	10307
582.223	10227
582.274	9183
582.296	9534
582.330	10151
582.368	10028
582.386	10021
582.441	8937
582.441	8937
582.497	9141
582.514	9176
582.552	9382
582.587	9779
582.608	10037
582.659	9185
582.663	9107
582.719	9471
582.732	9364
582.774	9145
582.805	9080
582.830	9095
582.877	9112
582.885	9086
582.941	9575
582.950	9648
582.996	10037
583.023	10401
583.052	10972
583.095	12281
583.107	12645
583.162	15705
583.168	15672
583.218	15032
583.240	13836
583.273	11912
583.313	11074
583.328	10931
583.384	10703
583.385	10687
583.439	9938
583.458	9602
583.494	8815
583.531	8903
583.549	9121
583.603	9126
583.605	9115
583.660	8963
583.676	9235
583.715	10037
583.748	9642
583.770	9491
583.820	10116
583.825	10111
583.881	9122
583.893	8986
583.936	9139
583.965	9085
583.991	8719
584.038	9016
584.046	9144
584.101	9162
584.110	9329
584.156	9837
584.183	8879
584.211	7840
584.255	8132
584.266	8237
584.321	8429
584.328	8422
584.376	8377
584.400	8457
584.431	8577
584.472	8585
584.486	8555
584.541	8212
584.545	8209
584.596	8101
584.617	8320
584.651	8996
584.689	9443
584.706	9404
584.761	8332
584.762	8339
584.816	9459
584.834	9448
584.871	9163
584.906	9253
584.926	9307
584.978	8844
584.980	8838
585.035	10292
585.051	10384
585.090	10308
585.123	10591
585.145	10853
585.195	9827
585.200	9760
585.254	10300
585.267	10749
585.309	12359
585.340	13251
585.364	13329
585.412	11408
585.419	11180
585.473	9769
585.484	9806
585.528	10287
585.556	10565
585.583	10857
585.628	11060
585.637	11141
585.692	12472
585.700	12474
585.747	12185
585.772	11901
585.801	11345
585.845	10314
585.856	10033
585.910	10207
585.917	10077
585.965	9468
585.989	9632
586.019	9948
586.061	9969
586.074	10024
586.128	11235
586.133	11303
586.183	11782
586.205	12073
586.237	12380
586.277	12440
586.292	12564
586.346	12658
586.349	12668
586.401	12195
586.421	12465
586.455	13651
586.493	16339
586.509	18464
586.564	25835
586.565	26129
586.618	41311
586.637	40185
586.672	27536
586.709	18016
586.727	15387
586.781	12345
586.781	12337
586.835	11442
586.853	11375
586.889	11694
586.925	11489
586.944	11333
586.996	12478
586.998	12503
587.052	12545
587.068	12474
587.106	12191
587.140	12287
587.161	12348
587.212	12749
587.215	12787
587.269	13088
587.284	13147
587.323	12688
587.356	12718
587.377	12812
587.427	13074
587.431	13134
587.485	14011
587.499	14136
587.539	13792
587.571	13661
587.593	13896
587.643	15253
587.648	15366
587.702	15190
587.715	15500
587.755	16222
587.786	16391
587.810	16409
587.858	16274
587.864	16300
587.917	17639
587.930	17914
587.971	19844
588.001	21268
588.025	21588
588.073	21594
588.079	21624
588.133	22518
588.145	22819
588.187	24264
588.217	25526
588.241	27146
588.288	30788
588.295	31215
588.348	34428
588.360	35345
588.402	39195
588.431	42098
588.456	44830
588.503	50490
588.510	51361
588.564	60326
588.575	62654
588.617	71978
588.646	79509
588.671	88213
588.718	111342
588.725	116515
588.778	170260
588.789	185369
588.832	292841
588.861	385551
588.886	521128
588.932	784466
588.939	805066
588.993	870638
589.004	863723
589.047	545350
589.075	344774
589.100	255695
589.147	135161
589.154	129140
589.207	99585
589.218	94958
589.261	90906
589.290	91073
589.314	95974
589.361	112964
589.368	118887
589.421	180871
589.433	198633
589.475	340988
589.504	458072
589.528	579075
589.576	768215
589.582	744705
589.635	426770
589.647	364118
589.689	193715
589.718	96026
589.742	78671
589.790	52753
589.795	51839
589.849	46251
589.861	45673
589.902	46755
589.932	45346
589.955	38973
590.004	26928
590.009	26431
590.062	22489
590.075	21670
590.115	20702
590.146	19931
590.168	19702
590.218	19521
590.222	19482
590.275	19102
590.289	19026
590.328	18872
590.360	18544
590.381	17911
590.431	16742
590.435	16682
590.488	16089
590.503	15847
590.541	15854
590.574	15888
590.594	15577
590.645	15125
590.647	15129
590.700	15286
590.716	15348
590.753	14589
590.787	13906
590.806	13840
590.859	13959
590.859	13952
590.912	13961
590.930	14046
590.965	14164
591.001	14088
591.018	13789
591.071	13102
591.072	13102
591.124	13946
591.143	14215
591.177	13902
591.214	13659
591.230	13718
591.283	13947
591.285	13956
591.336	14188
591.356	14374
591.389	14140
591.427	13730
591.442	13444
591.495	12564
591.498	12509
591.547	13330
591.569	13694
591.600	13365
591.640	12888
591.653	13120
591.706	14258
591.711	14384
591.759	15075
591.782	15511
591.811	16483
591.853	17680
591.864	17297
591.917	15280
591.924	15011
591.969	14015
591.995	13483
592.022	13689
592.066	14064
592.075	14594
592.127	17893
592.137	18549
592.180	20854
592.208	22143
592.233	19630
592.279	14924
592.285	14724
592.338	13156
592.350	12809
592.390	12321
592.421	11998
592.443	12087
592.491	12317
592.495	12295
592.548	12206
592.562	12198
592.600	12632
592.633	13038
592.653	12618
592.704	11497
592.705	11602
592.775	13671
592.846	12956
592.916	12127
592.987	12922
593.058	13116
593.128	11796
593.199	12745
593.270	12072
593.341	11264
593.411	11319
593.482	11463
593.553	12147
593.623	11391
593.694	13045
593.764	14324
593.835	12161
593.906	11684
593.976	11305
594.047	13018
594.117	17641
594.188	17273
594.258	12053
594.329	11462
594.399	11061
594.470	10998
594.540	10820
594.611	10861
594.681	10256
594.751	11798
594.822	12185
594.892	12393
594.963	13629
595.033	12446
595.103	12256
595.174	15023
595.244	24819
595.314	33032
595.384	13503
595.455	11650
595.525	11740
595.595	11964
595.665	12154
595.736	12747
595.806	12176
595.876	11762
595.946	11437
596.016	10894
596.087	11593
596.157	11501
596.227	11271
596.297	12065
596.367	12547
596.437	15364
596.507	22762
596.577	30366
596.647	14464
596.717	11513
596.787	11226
596.857	10841
596.927	11523
596.997	11560
597.067	11631
597.137	13252
597.207	11901
597.277	11714
597.347	11563
597.417	10873
597.487	11553
597.557	12321
597.626	11374
597.696	13991
597.766	19328
597.836	27913
597.906	14645
597.975	11284
598.045	10724
598.115	11240
598.185	11387
598.254	12042
598.324	11257
598.394	10570
598.464	12067
598.533	10785
598.603	10797
598.672	11304
598.742	10682
598.812	11342
598.881	11052
598.951	9973
599.020	10150
599.090	10147
599.159	10642
599.229	9979
599.299	9620
599.368	9536
599.437	10429
599.507	10661
599.576	11296
599.646	11730
599.715	12150
599.785	10601
599.854	12174
599.924	15828
599.993	13060
600.062	11083
600.132	10166
600.201	10884
600.270	10800
600.340	10076
600.409	9207
600.478	10224
600.547	9295
600.617	10746
600.686	10774
600.755	9594
600.824	10438
600.894	10911
600.963	10961
601.032	9630
601.101	9527
601.170	10032
601.239	10018
601.308	10890
601.378	10079
601.447	9617
601.516	9538
601.585	9890
601.654	9407
601.723	9765
601.792	9122
601.861	9379
601.930	12750
601.999	10521
602.068	8122
602.137	8792
602.206	8967
602.275	9686
602.343	10355
602.412	9916
602.481	8916
602.550	9461
602.619	8479
602.688	9646
602.756	9479
602.825	8740
602.894	8522
602.963	7812
603.032	8957
603.100	8416
603.169	8369
603.238	8918
603.307	8815
603.375	8629
603.444	8432
603.513	9068
603.581	8804
603.650	8539
603.719	8195
603.787	8035
603.856	8080
603.924	8414
603.993	9125
604.061	7323
604.130	8288
604.198	8053
604.267	7941
604.335	8012
604.404	7525
604.472	7694
604.541	7844
604.609	7809
604.678	8312
604.746	7776
604.815	7754
604.883	8481
604.951	7865
605.020	7392
605.088	8394
605.156	7458
605.225	8664
605.293	7806
605.361	8720
605.429	7490
605.498	7193
605.566	7298
605.634	8021
605.702	7839
605.771	8161
605.839	8443
605.907	8317
605.975	8258
606.043	8065
606.111	7611
606.180	8443
606.248	9725
606.316	10900
606.384	9476
606.452	12538
606.520	10039
606.588	8372
606.656	7320
606.724	7571
606.792	7263
606.860	6543
606.928	6911
606.996	7050
607.064	6995
607.132	6814
607.200	6817
607.267	7774
607.335	5981
607.403	7403
607.471	6800
607.539	7127
607.607	6907
607.674	6950
607.742	7227
607.810	8024
607.878	7208
607.946	6736
608.013	7664
608.081	7735
608.149	6145
608.216	5831
608.284	7720
608.352	7196
608.419	8607
608.487	16138
608.555	9947
608.622	7074
608.690	6720
608.757	6258
608.825	7172
608.893	7863
608.960	7943
609.028	11333
609.095	17391
609.163	9269
609.230	7689
609.298	8550
609.365	6821
609.432	6586
609.500	6849
609.567	7116
609.635	7122
609.702	7374
609.769	7712
609.837	9910
609.904	8059
609.971	6143
610.039	8354
610.106	8314
610.173	10337
610.241	21562
610.308	34461
610.375	26252
610.442	8736
610.509	6994
610.577	7415
610.644	6721
610.711	7257
610.778	6770
610.845	7231
610.912	6798
610.980	8038
611.047	11648
611.114	8959
611.181	6932
611.248	4793
611.315	7875
611.382	5966
611.449	5812
611.516	7013
611.583	6436
611.650	6025
611.717	6467
611.784	6792
611.851	5922
611.918	7881
611.984	6872
612.051	9392
612.118	11102
612.185	17102
612.252	12136
612.319	7059
612.386	6732
612.452	6873
612.519	9960
612.586	17430
612.653	10637
612.719	6624
612.786	5357
612.853	5261
612.919	5026
612.986	5795
613.053	5393
613.120	5282
613.186	4913
613.253	6697
613.319	5772
613.386	5459
613.453	5885
613.519	7975
613.586	6996
613.652	9803
613.719	7945
613.785	7734
613.852	5887
613.918	6896
613.985	9682
614.051	15393
614.118	40115
614.184	36547
614.250	7990
614.317	6477
614.383	6407
614.449	4357
614.516	6297
614.582	6655
614.648	5549
614.715	5047
614.781	5027
614.847	6979
614.914	7433
614.980	6800
615.046	6054
615.112	6083
615.179	6321
615.245	6123
615.311	6599
615.377	7594
615.443	7625
615.509	6421
615.575	7098
615.642	6394
615.708	7806
615.774	7917
615.840	9533
615.906	11026
615.972	11531
616.038	12907
616.104	17519
616.170	26351
616.236	20061
616.302	12319
616.368	9675
616.434	9006
616.500	9586
616.565	9087
616.631	9362
616.697	8146
616.763	8863
616.829	9452
616.895	11475
616.961	10651
617.026	9837
617.092	8140
617.158	8882
617.224	8078
617.289	8296
617.355	7997
617.421	9651
617.487	10281
617.552	9612
617.618	7693
617.684	7481
617.749	9931
617.815	8741
617.880	8048
617.946	7584
618.012	8083
618.077	7703
618.143	8645
618.208	8987
618.274	8145
618.339	9000
618.405	7785
618.470	9688
618.536	9486
618.601	11888
618.667	10320
618.732	10205
618.798	9802
618.863	10000
618.928	9430
618.994	10824
619.059	11081
619.124	13029
619.190	11338
619.255	9607
619.320	10814
619.386	10170
619.451	9431
619.516	9798
619.581	10564
619.647	9421
619.712	9133
619.777	9582
619.842	10111
619.907	10718
619.972	9337
620.038	10220
620.103	9707
620.168	8720
620.233	10673
620.298	8535
620.363	8836
620.428	9699
620.493	9352
620.558	9440
620.623	8467
620.688	9393
620.753	7964
620.818	9611
620.883	8039
620.948	9081
621.013	9155
621.078	9135
621.143	8998
621.207	11953
621.272	10329
621.337	10740
621.402	13382
621.467	19086
621.532	20980
621.596	14130
621.661	12292
621.726	10755
621.791	11971
621.855	12899
621.920	13278
621.985	15353
622.049	18099
622.114	16630
622.179	14543
622.243	15105
622.308	13331
622.373	15264
622.437	12701
622.502	13049
622.566	13692
622.631	11799
622.695	13571
622.760	13407
622.824	12370
622.889	13450
622.953	13719
623.018	16177
623.082	14567
623.147	12886
623.211	12794
623.276	11712
623.340	11552
623.404	11817
623.469	11317
623.533	12133
623.597	11215
623.662	11105
623.726	11658
623.790	11788
623.854	11381
623.919	12037
623.983	10909
624.047	12007
624.111	11523
624.176	11444
624.240	11096
624.304	13192
624.368	11117
624.432	11528
624.496	11756
624.560	10778
624.625	11502
624.689	11414
624.753	10857
624.817	11672
624.881	10384
624.945	10792
625.009	10115
625.073	10839
625.137	10454
625.201	12212
625.265	12397
625.329	10940
625.393	10688
625.456	11349
625.520	12295
625.584	14510
625.648	19026
625.712	34730
625.776	87076
625.839	97665
625.903	34911
625.967	17398
626.031	32371
626.095	51619
626.158	15758
626.222	8767
626.286	10307
626.349	9364
626.413	8318
626.477	10800
626.540	9263
626.604	9378
626.668	9675
626.731	9573
626.795	10831
626.858	10279
626.922	8816
626.986	9391
627.049	8472
627.113	9440
627.176	7805
627.240	8036
627.303	8118
627.366	8709
627.430	8495
627.493	9141
627.557	8891
627.620	11509
627.684	9051
627.747	9189
627.810	7318
627.874	8712
627.937	8154
628.000	10699
628.064	9064
628.127	6979
628.190	8844
628.253	8869
628.317	7740
628.380	8513
628.443	8186
628.506	8641
628.569	7495
628.632	8035
628.696	8333
628.759	7621
628.822	7380
628.885	7138
628.948	7689
629.011	7813
629.074	7289
629.137	6909
629.200	6492
629.263	9092
629.326	6270
629.389	7232
629.452	7713
629.515	8912
629.578	7964
629.641	9120
629.704	7508
629.767	7778
629.830	7432
629.892	7538
629.955	6183
630.018	8898
630.081	6967
630.144	8509
630.207	6430
630.269	10186
630.332	9765
630.395	8086
630.458	6772
630.520	6463
630.583	7614
630.646	6478
630.708	6068
630.771	6899
630.834	6970
630.896	6511
630.959	5813
631.021	6504
631.084	7601
631.146	8539
631.209	9793
631.272	7089
631.334	6308
631.397	5515
631.459	4802
631.522	6023
631.584	5257
631.646	6198
631.709	6635
631.771	7727
631.834	6797
631.896	6529
631.958	4637
632.021	6199
632.083	4924
632.145	7404
632.208	5613
632.270	6480
632.332	5209
632.395	4965
632.457	6643
632.519	5957
632.581	6720
632.643	4973
632.706	5756
632.768	5337
632.830	5646
632.892	5710
632.954	4841
633.016	7079
633.078	4669
633.141	4875
633.203	4240
633.265	5927
633.327	5127
633.389	4567
633.451	6302
633.513	5924
633.575	8347
633.637	5649
633.698	4566
633.760	5561
633.822	4420
633.884	5139
633.946	4908
634.008	5033
634.070	5132
634.132	6372
634.193	5602
634.255	6005
634.317	4699
634.379	5582
634.441	3884
634.502	4693
634.564	5866
634.626	5843
634.687	5897
634.749	5228
634.811	4576
634.873	3848
634.934	4279
634.996	6226
635.057	4335
635.119	3711
635.181	5070
635.242	5334
635.304	3328
635.365	6832
635.427	3844
635.488	4185
635.550	4000
635.611	5342
635.673	3710
635.734	6019
635.796	4762
635.857	5695
635.918	3513
635.980	4956
636.041	3871
636.102	5015
636.164	4368
636.225	4982
636.286	2810
636.348	5489
636.409	3928
636.470	3987
636.531	4697
636.593	6014
636.654	6320
636.715	4649
636.776	3771
636.838	3444
636.899	5139
636.960	4123
637.021	3522
637.082	4584
637.143	4809
637.204	2944
637.265	2629
637.326	3847
637.387	4453
637.448	2781
637.509	3987
637.570	3732
637.631	5162
637.692	1946
637.753	2415
637.814	3512
637.875	3181
637.936	4019
637.997	3192
638.058	3477
638.119	4980
638.179	3819
638.240	3165
638.301	3905
638.362	3909
638.423	4130
638.483	4215
638.544	2365
638.605	3588
638.666	3309
638.726	4344
638.787	4753
638.848	2721
638.908	3416
638.969	4096
639.030	3424
639.090	2418
639.151	2683
639.211	4548
639.272	5135
639.332	5523
639.393	4417
639.453	2694
639.514	3034
639.574	3137
639.635	2864
639.695	4789
639.756	2368
639.816	4085
639.877	4355
639.937	4961
639.997	7031
640.058	2222
640.118	2322
640.178	4181
640.239	3043
640.299	2676
640.359	2146
640.420	2775
640.480	3908
640.540	2881
640.600	2692
640.661	3635
640.721	2006
640.781	4472
640.841	1972
640.901	3899
640.961	4139
641.021	3702
641.082	1884
641.142	4164
641.202	3533
641.262	2026
641.322	3755
641.382	2200
641.442	3416
641.502	3253
641.562	3688
641.622	2211
641.682	2676
641.742	2525
641.802	3071
641.861	4284
641.921	3176
641.981	4412
642.041	3766
642.101	3903
642.161	2152
642.221	1942
642.280	3250
642.340	2787
642.400	2060
642.460	3284
642.519	2296
642.579	2543
642.639	3130
642.698	502
642.758	4899
642.818	3023
642.877	1713
642.937	2998
642.997	3354
643.056	3640
643.116	1367
643.175	3963
643.235	2168
643.294	1946
643.354	3111
643.414	3942
643.473	3889
643.532	2185
643.592	2766
643.651	2570
643.711	4299
643.770	4705
643.830	7440
643.889	12944
643.948	4841
644.008	3753
644.067	2461
644.126	1934
644.186	3004
644.245	3022
644.304	1324
644.363	4250
644.423	1844
644.482	2886
644.541	2151
644.600	440
644.659	3061
644.719	1055
644.778	2206
644.837	2599
644.896	3603
644.955	5090
645.014	3671
645.073	4400
645.132	2501
645.191	3366
645.250	1921
645.309	3464
645.368	2444
645.427	3182
645.486	1528
645.545	3354
645.604	2207
645.663	2605
645.722	2117
645.781	2847
645.840	2574
645.898	1811
645.957	3170
646.016	1389
646.075	3277
646.134	3803
646.192	7677
646.251	9199
646.310	2665
646.369	1528
646.427	1850
646.486	1070
646.545	1700
646.603	2950
646.662	2517
646.721	2776
646.779	861
646.838	631
646.896	2904
646.955	2642
647.014	2768
647.072	947
647.131	3248
647.189	1801
647.248	1214
647.306	2322
647.365	3251
647.423	164
647.481	3143
647.540	771
647.598	2085
647.657	1902
647.715	1896
647.773	1190
647.832	2543
647.890	1121
647.948	1768
648.007	2803
648.065	610
648.123	2137
648.181	4143
648.240	4480
648.298	2400
648.356	1906
648.414	2365
648.472	2710
648.531	2994
648.589	3215
648.647	3371
648.705	2739
648.763	3064
648.821	2595
648.879	2148
648.937	2154
648.995	2178
649.053	1818
649.111	2446
649.169	2916
649.227	2977
649.285	3557
649.343	6944
649.401	4840
649.459	7437
649.516	6585
649.574	6264
649.632	17490
649.690	20692
649.748	6383
649.806	4533
649.863	8377
649.921	4080
649.979	1362
650.037	2996
650.094	1371
650.152	2376
650.210	1037
650.268	2302
650.325	2307
650.383	2239
650.440	1035
650.498	3178
650.556	2184
650.613	1611
650.671	2606
650.728	2445
650.786	2574
650.843	2423
650.901	446
650.958	1748
651.016	986
651.073	2378
651.131	1360
651.188	1782
651.246	1942
651.303	784
651.360	2220
651.418	1553
651.475	2110
651.532	1230
651.590	2090
651.647	1561
651.704	1346
651.762	2088
651.819	2044
651.876	1459
651.933	1415
651.990	2442
652.048	428
652.105	1210
652.162	2428
652.219	1211
652.276	2364
652.333	2019
652.390	1027
652.448	1803
652.505	1291
652.562	1317
652.619	1923
652.676	3164
652.733	4103
652.790	1347
652.847	842
652.904	1904
652.961	271
653.017	871
653.074	1732
653.131	1808
653.188	1034
653.245	305
653.302	1310
653.359	206
653.415	2015
653.472	1326
653.529	2383
653.586	1312
653.642	759
653.699	2376
653.756	427
653.813	1683
653.869	2157
653.926	248
653.983	607
654.039	1161
654.096	1133
654.152	1844
654.209	951
654.266	1334
654.322	1151
654.379	2560
654.435	3052
654.492	2730
654.548	3633
654.605	5917
654.661	3029
654.717	1907
654.774	2458
654.830	1840
654.887	1240
654.943	2126
655.000	2324
655.056	1373
655.112	2430
655.168	1144
655.225	2157
655.281	3601
655.337	3700
655.394	8430
655.450	5715
655.506	4932
655.562	9006
655.618	6754
655.675	1881
655.731	2728
655.787	2382
655.843	2948
655.899	2286
655.955	3611
656.011	3522
656.067	2620
656.123	3966
656.179	4405
656.235	6059
656.291	3894
656.347	5713
656.403	3631
656.459	3241
656.515	4384
656.571	3667
656.627	2822
656.683	2805
656.739	3575
656.795	2455
656.850	2368
656.906	1670
656.962	3237
657.018	851
657.074	2050
657.129	2105
657.185	2118
657.241	1997
657.297	1189
657.352	1622
657.408	906
657.464	1662
657.519	1635
657.575	875
657.630	1439
657.686	1396
657.742	1224
657.797	1411
657.853	1286
657.908	2970
657.964	743
658.019	1170
658.075	804
658.130	1676
658.186	371
658.241	1480
658.297	965
658.352	233
658.407	1748
658.463	832
658.518	2295
658.573	1915
658.629	-114
658.684	1210
658.739	1254
658.795	962
658.850	1306
658.905	1012
658.960	1178
659.016	769
659.071	1679
659.126	1699
659.181	857
659.236	2987
659.291	1969
659.346	1516
659.401	2644
659.457	2071
659.512	3140
659.567	2421
659.622	853
659.677	1072
659.732	429
659.787	1946
659.842	2689
659.897	3892
659.952	2142
660.007	1281
660.061	1425
660.116	1089
660.171	1263
660.226	1430
660.281	2468
660.336	288
660.391	1527
660.445	1005
660.500	1567
660.555	1110
660.610	1022
660.664	1281
660.719	943
660.774	2140
660.828	1329
660.883	809
660.938	1665
660.992	436
661.047	1342
661.101	1346
661.156	1327
661.211	419
661.265	1624
661.320	1480
661.374	1615
661.429	1486
661.483	1672
661.538	328
661.592	1362
661.647	1066
661.701	1366
661.755	1010
661.810	1108
661.864	1027
661.919	1198
661.973	1647
662.027	759
662.081	625
662.136	1134
662.190	1992
662.244	2374
662.299	1766
662.353	1876
662.407	1178
662.461	609
662.515	1898
662.569	1473
662.624	1701
662.678	1315
662.732	1114
662.786	925
662.840	2025
662.894	1717
662.948	1691
663.002	1299
663.056	1394
663.110	905
663.164	816
663.218	1347
663.272	1498
663.326	2544
663.380	992
663.434	1240
663.488	943
663.542	2085
663.595	1753
663.649	1612
663.703	1015
663.757	1454
663.811	693
663.864	772
663.918	2084
663.972	1753
664.026	1339
664.079	1080
664.133	989
664.187	1353
664.240	698
664.294	609
664.348	1648
664.401	1684
664.455	1462
664.508	1371
664.562	1578
664.615	1831
664.669	996
664.722	948
664.776	1878
664.829	1718
664.883	1151
664.936	322
664.990	1722
665.043	1800
665.097	1387
665.150	3291
665.203	2052
665.257	1825
665.310	2207
665.363	1835
665.417	1769
665.470	1703
665.523	2232
665.576	2425
665.630	1722
665.683	2576
665.736	1801
665.789	1568
665.842	1510
665.895	1259
665.949	2218
666.002	2481
666.055	1868
666.108	2169
666.161	1829
666.214	2160
666.267	2066
666.320	1730
666.373	2171
666.426	2037
666.479	2121
666.532	1884
666.585	2889
666.638	2547
666.691	2690
666.744	3163
666.796	2772
666.849	2171
666.902	2819
666.955	2107
667.008	1303
667.060	1459
667.113	1325
667.166	970
667.219	1168
667.271	2072
667.324	1027
667.377	1987
667.430	1916
667.482	3064
667.535	1272
667.587	2630
667.640	1904
667.693	1956
667.745	2691
667.798	2709
667.850	1803
667.903	1955
667.955	2160
668.008	1898
668.060	1965
668.113	1904
668.165	2927
668.218	2461
668.270	1589
668.322	2822
668.375	2644
668.427	2624
668.479	1498
668.532	2366
668.584	2909
668.636	1966
668.689	2030
668.741	2211
668.793	2265
668.845	1661
668.898	2114
668.950	1978
669.002	2744
669.054	1957
669.106	2056
669.158	3052
669.211	2251
669.263	2243
669.315	3550
669.367	3099
669.419	2402
669.471	3218
669.523	3402
669.575	4074
669.627	2455
669.679	2171
669.731	2496
669.783	2903
669.835	3555
669.886	1929
669.938	2502
669.990	2404
670.042	2186
670.094	2612
670.146	2506
670.197	3464
670.249	3689
670.301	4965
670.353	5859
670.404	9374
670.456	12195
670.508	19323
670.560	30316
670.611	50973
670.663	85120
670.715	200013
670.766	333312
670.818	112568
670.869	18769
670.921	10135
670.972	6877
671.024	4696
671.075	4854
671.127	3610
671.178	3160
671.230	3401
671.281	2639
671.333	2273
671.384	2812
671.436	2612
671.487	3268
671.538	3444
671.590	2907
671.641	3897
671.692	3441
671.744	4175
671.795	2836
671.846	2550
671.897	2698
671.949	2863
672.000	2585
672.051	3016
672.102	3326
672.153	2394
672.204	2982
672.256	3060
672.307	2605
672.358	2808
672.409	2696
672.460	2370
672.511	2720
672.562	2934
672.613	2308
672.664	1825
672.715	2058
672.766	1966
672.817	1620
672.868	2055
672.919	2512
672.970	1414
673.021	2314
673.071	1264
673.122	2550
673.173	1611
673.224	1380
673.275	1920
673.326	1985
673.376	1735
673.427	2052
673.478	2303
673.528	2201
673.579	2370
673.630	1831
673.680	2229
673.731	2051
673.782	2106
673.832	2239
673.883	2771
673.934	1426
673.984	1414
674.035	2265
674.085	2095
674.136	2818
674.186	2399
674.237	2627
674.287	5144
674.338	2959
674.388	2519
674.438	1241
674.489	1788
674.539	2645
674.589	2185
674.640	2711
674.690	2301
674.740	1873
674.791	2219
674.841	2302
674.891	2232
674.942	2115
674.992	2207
675.042	2245
675.092	1190
675.142	2135
675.193	1944
675.243	1785
675.293	2917
675.343	2079
675.393	2085
675.443	2291
675.493	1837
675.543	2104
675.593	1490
675.643	1979
675.693	2269
675.743	2342
675.793	1809
675.843	1435
675.893	1691
675.943	1946
675.993	1338
676.043	1655
676.093	2218
676.142	1510
676.192	2094
676.242	1157
676.292	1486
676.341	1348
676.391	2109
676.441	1790
676.491	975
676.540	1081
676.590	1595
676.640	1764
676.689	1414
676.739	1029
676.789	652
676.838	809
676.888	1421
676.937	503
676.987	710
677.037	448
677.086	1330
677.136	1297
677.185	999
677.235	1525
677.284	1292
677.333	762
677.383	817
677.432	1263
677.482	1311
677.531	1031
677.580	1242
677.630	465
677.679	1256
677.728	1866
677.778	784
677.827	1223
677.876	2041
677.925	838
677.975	1051
678.024	1390
678.073	452
678.122	1688
678.171	1984
678.220	1348
678.269	2026
678.319	1786
678.368	1566
678.417	1256
678.466	2347
678.515	2728
678.564	2156
678.613	1265
678.662	1554
678.711	1973
678.760	1934
678.809	1511
678.857	1796
678.906	1610
678.955	1594
679.004	2563
679.053	797
679.102	1382
679.151	1681
679.199	994
679.248	1291
679.297	2297
679.346	2183
679.394	1799
679.443	1439
679.492	1799
679.540	1114
679.589	1727
679.638	1403
679.686	509
679.735	2361
679.784	1410
679.832	1308
679.881	1260
679.929	1168
679.978	535
680.026	1092
680.075	1120
680.123	416
680.172	1423
680.220	1181
680.268	1516
680.317	102
680.365	825
680.414	808
680.462	927
680.510	1423
680.559	965
680.607	1086
680.655	1139
680.703	1503
680.752	1130
680.800	1049
680.848	1230
680.896	212
680.945	896
680.993	1071
681.041	396
681.089	1197
681.137	565
681.185	86
681.233	948
681.258	1066
681.281	1154
681.329	138
681.377	824
681.380	873
681.425	1285
681.473	2092
681.502	1589
681.521	1185
681.569	2376
681.617	1276
681.624	1252
681.665	918
681.713	2082
681.745	1358
681.761	967
681.809	1068
681.857	1890
681.867	1703
681.904	977
681.952	1776
681.989	1606
682.000	1516
682.048	1491
682.096	1663
682.111	1742
682.143	1835
682.191	2012
682.233	2459
682.239	2500
682.286	1951
682.334	1845
682.354	1733
682.382	1531
682.430	2330
682.476	1693
682.477	1658
682.525	1396
682.572	2319
682.598	1999
682.620	1706
682.667	2243
682.715	2377
682.720	2366
682.763	2000
682.810	2456
682.841	2607
682.857	2647
682.905	2259
682.952	3010
682.963	2983
683.000	2806
683.047	3253
683.085	2877
683.095	2743
683.142	2545
683.190	2770
683.206	2592
683.237	2223
683.284	2905
683.328	2924
683.332	2913
683.379	3155
683.426	2469
683.449	2757
683.473	2957
683.521	3015
683.568	2804
683.571	2789
683.615	2390
683.662	3752
683.693	2875
683.709	2378
683.757	2465
683.804	3208
683.814	3052
683.851	2439
683.898	3625
683.936	3229
683.945	3120
683.992	3890
684.039	3235
684.057	3466
684.086	3758
684.133	3751
684.179	3596
684.180	3575
684.227	3427
684.274	3277
684.300	3661
684.321	3982
684.368	3421
684.415	3143
684.422	3118
684.462	2828
684.509	4016
684.543	3736
684.556	3637
684.603	3788
684.649	3199
684.665	3456
684.696	3967
684.743	4019
684.786	4141
684.790	4147
684.837	4005
684.883	5081
684.908	5415
684.930	5590
684.977	5321
685.023	5156
685.029	5172
685.070	5092
685.117	4933
685.150	4963
685.164	5057
685.210	5122
685.257	6527
685.272	6445
685.303	5953
685.350	5705
685.393	5230
685.396	5206
685.443	5247
685.490	5758
685.514	5738
685.536	5634
685.583	5490
685.629	5697
685.636	5606
685.675	4949
685.722	4457
685.757	4797
685.768	4964
685.815	5482
685.861	6312
685.878	6286
685.908	6265
685.954	5902
686.000	6943
686.000	6960
686.047	7790
686.093	8571
686.121	8947
686.139	8606
686.185	7905
686.232	6352
686.242	6416
686.278	6979
686.324	6914
686.363	6116
686.370	6002
686.416	5757
686.463	6291
686.484	6594
686.509	6975
686.555	6073
686.601	6217
686.606	6211
686.647	6037
686.693	6608
686.727	6482
686.739	6473
686.785	6513
686.831	6765
686.848	6861
686.877	6793
686.923	6136
686.969	5966
686.969	5966
687.015	5931
687.061	6312
687.090	6572
687.107	6666
687.153	7035
687.199	6431
687.211	6584
687.245	7094
687.291	6392
687.332	6761
687.336	6799
687.382	7589
687.428	7192
687.453	7637
687.474	7671
687.520	6496
687.565	6162
687.574	6043
687.611	6077
687.657	6188
687.695	6386
687.702	6454
687.748	6674
687.794	6908
687.816	6962
687.839	6746
687.885	6531
687.931	6499
687.937	6393
687.976	6230
688.022	7138
688.058	7118
688.067	7064
688.113	6875
688.158	6587
688.179	6766
688.204	7107
688.249	7320
688.295	7517
688.300	7472
688.340	7208
688.386	8050
688.421	8178
688.431	8137
688.477	7527
688.522	6989
688.542	7381
688.567	7972
688.613	7569
688.658	7351
688.663	7346
688.703	7394
688.749	7598
688.784	7532
688.794	7498
688.839	7729
688.884	7575
688.905	7367
688.930	7145
688.975	7387
689.020	7354
689.026	7345
689.065	7580
689.110	7863
689.146	7514
689.155	7356
689.201	6994
689.246	7382
689.267	7284
689.291	7390
689.336	7365
689.381	7650
689.388	7631
689.426	7365
689.471	7697
689.509	7470
689.516	7451
689.561	7602
689.606	6782
689.630	6985
689.651	7295
689.696	7520
689.741	8295
689.750	8332
689.785	8273
689.830	7683
689.871	7556
689.875	7556
689.920	7443
689.965	7657
689.992	7655
690.010	7708
690.054	7313
690.099	7681
690.112	7667
690.144	7622
690.189	7716
690.233	7082
690.233	7091
690.278	7744
690.323	7513
690.354	7425
690.367	7437
690.412	7589
690.457	7874
690.474	8000
690.501	8203
690.546	8749
690.590	8415
690.595	8426
690.635	8670
690.680	8608
690.716	9216
690.724	9434
690.769	9635
690.813	10499
690.836	10485
690.857	11095
690.902	13261
690.946	15036
690.957	15557
690.991	19740
691.035	25599
691.077	31798
691.080	31880
691.124	29343
691.168	27772
691.198	26538
691.213	24894
691.257	20498
691.301	16461
691.318	14620
691.346	13425
691.390	11794
691.434	10293
691.439	10138
691.478	10215
691.522	9844
691.559	9682
691.567	9694
691.611	9606
691.655	9268
691.680	9159
691.699	9116
691.743	9169
691.787	8887
691.800	8870
691.831	9142
691.875	9388
691.919	9609
691.921	9601
691.964	10069
692.008	10767
692.041	10934
692.052	10917
692.096	10653
692.139	10880
692.162	10669
692.183	10407
692.227	10445
692.271	10138
692.282	10088
692.315	10137
692.359	10049
692.402	9931
692.403	9953
692.447	9703
692.490	10284
692.523	10396
692.534	10482
692.578	10679
692.622	10777
692.643	10932
692.666	10772
692.709	10048
692.753	9429
692.763	9294
692.797	9562
692.840	9937
692.884	10025
692.884	10047
692.928	10346
692.971	10356
693.004	10521
693.015	10542
693.059	10586
693.102	10182
693.124	10150
693.146	10328
693.189	10322
693.233	10735
693.245	10800
693.276	11289
693.320	11849
693.363	12036
693.365	12025
693.407	12473
693.450	13224
693.485	13588
693.493	13943
693.537	15864
693.580	17320
693.605	18430
693.624	20005
693.667	23485
693.710	27223
693.725	28602
693.753	37129
693.797	50337
693.840	64666
693.845	65942
693.883	61426
693.926	55950
693.966	51617
693.970	50578
694.013	38876
694.056	27314
694.086	19391
694.099	18872
694.142	17225
694.185	15685
694.206	14673
694.229	14393
694.272	14036
694.315	13992
694.326	13848
694.358	13234
694.401	12601
694.444	11751
694.446	11686
694.487	11467
694.530	11152
694.566	10985
694.573	10999
694.616	10409
694.659	10621
694.686	10393
694.702	10119
694.745	9509
694.787	8827
694.806	8532
694.830	8880
694.873	9364
694.916	9842
694.926	9943
694.959	9818
695.002	9631
695.044	9391
695.046	9360
695.087	9500
695.130	9462
695.166	9465
695.172	9523
695.215	9667
695.258	10193
695.286	10232
695.301	10181
695.343	10135
695.386	10027
695.406	9956
695.428	9914
695.471	9826
695.514	9591
695.526	9596
695.556	9779
695.599	9723
695.641	9626
695.646	9620
695.684	9857
695.726	9756
695.766	9774
695.769	9796
695.811	9812
695.854	9585
695.886	9623
695.896	9594
695.938	9176
695.981	8803
696.005	8492
696.023	8652
696.065	9142
696.108	9763
696.125	9898
696.150	9999
696.192	10171
696.235	10294
696.245	10326
696.277	10289
696.319	10038
696.361	10067
696.365	10015
696.404	9903
696.446	9962
696.485	10006
696.488	10060
696.530	10263
696.572	10461
696.604	10657
696.614	10613
696.656	10335
696.698	10002
696.724	9798
696.740	9755
696.783	9377
696.825	9222
696.844	9133
696.867	9276
696.909	9405
696.951	9428
696.964	9468
696.992	9458
697.034	9276
697.076	9126
697.083	9067
697.118	9319
697.160	9684
697.202	9945
697.203	9925
697.244	9691
697.286	9448
697.323	9090
697.327	9106
697.369	9118
697.411	9100
697.442	9045
697.453	9179
697.494	9666
697.536	10116
697.562	10400
697.578	10342
697.620	10003
697.661	9690
697.682	9528
697.703	9566
697.744	9503
697.786	9698
697.801	9640
697.828	9880
697.869	10294
697.911	10666
697.921	10753
697.952	10717
697.994	10514
698.035	10455
698.040	10401
698.077	10120
698.118	9795
698.160	9493
698.160	9461
698.201	9189
698.243	8799
698.279	8492
698.284	8567
698.325	8984
698.367	9445
698.399	9713
698.408	9659
698.449	9338
698.491	9015
698.518	8762
698.532	8916
698.573	9290
698.614	9701
698.638	9897
698.656	9913
698.697	9880
698.738	9868
698.757	9820
698.779	9932
698.820	10108
698.862	10279
698.877	10313
698.903	10676
698.944	11214
698.985	11748
698.996	11865
699.026	11680
699.067	11378
699.116	10989
699.235	9576
699.354	9712
699.474	9943
699.593	12349
699.713	12349
699.832	9786
699.951	9669
700.070	9468
700.190	9856
700.309	10164
700.428	12391
700.547	9802
700.667	10774
700.786	11902
700.905	9752
701.024	11351
701.143	10237
701.262	9319
701.381	8018
701.500	8324
701.619	8434
701.738	8164
701.857	8891
701.976	8262
702.095	8279
702.214	8926
702.333	9058
702.452	7982
702.571	7757
702.690	8236
702.809	7349
702.928	7104
703.047	8218
703.165	7717
703.284	8139
703.403	8324
703.522	9973
703.640	9788
703.759	11250
703.878	19722
703.997	9730
704.115	8250
704.234	8748
704.353	7575
704.471	7590
704.590	6449
704.708	6754
704.827	6754
704.946	8883
705.064	9924
705.183	7644
705.301	10859
705.420	18160
705.538	15514
705.656	12327
705.775	12575
705.893	18178
706.012	24869
706.130	12905
706.249	12708
706.367	13197
706.485	15278
706.604	13083
706.722	13631
706.840	16287
706.958	14898
707.077	11207
707.195	11524
707.313	12184
707.431	11039
707.549	11103
707.668	11719
707.786	11451
707.904	10891
708.022	10763
708.140	9971
708.258	10265
708.376	10716
708.494	10337
708.612	11907
708.730	18517
708.848	18323
708.966	15879
709.084	14632
709.202	14372
709.320	15339
709.438	14652
709.556	15346
709.674	15217
709.791	15568
709.909	13317
710.027	15243
710.145	14672
710.263	14752
710.380	14207
710.498	13769
710.616	13481
710.733	13731
710.851	15453
710.969	16278
711.086	13827
711.204	14399
711.322	14542
711.439	14335
711.557	15001
711.674	13098
711.792	14340
711.909	14071
712.027	13929
712.144	11937
712.262	13407
712.379	15435
712.497	22778
712.614	22687
712.732	18417
712.849	17912
712.966	18179
713.084	20822
713.201	18636
713.318	18459
713.436	17563
713.553	17880
713.670	17707
713.787	20359
713.905	20073
714.022	17345
714.139	16073
714.256	16583
714.373	16376
714.490	15899
714.608	15398
714.725	20880
714.842	20253
714.959	15455
715.076	14348
715.193	14125
715.310	14201
715.427	15029
715.544	13411
715.661	15148
715.778	14555
715.895	16247
716.011	15966
716.128	13913
716.245	13881
716.362	14373
716.479	15298
716.596	14545
716.713	13695
716.829	13327
716.946	13534
717.063	13433
717.180	12666
717.296	12623
717.413	12125
717.530	12710
717.646	12203
717.763	12847
717.880	11013
717.996	12296
718.113	12101
718.229	11972
718.346	10893
718.462	10791
718.579	12755
718.695	14481
718.812	17235
718.928	19388
719.045	14666
719.161	11023
719.277	10389
719.394	11134
719.510	11632
719.626	11321
719.743	13494
719.859	12278
719.975	11107
720.092	11377
720.208	13645
720.324	12671
720.440	11466
720.557	12730
720.673	15365
720.789	27452
720.905	70198
721.021	24841
721.137	11142
721.253	11775
721.369	11981
721.486	14028
721.602	21648
721.718	10909
721.834	9178
721.950	9461
722.066	9110
722.181	9259
722.297	9567
722.413	9439
722.529	8621
722.645	9044
722.761	9320
722.877	9323
722.993	8842
723.108	9262
723.224	8271
723.340	9795
723.456	9043
723.571	9295
723.687	8513
723.803	9468
723.918	7687
724.034	7959
724.150	9410
724.265	10257
724.381	24445
724.497	34596
724.612	8830
724.728	7970
724.843	8151
724.959	10378
725.074	24261
725.190	30616
725.305	10092
725.421	8523
725.536	7969
725.651	7755
725.767	7029
725.882	6704
725.997	6234
726.113	6691
726.228	6967
726.343	6864
726.459	6969
726.574	8059
726.689	6901
726.804	7301
726.920	7419
727.035	6975
727.150	7678
727.265	6754
727.380	8538
727.495	7105
727.610	5460
727.725	7422
727.841	7303
727.956	10813
728.071	11614
728.186	6712
728.301	5247
728.416	6222
728.531	6466
728.645	5633
728.760	6570
728.875	6033
728.990	6023
729.105	6613
729.220	5560
729.335	5647
729.449	5443
729.564	4957
729.679	5326
729.794	4988
729.908	6600
730.023	6356
730.138	4551
730.253	5549
730.367	5127
730.482	4812
730.596	4969
730.711	5322
730.826	5349
730.940	4179
731.055	4915
731.169	4367
731.284	4761
731.398	4864
731.513	6577
731.627	6420
731.742	6794
731.856	8475
731.970	4501
732.085	4826
732.199	4698
732.313	3774
732.428	5072
732.542	5045
732.656	5160
732.771	4260
732.885	4258
732.999	4698
733.113	4563
733.227	4810
733.342	3532
733.456	4161
733.570	4230
733.684	4837
733.798	4335
733.912	3974
734.026	3925
734.140	4064
734.254	5551
734.368	11411
734.482	18004
734.596	3731
734.710	4674
734.824	3776
734.938	3147
735.052	3944
735.166	5521
735.280	5025
735.393	3974
735.507	3733
735.621	6962
735.735	16849
735.849	6147
735.962	3299
736.076	4681
736.190	5550
736.303	7999
736.417	12471
736.531	4607
736.644	4858
736.758	3398
736.872	3833
736.985	3773
737.099	4239
737.212	3558
737.326	2891
737.439	3481
737.553	3099
737.666	3254
737.780	2545
737.893	2997
738.007	2345
738.120	3040
738.233	3492
738.347	3157
738.460	3128
738.573	2631
738.687	2616
738.800	3569
738.913	2699
739.026	3096
739.140	3972
739.253	2602
739.366	3301
739.479	2430
739.592	2288
739.705	2770
739.818	3679
739.932	2583
740.045	2722
740.158	3324
740.271	3035
740.384	2653
740.497	3712
740.610	4338
740.723	2486
740.836	3849
740.949	3327
741.062	3288
741.174	4096
741.287	3266
741.400	3105
741.513	3147
741.626	4224
741.739	4102
741.851	3590
741.964	2321
742.077	3679
742.189	3690
742.302	6040
742.415	5228
742.527	2741
742.640	2478
742.753	2877
742.865	2716
742.978	2271
743.090	2184
743.203	2026
743.316	2804
743.428	2168
743.541	2767
743.653	2158
743.766	3086
743.878	3180
743.990	5840
744.103	7163
744.215	6164
744.327	3498
744.440	2840
744.552	2734
744.664	1995
744.777	2354
744.889	2206
745.001	3320
745.113	2295
745.226	2150
745.338	2422
745.450	1500
745.562	1438
745.674	2213
745.786	2134
745.898	2829
746.010	2182
746.122	1773
746.234	1487
746.347	2454
746.459	2655
746.570	3108
746.682	4869
746.794	9563
746.906	4342
747.018	2861
747.130	2642
747.242	2881
747.354	2109
747.466	2064
747.577	2176
747.689	2539
747.801	2375
747.913	1920
748.024	2127
748.136	1714
748.248	2321
748.359	2070
748.471	1688
748.583	2470
748.694	1981
748.806	3753
748.918	4733
749.029	4034
749.141	2228
749.252	2319
749.364	1519
749.475	3985
749.587	4918
749.698	2176
749.809	2539
749.921	2861
750.032	2086
750.144	917
750.255	1770
750.366	2323
750.478	2091
750.589	2002
750.700	1638
750.811	1618
750.923	2635
751.034	4224
751.145	3432
751.256	2550
751.367	1844
751.479	1710
751.590	2308
751.701	2977
751.812	2054
751.923	2354
752.034	2348
752.145	1472
752.256	2083
752.367	1868
752.478	2063
752.589	2651
752.700	1690
752.811	1658
752.922	2169
753.032	935
753.143	2346
753.254	1800
753.365	2430
753.476	1865
753.586	2077
753.697	2232
753.808	1519
753.919	1395
754.029	1781
754.140	2332
754.251	1809
754.361	2133
754.472	2278
754.582	2209
754.693	1570
754.804	1875
754.914	1286
755.025	2079
755.135	1681
755.246	1978
755.356	1609
755.466	3062
755.577	1917
755.687	1980
755.798	1776
755.908	2264
756.018	2036
756.129	1821
756.239	1437
756.349	1939
756.460	1382
756.570	2052
756.680	2405
756.790	2667
756.900	3433
757.011	2141
757.121	2160
757.231	2514
757.341	2020
757.451	2328
757.561	1993
757.671	2653
757.781	2331
757.891	2650
758.001	2010
758.111	2910
758.221	2693
758.331	2636
758.441	2675
758.551	3246
758.661	2614
758.771	2398
758.880	2878
758.990	3506
759.100	3051
759.210	2722
759.320	3448
759.429	2659
759.539	3070
759.649	2624
759.758	3414
759.868	3215
759.978	3148
760.087	3696
760.197	3626
760.307	2858
760.416	3042
760.526	2448
760.635	3562
760.745	3337
760.854	3418
760.964	3586
761.073	4055
761.182	4242
761.292	3521
761.401	4503
761.511	4540
761.620	4047
761.729	3295
761.839	3779
761.948	4931
762.057	5097
762.166	4814
762.276	3904
762.385	5131
762.494	4945
762.603	4378
762.712	5063
762.822	4113
762.931	6129
763.040	4761
763.149	5626
763.258	5385
763.367	6113
763.476	6999
763.585	7477
763.694	7200
763.803	7725
763.912	8063
764.021	8025
764.130	7895
764.238	10032
764.347	9315
764.456	10463
764.565	11240
764.674	12266
764.783	12965
764.891	14644
765.000	17405
765.109	18879
765.217	20193
765.326	26106
765.435	31261
765.543	36212
765.652	44025
765.761	58661
765.869	80590
765.978	116921
766.086	181300
766.195	307077
766.303	514599
766.412	591874
766.520	535671
766.629	414772
766.737	241885
766.846	149389
766.954	101977
767.062	75128
767.171	57405
767.279	44801
767.387	34854
767.496	30371
767.604	26858
767.712	22394
767.820	20237
767.928	18262
768.037	16812
768.145	17725
768.253	15067
768.361	14791
768.469	15144
768.577	15406
768.685	17195
768.793	17745
768.901	18565
769.009	22830
769.117	26742
769.225	35157
769.333	49052
769.441	74680
769.549	129185
769.657	250925
769.765	473533
769.873	508105
769.981	376098
770.088	187485
770.196	103219
770.304	67677
770.412	48801
770.519	36277
770.627	28918
770.735	23588
770.842	20070
770.950	17446
771.058	15247
771.165	14048
771.273	11928
771.380	11680
771.488	10046
771.595	9865
771.703	8797
771.810	8519
771.918	7563
772.025	7690
772.133	7534
772.240	6747
772.348	6872
772.455	6997
772.562	6247
772.670	4984
772.777	5613
772.884	5525
772.991	5568
773.099	5098
773.206	3608
773.313	5347
773.420	3666
773.528	3579
773.635	3883
773.742	4538
773.849	3523
773.956	3772
774.063	3862
774.170	3608
774.277	4737
774.384	4064
774.491	3918
774.598	4945
774.705	3865
774.812	4022
774.919	4361
775.026	3779
775.133	3571
775.239	3783
775.346	3579
775.453	3174
775.560	3710
775.667	3314
775.773	3491
775.880	4104
775.987	3461
776.093	3615
776.200	3035
776.307	3452
776.413	3317
776.520	3190
776.627	3218
776.733	3457
776.840	3105
776.946	6283
777.053	8880
777.159	14905
777.266	8551
777.372	14365
777.478	10290
777.585	5965
777.691	3409
777.798	3474
777.904	3050
778.010	3520
778.117	5010
778.223	3487
778.329	2986
778.435	2759
778.542	2702
778.648	2684
778.754	1733
778.860	2462
778.966	2141
779.072	2727
779.178	2376
779.284	2452
779.391	1670
779.497	1709
779.603	5507
779.708	5448
779.815	12928
779.920	44727
780.026	71769
780.132	10435
780.238	3040
780.344	2892
780.450	3437
780.556	1586
780.661	2441
780.767	2076
780.873	2474
780.979	2431
781.085	921
781.190	2773
781.296	1234
781.402	1005
781.507	2007
781.613	2348
781.719	1162
781.824	950
781.930	2474
782.035	2127
782.141	2120
782.246	2105
782.352	2148
782.457	1882
782.563	2122
782.668	1364
782.773	1993
782.879	1455
782.984	1480
783.090	2450
783.195	1949
783.300	2047
783.405	2416
783.511	2444
783.616	2460
783.721	2093
783.826	1255
783.932	1725
784.037	1702
784.142	1932
784.247	2359
784.352	2586
784.457	1295
784.562	2450
784.667	1544
784.772	1241
784.877	954
784.982	1873
785.087	1308
785.192	2568
785.297	1427
785.402	1368
785.507	1927
785.611	2208
785.716	1459
785.821	1788
785.926	560
786.031	1648
786.135	930
786.240	2394
786.345	504
786.450	2804
786.554	925
786.659	1801
786.763	-514
786.868	1816
786.973	2293
787.077	1549
787.182	959
787.286	1390
787.391	1178
787.495	1223
787.600	1397
787.704	621
787.809	1114
787.913	612
788.017	976
788.122	1192
788.226	1401
788.330	598
788.435	1695
788.539	1913
788.643	687
788.747	1021
788.852	106
788.956	96
789.060	1325
789.164	1256
789.268	885
789.372	1056
789.476	1596
789.580	758
789.684	830
789.788	1297
789.892	1230
789.996	1522
790.100	718
790.204	1066
790.308	792
790.412	805
790.516	1920
790.620	1055
790.724	868
790.828	1223
790.931	1312
791.035	3055
791.139	1540
791.242	-478
791.346	2431
791.450	385
791.554	370
791.657	-80
791.761	1245
791.864	1414
791.968	1509
792.072	994
792.175	1363
792.279	1113
792.382	1214
792.486	1257
792.589	643
792.693	1642
792.796	-445
792.899	1280
793.003	1048
793.106	-610
793.209	738
793.313	1828
793.416	-910
793.519	1633
793.623	1211
793.726	1600
793.829	1065
793.932	1824
794.035	219
794.138	1631
794.242	1884
794.345	2982
794.448	3926
794.551	5863
794.654	23961
794.757	39269
794.860	8049
794.963	3175
795.066	783
795.169	1716
795.272	553
795.375	1224
795.477	-47
795.580	885
795.683	135
795.786	620
795.889	14
795.991	2069
796.094	1645
796.197	662
796.300	1232
796.402	601
796.505	-157
796.608	184
796.710	1702
796.813	1400
796.915	306
797.018	376
797.120	609
797.223	-329
797.326	1467
797.428	-524
797.530	897
797.633	678
797.735	2220
797.838	3597
797.940	3632
798.042	190
798.145	-758
798.247	885
798.349	-324
798.452	1175
798.554	-228
798.656	-797
798.758	1344
798.860	41
798.962	636
799.065	236
799.167	-795
799.269	1679
799.371	1220
799.473	744
799.575	1224
799.677	2548
799.779	2729
799.881	-638
799.983	1411
800.085	965
800.187	337
800.289	-271
800.390	828
800.492	560
800.594	1613
800.696	538
800.798	718
800.899	426
801.001	-626
801.103	382
801.205	390
801.306	1325
801.408	-751
801.509	724
801.611	401
801.713	484
801.814	-830
801.916	143
802.017	218
802.119	-917
802.220	728
802.322	-759
802.423	2750
802.525	743
802.626	-276
802.727	830
802.829	5
802.930	-1765
803.031	1561
803.133	806
803.234	-201
803.335	665
803.436	-1001
803.538	690
803.639	-668
803.740	385
803.841	-95
803.942	650
804.043	409
804.144	-825
804.245	221
804.346	-86
804.447	-1196
804.548	252
804.649	734
804.750	194
804.851	-430
804.952	-171
805.053	29
805.154	-582
805.255	304
805.355	-354
805.456	-179
805.557	-185
805.658	-926
805.758	532
805.859	138
805.960	-263
806.061	-1224
806.161	-583
806.262	315
806.362	99
806.463	102
806.564	232
806.664	228
806.765	1036
806.865	541
806.966	-203
807.066	-637
807.166	1034
807.267	804
807.367	-689
807.468	468
807.568	-580
807.668	894
807.769	752
807.869	-795
807.969	134
808.069	116
808.170	300
808.270	-607
808.370	464
808.470	699
808.570	-1066
808.670	-434
808.770	536
808.870	-636
808.970	785
809.070	48
809.170	-1052
809.271	310
809.370	752
809.470	690
809.570	375
809.670	-733
809.770	85
809.870	-414
809.970	615
810.070	138
810.169	113
810.269	-1679
810.369	944
810.469	-1224
810.568	-689
810.668	-406
810.768	-442
810.867	501
810.967	-130
811.066	25
811.166	-816
811.265	661
811.365	-465
811.464	-1142
811.564	383
811.663	-101
811.763	-1164
811.862	-492
811.962	-344
812.061	70
812.160	-1705
812.260	-168
812.359	-516
812.458	-259
812.557	1405
812.657	1410
812.756	677
812.855	21
812.954	-795
813.053	529
813.153	-99
813.252	52
813.351	-838
813.450	-70
813.549	-259
813.648	649
813.747	-465
813.846	483
813.945	-1089
814.044	-628
814.143	-392
814.242	9
814.341	-816
814.439	519
814.538	185
814.637	-889
814.736	-1206
814.835	1077
814.933	-777
815.032	-415
815.131	-122
815.229	-991
815.328	169
815.427	-992
815.525	-88
815.624	-618
815.722	-1280
815.821	-46
815.919	-430
816.018	-673
816.116	-323
816.215	-532
816.313	-384
816.412	-759
816.510	-475
816.609	1068
816.707	-205
816.805	-528
816.904	-416
817.002	-1205
817.100	475
817.198	160
817.296	-336
817.395	-1067
817.493	541
817.591	-455
817.689	-80
817.787	-882
817.885	783
817.983	1781
818.081	5691
818.179	15194
818.277	39354
818.375	33883
818.473	7802
818.571	3061
818.669	2658
818.767	2155
818.865	1711
818.963	1718
819.061	1987
819.158	4987
819.256	13418
819.354	33123
819.452	78330
819.549	45947
819.647	10718
819.745	2990
819.842	1982
819.940	1232
820.038	589
820.135	238
820.233	1480
820.330	12
820.428	-1430
820.525	439
820.623	237
820.720	-902
820.818	388
820.915	346
821.012	791
821.110	-175
821.207	529
821.304	-115
821.402	501
821.499	1809
821.596	4268
821.693	1204
821.791	342
821.888	-563
821.985	1080
822.082	425
822.179	1456
822.276	743
822.373	537
822.470	-158
822.567	-167
822.664	-936
822.761	486
822.858	-1335
822.955	206
823.052	-928
823.149	220
823.246	-422
823.343	-650
823.440	-243
823.536	-1017
823.633	-265
823.730	-310
823.827	-308
823.923	-592
824.020	792
824.117	505
824.213	-96
824.310	474
824.407	-850
824.503	-499
824.600	-723
824.696	-429
824.793	-508
824.889	-721
824.986	-757
825.082	-1119
825.179	411
825.275	-702
825.371	-973
825.468	-41
825.564	-642
825.660	-456
825.757	-532
825.853	-160
825.949	-1016
826.045	-20
826.142	-763
826.238	-640
826.334	-599
826.430	-1153
826.526	344
826.622	-406
826.718	-320
826.814	-896
826.910	626
827.006	-897
827.102	-893
827.198	-250
827.294	-1411
827.390	34
827.486	-73
827.582	-1351
827.678	-1631
827.774	-274
827.869	-1174
827.965	257
828.061	-1445
828.157	-593
828.252	-708
828.348	-789
828.444	686
828.539	-403
828.635	-403
828.731	16
828.826	-1846
828.922	141
829.017	-1013
829.113	-320
829.208	-1128
829.304	-1301
829.399	157
829.495	-878
829.590	676
829.685	-1531
829.781	-248
829.876	-630
829.971	-1000
830.066	-771
830.162	-656
830.257	-1394
830.352	-700
830.447	-691
830.543	-360
830.638	-1524
830.733	-439
830.828	-1397
830.923	-816
831.018	-727
831.113	-662
831.208	-531
831.303	-728
831.398	-387
831.493	-290
831.588	245
831.683	-1956
831.778	-1247
831.873	-395
831.967	679
832.062	-1084
832.157	-1670
832.252	-23
832.346	-801
832.441	-614
832.536	-194
832.631	557
832.725	595
832.820	-1575
832.914	-1316
833.009	-1519
833.104	-23
833.198	-296
833.293	-1080
833.387	-564
833.482	-1108
833.576	-1816
833.670	174
833.765	-1044
833.859	-1178
833.954	-635
834.048	-420
834.142	-642
834.237	-1072
834.331	-1173
834.425	42
834.519	-1775
834.613	100
834.708	-903
834.802	-624
834.896	-1624
834.990	-480
835.084	-929
835.178	-33
835.272	-277
835.366	-626
835.460	166
835.554	45
835.648	-613
835.742	-657
835.836	-507
835.930	-1583
836.024	70
836.117	339
836.211	87
836.305	954
836.399	3048
836.493	-1613
836.586	638
836.680	-1070
836.774	-1470
836.867	608
836.961	-943
837.055	-980
837.148	-1004
837.242	-694
837.335	-668
837.429	-418
837.522	-776
837.616	-99
837.709	2552
837.803	1164
837.896	-521
837.989	-797
838.083	338
838.176	4151
838.269	3331
838.363	-9
838.456	-1232
838.549	549
838.642	-621
838.735	629
838.829	-636
838.922	-751
839.015	-428
839.108	-541
839.201	-687
839.294	264
839.387	-185
839.480	-505
839.573	1547
839.666	900
839.759	-27
839.852	-1071
839.945	-541
840.038	-1218
840.131	95
840.223	-501
840.316	-403
840.409	-1098
840.502	-1452
840.594	453
840.687	-915
840.780	-598
840.873	-1398
840.965	-517
841.058	926
841.150	2822
841.243	1607
841.336	369
841.428	-367
841.521	-805
841.613	-980
841.706	-258
841.798	-619
841.890	-753
841.983	-1584
842.075	-700
842.167	-473
842.260	-831
842.352	1192
842.444	1206
842.537	3572
842.629	7145
842.721	484
842.813	241
842.905	-894
842.997	527
843.090	-557
843.182	1731
843.274	3503
843.366	10072
843.458	21868
843.550	13709
843.642	730
843.734	304
843.826	815
843.918	926
844.009	-381
844.101	-1224
844.193	-699
844.285	-276
844.377	969
844.469	1646
844.560	1922
844.652	1730
844.744	-141
844.835	-44
844.927	154
845.019	218
845.110	-11
845.202	-690
845.293	-803
845.385	-1338
845.476	-36
845.568	-289
845.659	-985
845.751	-399
845.842	-773
845.934	-769
846.025	-192
846.116	410
846.208	-16
846.299	-530
846.390	-316
846.482	-182
846.573	-171
846.664	40
846.755	622
846.846	1329
846.937	-1145
847.029	-590
847.120	-1926
847.211	-685
847.302	270
847.393	-1360
847.484	-203
847.575	-473
847.666	-364
847.757	-542
847.847	-517
847.938	563
848.029	-436
848.120	-754
848.211	-1238
848.302	-1189
848.392	-961
848.483	-891
848.574	-1794
848.664	-531
848.755	-447
848.846	-807
848.936	-1298
849.027	-207
849.118	-642
849.208	-1113
849.299	-1583
849.389	-281
849.480	-433
849.570	-766
849.661	129
849.751	608
849.841	-815
849.932	-1374
850.022	-945
850.112	-494
850.203	-690
850.293	-792
850.383	-1180
850.474	-1140
850.564	-388
850.654	-885
850.744	-329
850.834	-22
850.924	-960
851.014	-493
851.104	238
851.194	-844
851.284	-881
851.374	-538
851.464	-211
851.554	-118
851.644	617
851.734	1496
851.824	308
851.914	160
852.004	794
852.094	-708
852.183	-867
852.273	-260
852.363	-785
852.452	-1641
852.542	-839
852.632	-620
852.721	-428
852.811	-165
852.901	-788
852.990	-629
853.080	-857
853.169	-1721
853.259	-645
853.348	-1591
853.438	-636
853.527	-246
853.617	-1038
853.706	-568
853.795	-1233
853.885	644
853.974	507
854.063	2663
854.152	3356
854.242	401
854.331	-1026
854.420	-635
854.509	-1004
854.598	-92
854.687	-366
854.777	991
854.866	-857
854.955	-184
855.044	-1747
855.133	-1320
855.222	-767
855.311	-1201
855.400	-1386
855.488	-1032
855.577	-942
855.666	-933
855.755	-156
855.844	-569
855.933	-1006
856.021	-929
856.110	-591
856.199	-1607
856.288	-688
856.376	-1184
856.465	-852
856.554	-1137
856.642	-616
856.731	-144
856.819	-874
856.908	-1183
856.996	-665
857.085	-1122
857.173	-944
857.262	-857
857.350	-317
857.438	-1384
857.527	-250
857.615	-744
857.703	-459
857.792	-1478
857.880	-814
857.968	-1472
858.056	-957
858.145	-904
858.233	-1486
858.321	-880
858.409	-290
858.497	-726
858.585	-1001
858.673	-451
858.761	-1746
858.849	-1044
858.937	-754
859.025	-1091
859.113	-536
859.201	-1695
859.289	-352
859.377	-979
859.465	-1264
859.552	-818
859.640	-864
859.728	-703
859.816	-963
859.903	-312
859.991	-1512
860.079	-595
860.166	-925
860.254	-952
860.342	-79
860.429	-1523
860.517	-616
860.604	-846
860.692	-1183
860.779	-1356
860.867	-1070
860.954	-922
861.042	-669
861.129	-648
861.216	-1474
861.304	-296
861.391	-1136
861.478	-1003
861.565	-752
861.653	246
861.740	-1382
861.827	-1575
861.914	-300
862.001	-997
862.089	-1018
862.176	-1019
862.263	-1205
862.350	-695
862.437	-275
862.524	-1284
862.611	-689
862.698	177
862.785	923
862.871	178
862.958	-1366
863.045	-369
863.132	-1179
863.219	-776
863.306	-1197
863.392	-332
863.479	-1097
863.566	-763
863.652	-534
863.739	-592
863.826	-743
863.912	-1136
863.999	-1690
864.086	-1608
864.172	-535
864.259	-982
864.345	-623
864.432	-346
864.518	-935
864.604	-1421
864.691	-1158
864.777	-1130
864.863	-404
864.950	-491
865.036	-1778
865.122	-1023
865.209	-1323
865.295	-580
865.381	-546
865.467	-629
865.553	-513
865.639	-946
865.726	-1017
865.812	-861
865.898	-143
865.984	56
866.070	1398
866.156	1851
866.242	-562
866.328	-856
866.414	-1782
866.499	-1229
866.585	-1193
866.671	-632
866.757	-1142
866.843	-1008
866.928	-741
867.014	-670
867.100	-429
867.186	-943
867.271	-176
867.357	-271
867.442	134
867.528	-181
867.614	-881
867.699	-111
867.785	1546
867.870	1278
867.956	1564
868.041	1481
868.127	455
868.212	1625
868.297	598
868.383	-916
868.468	-142
868.553	263
868.639	-66
868.724	700
868.809	952
868.894	-653
868.979	-1182
869.065	-25
869.150	-1137
869.235	-1059
869.320	-1302
869.405	-1226
869.490	-1351
869.575	-782
869.660	-976
869.745	-1142
869.830	-1176
869.915	-1186
870.000	-282
870.085	-1490
870.169	-1176
870.254	-466
870.339	-1844
870.424	-974
870.509	-603
870.593	-1227
870.678	-1156
870.763	-1108
870.847	-259
870.932	-12
871.016	-335
871.101	-16
871.186	-1058
871.270	-1072
871.355	-1471
871.439	-1079
871.523	-849
871.608	-676
871.692	-165
871.777	169
871.861	-757
871.945	-1063
872.030	-943
872.114	-727
872.198	-1427
872.282	-143
872.367	-538
872.451	-792
872.535	-1375
872.619	-700
872.703	-1671
872.787	-1295
872.871	-1042
872.955	-1760
873.039	-1171
873.123	-802
873.207	502
873.291	-212
873.375	-1558
873.459	-130
873.543	-1151
873.627	-1327
873.711	-1436
873.794	-401
873.878	-299
873.962	-1743
874.045	-1183
874.129	-1289
874.137	-1277
874.213	-1154
874.245	-1180
874.296	-1217
874.352	-1312
874.380	-1366
874.460	-926
874.464	-909
874.547	-571
874.568	-579
874.631	-620
874.676	-1048
874.714	-1388
874.784	-440
874.798	-264
874.881	254
874.892	71
874.965	-1129
874.999	-1029
875.048	-914
875.107	-1174
875.131	-1284
875.215	-596
875.215	-596
875.298	-1305
875.323	-1337
875.381	-1360
875.430	-1176
875.465	-1067
875.538	-1370
875.548	-1408
875.631	-951
875.646	-1059
875.714	-1632
875.753	-1541
875.798	-1411
875.861	-1095
875.881	-1018
875.964	-359
875.968	-408
876.047	-1154
876.076	-857
876.130	-370
876.183	-350
876.213	-304
876.291	-418
876.296	-438
876.379	-1054
876.398	-1041
876.462	-689
876.506	-411
876.545	-376
876.613	-624
876.628	-644
876.711	-1034
876.721	-1016
876.794	-908
876.828	-1047
876.877	-1065
876.935	-807
876.960	-769
877.043	292
877.043	288
877.125	-570
877.150	-489
877.208	-178
877.258	-34
877.291	106
877.365	-129
877.374	-192
877.456	6
877.472	-198
877.539	-923
877.579	-573
877.622	-210
877.687	-617
877.704	-691
877.787	-389
877.794	-394
877.869	-636
877.901	-646
877.952	-568
878.008	-635
878.034	-715
878.115	-32
878.117	-12
878.199	-900
878.222	-687
878.282	-384
878.329	-602
878.364	-662
878.437	-614
878.447	-637
878.529	-934
878.544	-943
878.611	-496
878.651	-542
878.694	-889
878.758	-191
878.776	90
878.858	-372
878.865	-340
878.941	-320
878.972	-287
879.023	72
879.078	7
879.105	-171
879.185	-660
879.187	-661
879.269	-721
879.292	-642
879.351	-468
879.399	-500
879.433	-582
879.506	-523
879.516	-495
879.598	-908
879.613	-830
879.680	-477
879.720	-262
879.762	-195
879.827	-550
879.844	-604
879.926	-521
879.933	-520
880.007	-587
880.040	-660
880.089	-403
880.147	12
880.171	92
880.253	-24
880.254	-25
880.335	240
880.360	204
880.417	237
880.467	362
880.499	678
880.574	1264
880.580	1238
880.662	210
880.680	35
880.744	-49
880.787	-36
880.825	-289
880.893	-602
880.907	-546
880.989	106
881.000	109
881.070	-190
881.106	-25
881.152	421
881.213	496
881.233	317
881.315	-636
881.319	-659
881.396	-96
881.426	193
881.478	321
881.532	180
881.559	218
881.639	-167
881.641	-181
881.722	260
881.745	78
881.803	155
881.852	393
881.885	178
881.958	-234
881.966	-196
882.047	-272
882.064	-231
882.129	-350
882.171	-265
882.210	-41
882.277	260
882.291	307
882.372	-192
882.383	-139
882.454	144
882.489	266
882.535	356
882.596	115
882.616	132
882.697	193
882.702	201
882.778	270
882.808	291
882.859	260
882.914	30
882.940	-74
883.020	-196
883.021	-190
883.102	390
883.127	293
883.183	103
883.233	175
883.264	296
883.339	640
883.345	623
883.426	-49
883.445	-60
883.507	531
883.551	716
883.587	666
883.657	567
883.668	579
883.749	440
883.763	513
883.830	619
883.869	266
883.910	-83
883.975	-304
883.991	-231
884.072	385
884.081	414
884.152	527
884.187	478
884.233	304
884.292	384
884.314	465
884.394	555
884.398	544
884.475	-33
884.504	-80
884.555	346
884.610	491
884.636	369
884.716	245
884.716	252
884.797	126
884.821	258
884.877	341
884.927	440
884.958	578
885.033	350
885.038	344
885.118	426
885.139	385
885.199	388
885.244	655
885.279	734
885.350	634
885.359	617
885.439	470
885.456	392
885.520	329
885.561	415
885.600	566
885.667	570
885.680	550
885.760	343
885.773	388
885.840	876
885.878	948
885.920	808
885.984	473
886.000	536
886.080	1157
886.089	1208
886.160	851
886.195	565
886.240	653
886.300	814
886.320	710
886.400	464
886.406	437
886.480	994
886.511	1153
886.560	883
886.616	664
886.640	780
886.720	1096
886.722	1095
886.800	423
886.827	217
886.879	615
886.932	804
886.959	795
887.038	1086
887.039	1092
887.119	786
887.143	689
887.198	864
887.248	951
887.278	908
887.354	822
887.358	797
887.437	70
887.459	-135
887.517	703
887.564	1409
887.596	1057
887.669	325
887.676	419
887.755	1457
887.774	1676
887.835	1139
887.880	804
887.914	917
887.985	993
887.994	1022
888.073	1308
888.090	1360
888.153	1093
888.195	841
888.232	1022
888.300	1512
888.311	1543
888.391	1589
888.405	1572
888.470	1376
888.510	1265
888.549	1380
888.615	1658
888.628	1569
888.708	893
888.720	791
888.787	832
888.825	776
888.866	803
888.930	958
888.945	1068
889.024	1525
889.035	1583
889.103	1375
889.140	1250
889.182	1255
889.245	1265
889.261	1323
889.340	1552
889.349	1574
889.419	1823
889.454	1919
889.498	1580
889.559	1114
889.577	1075
889.656	888
889.664	867
889.735	868
889.768	867
889.814	1370
889.873	2028
889.978	1331
890.083	1365
890.187	1758
890.292	1276
890.397	1632
890.501	2069
890.606	1031
890.710	2321
890.815	33
890.919	1744
891.024	1758
891.128	1307
891.233	1762
891.337	1379
891.442	1238
891.546	1605
891.650	1727
891.755	2158
891.859	2084
891.963	1193
892.068	1426
892.172	977
892.276	608
892.380	961
892.484	745
892.589	1066
892.693	1376
892.797	1458
892.901	460
893.005	1630
893.109	625
893.213	1892
893.317	276
893.421	1279
893.525	547
893.629	1662
893.733	1124
893.837	1190
893.941	573
894.045	3259
894.148	1358
894.252	4309
894.356	2647
894.460	1328
894.564	1324
894.667	768
894.771	61
894.875	1357
894.978	926
895.082	2006
895.186	645
895.289	1973
895.393	1438
895.496	1833
895.600	427
895.703	1377
895.807	1446
895.910	1485
896.014	1192
896.117	478
896.221	406
896.324	1734
896.427	549
896.531	413
896.634	459
896.737	1533
896.840	1012
896.944	1080
897.047	612
897.150	992
897.253	477
897.356	1318
897.460	1411
897.563	724
897.666	1155
897.769	747
897.872	625
897.975	800
898.078	936
898.181	1181
898.284	400
898.387	315
898.490	958
898.593	1085
898.695	138
898.798	846
898.901	998
899.004	1939
899.107	586
899.209	1012
899.312	190
899.415	1029
899.518	866
899.620	1379
899.723	540
899.826	1754
899.928	794
900.031	1383
900.133	858
900.236	622
900.338	468
900.441	2111
900.543	309
900.646	470
900.748	964
900.851	1558
900.953	130
901.055	601
901.158	722
901.260	1402
901.362	1141
901.465	1143
901.567	-118
901.669	1582
901.771	1527
901.873	1458
901.976	780
902.078	1321
902.180	724
902.282	1062
902.384	373
902.486	683
902.588	956
902.690	1182
902.792	424
902.894	1125
902.996	370
903.098	990
903.200	-327
903.302	1720
903.404	109
903.505	605
903.607	301
903.709	1644
903.811	377
903.913	866
904.014	717
904.116	831
904.218	525
904.319	713
904.421	1337
904.523	2207
904.624	1039
904.726	1160
904.827	899
904.929	1198
905.030	894
905.132	1128
905.233	749
905.335	49
905.436	1073
905.537	1291
905.639	500
905.740	1109
905.841	1238
905.943	1648
906.044	1511
906.145	2018
906.247	708
906.348	1309
906.449	292
906.550	397
906.651	793
906.752	951
906.854	973
906.955	768
907.056	139
907.157	384
907.258	265
907.359	268
907.460	152
907.561	1376
907.662	82
907.762	595
907.863	376
907.964	437
908.065	592
908.166	715
908.267	387
908.367	373
908.468	909
908.569	1343
908.670	451
908.770	678
908.871	815
908.971	1540
909.072	1181
909.173	1098
909.273	135
909.374	548
909.474	-576
909.575	1524
909.675	689
909.776	774
909.876	-123
909.977	1328
910.077	211
910.177	262
910.278	352
910.378	492
910.478	631
910.579	1426
910.679	291
910.779	753
910.879	609
910.980	710
911.080	123
911.180	528
911.280	82
911.380	180
911.480	570
911.580	746
911.680	113
911.780	466
911.880	980
911.980	43
912.080	296
912.180	1134
912.280	718
912.380	890
912.480	-187
912.580	1166
912.679	1220
912.779	523
912.879	-352
912.979	283
913.078	354
913.178	664
913.278	477
913.377	1318
913.477	773
913.577	672
913.676	941
913.776	833
913.875	722
913.975	843
914.074	-7
914.174	1155
914.273	395
914.373	953
914.472	218
914.572	725
914.671	324
914.770	275
914.870	-273
914.969	349
915.068	181
915.167	596
915.267	370
915.366	-219
915.465	-19
915.564	1097
915.663	-474
915.763	644
915.862	374
915.961	399
916.060	247
916.159	435
916.258	-403
916.357	426
916.456	907
916.555	945
916.654	264
916.752	1505
916.851	-136
916.950	1230
917.049	679
917.148	1062
917.247	709
917.345	676
917.444	830
917.543	995
917.642	-270
917.740	1090
917.839	592
917.937	412
918.036	-744
918.135	634
918.233	740
918.332	836
918.430	529
918.529	730
918.627	-17
918.726	477
918.824	67
918.923	791
919.021	-322
919.119	1063
919.218	-661
919.316	149
919.414	140
919.512	292
919.611	-25
919.709	523
919.807	687
919.905	679
920.003	224
920.102	943
920.200	-49
920.298	1023
920.396	331
920.494	1115
920.592	152
920.690	1185
920.788	-846
920.886	237
920.984	-126
921.082	-553
921.180	-64
921.277	1437
921.375	-81
921.473	588
921.571	104
921.669	886
921.766	165
921.864	1262
921.962	-332
922.060	689
922.157	-176
922.255	821
922.352	653
922.450	1576
922.548	333
922.645	627
922.743	-506
922.840	709
922.938	230
923.035	1110
923.133	614
923.230	562
923.327	50
923.425	896
923.522	523
923.619	1677
923.717	-532
923.814	578
923.911	-106
924.008	1931
924.106	251
924.203	707
924.300	-71
924.397	452
924.494	921
924.591	579
924.688	-275
924.786	597
924.883	-159
924.979	-155
925.077	584
925.173	951
925.270	-52
925.367	331
925.464	469
925.561	39
925.658	744
925.755	1028
925.852	229
925.948	1224
926.045	1180
926.142	958
926.239	1364
926.335	1236
926.432	1457
926.529	1216
926.625	657
926.722	1853
926.818	1090
926.915	1081
927.011	379
927.108	437
927.204	-24
927.301	1009
927.397	282
927.494	230
927.590	217
927.687	866
927.783	-174
927.879	832
927.976	-587
928.072	943
928.168	273
928.264	198
928.361	539
928.457	629
928.553	-500
928.649	1055
928.745	244
928.841	735
928.937	-189
929.033	423
929.129	-331
929.225	344
929.321	132
929.417	-339
929.513	-156
929.609	807
929.705	463
929.801	1463
929.897	83
929.993	6
930.089	-610
930.184	806
930.280	54
930.376	516
930.471	-235
930.567	747
930.663	-581
930.758	399
930.854	96
930.950	206
931.045	-133
931.141	1130
931.236	-43
931.332	328
931.427	128
931.523	1103
931.618	225
931.714	-116
931.809	195
931.905	940
932.000	-209
932.095	584
932.191	366
932.286	1170
932.381	813
932.476	221
932.572	-174
932.667	678
932.762	-24
932.857	549
932.952	238
933.047	506
933.142	447
933.237	121
933.332	-304
933.427	974
933.522	59
933.617	481
933.712	522
933.807	745
933.902	377
933.997	-82
934.092	216
934.187	348
934.282	-351
934.376	402
934.471	-232
934.566	544
934.661	117
934.755	904
934.850	-572
934.945	398
935.039	-173
935.134	767
935.228	-615
935.323	380
935.417	15
935.512	1118
935.606	-339
935.701	-706
935.795	-749
935.890	1397
935.984	-241
936.079	1011
936.173	484
936.267	550
936.362	722
936.456	685
936.550	45
936.644	736
936.738	224
936.833	95
936.927	249
937.021	986
937.115	186
937.209	34
937.303	376
937.397	938
937.491	-157
937.585	986
937.679	508
937.773	72
937.867	-198
937.961	367
938.055	-490
938.149	955
938.243	-438
938.337	428
938.430	6
938.524	1310
938.618	1092
938.712	2023
938.805	134
938.899	1317
938.993	412
939.086	1709
939.180	1608
939.274	3334
939.367	-43
939.461	565
939.554	-556
939.648	1427
939.741	-487
939.835	430
939.928	-297
940.022	1028
940.115	-221
940.208	334
940.302	-90
940.395	1003
940.488	-406
940.582	805
940.675	-421
940.768	434
940.861	-485
940.954	186
941.048	-300
941.141	198
941.234	-94
941.327	207
941.420	247
941.513	256
941.606	-355
941.699	-67
941.792	-343
941.885	-301
941.978	287
942.071	262
942.164	-246
942.257	22
942.349	601
942.442	447
942.535	-341
942.628	944
942.721	287
942.813	-661
942.906	459
942.999	686
943.091	187
943.184	522
943.277	-1013
943.369	1454
943.462	380
943.554	601
943.647	-355
943.739	1067
943.832	-540
943.924	-29
944.017	-171
944.109	-470
944.201	478
944.294	892
944.386	-706
944.478	-564
944.571	-118
944.663	578
944.755	541
944.847	741
944.940	36
945.032	-696
945.124	181
945.216	1776
945.308	-278
945.400	68
945.492	-807
945.584	391
945.676	212
945.768	222
945.860	106
945.952	-153
946.044	447
946.136	763
946.228	-296
946.320	-204
946.412	451
946.503	-37
946.595	-103
946.687	159
946.779	-326
946.870	72
946.962	-809
947.054	660
947.145	-183
947.237	-83
947.329	-193
947.420	-290
947.512	-728
947.603	-576
947.695	-355
947.786	-218
947.878	-804
947.969	380
948.061	-1096
948.152	-880
948.243	-238
948.335	830
948.426	-917
948.517	96
948.609	-618
948.700	179
948.791	-418
948.882	-422
948.973	-681
949.065	321
949.156	-420
949.247	-633
949.338	-56
949.429	242
949.520	-84
949.611	-160
949.702	-184
949.793	25
949.884	247
949.975	790
950.066	-271
950.157	-577
950.247	-317
950.338	373
950.429	138
950.520	133
950.611	-117
950.701	-255
950.792	-643
950.883	513
950.973	233
951.064	886
951.155	67
951.245	847
951.336	116
951.427	-465
951.517	78
951.608	761
951.698	175
951.788	-380
951.879	-828
951.969	123
952.060	-415
952.150	413
952.240	-130
952.331	-1713
952.421	462
952.511	-513
952.602	-145
952.692	378
952.782	-919
952.872	133
952.962	137
953.052	410
953.143	-487
953.233	891
953.323	-89
953.413	353
953.503	-178
953.593	254
953.683	-979
953.773	595
953.863	92
953.953	-673
954.042	76
954.132	-502
954.222	-420
954.312	-655
954.402	-792
954.492	-80
954.581	687
954.671	-191
954.761	-875
954.850	-91
954.940	-1528
955.030	356
955.119	-813
955.209	-339
955.298	-524
955.388	-369
955.477	408
955.567	-250
955.656	937
955.746	-384
955.835	-323
955.925	-23
956.014	-326
956.103	-273
956.193	-268
956.282	810
956.371	125
956.461	269
956.550	-1497
956.639	554
956.728	-1256
956.817	817
956.906	-42
956.995	644
957.085	-1207
957.174	382
957.263	-263
957.352	-471
957.441	198
957.530	43
957.619	389
957.708	177
957.796	-136
957.885	433
957.974	-195
958.063	735
958.152	-1006
958.241	849
958.329	197
958.418	192
958.507	-944
958.596	1828
958.684	140
958.773	1223
958.861	-37
958.950	1473
959.039	929
959.127	807
959.216	1228
959.304	925
959.393	173
959.481	1363
959.570	861
959.658	1410
959.746	534
959.835	1945
959.923	1321
960.011	964
960.100	1198
960.188	1117
960.276	165
960.365	823
960.453	244
960.541	-190
960.629	329
960.717	-104
960.805	-1016
960.893	-96
960.981	-1007
961.069	411
961.158	-42
961.245	1255
961.333	-175
961.421	-464
961.509	-367
961.597	1060
961.685	-12
961.773	305
961.861	-618
961.949	-291
962.036	-720
962.124	243
962.212	-1072
962.299	-236
962.387	-278
962.475	258
962.562	-827
962.650	971
962.738	-51
962.825	-74
962.913	-852
963.000	-1216
963.088	-91
963.175	225
963.263	-413
963.350	-429
963.438	-389
963.525	574
963.612	1107
963.700	2855
963.787	7507
963.874	3854
963.962	-420
964.049	134
964.136	-470
964.223	-151
964.310	-576
964.398	273
964.485	-188
964.572	148
964.659	194
964.746	836
964.833	-412
964.920	-236
965.007	-1114
965.094	-126
965.181	-1114
965.268	367
965.355	-639
965.441	8
965.528	-1037
965.615	107
965.702	-1380
965.789	-776
965.875	-1088
965.962	-62
966.049	-1463
966.136	-252
966.222	-983
966.309	-814
966.395	-1226
966.482	179
966.569	-584
966.655	-933
966.742	-657
966.828	-25
966.915	-563
967.001	737
967.087	-911
967.174	220
967.260	346
967.347	-155
967.433	1887
967.519	4559
967.605	749
967.692	-1014
967.778	-860
967.864	-65
967.950	-938
968.036	-535
968.123	-940
968.209	-116
968.295	-1313
968.381	1173
968.467	-235
968.553	-1098
968.639	63
968.725	-258
968.811	293
968.897	609
968.983	-441
969.069	-514
969.154	114
969.240	-283
969.326	-1148
969.412	-700
969.497	-697
969.583	-918
969.669	48
969.755	-345
969.840	-1237
969.926	-146
970.012	-1192
970.097	199
970.183	-1437
970.268	-178
970.354	994
970.439	780
970.525	2601
970.610	-160
970.696	232
970.781	-241
970.866	-1626
970.952	384
971.037	-458
971.122	-861
971.208	-529
971.293	203
971.378	-1765
971.463	-133
971.549	-83
971.634	-519
971.719	494
971.804	619
971.889	988
971.974	-581
972.059	-630
972.144	49
972.229	-80
972.314	-494
972.399	-540
972.484	-467
972.569	-43
972.654	-287
972.739	1489
972.824	527
972.908	-134
972.993	-58
973.078	-1166
973.163	-366
973.247	-659
973.332	-1489
973.417	327
973.501	-1317
973.586	-438
973.671	-127
973.755	-224
973.840	-328
973.924	-372
974.009	-1000
974.093	-1014
974.178	1325
974.262	260
974.346	394
974.431	-348
974.515	-382
974.600	-711
974.684	233
974.768	-926
974.852	-502
974.937	-1570
975.021	921
975.105	-766
975.189	-38
975.273	-608
975.358	-1033
975.442	-984
975.526	123
975.610	-1430
975.694	-1137
975.778	-446
975.862	-951
975.946	-2121
976.030	1288
976.114	-1277
976.198	-619
976.281	-1076
976.365	47
976.449	-914
976.533	218
976.617	-553
976.700	-180
976.784	-748
976.868	-630
976.951	91
977.035	311
977.119	-636
977.202	-546
977.286	481
977.369	-1286
977.453	158
977.536	-2
977.620	-1018
977.703	394
977.787	-1335
977.870	509
977.953	317
978.037	-163
978.120	-649
978.203	209
978.287	910
978.370	811
978.453	-823
978.536	55
978.620	-107
978.703	1108
978.786	-1510
978.869	-368
978.952	-979
979.035	472
979.118	-955
979.201	-955
979.284	237
979.367	-422
979.450	-197
979.533	-851
979.616	-356
979.699	-1082
979.782	-442
979.865	-487
979.948	-479
980.030	-731
980.113	-1226
980.196	-571
980.279	-645
980.361	-380
980.444	-1265
980.526	374
980.609	-632
980.692	-596
980.774	56
980.857	-1055
980.939	214
981.022	-247
981.104	-1328
981.187	-476
981.269	-101
981.352	-187
981.434	-1377
981.516	-816
981.599	296
981.681	-24
981.763	-1090
981.846	-26
981.928	-666
982.010	-761
982.092	-945
982.174	1015
982.256	-1631
982.339	-690
982.421	-783
982.503	-2
982.585	-1217
982.667	-988
982.749	-1055
982.831	776
982.913	-1348
982.995	1095
983.077	-979
983.158	76
983.240	-1936
983.322	-326
983.404	-302
983.486	-996
983.568	-441
983.649	-667
983.731	-303
983.813	-384
983.894	-576
983.976	-938
984.058	-781
984.139	52
984.221	-1741
984.302	58
984.384	-664
984.465	-1370
984.547	-480
984.628	-1162
984.710	-101
984.791	-419
984.872	-1136
984.954	-819
985.035	-634
985.116	-884
985.198	-1453
985.279	603
985.360	-1100
985.441	-320
985.522	-500
985.604	-428
985.685	-1984
985.766	406
985.847	-176
985.928	-1135
986.009	-608
986.090	-738
986.171	133
986.252	-876
986.333	-73
986.414	-555
986.495	-266
986.576	-1112
986.656	-843
986.737	29
986.818	-280
986.899	-543
986.980	-885
987.060	708
987.141	-1223
987.222	-238
987.302	-530
987.383	139
987.464	-703
987.544	-607
987.625	-957
987.705	680
987.786	-977
987.866	221
987.947	-443
988.027	-1045
988.108	-1174
988.188	71
988.268	-643
988.349	-544
988.429	-915
988.509	572
988.589	-919
988.670	-1213
988.750	-405
988.830	-1121
988.910	-821
988.990	-64
989.070	-499
989.151	-571
989.231	-1186
989.311	492
989.391	-1345
989.471	-446
989.551	-625
989.631	-869
989.711	-452
989.791	-1013
989.870	-1270
989.950	521
990.030	-745
990.110	-1071
990.190	-655
990.269	-322
990.349	-1422
990.429	-97
990.509	-136
990.588	-699
990.668	-599
990.747	-134
990.827	-807
990.907	251
990.986	-719
991.066	336
991.145	-1431
991.225	-909
991.304	-1064
991.383	-255
991.463	-1599
991.542	419
991.622	-1510
991.701	-718
991.780	-1293
991.859	-978
991.939	-619
992.018	-496
992.097	-298
992.176	247
992.256	-1173
992.335	-1132
992.414	-579
992.493	-1593
992.572	-1085
992.651	483
992.730	-1068
992.809	-214
992.888	-949
992.967	-139
993.046	-535
993.125	-1141
993.203	-1259
993.282	-616
993.361	-718
993.440	-8
993.519	-1727
993.597	83
993.676	-1274
993.755	606
993.834	-387
993.912	-1415
993.991	82
994.069	-851
994.148	-821
994.226	163
994.305	-844
994.384	-1011
994.462	24
994.540	-194
994.619	-1273
994.697	424
994.776	-1392
994.854	287
994.932	-1451
995.011	428
995.089	-704
995.167	-508
995.245	-1244
995.324	-1208
995.402	-1301
995.480	510
995.558	-843
995.636	-846
995.714	-1397
995.792	11
995.870	-1087
995.948	-696
996.026	-918
996.104	-1235
996.182	-668
996.260	-971
996.338	-673
996.416	-1051
996.494	-1279
996.572	-131
996.649	-1166
996.727	-339
996.805	-866
996.883	-1552
996.960	-1233
997.038	-223
997.116	-1280
997.193	-985
997.271	-282
997.348	-1112
997.426	-512
997.504	-1373
997.581	-902
997.658	434
997.736	-2034
997.813	-479
997.891	-895
997.968	-1016
998.046	-407
998.123	-900
998.200	-407
998.277	-1755
998.355	-618
998.432	-1635
998.509	-920
998.586	29
998.663	-757
998.741	-976
998.818	-1037
998.895	-1615
998.972	-708
999.049	-1029
999.126	-716
999.203	-906
999.280	-803
999.357	-267
999.434	-1490
999.511	-652
999.587	-612
999.664	-1291
999.741	-497
999.818	334
999.895	-1124
999.971	-1249
1000.048	-1511
1000.125	839
1000.202	-1712
1000.278	-1000
1000.355	-987
1000.431	-965
1000.508	-2279
1000.584	-453
1000.661	-933
1000.738	-1027
1000.814	-998
1000.890	563
1000.967	-889
1001.043	-268
1001.120	-1823
1001.196	-886
1001.272	-1152
1001.349	-422
1001.425	-746
1001.501	-1291
1001.577	-1550
1001.654	-243
1001.730	-1010
1001.806	-298
1001.882	-1602
1001.958	-642
1002.034	-665
1002.110	18
1002.186	-1564
1002.262	-743
1002.338	-1457
1002.414	-1
1002.490	-320
1002.566	-1125
1002.642	-1887
1002.718	353
1002.794	-1047
1002.870	-740
1002.945	-849
1003.021	-1108
1003.097	-1767
1003.173	466
1003.248	-1857
1003.324	-882
1003.400	-1278
1003.475	-877
1003.551	-1172
1003.626	-1087
1003.702	-728
1003.777	-457
1003.853	-1269
1003.928	-1005
1004.004	-1430
1004.079	-290
1004.155	-1426
1004.230	-1999
1004.305	-527
1004.381	-496
1004.456	-783
1004.531	-816
1004.607	-1967
1004.682	-384
1004.757	-1606
1004.832	-876
1004.907	-1338
1004.982	-60
1005.057	-845
1005.133	-729
1005.208	-895
1005.283	-1400
1005.358	-774
1005.433	-702
1005.508	-1781
1005.583	-1024
1005.657	-1170
1005.732	4
1005.807	-2090
1005.882	-528
1005.957	-1492
1006.032	-9
1006.106	-1367
1006.181	-520
1006.256	-784
1006.331	-1312
1006.405	-1593
1006.480	-72
1006.554	-1623
1006.629	-721
1006.704	-2490
1006.778	-412
1006.853	-988
1006.927	-840
1007.002	-2176
1007.076	-742
1007.150	-1596
1007.225	-565
1007.299	-1515
1007.373	-1590
1007.448	-1277
1007.522	-1053
1007.596	-619
1007.671	-586
1007.745	-1130
1007.819	-1071
1007.893	-1460
1007.967	-118
1008.041	-1960
1008.115	-587
1008.190	-1506
1008.264	-471
1008.338	-2323
1008.412	-1136
1008.486	-1036
1008.560	-1419
1008.633	-2195
1008.707	-537
1008.781	-1911
1008.855	-856
1008.929	-1726
1009.003	-1379
1009.076	-1809
1009.150	-1337
1009.224	-1098
1009.298	-722
1009.371	-1764
1009.445	-1139
1009.519	-1789
1009.592	-1669
1009.666	-1576
1009.739	-922
1009.813	-2187
1009.886	220
1009.960	-2381
1010.033	-219
1010.107	-1406
1010.180	-1003
1010.253	-1820
1010.327	-1292
1010.400	-1071
1010.473	-1778
1010.547	-790
1010.620	-377
1010.693	-798
1010.766	-1404
1010.840	-880
1010.913	-722
1010.986	-2518
1011.059	-1554
1011.132	-1806
1011.205	-1016
1011.278	-1450
1011.351	-984
1011.424	-1473
1011.497	-1029
1011.570	-1228
1011.643	-2097
1011.716	-2851
1011.789	-993
1011.862	-1008
1011.934	-43
1012.007	-2507
1012.080	-1009
1012.153	-1125
1012.225	-1141
1012.298	-2159
1012.371	-1715
1012.443	-1558
1012.516	-1243
1012.588	-1205
1012.661	-1407
1012.733	-2767
1012.806	-577
1012.879	-1621
1012.951	-1525
1013.023	-2052
1013.096	-1654
1013.168	-1869
1013.241	-521
1013.313	-1553
1013.385	-564
1013.458	-1840
1013.530	-497
1013.602	-2459
1013.674	-710
1013.746	-2609
1013.819	-1547
1013.891	-1207
1013.963	-2051
1014.035	-2398
1014.107	-543
1014.179	-1163
1014.251	-1368
1014.323	-1517
1014.395	-1319
1014.467	-1557
1014.539	-599
1014.611	-1672
1014.683	-420
1014.754	-1821
1014.826	-1420
1014.898	-2192
1014.970	-1486
1015.042	-1482
1015.113	-1359
1015.185	-1874
1015.257	-2103
1015.328	-691
1015.400	-729
1015.471	-2150
1015.543	-1423
1015.615	-1852
1015.686	-1537
1015.757	-1881
1015.829	-1163
1015.901	-2301
1015.972	-929
1016.043	-1758
1016.115	-1349
1016.186	-1498
1016.257	-1264
1016.328	-1919
1016.400	-535
1016.471	-1811
1016.542	-1324
1016.613	-2103
1016.685	-1082
1016.756	-1641
1016.827	-1980
1016.898	-2075
1016.969	-660
1017.040	-2138
1017.111	-1893
1017.182	-1908
1017.253	-2314
1017.324	-1573
1017.395	-1426
1017.466	-1117
1017.537	-1383
1017.608	-1022
1017.678	-1321
1017.749	-2370
1017.820	-1025
1017.891	-2027
1017.961	-1780
1018.032	-1146
1018.103	-1056
1018.173	-2193
1018.244	-1446
1018.315	-1742
1018.385	40
1018.456	-1582
1018.526	-1592
1018.597	-2133
1018.667	-861
1018.738	-1875
1018.808	-1233
1018.878	-2245
1018.949	-1279
1019.019	-1096
1019.089	-1195
1019.160	-1065
1019.230	-1551
1019.300	-2168
1019.371	-1108
1019.441	-1447
1019.511	-1051
1019.581	-1472
1019.651	-1022
1019.721	-1972
1019.791	-1859
1019.861	-1903
1019.931	-1956
1020.001	-1709
1020.071	-1255
1020.141	-1822
1020.211	-626
1020.281	-2504
1020.351	-1435
1020.421	-865
1020.491	-1283
1020.560	-2308
1020.630	-1625
1020.700	-2635
1020.770	-1334
1020.839	-1916
1020.909	-1290
1020.979	-2161
1021.048	-1074
1021.118	-1979
1021.187	-1932
1021.257	-2464
1021.326	-950
1021.396	-1378
1021.465	-1913
1021.535	-2039
1021.604	-1921
1021.674	-1557
1021.743	-1112
1021.812	-1942
1021.882	-1310
1021.951	-2654
1022.020	-2330
1022.089	-1800
1022.159	-1141
1022.228	-1243
1022.297	-1311
1022.366	-1884
1022.435	-2158
1022.504	-2058
1022.573	-1641
1022.642	-2070
1022.711	-1944
1022.781	-2175
1022.849	-790
1022.918	-1937
1022.987	-1094
1023.056	-1930
1023.125	-1122
1023.194	-2283
1023.263	-610
1023.331	-718
1023.400	-1556
1023.469	-2701
1023.538	-2159
1023.606	-2443
1023.675	-1130
1023.744	-2604
1023.812	-1296
1023.881	-2032
1023.949	-1420
1024.018	-2514
1024.086	-1294
1024.155	-2495
1024.223	-1969
1024.292	-2165
1024.360	-1443
1024.429	-2390
1024.497	-2162
1024.565	-2243
1024.634	-2234
1024.702	-2296
1024.770	-1355
1024.838	-2841
1024.907	-748
1024.975	-2714
1025.043	-1824
1025.111	-2456
1025.179	-1806
1025.247	-2422
1025.315	-1768
1025.383	-1903
1025.451	-1733
1025.519	-2179
1025.587	-1605
1025.655	-2362
1025.723	-1584
1025.791	-1466
1025.859	-1433
1025.927	-1326
1025.995	-1706
1026.062	-2513
1026.130	-1117
1026.198	-2099
1026.266	-1481
1026.333	-1594
1026.401	-1077
1026.469	-1878
1026.536	-718
1026.604	-1777
1026.671	-1973
1026.739	-1991
1026.806	-1387
1026.874	-2756
1026.941	-1186
1027.009	-1902
1027.076	-1843
1027.144	-1176
1027.211	-1496
1027.278	-2284
1027.345	-1676
1027.413	-1981
1027.480	-1749
1027.547	-3079
1027.614	-2190
1027.682	-2036
1027.749	-1675
1027.816	-2852
1027.883	-1265
1027.950	-2634
1028.017	-2183
1028.084	-2035
1028.151	-2058
1028.218	-2134
1028.285	-2171
1028.352	-2054
1028.419	-1644
1028.486	-2154
1028.553	-1340
1028.619	-1995
1028.686	-2049
1028.753	-2842
1028.820	-1873
1028.886	-2342
1028.953	-1494
1029.020	-2092
1029.086	-1966
1029.153	-1866
1029.220	-1795
1029.286	-3471
1029.353	-1546
1029.419	-2258
1029.486	-1974
1029.552	-1711
1029.619	-2091
1029.685	-2136
1029.751	-1871
1029.818	-1673
1029.884	-1625
1029.951	-800
1030.017	-1499
1030.083	-1768
1030.149	-1938
1030.216	-2253
1030.282	-821
1030.348	-2112
1030.414	-1565
1030.480	-1294
1030.546	-2163
1030.612	-1485
1030.678	-1580
1030.744	-2732
1030.810	-2057
1030.876	-1680
1030.942	-2204
1031.008	-2022
1031.074	-2414
1031.140	-1965
1031.206	-691
1031.272	-2507
1031.337	-828
1031.403	-1860
1031.469	-1923
1031.534	-2204
1031.600	-1025
1031.666	-2023
1031.731	-1874
1031.797	-1891
1031.863	-2467
1031.928	-2830
1031.994	-1562
1032.059	-1797
1032.125	-1141
1032.190	-2292
1032.256	-1943
1032.321	-2287
1032.386	-1767
1032.452	-1178
1032.517	-1685
1032.582	-2086
1032.647	-2404
1032.713	-2426
1032.778	-1584
1032.843	-2008
1032.908	-1829
1032.974	-2357
1033.039	-1434
1033.104	-1963
1033.169	-2205
1033.234	-2413
1033.299	-1511
1033.364	-1567
1033.429	-2030
1033.494	-1697
1033.559	-1352
1033.624	-2051
1033.688	-2125
1033.753	-2611
1033.818	-986
1033.883	-2578
1033.948	-1713
1034.013	-1570
1034.077	-1499
1034.142	-2656
1034.207	-1363
1034.271	-1925
1034.336	-1386
1034.400	-1816
1034.465	-2563
1034.530	-2583
1034.594	-1355
1034.658	-1684
1034.723	-2111
1034.787	-2223
1034.852	-1952
1034.916	-1951
1034.981	-1346
1035.045	-2138
1035.109	-1839
1035.173	-1486
1035.238	-2458
1035.302	-1366
1035.366	-1873
1035.430	-2699
1035.495	-2082
1035.559	-2486
1035.623	-1886
1035.687	-2259
1035.751	-1491
1035.815	-3146
1035.879	-1835
1035.943	-2356
1036.007	-1814
1036.071	-2262
1036.135	-1831
1036.198	-1909
1036.262	-2461
1036.326	-2125
1036.390	-1444
1036.454	-2075
1036.517	-1197
1036.581	-2615
1036.645	-1667
1036.709	-1564
1036.772	-2312
1036.836	-2534
1036.900	-1293
1036.963	-2256
1037.026	-2438
1037.090	-3096
1037.154	-2040
1037.217	-2093
1037.280	-2195
1037.344	-2840
1037.407	-1931
1037.471	-1612
1037.534	-976
1037.597	-2012
1037.661	-1782
1037.724	-2311
1037.787	-2218
1037.850	-2405
1037.913	-2109
1037.977	-1870
1038.040	-2421
1038.103	-2256
1038.166	-1954
1038.229	-2378
1038.292	-1958
1038.355	-2623
1038.418	-1965
1038.481	-1922
1038.544	-2771
1038.607	-2364
1038.670	-2100
1038.732	-2113
1038.795	-1199
1038.858	-2192
1038.921	-1449
1038.984	-1920
1039.046	-2191
1039.109	-2284
1039.172	-2131
1039.234	-3042
1039.297	-2629
1039.360	-2541
1039.422	-1865
1039.485	-2056
1039.547	-2633
1039.610	-2212
1039.672	-1619
1039.734	-2438
1039.797	-1742
1039.859	-2037
1039.922	-2031
1039.984	-2586
1040.046	-1663
1040.109	-1741
1040.171	-1908
1040.233	-2527
1040.295	-1401
1040.358	-2098
1040.420	-890
1040.482	-2340
1040.544	-1842
1040.606	-2902
1040.668	-2328
1040.730	-1883
1040.792	-1926
1040.854	-1388
1040.916	-3109
1040.978	-2098
1041.040	-1824
1041.102	-2290
1041.164	-2065
1041.225	-1975
1041.287	-1842
1041.349	-2591
1041.411	-961
1041.472	-2097
1041.534	-2437
1041.596	-1789
1041.657	-1401
1041.719	-2667
1041.781	-2160
1041.842	-2326
1041.904	-1181
1041.965	-2227
1042.027	-1973
1042.088	-1060
1042.150	-2263
1042.211	-2435
1042.272	-1703
1042.334	-2579
1042.395	-2293
1042.456	-2536
1042.518	-1652
1042.579	-2716
1042.640	-1839
1042.701	-2203
1042.763	-2365
1042.824	-2738
1042.885	-1617
1042.946	-2169
1043.007	-1861
1043.068	-1945
1043.129	-2164
1043.190	-2166
1043.251	-977
1043.312	-2292
1043.373	-1522
1043.434	-2120
1043.495	-1701
1043.556	-1047
1043.616	-1896
1043.677	-2605
1043.738	-2091
1043.799	-2238
1043.859	-2246
1043.920	-1586
1043.981	-1510
1044.041	-1300
1044.102	-1404
1044.162	-1962
1044.223	-2671
1044.284	-2283
1044.344	-1920
1044.405	-2363
1044.465	-1958
1044.525	-1782
1044.586	-1425
1044.646	-2217
1044.707	-1289
1044.767	-1662
1044.827	-1150
1044.887	-2248
1044.948	-877
1045.008	-1857
1045.068	-1123
1045.128	-2393
1045.188	-1826
1045.249	-1572
1045.309	-1671
1045.369	-1917
1045.429	-1841
1045.489	-2161
1045.549	-1506
1045.609	-2090
1045.669	-2227
1045.729	-1827
1045.789	-1468
1045.848	-2413
1045.908	-1623
1045.968	-1838
1046.028	-1724
1046.088	-2002
1046.147	-624
1046.207	-1822
1046.267	-1522
1046.326	-2076
1046.386	-1558
1046.446	-2169
1046.505	-996
1046.565	-908
1046.624	-157
1046.684	-1534
1046.743	-994
1046.803	-895
1046.862	270
1046.922	0
