'Start Wavelength	183.907
'End Wavelength	1046.922
'Gate Delay	5.000
'Gate Width (ms)	1.050
'Laser Output Level	0.000
'X Position	0.000
'Y Position	0.000
'Z Position	0.000
'Grid Point Number	1.000
'Shot Number	100.000
183.907	458.000
183.977	-717.000
184.047	533
184.116	175
184.186	254
184.256	-337
184.325	-378
184.395	-203
184.465	819
184.534	-163
184.604	-355
184.674	-193
184.743	-199
184.813	-349
184.883	-173
184.952	341
185.022	-695
185.092	-632
185.161	-336
185.231	-4
185.301	-347
185.370	60
185.440	-240
185.509	32
185.579	501
185.649	715
185.718	-161
185.788	-10
185.857	-903
185.927	-793
185.996	152
186.066	251
186.136	-370
186.205	-202
186.275	-18
186.344	310
186.414	568
186.483	-814
186.553	632
186.622	-65
186.692	-933
186.761	109
186.831	405
186.900	-832
186.970	458
187.039	-227
187.109	499
187.178	675
187.248	849
187.317	177
187.387	30
187.456	-542
187.526	-6
187.595	28
187.664	23
187.734	72
187.803	881
187.873	-222
187.942	680
188.012	388
188.081	-320
188.150	139
188.220	487
188.289	97
188.358	650
188.428	-597
188.497	-385
188.567	-66
188.636	177
188.705	-689
188.775	464
188.844	-970
188.913	1019
188.983	-169
189.052	-421
189.121	-532
189.191	-145
189.260	388
189.329	165
189.399	629
189.468	662
189.537	-453
189.606	170
189.676	377
189.745	513
189.814	203
189.883	249
189.953	-66
190.022	592
190.091	2156
190.161	1862
190.230	272
190.299	588
190.368	187
190.437	-22
190.507	661
190.576	475
190.645	649
190.714	-12
190.783	169
190.853	1711
190.922	-404
190.991	708
191.060	696
191.129	321
191.198	253
191.268	-158
191.337	-255
191.406	776
191.475	299
191.544	517
191.613	397
191.682	-158
191.752	116
191.821	444
191.890	333
191.959	458
192.028	445
192.097	136
192.166	217
192.235	-645
192.304	1254
192.373	-242
192.442	124
192.511	385
192.580	-179
192.650	567
192.719	-503
192.788	326
192.857	374
192.926	-493
192.995	233
193.064	1380
193.133	1685
193.202	2045
193.271	1339
193.340	885
193.409	1213
193.478	1700
193.547	1541
193.615	1715
193.684	2307
193.753	1852
193.822	464
193.891	875
193.960	961
194.029	763
194.098	721
194.167	-3
194.236	-92
194.305	317
194.374	305
194.443	248
194.512	-251
194.580	124
194.649	1282
194.718	1200
194.787	-379
194.856	170
194.925	504
194.994	601
195.062	928
195.131	760
195.200	437
195.269	1055
195.338	389
195.407	572
195.475	325
195.544	1223
195.613	166
195.682	758
195.751	1063
195.819	262
195.888	930
195.957	1676
196.026	404
196.094	1031
196.163	282
196.232	1047
196.301	695
196.369	1142
196.438	752
196.507	518
196.576	-54
196.644	734
196.713	-146
196.782	-367
196.850	533
196.919	421
196.988	260
197.056	100
197.125	732
197.194	1069
197.262	188
197.331	706
197.400	216
197.468	735
197.537	222
197.606	711
197.674	1106
197.743	2757
197.812	794
197.880	2992
197.949	1377
198.017	2517
198.086	1378
198.155	594
198.223	670
198.292	2835
198.360	1005
198.429	665
198.497	727
198.566	2017
198.635	2745
198.703	1561
198.772	1220
198.840	3118
198.909	2549
198.977	1073
199.046	362
199.114	879
199.183	931
199.251	703
199.320	609
199.388	472
199.457	52
199.525	1443
199.594	-426
199.662	397
199.731	279
199.799	907
199.867	505
199.936	-397
200.004	440
200.073	418
200.141	708
200.210	98
200.278	161
200.346	691
200.415	640
200.483	473
200.552	270
200.620	714
200.688	342
200.757	173
200.825	456
200.893	625
200.962	633
201.030	1086
201.098	108
201.167	997
201.235	130
201.303	837
201.372	1010
201.440	894
201.508	653
201.577	687
201.645	665
201.713	1160
201.781	1569
201.850	837
201.918	432
201.986	1160
202.055	1127
202.123	1094
202.191	359
202.259	619
202.327	874
202.396	841
202.464	534
202.532	854
202.600	3149
202.669	1782
202.737	328
202.805	495
202.873	747
202.941	646
203.009	948
203.078	1415
203.146	-141
203.214	713
203.282	764
203.350	1180
203.418	686
203.487	1165
203.555	716
203.623	1210
203.691	897
203.759	234
203.827	386
203.895	678
203.963	875
204.031	532
204.099	832
204.168	376
204.236	994
204.304	1070
204.372	1319
204.440	624
204.508	17
204.576	1112
204.644	1211
204.712	447
204.780	321
204.848	499
204.916	1269
204.984	1475
205.052	558
205.120	1640
205.188	1050
205.256	382
205.324	814
205.392	635
205.460	833
205.528	1086
205.596	1688
205.664	1595
205.732	512
205.799	3426
205.867	4307
205.935	998
206.003	481
206.071	1257
206.139	1671
206.207	1726
206.275	753
206.343	1142
206.411	840
206.478	1338
206.546	775
206.614	1053
206.682	573
206.750	1066
206.818	1186
206.885	1805
206.953	-297
207.021	2118
207.089	1409
207.157	940
207.225	392
207.292	796
207.360	1604
207.428	1244
207.496	951
207.563	1022
207.631	911
207.699	315
207.767	598
207.834	1203
207.902	986
207.970	1263
208.038	411
208.105	1243
208.173	1513
208.241	1267
208.309	2051
208.376	1430
208.444	3021
208.512	2122
208.579	460
208.647	1191
208.715	1590
208.782	841
208.850	922
208.918	1318
208.985	1735
209.053	1926
209.120	1431
209.188	1172
209.256	1910
209.323	632
209.391	1995
209.459	2295
209.526	834
209.594	269
209.661	870
209.729	718
209.796	1642
209.864	1741
209.932	508
209.999	2393
210.067	2238
210.134	1800
210.202	624
210.269	2103
210.337	2119
210.404	1128
210.472	2022
210.539	1346
210.607	977
210.674	2165
210.742	1276
210.809	1083
210.877	2729
210.944	2181
211.012	764
211.079	2708
211.146	935
211.214	1836
211.281	1873
211.349	2409
211.416	2084
211.484	2137
211.551	1691
211.618	1684
211.686	2309
211.753	763
211.821	2567
211.888	1924
211.955	1353
212.023	2113
212.090	1903
212.157	1737
212.225	1756
212.292	3662
212.359	7410
212.427	18005
212.494	7425
212.561	2665
212.629	2574
212.696	2774
212.763	2129
212.831	1860
212.898	1700
212.965	1464
213.032	1978
213.100	2026
213.167	1814
213.234	2660
213.301	2391
213.369	1885
213.436	1528
213.503	952
213.570	1323
213.638	1844
213.705	897
213.772	1001
213.839	1911
213.906	2751
213.973	1743
214.041	2435
214.108	1851
214.175	1129
214.242	1200
214.309	2346
214.376	1990
214.444	2611
214.511	2232
214.578	2722
214.645	2068
214.712	2852
214.779	3375
214.846	2471
214.913	3542
214.980	2981
215.048	2692
215.115	2912
215.182	3003
215.249	2710
215.316	1819
215.383	2946
215.450	2240
215.517	1356
215.584	1692
215.651	1436
215.718	1825
215.785	2245
215.852	2113
215.919	2535
215.986	1804
216.053	1862
216.120	1607
216.187	2302
216.254	2007
216.321	2247
216.388	1744
216.455	2418
216.522	2283
216.589	2552
216.656	3828
216.722	3882
216.789	3521
216.856	3839
216.923	3326
216.990	3413
217.057	2786
217.124	3514
217.191	2427
217.258	4925
217.324	5039
217.391	4924
217.458	4057
217.525	2329
217.592	2872
217.659	1486
217.725	2395
217.792	3130
217.859	4188
217.926	1843
217.993	1804
218.059	2228
218.126	1856
218.193	2133
218.260	1205
218.327	827
218.393	1250
218.460	1206
218.527	683
218.594	1796
218.660	2964
218.727	3853
218.794	1737
218.860	2277
218.927	436
218.994	1372
219.061	520
219.127	1589
219.194	3360
219.261	2106
219.327	852
219.394	1592
219.461	478
219.527	2030
219.594	2279
219.661	1527
219.727	483
219.794	2505
219.860	473
219.927	1751
219.994	2176
220.060	3372
220.127	2932
220.193	2694
220.260	2559
220.326	5107
220.393	6465
220.460	8225
220.526	5557
220.593	4321
220.659	4976
220.726	4538
220.792	9337
220.859	8850
220.925	10096
220.992	13366
221.058	12671
221.125	12885
221.191	9187
221.258	4004
221.324	3532
221.391	2160
221.457	2521
221.524	2371
221.590	3845
221.657	11738
221.723	7377
221.789	6595
221.856	6281
221.922	2510
221.989	2516
222.055	2622
222.121	941
222.188	3679
222.254	1450
222.321	1358
222.387	1138
222.453	1661
222.520	993
222.586	1255
222.652	1107
222.719	1007
222.785	1849
222.851	1409
222.918	1039
222.984	1703
223.050	1087
223.116	495
223.183	1590
223.249	1058
223.315	297
223.382	1397
223.448	897
223.514	559
223.580	1215
223.647	547
223.713	676
223.779	1093
223.845	903
223.911	1151
223.978	461
224.044	1247
224.110	1022
224.176	1156
224.242	248
224.309	200
224.375	1240
224.441	1168
224.507	870
224.573	812
224.639	1573
224.705	1127
224.772	672
224.838	939
224.904	1325
224.970	1978
225.036	1288
225.102	916
225.168	249
225.234	1504
225.300	-28
225.366	1307
225.432	1070
225.499	956
225.565	1473
225.631	1329
225.697	1441
225.763	2118
225.829	1994
225.895	2996
225.961	4004
226.027	3712
226.093	2845
226.159	5369
226.225	7164
226.291	14590
226.357	19906
226.423	11390
226.489	6141
226.554	5087
226.620	4969
226.686	5550
226.752	8254
226.818	14590
226.884	26644
226.950	23392
227.016	9744
227.082	6047
227.148	4251
227.214	3807
227.279	3339
227.345	3083
227.411	2760
227.477	2392
227.543	3049
227.609	3477
227.674	3866
227.740	1853
227.806	2011
227.872	2434
227.938	2021
228.003	3057
228.069	1521
228.135	1293
228.201	1117
228.267	1119
228.332	2898
228.398	1762
228.464	1866
228.530	759
228.595	1359
228.661	423
228.727	2674
228.792	3220
228.858	913
228.924	439
228.990	3972
229.055	1309
229.121	2258
229.187	1340
229.252	788
229.318	1668
229.384	1774
229.449	1770
229.515	129
229.581	674
229.646	2632
229.712	1116
229.777	3943
229.843	3881
229.909	2905
229.974	3315
230.040	2623
230.105	1865
230.171	1691
230.236	3629
230.302	4596
230.368	2581
230.433	708
230.499	2274
230.564	2935
230.630	1186
230.695	2011
230.761	2452
230.826	842
230.892	3716
230.957	721
231.023	152
231.088	500
231.154	1159
231.219	1959
231.284	2189
231.350	2969
231.415	826
231.481	1104
231.546	544
231.612	1172
231.677	1210
231.742	77
231.808	1724
231.873	-647
231.939	-44
232.004	3228
232.069	2754
232.135	1055
232.200	695
232.265	2042
232.331	955
232.396	1087
232.461	922
232.527	286
232.592	534
232.657	1151
232.723	2633
232.788	2356
232.853	1397
232.918	1127
232.984	919
233.049	1064
233.114	1948
233.179	1411
233.245	3868
233.310	4663
233.375	1435
233.440	1146
233.506	1277
233.571	331
233.636	657
233.701	1540
233.766	2348
233.832	3772
233.897	1614
233.962	885
234.027	2499
234.092	1405
234.157	829
234.222	964
234.288	3426
234.353	10098
234.418	7581
234.483	4933
234.548	2357
234.613	2010
234.678	3014
234.743	1781
234.808	10096
234.873	5272
234.938	3892
235.004	1804
235.069	2461
235.134	1537
235.199	1723
235.264	1151
235.329	1156
235.394	1933
235.459	2585
235.524	2123
235.589	2066
235.654	2043
235.719	779
235.784	2563
235.849	1779
235.913	5161
235.978	5947
236.043	5815
236.108	2917
236.173	2500
236.238	3320
236.303	1512
236.368	1797
236.433	5426
236.498	7087
236.563	5659
236.627	11667
236.692	36724
236.757	30455
236.822	13610
236.887	8698
236.952	7013
237.017	5523
237.081	6850
237.146	8080
237.211	18423
237.276	37676
237.341	54678
237.405	27680
237.470	11436
237.535	8108
237.600	5781
237.664	5147
237.729	3649
237.794	4651
237.859	10790
237.923	6605
237.988	3558
238.053	4915
238.118	5051
238.182	16412
238.247	12993
238.312	5068
238.376	4194
238.441	1879
238.506	3378
238.570	1727
238.635	2902
238.700	2688
238.764	2160
238.829	5399
238.893	6722
238.958	3938
239.023	2411
239.087	1457
239.152	2403
239.216	1628
239.281	2177
239.346	2706
239.410	2179
239.475	2561
239.539	13352
239.604	9560
239.668	2960
239.733	1587
239.797	1508
239.862	3814
239.926	9450
239.991	4259
240.055	1997
240.120	1734
240.184	1705
240.249	975
240.313	1774
240.378	2322
240.442	6862
240.507	12809
240.571	3455
240.635	5169
240.700	6710
240.764	2665
240.829	2473
240.893	-6
240.957	2186
241.022	7179
241.086	11803
241.151	4679
241.215	1626
241.279	3696
241.344	5245
241.408	3457
241.472	1001
241.537	3808
241.601	3374
241.665	1872
241.730	1902
241.794	2603
241.858	1637
241.922	2497
241.987	2485
242.051	1543
242.115	1525
242.179	2110
242.244	886
242.308	3398
242.372	2279
242.436	2844
242.501	2187
242.565	2409
242.629	1723
242.693	2453
242.757	96
242.822	2777
242.886	2205
242.950	2589
243.014	1935
243.078	3043
243.142	2816
243.206	2599
243.271	2213
243.335	2443
243.399	4906
243.463	17742
243.527	44374
243.591	13285
243.655	5335
243.719	2313
243.783	3905
243.847	5980
243.911	6939
243.975	7588
244.040	4719
244.104	4270
244.168	2767
244.232	3354
244.296	5506
244.360	5637
244.424	2426
244.488	2932
244.552	2227
244.615	1078
244.679	2602
244.743	2799
244.807	2509
244.871	2315
244.935	2041
244.999	1003
245.063	1845
245.127	3645
245.191	5062
245.255	4055
245.319	2686
245.383	2453
245.446	3495
245.510	1715
245.574	2121
245.638	2965
245.702	1680
245.766	6298
245.829	3750
245.893	2456
245.957	1640
246.021	2742
246.085	2344
246.149	3208
246.212	9757
246.276	13889
246.340	5860
246.404	4280
246.467	4334
246.531	5248
246.595	4317
246.659	3896
246.722	3209
246.786	3859
246.850	3634
246.913	5601
246.977	1958
247.041	3430
247.104	3327
247.168	3663
247.232	7715
247.295	19888
247.359	8584
247.423	4462
247.486	6842
247.550	4644
247.614	2843
247.677	5143
247.741	2086
247.804	3107
247.868	4675
247.932	8736
247.995	18005
248.059	6242
248.122	2909
248.186	5384
248.249	8194
248.313	32724
248.376	31241
248.440	20094
248.503	5828
248.567	6629
248.630	7809
248.694	10003
248.757	14401
248.821	34855
248.884	17780
248.948	16562
249.011	24077
249.075	38603
249.138	31778
249.202	11538
249.265	7006
249.328	10724
249.392	5784
249.455	6945
249.519	3937
249.582	5169
249.645	9380
249.709	7325
249.772	6867
249.835	5490
249.899	5084
249.962	5906
250.025	4739
250.089	13013
250.152	15194
250.215	7172
250.279	5203
250.342	6649
250.405	6748
250.468	5281
250.532	7430
250.595	13029
250.658	49929
250.721	76962
250.785	24054
250.848	12967
250.911	6331
250.974	7737
251.038	10147
251.101	20912
251.164	11414
251.227	11022
251.290	10731
251.354	15965
251.417	69179
251.480	63285
251.543	43000
251.606	130469
251.669	85912
251.732	31541
251.795	29826
251.859	31318
251.922	76883
251.985	40511
252.048	16228
252.111	11546
252.174	10485
252.237	19332
252.300	41699
252.363	44649
252.426	95114
252.489	36119
252.552	18575
252.615	13443
252.678	13629
252.741	32121
252.804	42777
252.867	98774
252.930	50923
252.993	26076
253.056	15275
253.119	11089
253.182	9063
253.245	14326
253.308	11274
253.371	9051
253.434	8910
253.497	9441
253.559	18174
253.622	11604
253.685	12201
253.748	11296
253.811	5526
253.874	10170
253.937	7126
254.000	5479
254.062	12190
254.125	17800
254.188	15194
254.251	12707
254.314	6756
254.376	11493
254.439	10879
254.502	9776
254.565	11869
254.628	20299
254.690	9599
254.753	5928
254.816	5824
254.878	5129
254.941	12765
255.004	13088
255.067	5596
255.129	4862
255.192	3060
255.255	2641
255.317	4470
255.380	3165
255.443	2094
255.505	2162
255.568	1961
255.631	2981
255.693	3402
255.756	1881
255.819	2838
255.881	1506
255.944	2536
256.006	2950
256.069	2263
256.132	2199
256.194	3105
256.257	10404
256.319	7631
256.382	5900
256.444	4711
256.507	3667
256.569	2784
256.632	4455
256.694	6718
256.757	20051
256.819	56193
256.882	22506
256.944	9382
257.007	7585
257.069	5942
257.132	5798
257.194	4961
257.257	4202
257.319	3499
257.381	6346
257.444	16065
257.506	67119
257.569	66379
257.631	28527
257.693	14412
257.756	7881
257.818	6249
257.880	4716
257.943	4042
258.005	3412
258.067	3241
258.130	3637
258.192	3560
258.254	7382
258.317	5831
258.379	3828
258.441	9918
258.503	9294
258.566	13654
258.628	16416
258.690	3931
258.753	4389
258.815	6967
258.877	3856
258.939	3709
259.001	3292
259.064	3299
259.126	3348
259.188	5714
259.250	3872
259.312	3829
259.375	9945
259.437	5317
259.499	3651
259.561	2402
259.623	3739
259.685	3974
259.747	3828
259.809	12240
259.872	21957
259.934	37700
259.996	31002
260.058	8529
260.120	3641
260.182	3057
260.244	2469
260.306	2624
260.368	3597
260.430	2193
260.492	6945
260.554	13244
260.616	6735
260.678	16645
260.740	21653
260.802	5139
260.864	3930
260.926	1895
260.988	4682
261.050	3579
261.112	11116
261.174	28007
261.236	17799
261.298	5456
261.359	10136
261.421	13272
261.483	3745
261.545	3683
261.607	1254
261.669	3163
261.731	6248
261.793	14296
261.854	4495
261.916	4497
261.978	4388
262.040	5062
262.102	3683
262.164	4744
262.225	4381
262.287	2792
262.349	7637
262.411	5019
262.472	4029
262.534	5679
262.596	13820
262.658	4216
262.719	2539
262.781	3629
262.843	12889
262.904	5761
262.966	4976
263.028	5170
263.090	28319
263.151	68240
263.213	20704
263.275	10849
263.336	4084
263.398	3737
263.459	2578
263.521	2734
263.583	6437
263.644	3955
263.706	2389
263.767	808
263.829	2345
263.891	1348
263.952	2167
264.014	1311
264.075	4760
264.137	12599
264.198	5457
264.260	1892
264.321	2285
264.383	7395
264.444	18912
264.506	5596
264.567	3950
264.629	8934
264.690	15520
264.752	5043
264.813	3969
264.875	2334
264.936	3354
264.998	1931
265.059	2151
265.120	3009
265.182	5374
265.243	29809
265.305	29501
265.366	7084
265.427	3686
265.489	3402
265.550	1748
265.611	3278
265.673	2304
265.734	2394
265.795	2620
265.857	2103
265.918	3127
265.979	8640
266.040	47668
266.102	39083
266.163	11655
266.224	7410
266.286	4565
266.347	2096
266.408	3151
266.469	2475
266.530	2199
266.592	1688
266.653	4064
266.714	7226
266.775	1927
266.836	1421
266.898	996
266.959	3810
267.020	2916
267.081	2644
267.142	1734
267.203	955
267.264	877
267.326	2130
267.387	1811
267.448	32
267.509	2027
267.570	966
267.631	1570
267.692	489
267.753	1899
267.814	1240
267.875	4357
267.936	9295
267.997	5853
268.058	3949
268.119	2147
268.180	2183
268.241	1570
268.302	1581
268.363	1253
268.424	1476
268.485	2466
268.546	741
268.607	1257
268.668	974
268.729	1410
268.790	1393
268.851	1787
268.912	6237
268.972	7184
269.033	3234
269.094	1517
269.155	1492
269.216	1552
269.277	1134
269.338	1237
269.398	1774
269.459	2284
269.520	2422
269.581	3407
269.642	3390
269.702	3204
269.763	1938
269.824	1733
269.885	2820
269.945	4317
270.006	1272
270.067	1379
270.128	1596
270.188	1793
270.249	1595
270.310	1557
270.370	1349
270.431	1614
270.492	1236
270.553	1566
270.613	3707
270.674	8913
270.734	3470
270.795	1656
270.856	2887
270.916	2235
270.977	1516
271.038	2602
271.098	2485
271.159	3975
271.219	3530
271.280	2355
271.340	1313
271.401	2389
271.462	7297
271.522	3665
271.583	2220
271.643	2637
271.704	2002
271.764	3407
271.825	7069
271.885	29105
271.946	38213
272.006	10733
272.066	16572
272.127	30283
272.187	7964
272.248	4497
272.308	3948
272.369	20907
272.429	9856
272.489	7427
272.550	6856
272.610	6552
272.671	4652
272.731	5735
272.791	8822
272.852	3976
272.912	3749
272.972	2280
273.033	1771
273.093	4389
273.153	5338
273.214	3171
273.274	3566
273.334	15844
273.394	27473
273.455	9706
273.515	10419
273.575	22319
273.635	8253
273.696	12833
273.756	26185
273.816	9945
273.876	5275
273.936	14742
273.997	23995
274.057	5353
274.117	5224
274.177	7022
274.237	34068
274.297	29046
274.358	18295
274.418	20976
274.478	14904
274.538	5850
274.598	4993
274.658	19580
274.718	23534
274.778	8690
274.838	5489
274.898	11722
274.958	34597
275.018	30720
275.078	17864
275.138	6862
275.198	3966
275.258	3229
275.318	4884
275.378	7284
275.438	7432
275.498	4909
275.558	16391
275.618	31434
275.678	16869
275.738	9844
275.798	8424
275.858	5467
275.918	2577
275.978	3328
276.038	3668
276.098	2967
276.157	5403
276.217	15138
276.277	7267
276.337	5537
276.397	2658
276.457	3367
276.517	2510
276.576	2345
276.636	2212
276.696	4640
276.756	10077
276.815	7543
276.875	3121
276.935	4272
276.995	3900
277.055	2093
277.114	2670
277.174	3694
277.234	12799
277.293	6096
277.353	3835
277.413	2796
277.472	2287
277.532	2682
277.592	2826
277.651	9702
277.711	16482
277.771	6174
277.830	22259
277.890	16333
277.950	14097
278.009	38900
278.069	13758
278.128	12143
278.188	15771
278.248	7085
278.307	19231
278.367	11250
278.426	3982
278.486	3524
278.545	2140
278.605	2180
278.664	2203
278.724	3215
278.783	10417
278.843	28019
278.902	7134
278.962	3763
279.021	3704
279.081	5892
279.140	5927
279.199	5559
279.259	4449
279.318	6279
279.378	7579
279.437	12592
279.496	47283
279.556	154587
279.615	108744
279.675	26075
279.734	14485
279.793	21573
279.853	33940
279.912	12490
279.971	8013
280.031	6571
280.090	14111
280.149	22420
280.208	18459
280.268	104494
280.327	94691
280.386	21188
280.445	14980
280.505	13313
280.564	6605
280.623	6142
280.682	7924
280.742	12455
280.801	4054
280.860	2676
280.919	3210
280.978	2942
281.037	2736
281.097	2523
281.156	2819
281.215	1951
281.274	2824
281.333	17735
281.392	11901
281.451	3731
281.510	2224
281.569	2605
281.628	2751
281.688	2531
281.747	2756
281.806	3044
281.865	2015
281.924	1714
281.983	1719
282.042	1618
282.101	1722
282.160	1322
282.219	1269
282.278	2104
282.337	8424
282.396	6127
282.454	2503
282.513	2727
282.572	12709
282.631	7670
282.690	2400
282.749	2217
282.808	3003
282.867	2566
282.926	3066
282.985	2065
283.043	1401
283.102	1821
283.161	2144
283.220	7464
283.279	16377
283.338	5441
283.396	2876
283.455	2567
283.514	3103
283.573	4888
283.631	3646
283.690	2234
283.749	1709
283.808	5871
283.866	5732
283.925	2657
283.984	2103
284.043	4350
284.101	3353
284.160	2864
284.219	5277
284.277	3760
284.336	5315
284.395	18885
284.453	14479
284.512	5415
284.570	7314
284.629	5147
284.688	4498
284.746	4824
284.805	5600
284.863	7310
284.922	8679
284.981	10489
285.039	16051
285.098	27659
285.156	71176
285.215	193716
285.273	177108
285.332	75024
285.390	37402
285.449	21609
285.507	14887
285.566	11833
285.624	9751
285.683	7640
285.741	6561
285.799	5028
285.858	5247
285.916	5428
285.975	3897
286.033	3696
286.091	2861
286.150	2864
286.208	3181
286.267	4451
286.325	3827
286.383	5424
286.442	5317
286.500	2759
286.558	2359
286.616	2686
286.675	3008
286.733	2915
286.791	3307
286.850	3335
286.908	4388
286.966	7111
287.024	3070
287.083	2387
287.141	2213
287.199	2967
287.257	3721
287.315	3337
287.374	3399
287.432	8769
287.490	6335
287.548	3090
287.606	3147
287.664	3415
287.723	4460
287.781	7340
287.839	4361
287.897	5553
287.955	7909
288.013	10790
288.071	24073
288.129	99291
288.187	252843
288.245	112610
288.303	36651
288.361	20119
288.419	14614
288.477	9599
288.535	7012
288.593	6206
288.651	4232
288.709	3904
288.767	3302
288.825	3489
288.883	2478
288.941	3222
288.999	2510
289.057	2303
289.115	2260
289.173	3271
289.231	2871
289.289	2659
289.346	1860
289.404	2932
289.462	4571
289.520	4465
289.578	1610
289.636	1758
289.694	1526
289.751	2024
289.809	1715
289.867	2594
289.925	2815
289.983	2610
290.040	2170
290.098	1631
290.156	1882
290.214	3328
290.271	1191
290.329	1729
290.387	1546
290.444	1409
290.502	434
290.560	1289
290.617	2215
290.675	1655
290.733	1444
290.790	2307
290.848	1872
290.906	1983
290.963	2003
291.021	1686
291.078	2087
291.136	2418
291.194	10407
291.251	20973
291.309	6596
291.366	2632
291.424	1546
291.481	2310
291.539	994
291.596	1969
291.654	806
291.711	1176
291.769	1675
291.826	4405
291.884	3358
291.941	1387
291.999	1963
292.056	1940
292.114	2369
292.171	1861
292.228	1348
292.286	2178
292.343	5522
292.401	6183
292.458	3923
292.515	2814
292.573	3074
292.630	2933
292.687	2957
292.745	2346
292.802	4448
292.859	13827
292.917	19828
292.974	10306
293.031	3404
293.089	2349
293.146	2338
293.203	1512
293.260	1172
293.318	3200
293.375	6156
293.432	3770
293.489	2820
293.546	3411
293.604	3643
293.661	12317
293.718	36239
293.775	19138
293.832	7507
293.889	5804
293.947	5599
294.004	4118
294.061	2917
294.118	8192
294.175	20178
294.232	29302
294.289	11401
294.346	6231
294.403	5762
294.460	4318
294.517	3841
294.574	2882
294.631	2856
294.688	4320
294.745	10752
294.802	42737
294.859	45563
294.916	17901
294.973	8644
295.030	6425
295.087	5384
295.144	3597
295.201	3831
295.258	3869
295.315	4855
295.372	15177
295.429	27810
295.486	13359
295.542	8119
295.599	21463
295.656	36144
295.713	23615
295.770	25728
295.827	10790
295.883	5456
295.940	5517
295.997	7674
296.054	6421
296.111	4739
296.167	3969
296.224	2631
296.281	3136
296.338	3667
296.394	3433
296.451	4170
296.508	12519
296.564	23064
296.621	16320
296.678	34421
296.734	48176
296.791	18918
296.848	9739
296.904	8921
296.961	16776
297.018	29845
297.074	23286
297.131	10157
297.187	7419
297.244	8346
297.301	32999
297.357	54952
297.414	20235
297.470	8588
297.527	5831
297.583	4824
297.640	4906
297.696	3084
297.753	3454
297.809	2405
297.866	1638
297.922	3116
297.979	3096
298.035	3428
298.092	5244
298.148	16885
298.204	15610
298.261	8620
298.317	16081
298.374	42001
298.430	24244
298.486	10960
298.543	8318
298.599	7431
298.656	7471
298.712	12013
298.768	30431
298.824	23089
298.881	8728
298.937	4959
298.993	4586
299.050	3961
299.106	4728
299.162	3394
299.218	4053
299.275	3292
299.331	4592
299.387	8433
299.443	34558
299.500	32808
299.556	11818
299.612	6211
299.668	6048
299.724	3731
299.780	3785
299.837	3557
299.893	7001
299.949	24105
300.005	26456
300.061	25032
300.117	48413
300.173	23974
300.229	9871
300.285	10595
300.341	12359
300.397	6866
300.453	3858
300.510	4070
300.566	3700
300.622	3388
300.678	7208
300.734	18114
300.790	23981
300.845	30645
300.901	17482
300.957	21093
301.013	17790
301.069	7247
301.125	5034
301.181	5724
301.237	4261
301.293	3229
301.349	3312
301.405	3480
301.461	2903
301.516	5562
301.572	5581
301.628	7595
301.684	8031
301.740	12519
301.796	19232
301.851	12876
301.907	20244
301.963	20896
302.019	36651
302.074	101269
302.130	98926
302.186	44018
302.242	19301
302.297	11837
302.353	11009
302.409	18972
302.464	16904
302.520	13425
302.576	33202
302.631	36501
302.687	20664
302.743	8984
302.798	6607
302.854	5414
302.910	5117
302.965	6936
303.021	10851
303.076	10021
303.132	11975
303.187	13592
303.243	8301
303.299	5395
303.354	4544
303.410	4307
303.465	4040
303.521	3599
303.576	5077
303.632	5137
303.687	10435
303.743	32200
303.798	27406
303.853	11023
303.909	7237
303.964	5790
304.020	8028
304.075	10028
304.130	9007
304.186	16911
304.241	17513
304.297	13782
304.352	8209
304.358	7928
304.407	5655
304.449	5807
304.463	5862
304.518	5221
304.539	5335
304.573	5528
304.629	5284
304.630	5368
304.684	9515
304.720	19423
304.739	24286
304.794	36749
304.811	31478
304.850	18981
304.902	8587
304.905	7927
304.960	6894
304.992	7522
305.015	7959
305.071	5936
305.083	5690
305.126	4798
305.173	3379
305.181	3154
305.236	3230
305.264	3275
305.292	3302
305.347	5253
305.354	5194
305.402	4971
305.445	6600
305.457	7016
305.512	7175
305.535	7049
305.567	7004
305.622	7706
305.626	8014
305.678	14928
305.716	28731
305.733	33466
305.788	36223
305.807	31385
305.843	24120
305.897	33609
305.898	33688
305.953	32031
305.988	21525
306.008	16145
306.063	9390
306.078	8661
306.118	7087
306.168	4394
306.173	4148
306.228	4670
306.259	3920
306.283	3395
306.338	4284
306.349	4456
306.393	5231
306.440	6168
306.448	6336
306.503	6145
306.530	6694
306.558	8378
306.613	17587
306.620	18878
306.668	26195
306.711	30280
306.723	30307
306.778	22870
306.801	17385
306.833	11503
306.888	6153
306.892	5949
306.943	4308
306.982	4516
306.997	4647
307.052	4306
307.072	4606
307.107	5505
307.162	7068
307.163	7115
307.217	12077
307.253	14809
307.272	15270
307.327	15278
307.343	13740
307.381	11121
307.434	9696
307.436	9860
307.491	19044
307.524	27818
307.546	30119
307.600	26379
307.614	23375
307.655	15326
307.704	9360
307.710	9159
307.765	11189
307.795	14530
307.819	17111
307.874	27181
307.885	27002
307.929	22482
307.975	17795
307.984	18068
308.038	24774
308.065	30874
308.093	53144
308.148	114108
308.156	127683
308.202	183921
308.246	211811
308.257	206972
308.312	116861
308.336	81161
308.366	58959
308.421	35108
308.426	33391
308.475	22518
308.517	16589
308.530	15132
308.585	12718
308.607	12120
308.639	12150
308.694	13284
308.697	13508
308.748	22665
308.787	33423
308.803	33823
308.857	25573
308.877	21521
308.912	18167
308.967	17146
308.967	17188
309.021	23240
309.058	28853
309.076	36510
309.130	64849
309.148	77266
309.185	145490
309.238	266334
309.239	266686
309.293	268308
309.328	230986
309.348	199780
309.402	98565
309.418	73611
309.457	50258
309.508	30613
309.511	29784
309.566	23161
309.598	21050
309.620	21304
309.674	24267
309.688	25359
309.729	23543
309.778	18987
309.783	18649
309.837	14847
309.868	13462
309.892	16732
309.946	26390
309.959	29560
310.001	35999
310.049	40421
310.055	39169
310.109	23664
310.139	14750
310.163	11803
310.218	7906
310.229	7321
310.272	6384
310.319	5736
310.326	5576
310.381	4965
310.409	4605
310.435	4570
310.489	4824
310.499	4853
310.543	5033
310.589	5402
310.598	5408
310.652	5425
310.679	5448
310.706	4856
310.760	3143
310.769	2949
310.814	2953
310.859	2951
310.868	2929
310.923	2988
310.948	2974
310.977	3341
311.031	4338
311.038	4465
311.085	4504
311.128	4327
311.139	4208
311.193	3806
311.218	3577
311.247	3536
311.301	3446
311.308	3458
311.356	3617
311.398	3661
311.410	3506
311.464	2811
311.488	2502
311.518	2670
311.572	2990
311.578	3037
311.626	4087
311.668	5075
311.680	5215
311.734	5714
311.758	5988
311.788	5547
311.842	4682
311.847	4603
311.896	6614
311.937	8473
311.950	8088
312.004	6361
312.027	5600
312.058	4809
312.112	3469
312.117	3349
312.165	3593
312.207	3827
312.297	5408
312.386	3363
312.476	4101
312.566	7435
312.656	3587
312.745	3444
312.835	3859
312.925	3737
313.015	4804
313.104	4077
313.194	3182
313.284	3283
313.374	3875
313.463	3372
313.553	3136
313.643	2858
313.732	2660
313.822	2066
313.912	3106
314.001	3401
314.091	5123
314.180	5831
314.270	5631
314.360	5409
314.449	4332
314.539	3107
314.628	3594
314.718	3719
314.808	4420
314.897	2522
314.987	3104
315.076	3388
315.166	4033
315.255	4443
315.345	4768
315.434	4608
315.524	4983
315.613	4131
315.703	5094
315.792	5552
315.881	8348
315.971	4063
316.060	9221
316.150	15739
316.239	15476
316.328	4814
316.418	2767
316.507	3150
316.597	4341
316.686	3865
316.775	8011
316.865	15550
316.954	3189
317.043	2274
317.133	2451
317.222	2621
317.311	2796
317.400	1243
317.490	4662
317.579	3705
317.668	1988
317.757	4325
317.847	7701
317.936	14195
318.025	9989
318.114	5085
318.203	4461
318.293	8575
318.382	15998
318.471	11824
318.560	21313
318.649	39356
318.738	6723
318.828	5585
318.917	5182
319.006	8129
319.095	21937
319.184	52734
319.273	21666
319.362	9878
319.451	3893
319.540	4247
319.629	9219
319.718	12499
319.807	7548
319.896	21621
319.985	63448
320.074	15590
320.163	5212
320.252	9680
320.341	9309
320.430	5885
320.519	7624
320.608	3546
320.697	4715
320.786	3570
320.875	4986
320.964	5232
321.053	9952
321.142	13724
321.230	11957
321.319	12147
321.408	26667
321.497	9209
321.586	10575
321.675	16394
321.764	13755
321.852	8476
321.941	14883
322.030	7740
322.119	12663
322.207	27520
322.296	21233
322.385	10101
322.474	11056
322.562	31801
322.651	12100
322.740	12082
322.829	17672
322.917	21045
323.006	9882
323.095	8380
323.183	7169
323.272	11061
323.361	25099
323.449	67662
323.538	20096
323.626	51185
323.715	22666
323.804	12507
323.892	44793
323.981	16505
324.069	7121
324.158	28227
324.246	18273
324.335	7130
324.424	9600
324.512	4316
324.601	4603
324.689	5536
324.778	9685
324.866	13867
324.954	3644
325.043	4548
325.131	11060
325.220	18429
325.308	19759
325.397	14415
325.485	7275
325.574	2416
325.662	2492
325.750	2901
325.839	2430
325.927	2861
326.015	3648
326.104	8476
326.192	10184
326.280	2569
326.369	2963
326.457	4543
326.545	6871
326.634	2404
326.722	2207
326.810	2848
326.898	3158
326.987	3225
327.075	7279
327.163	8627
327.251	3843
327.340	3357
327.428	4684
327.516	1929
327.604	3001
327.692	2928
327.781	4916
327.869	7783
327.957	4849
328.045	3676
328.133	3439
328.221	3885
328.309	2863
328.397	3049
328.485	2926
328.574	4843
328.662	15608
328.750	9155
328.838	4044
328.926	2644
329.014	1619
329.102	4685
329.190	12732
329.278	6416
329.366	2365
329.454	1946
329.542	2772
329.630	1712
329.718	2505
329.806	3094
329.893	3473
329.981	2334
330.069	3352
330.157	13474
330.245	31287
330.333	13074
330.421	3077
330.509	5844
330.597	20901
330.684	11549
330.772	5985
330.860	8470
330.948	11324
331.036	3357
331.123	1782
331.211	2569
331.299	3670
331.387	11566
331.475	15192
331.562	3651
331.650	2095
331.738	4082
331.825	4913
331.913	2061
332.001	1804
332.089	4211
332.176	8837
332.264	24852
332.352	14409
332.439	4559
332.527	3293
332.614	2190
332.702	4373
332.790	2951
332.877	11859
332.965	18652
333.052	3988
333.140	4291
333.228	8439
333.315	2876
333.403	3799
333.490	12897
333.578	8785
333.665	7404
333.753	5310
333.840	2560
333.928	4708
334.015	14298
334.103	26076
334.190	66630
334.278	12206
334.365	5438
334.452	3761
334.540	2435
334.627	3828
334.715	6148
334.802	15057
334.889	91161
334.977	63991
335.064	5658
335.151	3159
335.239	3760
335.326	6394
335.413	38924
335.501	38017
335.588	4159
335.675	3041
335.762	5193
335.850	8316
335.937	5374
336.024	21098
336.111	83908
336.199	21946
336.286	4144
336.373	2435
336.460	1601
336.547	2836
336.635	3931
336.722	2258
336.809	2649
336.896	5577
336.983	20653
337.070	50294
337.157	66061
337.245	57104
337.332	30799
337.419	3909
337.506	2303
337.593	3265
337.680	19386
337.767	43453
337.854	12145
337.941	14183
338.028	16570
338.115	4786
338.202	7614
338.289	18047
338.376	52287
338.463	13620
338.550	32006
338.637	23843
338.724	11463
338.811	14778
338.898	2567
338.984	2223
339.071	3786
339.158	4175
339.245	10367
339.332	6386
339.419	11079
339.506	8298
339.593	731
339.679	2342
339.766	2192
339.853	3409
339.940	5815
340.027	2397
340.113	2559
340.200	3241
340.287	2837
340.374	4006
340.460	5417
340.547	1610
340.634	4921
340.720	20114
340.807	8162
340.894	2068
340.980	1756
341.067	1472
341.154	2488
341.240	4618
341.327	8438
341.414	2947
341.500	2205
341.587	2537
341.674	1942
341.760	6864
341.847	6009
341.933	1851
342.020	894
342.106	1020
342.193	2820
342.279	4055
342.366	2604
342.452	5773
342.539	2555
342.625	9233
342.712	19408
342.798	7185
342.885	2970
342.971	1520
343.058	1454
343.144	1400
343.230	1598
343.317	2341
343.403	947
343.490	1559
343.576	797
343.662	2115
343.749	1718
343.835	4025
343.921	8168
344.008	65521
344.094	114931
344.180	19201
344.267	7712
344.353	30343
344.439	26836
344.525	10731
344.612	6613
344.698	6464
344.784	3561
344.870	2378
344.957	2027
345.043	3072
345.129	2714
345.215	5333
345.301	2815
345.387	1847
345.474	1190
345.560	2008
345.646	2211
345.732	2628
345.818	2451
345.904	2009
345.990	2604
346.076	3419
346.162	6925
346.249	2170
346.335	1299
346.421	2777
346.507	14168
346.593	42134
346.679	6738
346.765	2687
346.851	1511
346.937	1359
347.023	2380
347.108	2502
347.194	2171
347.280	2171
347.366	3245
347.452	14227
347.538	53160
347.624	34372
347.710	24041
347.796	3350
347.882	2106
347.967	1998
348.053	3802
348.139	2548
348.225	1906
348.311	1288
348.397	1210
348.482	3339
348.568	3001
348.654	807
348.740	1055
348.825	863
348.911	5633
348.997	29479
349.083	47418
349.168	5991
349.254	2693
349.340	2144
349.425	1201
349.511	2645
349.597	3472
349.682	8392
349.768	26070
349.854	10013
349.939	2136
350.025	2036
350.110	1284
350.196	1486
350.282	1078
350.367	2067
350.453	4657
350.538	4355
350.624	3420
350.709	3598
350.795	860
350.880	1576
350.966	3101
351.051	4150
351.137	3754
351.222	2250
351.308	9034
351.393	19920
351.479	3804
351.564	977
351.649	1429
351.735	1771
351.820	1594
351.906	988
351.991	2121
352.076	14832
352.162	17914
352.247	3485
352.332	2561
352.418	4695
352.503	7561
352.588	31183
352.673	19081
352.759	4346
352.844	1389
352.929	2534
353.014	3464
353.100	3035
353.185	4182
353.270	6434
353.355	5746
353.441	2515
353.526	2883
353.611	6727
353.696	6193
353.781	4417
353.866	664
353.952	2882
354.037	6864
354.122	13462
354.207	10801
354.292	3645
354.377	2004
354.462	1678
354.547	2066
354.632	3525
354.717	4288
354.802	3287
354.887	1718
354.972	1868
355.057	1394
355.142	420
355.227	2879
355.312	4051
355.397	10033
355.482	22323
355.567	8676
355.652	7382
355.737	8969
355.822	31733
355.907	19691
355.991	3950
356.076	1707
356.161	1693
356.246	1150
356.331	2697
356.416	8863
356.501	61295
356.585	50884
356.670	5455
356.755	4401
356.840	7358
356.924	42471
357.009	132100
357.094	38897
357.179	6777
357.263	5093
357.348	6442
357.433	5353
357.517	4697
357.602	3144
357.687	1921
357.771	7741
357.856	25527
357.941	13698
358.025	38614
358.110	140112
358.195	52492
358.279	5776
358.364	4745
358.448	21885
358.533	52908
358.617	35610
358.702	35924
358.787	11408
358.871	6331
358.956	4621
359.040	2116
359.125	1141
359.209	2717
359.294	13572
359.378	18632
359.462	5238
359.547	3080
359.631	2058
359.716	1423
359.800	2105
359.885	5093
359.969	1899
360.053	2680
360.138	1928
360.222	3743
360.306	6757
360.391	5162
360.475	14293
360.559	24877
360.644	18828
360.728	12525
360.812	35007
360.896	81392
360.981	27806
361.065	12974
361.149	3892
361.233	3461
361.318	2499
361.402	3202
361.486	2850
361.570	2321
361.654	2407
361.739	11527
361.823	58542
361.907	77495
361.991	10945
362.075	6134
362.159	12301
362.243	8880
362.327	4952
362.411	4964
362.495	3824
362.580	2232
362.664	1580
362.748	508
362.832	2019
362.916	2033
363.000	11540
363.084	54119
363.168	87605
363.252	17030
363.336	5689
363.420	11358
363.503	48373
363.587	47127
363.671	6533
363.755	4278
363.839	6098
363.923	2090
364.007	6172
364.091	8249
364.175	19622
364.258	70639
364.342	28880
364.426	11708
364.510	6962
364.594	8600
364.677	18829
364.761	74949
364.845	45716
364.929	11924
365.013	8080
365.096	7704
365.180	8806
365.264	25215
365.347	72379
365.431	27424
365.515	5653
365.598	2133
365.682	3383
365.766	7057
365.849	7764
365.933	3529
366.017	6236
366.100	3765
366.184	421
366.267	2414
366.351	853
366.435	986
366.518	1003
366.602	1163
366.685	2044
366.769	3059
366.852	6595
366.936	9540
367.019	4488
367.103	4265
367.186	9591
367.270	2282
367.353	456
367.436	2118
367.520	765
367.603	2644
367.687	3683
367.770	7172
367.853	6265
367.937	22701
368.020	30240
368.104	6056
368.187	5826
368.270	8833
368.353	6771
368.437	15498
368.520	33722
368.603	17382
368.687	23940
368.770	37128
368.853	8823
368.936	9188
369.020	9421
369.103	2840
369.186	1309
369.269	1633
369.352	5583
369.436	7438
369.519	4471
369.602	943
369.685	3235
369.768	2064
369.851	2286
369.934	935
370.018	2399
370.101	5609
370.184	6473
370.267	3876
370.350	7217
370.433	13257
370.516	37328
370.599	39028
370.682	8413
370.765	19768
370.848	28605
370.931	50445
371.014	18219
371.097	2932
371.180	1455
371.263	1885
371.346	-126
371.429	2026
371.511	1051
371.594	4893
371.677	8689
371.760	10138
371.843	10095
371.926	58039
372.009	110484
372.091	30475
372.174	23406
372.257	52748
372.340	18222
372.423	13397
372.505	15908
372.588	6612
372.671	17321
372.754	48014
372.836	23051
372.919	23615
373.002	38580
373.085	9814
373.167	7578
373.250	22877
373.332	50280
373.415	81087
373.498	144617
373.580	49241
373.663	71684
373.746	88156
373.828	15588
373.911	6882
373.993	11489
374.076	41898
374.159	34469
374.241	16277
374.324	39454
374.406	26506
374.489	51044
374.571	120532
374.654	41675
374.736	25276
374.819	77218
374.901	111675
374.983	101739
375.066	15351
375.148	8244
375.231	37621
375.313	59738
375.395	18987
375.478	4003
375.560	3193
375.643	5197
375.725	27090
375.807	94117
375.890	71782
375.972	28477
376.054	17840
376.136	26268
376.219	11673
376.301	30583
376.383	72760
376.465	26033
376.548	13384
376.630	22556
376.712	59960
376.794	24615
376.877	2373
376.959	1257
377.041	3950
377.123	9647
377.205	9333
377.287	2024
377.369	2023
377.452	1854
377.534	1785
377.616	1460
377.698	1199
377.780	103
377.862	1595
377.944	2002
378.026	14
378.108	2143
378.190	1212
378.272	2260
378.354	1057
378.436	1182
378.518	5251
378.600	16231
378.682	14121
378.764	27129
378.846	20461
378.928	6374
379.010	6922
379.091	4030
379.173	2712
379.255	1677
379.337	3727
379.419	15127
379.501	39033
379.583	15138
379.664	3779
379.746	9333
379.828	27175
379.910	36054
379.991	29536
380.073	4740
380.155	2530
380.237	2530
380.318	1661
380.400	1456
380.482	6601
380.564	7678
380.645	7448
380.727	5935
380.809	5547
380.890	2479
380.972	1694
381.053	1599
381.135	3701
381.217	10735
381.298	27010
381.380	11987
381.461	15608
381.543	63520
381.624	70405
381.706	11549
381.787	6015
381.869	7087
381.951	37962
382.032	113224
382.113	63851
382.195	10170
382.276	8285
382.358	21599
382.439	57504
382.521	71702
382.602	99475
382.684	42999
382.765	69861
382.846	61338
382.928	55914
383.009	29823
383.090	26149
383.172	91566
383.253	124141
383.334	56330
383.416	80162
383.497	37813
383.578	12417
383.659	23118
383.741	91903
383.822	198819
383.903	96610
383.984	51204
384.066	92777
384.147	52874
384.228	9848
384.309	6489
384.390	4542
384.471	3839
384.553	4783
384.634	6705
384.715	6939
384.796	4110
384.877	7301
384.958	26878
385.039	28276
385.120	8805
385.201	5426
385.282	6796
385.363	7337
385.444	5730
385.525	14284
385.606	47106
385.687	38286
385.768	9169
385.849	14344
385.930	59534
386.011	92088
386.092	22118
386.173	5554
386.254	3499
386.335	4928
386.416	5153
386.496	17480
386.577	26527
386.658	11166
386.739	5581
386.820	7076
386.901	5396
386.981	5462
387.062	4146
387.143	9012
387.224	26248
387.304	23456
387.385	7483
387.466	5170
387.547	7581
387.627	4320
387.708	13612
387.789	53233
387.869	60460
387.950	16926
388.031	3571
388.111	4160
388.192	13997
388.273	20137
388.353	10651
388.434	4979
388.514	14541
388.595	58067
388.676	65516
388.756	26859
388.837	22232
388.917	13630
388.998	1766
389.078	3002
389.159	2749
389.239	1148
389.320	6007
389.400	3791
389.480	13074
389.561	29430
389.641	13558
389.722	4844
389.802	6620
389.883	15784
389.963	37599
390.043	23518
390.124	6593
390.204	11444
390.284	27708
390.365	19432
390.445	33967
390.525	79288
390.605	62427
390.686	14540
390.766	4321
390.846	3458
390.927	1419
391.007	1850
391.087	3469
391.167	2958
391.247	2004
391.328	6987
391.408	9799
391.488	5936
391.568	-12
391.648	2564
391.728	4961
391.808	4272
391.888	6025
391.969	17475
392.049	23788
392.129	11691
392.209	15031
392.289	33654
392.369	19403
392.449	16145
392.529	8377
392.609	6483
392.689	10925
392.769	33413
392.849	26353
392.929	21619
393.009	46340
393.089	28554
393.169	12701
393.248	55746
393.328	225713
393.408	224003
393.488	40467
393.568	10190
393.648	5597
393.728	4652
393.807	3310
393.887	4338
393.967	4694
394.047	6620
394.127	8828
394.206	21376
394.286	96823
394.366	332654
394.446	323012
394.525	72748
394.605	16506
394.685	14048
394.764	27839
394.844	43611
394.924	26640
395.003	7264
395.083	5253
395.163	4664
395.242	3817
395.322	5265
395.402	2758
395.481	7833
395.561	21088
395.640	44625
395.720	33492
395.799	54100
395.879	43370
395.958	33514
396.038	140075
396.117	434594
396.197	432006
396.276	123867
396.356	36612
396.435	22490
396.515	13205
396.594	9569
396.673	16668
396.753	68517
396.832	202114
396.912	145356
396.991	30763
397.070	7144
397.150	3400
397.229	4212
397.308	3233
397.388	4673
397.467	3121
397.546	2456
397.625	-349
397.705	4142
397.784	3005
397.863	1514
397.942	1250
398.022	3670
398.101	18410
398.180	45142
398.259	22002
398.338	5175
398.417	3132
398.497	1722
398.576	2189
398.655	1452
398.734	1438
398.813	3168
398.892	18212
398.971	50207
399.050	21405
399.129	1843
399.208	781
399.287	1865
399.366	1194
399.445	1171
399.524	2039
399.603	1485
399.682	4152
399.761	18253
399.840	53722
399.919	38278
399.998	3892
400.077	45
400.156	-486
400.235	2868
400.313	1268
400.392	2742
400.471	13980
400.550	20731
400.629	4436
400.708	3061
400.786	3253
400.865	10621
400.944	10552
401.023	4954
401.102	303
401.180	1510
401.259	1332
401.338	2165
401.416	2765
401.495	1982
401.574	1769
401.652	1658
401.731	2663
401.810	1325
401.888	480
401.967	990
402.046	1187
402.124	3336
402.203	1920
402.281	1539
402.360	4014
402.438	13213
402.517	7652
402.596	2047
402.674	1925
402.753	935
402.831	1464
402.910	2580
402.988	10308
403.066	26552
403.145	14455
403.223	9554
403.302	19424
403.380	15197
403.459	12323
403.537	4818
403.615	2452
403.694	-163
403.772	1058
403.850	596
403.929	896
404.007	1714
404.085	3282
404.164	2435
404.242	2613
404.320	15563
404.398	42926
404.477	47531
404.555	84805
404.633	73133
404.711	31243
404.789	17494
404.868	3315
404.946	664
405.024	986
405.102	660
405.180	83
405.258	-482
405.336	1467
405.415	886
405.493	3706
405.571	3422
405.649	565
405.727	180
405.805	2514
405.883	1709
405.961	2591
406.039	3239
406.117	969
406.195	3544
406.273	19976
406.351	61553
406.429	34994
406.507	5587
406.585	1558
406.663	1549
406.740	2232
406.818	2105
406.896	745
406.974	1882
407.052	6519
407.130	38337
407.208	47094
407.285	8761
407.363	483
407.441	386
407.519	476
407.596	2046
407.674	5409
407.752	14109
407.830	15238
407.907	6213
407.985	1029
408.063	1454
408.141	462
408.218	3355
408.296	1375
408.373	1541
408.451	1795
408.529	2125
408.606	98
408.684	464
408.762	216
408.839	222
408.917	278
408.994	150
409.072	-898
409.149	244
409.227	987
409.304	483
409.382	-49
409.459	-5
409.537	1038
409.614	228
409.692	190
409.769	430
409.846	489
409.924	2574
410.001	107
410.079	937
410.156	1266
410.233	1080
410.311	1405
410.388	-81
410.465	807
410.543	724
410.620	1358
410.697	1336
410.775	948
410.852	-874
410.929	1375
411.006	2501
411.083	821
411.161	3358
411.238	4477
411.315	2129
411.392	867
411.469	1808
411.547	2471
411.624	-640
411.701	543
411.778	1946
411.855	3532
411.932	547
412.009	374
412.086	943
412.163	755
412.240	1853
412.317	3787
412.394	2467
412.471	84
412.548	200
412.625	119
412.702	1719
412.779	4073
412.856	2653
412.933	986
413.010	1028
413.087	4135
413.164	12453
413.241	17050
413.318	3047
413.395	3219
413.471	2859
413.548	1386
413.625	1514
413.702	880
413.779	1451
413.855	270
413.932	11
414.009	-980
414.086	-408
414.162	915
414.239	3389
414.316	13684
414.393	26719
414.469	8505
414.546	710
414.623	-145
414.699	555
414.776	298
414.853	951
414.929	960
415.006	398
415.082	1652
415.159	717
415.236	963
415.312	887
415.389	2437
415.465	2345
415.542	1810
415.618	1003
415.695	2129
415.771	1636
415.848	510
415.924	1563
416.000	526
416.077	1282
416.153	-462
416.230	-802
416.306	146
416.383	564
416.459	1144
416.535	356
416.612	-313
416.688	450
416.764	-353
416.841	123
416.917	347
416.993	849
417.069	1430
417.146	2994
417.222	3881
417.298	1620
417.374	132
417.451	1290
417.527	1099
417.603	1492
417.679	838
417.755	852
417.831	-105
417.908	750
417.984	-120
418.060	784
418.136	2888
418.212	3116
418.288	1259
418.364	936
418.440	213
418.516	1810
418.592	3855
418.668	5936
418.744	7619
418.820	4921
418.896	1096
418.972	240
419.048	274
419.124	3669
419.200	1025
419.276	524
419.352	-330
419.428	1093
419.504	-205
419.579	666
419.655	804
419.731	155
419.807	4462
419.883	7762
419.959	5841
420.034	1770
420.110	4653
420.186	16203
420.262	11777
420.337	2113
420.413	607
420.489	546
420.565	1190
420.640	267
420.716	819
420.792	-1047
420.867	365
420.943	-14
421.019	1351
421.094	1256
421.170	621
421.245	-586
421.321	237
421.397	-672
421.472	2904
421.548	4468
421.623	4088
421.699	1152
421.774	1005
421.850	234
421.925	2087
422.001	936
422.076	478
422.152	723
422.227	1907
422.302	3044
422.378	3105
422.453	5683
422.529	20758
422.604	89125
422.679	176560
422.755	83449
422.830	15483
422.905	4895
422.981	987
423.056	1687
423.131	1152
423.207	1309
423.282	754
423.357	3654
423.432	2275
423.508	2346
423.583	5905
423.658	4847
423.733	1184
423.808	1878
423.883	1869
423.959	1022
424.034	446
424.109	-64
424.184	-1282
424.259	-408
424.334	-213
424.409	-105
424.484	-312
424.559	461
424.634	-334
424.709	956
424.784	1353
424.859	1218
424.934	3201
425.009	11472
425.084	16826
425.159	6058
425.234	1021
425.309	398
425.384	5908
425.459	8969
425.534	3156
425.609	-284
425.683	82
425.758	-167
425.833	898
425.908	2588
425.983	7013
426.058	18703
426.132	6550
426.207	1388
426.282	4287
426.357	1798
426.431	448
426.506	44
426.581	857
426.655	553
426.730	-8
426.805	-221
426.879	439
426.954	194
427.029	4270
427.103	23518
427.178	50654
427.253	21348
427.327	1931
427.402	5191
427.476	11842
427.551	5122
427.625	1416
427.700	1983
427.774	-178
427.849	1297
427.923	-934
427.998	706
428.072	606
428.147	3855
428.221	8707
428.296	17121
428.370	6690
428.444	1796
428.519	4780
428.593	9918
428.667	8513
428.742	10095
428.816	8642
428.890	19294
428.965	23967
429.039	12383
429.113	10178
429.188	2477
429.262	317
429.336	3263
429.410	8274
429.485	6325
429.559	8689
429.633	6240
429.707	1629
429.781	5893
429.855	25041
429.930	30941
430.004	29129
430.078	48025
430.152	34511
430.226	26486
430.300	24017
430.374	2903
430.448	3922
430.522	18395
430.596	44668
430.670	25269
430.744	37702
430.818	55186
430.892	11612
430.966	1591
431.040	291
431.114	-386
431.188	-488
431.262	46
431.336	-166
431.410	5282
431.484	11709
431.557	6088
431.631	304
431.705	-92
431.779	2814
431.853	12633
431.927	8338
432.000	932
432.074	460
432.148	1364
432.222	1183
432.295	-485
432.369	-459
432.443	3534
432.516	24705
432.590	52263
432.664	17121
432.737	1328
432.811	-467
432.885	-523
432.958	464
433.032	-976
433.106	-1023
433.179	-488
433.253	-768
433.326	-455
433.400	-34
433.473	63
433.547	-1444
433.620	600
433.694	607
433.767	2422
433.841	-395
433.914	-403
433.988	441
434.061	1157
434.134	-182
434.208	-604
434.281	-525
434.355	-1219
434.428	448
434.501	994
434.575	-834
434.648	-289
434.721	-634
434.795	-860
434.868	-1152
434.941	-520
435.014	-382
435.088	-225
435.161	413
435.234	1496
435.307	1086
435.381	226
435.454	-487
435.527	-24
435.600	-451
435.673	-214
435.746	-537
435.819	129
435.892	-638
435.966	59
436.039	-234
436.112	-51
436.185	-677
436.258	-673
436.331	-1176
436.404	-266
436.477	-805
436.550	-774
436.623	-1244
436.696	-369
436.769	701
436.842	72
436.915	291
436.987	185
437.060	361
437.133	-858
437.206	-989
437.279	665
437.352	-169
437.425	-120
437.498	266
437.570	2692
437.643	1131
437.716	-243
437.789	-666
437.861	1973
437.934	5371
438.007	2485
438.080	-32
438.152	-272
438.225	4040
438.298	33836
438.370	78191
438.443	29970
438.516	4428
438.588	626
438.661	-547
438.734	-241
438.806	-458
438.879	698
438.951	1541
439.024	2281
439.096	161
439.169	461
439.241	-967
439.314	-263
439.386	1106
439.459	3394
439.531	2894
439.604	599
439.676	-615
439.749	-977
439.821	-1083
439.893	-160
439.966	-109
440.038	-120
440.110	412
440.183	-259
440.255	-1045
440.327	1129
440.400	14278
440.472	47023
440.544	27940
440.617	2939
440.689	2059
440.761	2748
440.833	4480
440.905	2082
440.978	-1115
441.050	-333
441.122	79
441.194	-1081
441.266	-397
441.338	-895
441.411	1544
441.483	13005
441.555	16710
441.627	3875
441.699	1762
441.771	2094
441.843	-503
441.915	113
441.987	-585
442.059	-720
442.131	267
442.203	2203
442.275	2114
442.347	1052
442.419	541
442.491	4439
442.563	11861
442.635	9829
442.706	10947
442.778	7670
442.850	1056
442.922	472
442.994	469
443.066	1368
443.137	675
443.209	-319
443.281	-211
443.353	2828
443.425	10368
443.496	23939
443.568	21597
443.640	8717
443.711	1650
443.783	660
443.855	-418
443.926	-235
443.998	-516
444.070	1921
444.141	887
444.213	1104
444.285	2112
444.356	1525
444.428	1961
444.499	77
444.571	-1103
444.642	-644
444.714	213
444.785	566
444.857	2861
444.928	8435
445.000	5501
445.071	6164
445.143	6589
445.214	1535
445.285	5173
445.357	14721
445.428	25149
445.500	49235
445.571	33190
445.642	13399
445.714	11374
445.785	14348
445.856	3033
445.928	2104
445.999	1615
446.070	995
446.141	804
446.213	2139
446.284	404
446.355	1383
446.426	167
446.497	774
446.569	1915
446.640	3309
446.711	2206
446.782	10
446.853	1657
446.924	2220
446.995	288
447.066	1512
447.138	3149
447.209	1278
447.280	-531
447.351	-604
447.422	-852
447.493	322
447.564	775
447.635	714
447.706	-914
447.777	-936
447.847	-951
447.918	-249
447.989	494
448.060	2886
448.131	5804
448.202	4436
448.273	2204
448.344	729
448.414	-338
448.485	164
448.556	-326
448.627	-549
448.698	411
448.768	-298
448.839	-73
448.910	1749
448.981	2036
449.051	423
449.122	239
449.193	-158
449.263	-214
449.334	-693
449.405	739
449.475	1727
449.546	1896
449.616	3545
449.687	2139
449.758	580
449.828	-388
449.899	-733
449.969	-1264
450.040	6
450.110	569
450.181	585
450.251	-571
450.322	106
450.392	-260
450.463	268
450.533	486
450.604	144
450.674	-264
450.744	154
450.815	-625
450.885	-786
450.955	-547
451.026	-993
451.096	-219
451.166	748
451.237	4340
451.307	10452
451.377	4037
451.447	-788
451.518	632
451.588	-358
451.658	356
451.728	2947
451.799	11957
451.869	12051
451.939	2183
452.009	-209
452.079	-586
452.149	778
452.219	3018
452.289	13802
452.360	9351
452.430	1434
452.500	385
452.570	1104
452.640	2435
452.710	7201
452.780	11385
452.850	7415
452.920	4439
452.990	1584
453.060	348
453.129	1273
453.199	3270
453.269	19899
453.339	35587
453.409	51319
453.479	53144
453.549	77706
453.619	77793
453.688	29167
453.758	4049
453.828	1078
453.898	603
453.968	516
454.037	-39
454.087	501
454.107	690
454.168	237
454.177	135
454.247	768
454.249	805
454.316	621
454.330	944
454.386	1607
454.411	4028
454.456	7394
454.492	9185
454.525	10853
454.574	5445
454.595	3151
454.655	1497
454.665	1268
454.734	2895
454.736	3119
454.804	5674
454.817	7795
454.873	14031
454.898	14603
454.943	15530
454.979	10263
455.013	6200
455.060	4290
455.082	3688
455.141	5750
455.152	6079
455.221	17223
455.222	17662
455.291	26894
455.303	27709
455.360	29914
455.384	37677
455.430	45732
455.465	33760
455.499	24451
455.546	18916
455.569	15593
455.627	9011
455.638	8128
455.707	2179
455.708	2215
455.777	2057
455.789	2059
455.846	1795
455.869	1794
455.916	1855
455.950	1982
455.985	1982
456.031	1823
456.054	1707
456.112	1651
456.124	1652
456.193	2240
456.193	2199
456.262	2941
456.274	3135
456.332	3722
456.355	3879
456.401	3370
456.436	2670
456.470	2229
456.516	1690
456.540	1477
456.597	1009
456.609	896
456.678	1764
456.678	1739
456.747	1725
456.759	1640
456.817	1276
456.840	1405
456.886	1575
456.920	1867
456.955	2396
457.001	2537
457.024	2650
457.082	3435
457.093	3582
457.162	6006
457.163	6060
457.232	5612
457.243	5103
457.301	3222
457.324	2795
457.370	2351
457.405	2654
457.439	2915
457.485	2555
457.508	2487
457.566	3484
457.577	3586
457.646	3415
457.647	3446
457.715	3807
457.727	3808
457.784	4058
457.808	4575
457.853	5403
457.889	5730
457.922	5773
457.969	5953
457.991	6001
458.050	6157
458.060	6183
458.129	6824
458.130	6863
458.198	6157
458.211	5932
458.267	5048
458.292	4464
458.336	4064
458.372	4304
458.405	4819
458.453	5577
458.474	5896
458.533	7545
458.543	7731
458.611	10104
458.614	10186
458.680	7655
458.694	6668
458.749	5041
458.775	4952
458.818	4666
458.855	4114
458.887	3933
458.936	4125
458.955	3977
459.016	4120
459.024	4237
459.093	5322
459.097	5373
459.162	5307
459.177	5259
459.230	5968
459.257	6405
459.299	6297
459.338	6445
459.368	6724
459.418	7732
459.437	7507
459.499	5481
459.505	5397
459.574	5478
459.579	5472
459.643	5499
459.659	5471
459.711	5357
459.740	5686
459.780	6227
459.820	6539
459.849	6828
459.900	7267
459.917	7083
459.981	6889
459.986	6908
460.054	7123
460.061	7101
460.123	7015
460.141	7417
460.191	9235
460.222	9801
460.260	9540
460.302	9570
460.328	9082
460.382	8147
460.397	8208
460.462	8116
460.465	8271
460.534	11917
460.543	12499
460.602	20767
460.623	23879
460.671	34852
460.703	44080
460.739	35183
460.783	21643
460.808	19071
460.864	8831
460.876	8025
460.944	7042
460.945	7018
461.013	6995
461.024	6991
461.081	7111
461.104	7446
461.150	7583
461.184	7020
461.218	6719
461.264	6541
461.286	6591
461.345	6979
461.355	7038
461.423	8071
461.425	8062
461.491	9953
461.505	10599
461.559	21110
461.585	25992
461.628	36724
461.665	47153
461.696	45831
461.745	44789
461.764	38251
461.825	11745
461.832	11469
461.901	9103
461.905	9107
461.969	8055
461.985	7823
462.037	8723
462.065	9174
462.105	11623
462.145	14348
462.173	18168
462.225	25006
462.241	27080
462.305	36853
462.310	35563
462.378	14392
462.385	11812
462.446	9980
462.465	9597
462.514	8490
462.545	8038
462.582	8158
462.625	8499
462.650	8593
462.705	8739
462.718	9405
462.785	12658
462.786	12734
462.854	16981
462.865	17760
462.922	18955
462.945	19438
462.990	13767
463.025	8662
463.058	8417
463.104	8327
463.126	8226
463.184	7995
463.194	8184
463.262	9620
463.264	9681
463.330	9999
463.344	9935
463.398	10815
463.424	11268
463.466	10812
463.504	10668
463.533	11080
463.583	11172
463.601	11513
463.663	12832
463.669	13418
463.737	20439
463.743	21053
463.805	30532
463.823	33302
463.873	49990
463.903	60349
463.940	56208
463.982	51764
464.008	40678
464.062	15105
464.076	14347
464.142	10485
464.144	10461
464.211	10226
464.221	10208
464.279	10440
464.301	10550
464.347	12596
464.381	14168
464.414	15471
464.461	17107
464.482	17243
464.540	17934
464.550	17566
464.617	14141
464.620	14011
464.685	15636
464.699	15949
464.753	18550
464.779	19868
464.820	21567
464.859	23196
464.888	22750
464.938	21730
464.956	21896
465.018	22219
465.023	21891
465.091	17270
465.098	16748
465.158	17220
465.177	17465
465.226	17357
465.257	17066
465.293	17475
465.336	18001
465.361	19835
465.416	23809
465.428	26102
465.495	38317
465.496	38502
465.563	57135
465.575	60355
465.631	63811
465.654	65197
465.698	39947
465.734	18252
465.765	17308
465.813	15917
465.833	15608
465.893	15080
465.900	15186
465.968	15956
465.972	15987
466.035	15540
466.052	15325
466.102	15756
466.131	16025
466.170	15916
466.210	15712
466.237	16242
466.290	17195
466.304	17157
466.369	16765
466.372	16847
466.439	18339
466.449	18508
466.506	21448
466.528	22522
466.573	36071
466.607	46109
466.641	60937
466.687	81504
466.708	84302
466.766	91625
466.775	84206
466.842	26885
466.845	24111
466.909	20815
466.925	20068
466.977	19369
467.004	18989
467.044	21055
467.083	23050
467.111	25150
467.163	28929
467.178	29209
467.242	30096
467.245	30005
467.312	26809
467.321	26328
467.379	27922
467.400	28420
467.446	30388
467.480	31698
467.559	26724
467.638	24274
467.717	25544
467.796	26168
467.875	28681
467.955	29510
468.034	55727
468.113	97932
468.192	120463
468.271	26194
468.350	22258
468.429	22151
468.508	21300
468.588	22390
468.667	25034
468.746	25297
468.825	24690
468.904	21124
468.983	29765
469.062	41573
469.141	43570
469.220	21371
469.299	22968
469.378	24435
469.456	29211
469.535	25309
469.614	25950
469.693	28747
469.772	34964
469.851	47848
469.930	26120
470.009	22674
470.088	22783
470.166	24677
470.245	27991
470.324	29429
470.403	24810
470.482	22498
470.560	23363
470.639	22359
470.718	26429
470.797	22854
470.875	28433
470.954	36993
471.033	35894
471.111	17106
471.190	18619
471.269	17258
471.347	20226
471.426	21673
471.505	25262
471.583	24845
471.662	24716
471.740	20773
471.819	21750
471.898	20088
471.976	21492
472.055	20987
472.133	25174
472.212	30738
472.290	31559
472.369	20458
472.447	20888
472.526	18464
472.604	19919
472.683	19947
472.761	20787
472.839	20016
472.918	19921
472.996	21431
473.075	24339
473.153	21459
473.231	20585
473.310	23924
473.388	21082
473.466	22084
473.545	24018
473.623	27637
473.701	25404
473.780	19312
473.858	20241
473.936	21329
474.014	19643
474.093	24139
474.171	34981
474.249	47024
474.327	23944
474.405	17658
474.484	18936
474.562	17810
474.640	19039
474.718	19249
474.796	18868
474.874	18563
474.952	16779
475.030	16706
475.108	17172
475.187	18354
475.265	19999
475.343	25060
475.421	26307
475.499	18107
475.577	20933
475.655	32394
475.733	60466
475.811	93621
475.889	81301
475.966	37158
476.044	19598
476.122	22740
476.200	26267
476.278	21177
476.356	19664
476.434	20768
476.512	23817
476.590	25895
476.667	22371
476.745	18073
476.823	19424
476.901	18982
476.979	20684
477.056	20207
477.134	19922
477.212	20203
477.290	18504
477.367	16868
477.445	18608
477.523	17083
477.601	16790
477.678	19647
477.756	24816
477.834	22968
477.911	17414
477.989	17376
478.066	17913
478.144	21736
478.222	21753
478.299	26382
478.377	23302
478.454	15869
478.532	16816
478.609	17632
478.687	18396
478.764	16608
478.842	18023
478.919	18912
478.997	17652
479.074	17249
479.152	22002
479.229	26666
479.307	16523
479.384	14422
479.461	16060
479.539	17237
479.616	20830
479.694	16675
479.771	19616
479.848	22341
479.926	29566
480.003	25784
480.080	17031
480.157	15995
480.235	15759
480.312	16705
480.389	22116
480.467	32449
480.544	35180
480.621	18663
480.698	19481
480.775	22203
480.853	21255
480.930	17605
481.007	19283
481.084	21697
481.161	22127
481.238	20091
481.315	16509
481.392	15872
481.470	17202
481.547	17042
481.624	17146
481.701	15579
481.778	18481
481.855	21764
481.932	33372
482.009	52035
482.086	26006
482.163	16885
482.240	22066
482.317	29890
482.393	21411
482.470	17024
482.547	18403
482.624	16511
482.701	17467
482.778	14759
482.855	14329
482.932	14299
483.009	14291
483.085	16538
483.162	19042
483.239	17538
483.316	13977
483.393	14330
483.469	16314
483.546	19597
483.623	19544
483.699	16961
483.776	17481
483.853	20574
483.930	38768
484.006	84425
484.083	121423
484.160	59569
484.236	85054
484.313	59519
484.389	49336
484.466	43067
484.543	42387
484.619	41041
484.696	44769
484.772	47868
484.849	49116
484.925	40642
485.002	41590
485.078	43245
485.155	42889
485.231	38177
485.308	39775
485.384	42070
485.461	56317
485.537	85107
485.614	82174
485.690	39221
485.766	37492
485.843	40808
485.919	49690
485.995	45025
486.072	34974
486.148	34446
486.224	34837
486.301	36832
486.377	42155
486.453	40688
486.530	42120
486.606	55140
486.682	59693
486.758	71306
486.835	75172
486.911	68352
486.987	104511
487.063	83320
487.139	89529
487.215	62923
487.292	40763
487.368	36393
487.444	40968
487.520	44401
487.596	37048
487.672	40618
487.748	53265
487.824	56901
487.900	37813
487.976	37573
488.052	41904
488.128	45612
488.204	38523
488.280	36364
488.356	55084
488.432	100329
488.508	122611
488.584	38296
488.660	32668
488.736	32083
488.812	35536
488.888	42873
488.964	57824
489.039	101231
489.115	124898
489.191	61061
489.267	34378
489.343	32537
489.418	28693
489.494	28846
489.570	28174
489.646	30219
489.722	29980
489.797	32878
489.873	61145
489.949	109527
490.024	65259
490.100	28091
490.176	29796
490.251	31657
490.327	37416
490.403	25565
490.478	25711
490.554	22916
490.629	25836
490.705	23122
490.781	27780
490.856	26854
490.932	29552
491.007	27260
491.083	27713
491.158	26323
491.234	45058
491.309	84215
491.385	63467
491.460	26177
491.536	29481
491.611	23904
491.686	28374
491.762	37881
491.837	65932
491.913	102003
491.988	139784
492.063	132636
492.139	53859
492.214	33839
492.289	21758
492.365	22210
492.440	27147
492.515	26989
492.590	25957
492.666	21513
492.741	35802
492.816	44100
492.891	23767
492.967	21345
493.042	20757
493.117	23812
493.192	29963
493.267	68670
493.342	173350
493.418	168141
493.493	26239
493.568	18748
493.643	22534
493.718	28423
493.793	38717
493.868	32724
493.943	21841
494.018	19580
494.093	19877
494.168	19316
494.243	17510
494.318	16833
494.393	18314
494.468	16174
494.543	17661
494.618	20592
494.693	18096
494.768	18972
494.842	18919
494.917	16306
494.992	19139
495.067	16121
495.142	16570
495.217	18425
495.292	18328
495.366	21285
495.441	27482
495.516	31339
495.591	52101
495.665	142094
495.740	244400
495.815	65658
495.890	26727
495.964	21775
496.039	25129
496.114	21083
496.188	24093
496.263	22933
496.338	22757
496.412	26532
496.487	29160
496.561	28511
496.636	27618
496.710	24917
496.785	27995
496.860	29847
496.934	23500
497.009	23244
497.083	23672
497.158	23382
497.232	29063
497.307	32799
497.381	27504
497.455	34994
497.530	41424
497.604	27610
497.679	33098
497.753	50449
497.827	52831
497.902	42795
497.976	70429
498.050	225484
498.125	630054
498.199	381185
498.273	52991
498.348	40406
498.422	36893
498.496	35914
498.570	32664
498.645	28512
498.719	31456
498.793	39427
498.867	66666
498.941	105466
499.016	316925
499.090	593840
499.164	107920
499.238	25647
499.312	25003
499.386	31248
499.460	28178
499.534	27050
499.609	35911
499.683	50414
499.757	55768
499.831	166099
499.905	470726
499.979	264507
500.053	60523
500.127	52774
500.201	34195
500.275	26804
500.349	26595
500.422	31116
500.496	48357
500.570	110213
500.644	286073
500.718	380095
500.792	51835
500.866	30347
500.940	38080
501.013	28487
501.087	31506
501.161	49376
501.235	74522
501.309	199703
501.382	440927
501.456	229001
501.530	85361
501.603	130132
501.677	33855
501.751	22787
501.825	34291
501.898	79524
501.972	176794
502.046	64984
502.119	37196
502.193	94151
502.266	177932
502.340	62599
502.413	100917
502.487	145873
502.561	71184
502.634	23585
502.708	22194
502.781	18259
502.855	17758
502.928	16922
503.002	16668
503.075	16684
503.149	19843
503.222	19262
503.295	21269
503.369	26017
503.442	51484
503.516	167392
503.589	310274
503.662	142836
503.736	69901
503.809	152436
503.882	102109
503.956	176542
504.029	94547
504.102	37384
504.175	31076
504.249	19309
504.322	24670
504.395	20190
504.468	16990
504.542	17623
504.615	14006
504.688	13875
504.761	14498
504.834	18689
504.907	23608
504.980	26337
505.053	18399
505.127	21176
505.200	26604
505.273	27523
505.346	16348
505.419	15065
505.492	15384
505.565	12740
505.638	12842
505.711	13166
505.784	13993
505.857	12211
505.930	14579
506.003	12531
506.076	18370
506.149	23022
506.221	24303
506.294	30134
506.367	93054
506.440	221138
506.513	65288
506.586	24710
506.659	15015
506.731	15133
506.804	18986
506.877	22693
506.950	17383
507.022	15454
507.095	21712
507.168	20451
507.241	14578
507.313	11985
507.386	14618
507.459	17222
507.531	13156
507.604	12317
507.677	12970
507.749	12316
507.822	19867
507.894	33277
507.967	33557
508.040	20896
508.112	20457
508.185	18235
508.257	19574
508.330	22866
508.402	18609
508.475	19151
508.547	20619
508.620	24107
508.692	32248
508.765	18123
508.837	15941
508.909	15458
508.982	16488
509.054	16843
509.127	16378
509.199	14844
509.271	15451
509.344	14303
509.416	15593
509.488	15352
509.560	16460
509.633	16786
509.705	19273
509.777	20677
509.849	24527
509.922	18104
509.994	18057
510.066	18348
510.138	23340
510.210	36443
510.283	29608
510.355	24705
510.427	22273
510.499	20333
510.571	20582
510.643	20981
510.715	29891
510.787	22235
510.859	23791
510.931	25696
511.003	28058
511.076	23388
511.148	20718
511.219	24756
511.291	38644
511.363	32472
511.435	19926
511.507	18402
511.579	19863
511.651	18692
511.723	18463
511.795	17057
511.867	18341
511.939	26182
512.010	49161
512.082	26436
512.154	18262
512.226	20127
512.298	31355
512.369	34074
512.441	27529
512.513	27168
512.585	21732
512.656	23582
512.728	23617
512.800	18883
512.871	19959
512.943	19771
513.015	16847
513.086	18745
513.158	21158
513.230	20739
513.301	28444
513.373	25465
513.444	18758
513.516	17270
513.588	18535
513.659	20170
513.731	21269
513.802	21635
513.874	41528
513.945	48493
514.016	19507
514.088	18008
514.159	19803
514.231	26350
514.302	30594
514.374	25364
514.445	29182
514.516	53511
514.588	29877
514.659	27877
514.730	44982
514.802	25999
514.873	19342
514.944	21880
515.016	21970
515.087	23675
515.158	37565
515.229	36071
515.301	18854
515.372	21383
515.443	17817
515.514	17669
515.585	16033
515.656	16593
515.728	16613
515.799	16344
515.870	18709
515.941	18864
516.012	19929
516.083	25102
516.154	27360
516.225	28490
516.296	26868
516.367	23315
516.438	26292
516.509	29995
516.580	50570
516.651	147900
516.722	331908
516.793	90028
516.864	41272
516.935	38057
517.006	44415
517.077	64186
517.148	151717
517.219	445773
517.289	437577
517.360	215932
517.431	54057
517.502	27448
517.573	27062
517.643	27648
517.714	31147
517.785	29522
517.856	29375
517.926	32446
517.997	33219
518.068	37790
518.138	50578
518.209	96227
518.280	364544
518.350	785017
518.421	165669
518.492	36762
518.562	31646
518.633	29241
518.703	24433
518.774	30107
518.845	37252
518.915	31110
518.986	27273
519.056	35008
519.127	59793
519.197	107576
519.268	240644
519.338	87605
519.408	34840
519.479	35260
519.549	24292
519.620	21560
519.690	19387
519.760	19065
519.831	19797
519.901	18350
519.971	18635
520.042	20343
520.112	23966
520.182	24737
520.253	24526
520.323	21906
520.393	33092
520.463	37256
520.534	36279
520.604	53281
520.674	26704
520.744	35860
520.814	68847
520.885	51855
520.955	114139
521.025	257049
521.095	54286
521.165	22311
521.235	20128
521.305	16880
521.375	16480
521.445	19708
521.515	20703
521.585	25563
521.655	20609
521.725	21671
521.795	20066
521.865	16807
521.935	31284
522.005	19733
522.075	15978
522.145	18828
522.215	23021
522.285	30096
522.355	47015
522.424	76950
522.494	50096
522.564	29073
522.634	62186
522.704	109199
522.774	28924
522.843	16863
522.913	17618
522.983	19601
523.053	16178
523.122	18272
523.192	28464
523.262	73895
523.331	43304
523.401	15713
523.471	14266
523.540	14558
523.610	11820
523.680	12433
523.749	15279
523.819	20021
523.888	17068
523.958	12940
524.027	16055
524.097	14891
524.166	14687
524.236	14566
524.305	16336
524.375	12712
524.444	12548
524.514	16376
524.583	16766
524.653	20569
524.722	21500
524.791	13736
524.861	15653
524.930	12096
524.999	15710
525.069	19659
525.138	18774
525.207	19268
525.277	15468
525.346	14054
525.415	14308
525.484	14714
525.554	18493
525.623	14190
525.692	13952
525.761	12068
525.830	13470
525.900	14294
525.969	19211
526.038	19303
526.107	22589
526.176	37342
526.245	29507
526.314	28359
526.383	34597
526.452	30623
526.522	62145
526.591	66895
526.660	49027
526.729	24001
526.797	35612
526.867	103327
526.935	301045
527.004	173811
527.073	53330
527.142	16941
527.211	15927
527.280	17630
527.349	15765
527.418	11461
527.487	13858
527.555	11916
527.624	11498
527.693	9542
527.762	13617
527.831	10097
527.899	12610
527.968	12057
528.037	11901
528.106	16903
528.174	24929
528.243	22505
528.312	36684
528.380	28101
528.449	12437
528.518	12136
528.586	9346
528.655	11373
528.723	10583
528.792	11131
528.861	12621
528.929	9591
528.998	11939
529.066	9736
529.135	10692
529.203	10689
529.272	9974
529.340	11344
529.409	13333
529.477	11679
529.545	16341
529.614	17570
529.682	21579
529.751	18431
529.819	23642
529.887	12597
529.956	12005
530.024	12845
530.092	10554
530.161	15283
530.229	17864
530.297	10812
530.365	11625
530.434	9307
530.502	9957
530.570	10380
530.638	8414
530.707	11797
530.775	12533
530.843	10115
530.911	10855
530.979	10274
531.047	10382
531.115	11304
531.183	9307
531.252	11539
531.320	11879
531.388	9681
531.456	10737
531.524	8362
531.592	11436
531.660	12829
531.728	10838
531.796	10189
531.864	10965
531.932	11798
532.000	12400
532.067	12150
532.135	13736
532.203	15325
532.271	17062
532.339	30892
532.407	53309
532.475	23600
532.542	18124
532.610	18954
532.678	33786
532.746	132830
532.814	170072
532.881	29133
532.949	13335
533.017	12256
533.084	12388
533.152	11329
533.220	11749
533.287	11880
533.355	10593
533.423	11073
533.490	11198
533.558	11326
533.625	13117
533.693	13516
533.761	14147
533.828	14793
533.896	16219
533.963	29215
534.031	30813
534.098	35014
534.166	18537
534.233	14331
534.300	17319
534.368	16552
534.435	14588
534.503	14457
534.570	16102
534.637	11987
534.705	12876
534.772	13493
534.840	13695
534.907	25267
534.974	20405
535.041	14206
535.109	16675
535.176	11127
535.243	11770
535.310	12641
535.378	10650
535.445	10009
535.512	10553
535.579	11908
535.646	10781
535.714	12297
535.781	16516
535.848	15904
535.915	18272
535.982	19763
536.049	17913
536.116	17894
536.183	15438
536.250	13876
536.317	15991
536.384	17732
536.451	20827
536.518	18732
536.585	14519
536.652	21429
536.719	25035
536.786	16377
536.853	17556
536.920	27098
536.987	32585
537.053	40449
537.120	128485
537.187	52271
537.254	12897
537.321	11812
537.388	12612
537.454	10642
537.521	11502
537.588	11137
537.654	15090
537.721	14112
537.788	13998
537.855	11187
537.921	13058
537.988	11056
538.055	13462
538.121	11403
538.188	14298
538.254	22311
538.321	31620
538.388	16860
538.454	13187
538.521	11936
538.587	11862
538.654	11043
538.720	11087
538.787	11168
538.853	12566
538.920	15888
538.986	16731
539.053	12964
539.119	14067
539.185	11893
539.252	17758
539.318	19222
539.385	17435
539.451	14877
539.517	16896
539.583	19670
539.650	51543
539.716	67570
539.782	16934
539.849	12551
539.915	14511
539.981	13949
540.047	15435
540.114	14215
540.180	14936
540.246	13481
540.312	21296
540.378	33860
540.444	29832
540.510	49159
540.576	77190
540.643	17421
540.709	11489
540.775	11944
540.841	14487
540.907	23044
540.973	28983
541.039	22006
541.105	19113
541.171	13257
541.237	12915
541.303	14221
541.369	17940
541.435	20856
541.500	27521
541.566	14381
541.632	11678
541.698	11163
541.764	12912
541.830	11419
541.896	11834
541.961	13198
542.027	13139
542.093	11884
542.159	14289
542.224	15433
542.290	23567
542.356	30308
542.421	26968
542.487	16754
542.553	15284
542.618	15491
542.684	13086
542.750	13095
542.815	18662
542.881	34226
542.947	86597
543.012	32558
543.078	13297
543.143	12445
543.209	14714
543.274	13042
543.340	18886
543.405	40573
543.471	36799
543.536	12655
543.602	13422
543.667	11765
543.732	13666
543.798	12518
543.863	13840
543.928	10806
543.994	11081
544.059	11764
544.124	12185
544.190	11368
544.255	13236
544.320	12007
544.386	13407
544.451	17969
544.516	18384
544.581	24267
544.646	65131
544.712	53628
544.777	16994
544.842	17430
544.907	17418
544.972	14700
545.037	15796
545.102	16933
545.168	16880
545.233	17579
545.298	19898
545.363	20023
545.428	22464
545.493	43175
545.558	57648
545.623	21000
545.688	15993
545.753	15891
545.818	15920
545.883	16710
545.947	16234
546.012	18075
546.077	17173
546.142	17097
546.207	16650
546.272	20620
546.337	19487
546.401	16533
546.466	17295
546.531	15654
546.596	18031
546.661	15264
546.725	16108
546.790	14206
546.855	14588
546.919	13862
546.984	16016
547.049	15599
547.113	19315
547.178	15012
547.243	19245
547.307	19248
547.372	22256
547.436	21048
547.501	15282
547.565	16878
547.630	21136
547.695	20204
547.759	25423
547.823	17440
547.888	16082
547.952	15380
548.017	17801
548.081	22382
548.146	28113
548.210	19192
548.274	15151
548.339	14677
548.403	14381
548.468	13898
548.532	15164
548.596	14719
548.660	14907
548.725	17288
548.789	22189
548.853	19400
548.917	18663
548.982	27855
549.046	21531
549.110	14321
549.174	14910
549.238	13825
549.303	14609
549.367	14982
549.431	14294
549.495	14207
549.559	14020
549.623	16386
549.687	19908
549.751	22731
549.815	17802
549.879	16744
549.943	15484
550.007	17435
550.071	18232
550.135	20693
550.199	17673
550.263	17366
550.327	22788
550.391	25703
550.455	17416
550.519	16277
550.582	19036
550.646	23761
550.710	20497
550.774	17013
550.838	16938
550.901	16613
550.965	19309
551.029	19035
551.093	23216
551.156	34590
551.220	67121
551.284	45199
551.347	37570
551.411	90926
551.475	55897
551.538	18706
551.602	17245
551.666	15269
551.729	15344
551.793	17177
551.856	17361
551.920	16266
551.983	17570
552.047	15006
552.110	15463
552.174	15132
552.237	16978
552.301	13923
552.364	14369
552.428	15404
552.491	15396
552.554	15736
552.618	16113
552.681	16982
552.745	19593
552.808	26368
552.871	26859
552.934	19569
552.998	18780
553.061	18827
553.124	17415
553.187	17513
553.251	18821
553.314	20883
553.377	24888
553.440	43738
553.503	140280
553.567	116613
553.630	21545
553.693	16959
553.756	15630
553.819	15187
553.882	16258
553.945	15600
554.008	14400
554.071	13445
554.134	14978
554.197	13514
554.260	14294
554.323	17033
554.386	16327
554.449	14881
554.512	15635
554.575	14596
554.638	16033
554.701	13909
554.764	14682
554.827	14174
554.889	14370
554.952	12992
555.015	13686
555.078	13482
555.141	13786
555.203	12543
555.266	13794
555.329	14295
555.391	13438
555.454	14000
555.517	13981
555.580	12835
555.642	12820
555.705	13078
555.768	13814
555.830	13302
555.893	13245
555.955	13092
556.018	14085
556.080	12635
556.143	12975
556.206	13182
556.268	14978
556.330	13553
556.393	14811
556.455	16719
556.518	25933
556.580	18670
556.643	12261
556.705	12810
556.767	12936
556.830	14717
556.892	16937
556.955	21032
557.017	14577
557.079	13186
557.142	13924
557.204	17945
557.266	29968
557.328	18507
557.391	12112
557.453	11939
557.515	13718
557.577	16160
557.639	14280
557.701	12049
557.764	11322
557.826	12188
557.888	13707
557.950	12620
558.012	12311
558.074	13594
558.136	21307
558.198	26057
558.260	16242
558.322	12579
558.384	13843
558.446	15308
558.508	17487
558.570	20953
558.632	35789
558.694	36310
558.756	30776
558.818	73086
558.880	101032
558.942	29105
559.003	28028
559.065	15590
559.127	14155
559.189	13831
559.251	15487
559.312	18343
559.374	38398
559.436	70056
559.498	27334
559.559	13649
559.621	14635
559.683	18743
559.744	29771
559.806	53009
559.868	44109
559.929	18393
559.991	18034
560.052	21816
560.114	30326
560.176	20944
560.237	27943
560.299	27430
560.360	16483
560.422	15099
560.483	15513
560.545	14066
560.606	14050
560.667	14395
560.729	14656
560.790	13326
560.852	14918
560.913	12982
560.974	13942
561.036	13368
561.097	14283
561.158	14375
561.220	13831
561.281	13155
561.342	15194
561.403	18090
561.465	23774
561.526	46229
561.587	38704
561.648	14207
561.709	13804
561.771	14089
561.832	14558
561.893	13094
561.954	14558
562.015	13375
562.076	15007
562.137	13867
562.198	13720
562.259	13835
562.320	14439
562.381	15447
562.442	20316
562.503	14822
562.564	13906
562.625	13307
562.686	14564
562.747	15022
562.808	15478
562.869	15438
562.930	18895
562.991	16018
563.051	16356
563.112	15244
563.173	14696
563.234	13265
563.294	15096
563.355	14822
563.416	14764
563.477	13814
563.537	15792
563.598	15095
563.659	15915
563.720	14882
563.780	15972
563.841	15350
563.901	15482
563.962	14768
564.023	15603
564.083	15481
564.144	15140
564.204	15463
564.265	16170
564.325	22667
564.386	40113
564.446	23400
564.507	14115
564.567	13374
564.628	14443
564.688	14149
564.749	14500
564.809	18519
564.869	18773
564.930	14438
564.990	14210
565.050	12535
565.111	14264
565.171	12536
565.231	14145
565.292	14431
565.352	12236
565.412	13766
565.472	14311
565.532	14529
565.593	14200
565.653	12940
565.713	14097
565.773	13777
565.833	17175
565.893	17806
565.953	13648
566.013	14261
566.074	17335
566.134	22827
566.194	34395
566.254	27057
566.314	17894
566.374	15067
566.434	15683
566.494	14161
566.554	14335
566.614	15046
566.673	14851
566.733	15748
566.793	16455
566.853	15490
566.913	16545
566.973	15850
567.033	17297
567.092	15416
567.152	16358
567.212	15678
567.272	17768
567.331	15785
567.391	17596
567.451	19694
567.511	26273
567.570	20227
567.630	15678
567.690	15011
567.749	15085
567.809	14836
567.868	16661
567.928	17258
567.988	18669
568.047	18312
568.107	19958
568.166	22244
568.226	29168
568.285	32746
568.345	30864
568.404	27234
568.464	24949
568.523	24166
568.582	25595
568.642	26546
568.701	31081
568.761	39309
568.820	49971
568.879	50124
568.939	46297
568.998	34775
569.057	27143
569.116	24043
569.176	21243
569.235	18850
569.294	17566
569.353	17036
569.413	16865
569.472	16204
569.531	15695
569.590	14301
569.649	14695
569.708	14037
569.767	16254
569.827	17623
569.886	14396
569.945	13106
570.004	13658
570.063	13535
570.122	15216
570.181	14392
570.240	17413
570.299	15889
570.358	16050
570.417	12379
570.475	12867
570.534	13104
570.593	14362
570.652	14020
570.711	14244
570.770	13329
570.829	15194
570.887	14297
570.946	15188
571.005	11523
571.064	12828
571.122	13071
571.181	15406
571.240	11935
571.299	12538
571.357	14300
571.416	14971
571.475	17159
571.533	14687
571.592	13180
571.650	13507
571.709	11135
571.768	12967
571.826	11219
571.885	12088
571.943	11710
572.002	13037
572.060	11816
572.119	11749
572.177	10826
572.236	11198
572.294	10514
572.352	10894
572.411	11010
572.469	11516
572.528	10966
572.586	12026
572.644	13875
572.703	14631
572.761	11048
572.819	11496
572.877	11200
572.936	11095
572.994	10347
573.052	11386
573.110	11415
573.169	10066
573.227	9942
573.285	11049
573.343	9827
573.401	11000
573.459	10440
573.517	10081
573.576	10042
573.634	10771
573.692	10055
573.750	10805
573.808	10791
573.866	12815
573.924	15522
573.982	13244
574.040	11065
574.098	10802
574.155	9532
574.213	9804
574.271	9580
574.329	10803
574.387	10063
574.445	9866
574.503	9301
574.560	9087
574.618	9240
574.676	9025
574.734	8726
574.792	9689
574.849	9367
574.907	9878
574.965	8837
575.022	8772
575.080	8457
575.138	10323
575.195	9578
575.253	9768
575.311	9247
575.368	8693
575.426	8555
575.483	9900
575.541	9793
575.598	9624
575.656	9548
575.713	9299
575.771	8981
575.828	9629
575.886	10017
575.943	10663
576.001	11000
576.058	10278
576.115	11651
576.173	13683
576.230	14079
576.287	14568
576.345	11034
576.402	11027
576.459	11245
576.517	11498
576.574	12551
576.631	13910
576.688	10466
576.746	10706
576.803	11027
576.860	10936
576.917	10407
576.974	10741
577.031	9936
577.089	10602
577.146	11183
577.203	11847
577.260	12040
577.317	12750
577.374	12687
577.431	12490
577.488	10192
577.545	10520
577.602	10780
577.659	11139
577.716	11826
577.773	12681
577.830	10729
577.886	11000
577.943	10607
578.000	12920
578.057	12382
578.114	14753
578.171	16530
578.227	21171
578.284	18655
578.341	16128
578.398	12771
578.454	15530
578.511	14415
578.568	14794
578.625	11785
578.681	11467
578.738	9829
578.794	11130
578.851	9585
578.908	11000
578.964	10027
579.021	11848
579.077	10553
579.134	9985
579.190	9635
579.247	9088
579.303	9071
579.360	9175
579.416	9903
579.473	9720
579.529	9211
579.586	9563
579.642	10497
579.698	11036
579.755	11082
579.811	10518
579.867	11568
579.924	11657
579.980	12842
580.036	16884
580.093	20559
580.149	30370
580.205	29268
580.261	23484
580.317	17928
580.374	17491
580.430	16444
580.486	14518
580.542	13317
580.598	12567
580.619	12276
580.654	11784
580.692	11737
580.710	11735
580.765	10181
580.767	10144
580.823	11621
580.838	11415
580.879	10904
580.911	11165
580.935	11391
580.984	10107
580.991	9943
581.047	12129
581.057	12000
581.103	11482
581.130	12532
581.159	13662
581.203	14422
581.215	14638
581.270	15336
581.276	15019
581.326	12124
581.349	12202
581.382	12348
581.422	11900
581.438	11725
581.494	11645
581.494	11633
581.550	11335
581.567	11467
581.606	11683
581.640	10470
581.661	9819
581.713	10794
581.717	10869
581.773	10647
581.786	10717
581.829	11046
581.859	10857
581.885	10701
581.932	10487
581.940	10441
581.996	10037
582.004	10137
582.052	10766
582.077	10052
582.107	9274
582.150	10541
582.163	10897
582.219	9857
582.223	9890
582.274	10433
582.296	10426
582.330	10439
582.368	11404
582.386	11807
582.441	10483
582.441	10485
582.497	10425
582.514	10736
582.552	11588
582.587	12189
582.608	12444
582.659	10303
582.663	10144
582.719	10550
582.732	10438
582.774	10119
582.805	10633
582.830	11127
582.877	10692
582.885	10606
582.941	10686
582.950	10860
582.996	11559
583.023	12261
583.052	13367
583.095	15093
583.107	15549
583.162	18833
583.168	18875
583.218	18841
583.240	17413
583.273	15284
583.313	13953
583.328	13426
583.384	12612
583.385	12565
583.439	11261
583.458	11289
583.494	11448
583.531	10796
583.549	10464
583.603	10323
583.605	10318
583.660	10737
583.676	10590
583.715	10224
583.748	10780
583.770	11174
583.820	11375
583.825	11381
583.881	9673
583.893	9715
583.936	9887
583.965	9584
583.991	9290
584.038	9679
584.046	9776
584.101	10379
584.110	10352
584.156	10332
584.183	10376
584.211	10093
584.255	9426
584.266	9397
584.321	10247
584.328	10265
584.376	10025
584.400	9683
584.431	9275
584.472	9588
584.486	9640
584.541	10109
584.545	10101
584.596	10185
584.617	10064
584.651	10025
584.689	10728
584.706	10827
584.761	10252
584.762	10252
584.816	10467
584.834	10629
584.871	10908
584.906	10818
584.926	10652
584.978	10256
584.980	10258
585.035	11050
585.051	11376
585.090	11843
585.123	12084
585.145	12314
585.195	12013
585.200	12051
585.254	13571
585.267	14170
585.309	16325
585.340	17071
585.364	16851
585.412	14585
585.419	14222
585.473	14205
585.484	14036
585.528	14626
585.556	15913
585.583	17702
585.628	21833
585.637	23275
585.692	36451
585.700	37896
585.747	42909
585.772	38652
585.801	28007
585.845	17089
585.856	15746
585.910	13095
585.917	12885
585.965	12992
585.989	13073
586.019	13232
586.061	12903
586.074	12827
586.128	13268
586.133	13292
586.183	13478
586.205	13741
586.237	14116
586.277	14012
586.292	13892
586.346	13763
586.349	13777
586.401	14028
586.421	14393
586.455	15452
586.493	17027
586.509	18197
586.564	24236
586.565	24499
586.618	36734
586.637	34401
586.672	24283
586.709	18611
586.727	16785
586.781	14623
586.781	14618
586.835	14681
586.853	14824
586.889	14663
586.925	13908
586.944	13656
586.996	14911
586.998	14952
587.052	15141
587.068	15321
587.106	15168
587.140	14813
587.161	14899
587.212	15999
587.215	16017
587.269	15903
587.284	15885
587.323	15997
587.356	16209
587.377	16537
587.427	17094
587.431	17096
587.485	17385
587.499	17533
587.539	18165
587.571	18448
587.593	18696
587.643	20029
587.648	20184
587.702	21033
587.715	21589
587.755	22584
587.786	22278
587.810	22280
587.858	23319
587.864	23536
587.917	26502
587.930	27177
587.971	28821
588.001	29737
588.025	31069
588.073	33945
588.079	34211
588.133	37116
588.145	37978
588.187	42181
588.217	45014
588.241	47332
588.288	52483
588.295	53444
588.348	62078
588.360	64329
588.402	72431
588.431	77937
588.456	83601
588.503	96582
588.510	98547
588.564	116855
588.575	121592
588.617	143093
588.646	160620
588.671	179792
588.718	228456
588.725	240004
588.778	350967
588.789	380510
588.832	589228
588.861	755947
588.886	973852
588.932	1371698
588.939	1397306
588.993	1474317
589.004	1462946
589.047	1024408
589.075	733506
589.100	558498
589.147	300287
589.154	287461
589.207	214848
589.218	202852
589.261	192116
589.290	190533
589.314	200815
589.361	232658
589.368	244441
589.421	364390
589.433	396808
589.475	661745
589.504	867738
589.528	1052799
589.576	1338736
589.582	1304622
589.635	844915
589.647	750690
589.689	417331
589.718	216276
589.742	174895
589.790	107221
589.795	104004
589.849	79727
589.861	75056
589.902	68891
589.932	62544
589.955	55826
590.004	43529
590.009	42947
590.062	38379
590.075	37286
590.115	34151
590.146	31997
590.168	31400
590.218	30324
590.222	30132
590.275	27862
590.289	27312
590.328	27133
590.360	26597
590.381	25781
590.431	24575
590.435	24483
590.488	22670
590.503	22305
590.541	22054
590.574	21593
590.594	21300
590.645	21054
590.647	21018
590.700	19800
590.716	19488
590.753	19409
590.787	19262
590.806	18912
590.859	18409
590.859	18402
590.912	17759
590.930	17775
590.965	17992
591.001	17870
591.018	17792
591.071	17716
591.072	17715
591.124	17469
591.143	17384
591.177	17399
591.214	17259
591.230	17362
591.283	17963
591.285	17978
591.336	18259
591.356	18469
591.389	18395
591.427	18094
591.442	17754
591.495	16614
591.498	16521
591.547	15967
591.569	15820
591.600	16305
591.640	16770
591.653	16621
591.706	16236
591.711	16183
591.759	16547
591.782	16804
591.811	17552
591.853	18473
591.864	18207
591.917	16889
591.924	16700
591.969	16334
591.995	16182
592.022	16349
592.066	16556
592.075	16738
592.127	17986
592.137	18236
592.180	19965
592.208	20935
592.233	19178
592.279	15913
592.285	15878
592.338	15655
592.350	15613
592.390	14942
592.421	14414
592.443	14683
592.491	15314
592.495	15315
592.548	15344
592.562	15353
592.600	14987
592.633	14689
592.653	14567
592.704	14193
592.705	14282
592.775	14742
592.846	15033
592.916	15471
592.987	16524
593.058	15945
593.128	13618
593.199	14243
593.270	13574
593.341	13398
593.411	14313
593.482	13895
593.553	14462
593.623	13688
593.694	14181
593.764	15688
593.835	13833
593.906	13705
593.976	12945
594.047	14075
594.117	15950
594.188	16966
594.258	13213
594.329	12916
594.399	14143
594.470	13100
594.540	13041
594.611	13250
594.681	13010
594.751	13571
594.822	14610
594.892	15322
594.963	15621
595.033	14827
595.103	14551
595.174	16069
595.244	20247
595.314	24916
595.384	15054
595.455	13832
595.525	14150
595.595	14850
595.665	14708
595.736	14885
595.806	13525
595.876	12674
595.946	14148
596.016	13969
596.087	14156
596.157	14159
596.227	13919
596.297	14794
596.367	14781
596.437	16576
596.507	19421
596.577	24907
596.647	15960
596.717	14350
596.787	14695
596.857	14917
596.927	14232
596.997	15209
597.067	14813
597.137	16844
597.207	15979
597.277	15051
597.347	14084
597.417	14742
597.487	14946
597.557	15432
597.626	15517
597.696	17721
597.766	18825
597.836	23240
597.906	16147
597.975	15353
598.045	14308
598.115	15134
598.185	14343
598.254	15943
598.324	16509
598.394	16773
598.464	16033
598.533	15428
598.603	15161
598.672	15392
598.742	15279
598.812	14684
598.881	14835
598.951	15469
599.020	14830
599.090	14544
599.159	15320
599.229	14343
599.299	13228
599.368	14601
599.437	13671
599.507	14764
599.576	16253
599.646	16159
599.715	16679
599.785	15479
599.854	15206
599.924	16420
599.993	15907
600.062	15625
600.132	14783
600.201	14955
600.270	16882
600.340	16457
600.409	15248
600.478	15810
600.547	15833
600.617	16063
600.686	15610
600.755	15661
600.824	15935
600.894	15481
600.963	13659
601.032	14802
601.101	14215
601.170	13746
601.239	14144
601.308	15388
601.378	15058
601.447	14133
601.516	14237
601.585	15789
601.654	15508
601.723	15956
601.792	15530
601.861	15948
601.930	18532
601.999	17256
602.068	15835
602.137	16281
602.206	16573
602.275	16678
602.343	17967
602.412	17721
602.481	15533
602.550	14815
602.619	14973
602.688	16055
602.756	15973
602.825	15523
602.894	15869
602.963	15169
603.032	15738
603.100	15169
603.169	14676
603.238	15523
603.307	15266
603.375	15580
603.444	15839
603.513	15646
603.581	14702
603.650	15847
603.719	14426
603.787	13567
603.856	13943
603.924	14904
603.993	14792
604.061	14574
604.130	15571
604.198	15816
604.267	14223
604.335	15552
604.404	15295
604.472	15798
604.541	15812
604.609	16380
604.678	15390
604.746	15677
604.815	16052
604.883	16014
604.951	15785
605.020	15614
605.088	15629
605.156	16514
605.225	15359
605.293	15305
605.361	15071
605.429	15988
605.498	15890
605.566	16393
605.634	17252
605.702	15378
605.771	16654
605.839	16659
605.907	15346
605.975	15885
606.043	15801
606.111	15651
606.180	17261
606.248	17089
606.316	19829
606.384	16728
606.452	19231
606.520	17440
606.588	14942
606.656	13535
606.724	13562
606.792	13184
606.860	13018
606.928	13423
606.996	12252
607.064	12046
607.132	11999
607.200	12530
607.267	12058
607.335	12267
607.403	12777
607.471	12551
607.539	12755
607.607	13017
607.674	11767
607.742	12844
607.810	12319
607.878	11957
607.946	11223
608.013	12257
608.081	12301
608.149	12498
608.216	12285
608.284	13262
608.352	12672
608.419	12471
608.487	17213
608.555	14126
608.622	12167
608.690	12914
608.757	12773
608.825	13566
608.893	13374
608.960	14759
609.028	16281
609.095	18664
609.163	13273
609.230	12823
609.298	12169
609.365	11714
609.432	11576
609.500	12390
609.567	13515
609.635	14563
609.702	14767
609.769	16033
609.837	14663
609.904	13554
609.971	12608
610.039	17166
610.106	21721
610.173	41103
610.241	90256
610.308	107021
610.375	64493
610.442	21192
610.509	14046
610.577	14168
610.644	13025
610.711	13456
610.778	12814
610.845	12867
610.912	12922
610.980	15125
611.047	20226
611.114	17347
611.181	13558
611.248	12146
611.315	14063
611.382	12365
611.449	13534
611.516	14191
611.583	12664
611.650	13677
611.717	14453
611.784	13442
611.851	15531
611.918	17844
611.984	19380
612.051	28757
612.118	55830
612.185	141246
612.252	96343
612.319	24128
612.386	17751
612.452	15965
612.519	16578
612.586	21181
612.653	16136
612.719	16080
612.786	13705
612.853	14077
612.919	12377
612.986	14178
613.053	12194
613.120	12597
613.186	12187
613.253	14334
613.319	12951
613.386	12567
613.453	12491
613.519	14718
613.586	16347
613.652	22506
613.719	17847
613.785	17324
613.852	13962
613.918	13228
613.985	17919
614.051	25588
614.118	54852
614.184	55334
614.250	17417
614.317	14049
614.383	12514
614.449	12597
614.516	12970
614.582	14322
614.648	11904
614.715	13038
614.781	12317
614.847	13426
614.914	13640
614.980	12685
615.046	13357
615.112	13257
615.179	13082
615.245	14101
615.311	13337
615.377	17165
615.443	17602
615.509	14806
615.575	14559
615.642	14213
615.708	14874
615.774	16237
615.840	17667
615.906	22148
615.972	26392
616.038	43284
616.104	84352
616.170	192780
616.236	174722
616.302	40280
616.368	25209
616.434	18938
616.500	19218
616.565	19443
616.631	21788
616.697	19466
616.763	19401
616.829	25093
616.895	41544
616.961	41673
617.026	22829
617.092	15687
617.158	15947
617.224	14942
617.289	14361
617.355	14816
617.421	13748
617.487	14655
617.552	13567
617.618	12528
617.684	11943
617.749	15520
617.815	13014
617.880	13998
617.946	13001
618.012	12810
618.077	13297
618.143	13938
618.208	13125
618.274	14141
618.339	14105
618.405	11640
618.470	14129
618.536	14085
618.601	15955
618.667	14289
618.732	14413
618.798	13821
618.863	13003
618.928	12894
618.994	13892
619.059	16284
619.124	19279
619.190	16693
619.255	13295
619.320	13947
619.386	13202
619.451	12444
619.516	13134
619.581	12315
619.647	12612
619.712	13306
619.777	12866
619.842	12901
619.907	13271
619.972	13216
620.038	13478
620.103	12956
620.168	12305
620.233	13526
620.298	12461
620.363	12761
620.428	12824
620.493	12505
620.558	12954
620.623	12933
620.688	13940
620.753	11942
620.818	12480
620.883	13457
620.948	12212
621.013	13939
621.078	13345
621.143	12560
621.207	15460
621.272	14237
621.337	15078
621.402	15460
621.467	18304
621.532	19235
621.596	16338
621.661	15128
621.726	14798
621.791	14198
621.855	15507
621.920	16582
621.985	15704
622.049	18101
622.114	17718
622.179	15958
622.243	15432
622.308	15403
622.373	16945
622.437	16515
622.502	15505
622.566	15778
622.631	14044
622.695	16846
622.760	15953
622.824	16132
622.889	15542
622.953	16299
623.018	23035
623.082	21568
623.147	15474
623.211	15446
623.276	14928
623.340	13858
623.404	14113
623.469	14958
623.533	14169
623.597	14178
623.662	14206
623.726	14371
623.790	13862
623.854	13677
623.919	14173
623.983	14341
624.047	14294
624.111	13709
624.176	13722
624.240	15586
624.304	16705
624.368	13874
624.432	14600
624.496	14760
624.560	15488
624.625	16131
624.689	14053
624.753	14702
624.817	13966
624.881	13596
624.945	14148
625.009	13581
625.073	13347
625.137	13428
625.201	17187
625.265	17297
625.329	13287
625.393	14263
625.456	13416
625.520	14254
625.584	15624
625.648	18620
625.712	26111
625.776	55330
625.839	63341
625.903	26853
625.967	15147
626.031	24531
626.095	36282
626.158	16404
626.222	11276
626.286	11847
626.349	11451
626.413	10905
626.477	12916
626.540	11376
626.604	10257
626.668	12508
626.731	10708
626.795	11670
626.858	11436
626.922	10705
626.986	11096
627.049	9790
627.113	10072
627.176	11712
627.240	10604
627.303	10676
627.366	9892
627.430	11114
627.493	10322
627.557	10327
627.620	10510
627.684	10849
627.747	10434
627.810	9379
627.874	10922
627.937	9495
628.000	11577
628.064	10134
628.127	7913
628.190	9777
628.253	9331
628.317	9077
628.380	8757
628.443	9512
628.506	9156
628.569	9156
628.632	9165
628.696	8740
628.759	8367
628.822	8246
628.885	8107
628.948	8821
629.011	8129
629.074	9079
629.137	9058
629.200	7877
629.263	10400
629.326	7889
629.389	8231
629.452	9486
629.515	8507
629.578	8310
629.641	9102
629.704	8500
629.767	9541
629.830	8681
629.892	8084
629.955	7875
630.018	9660
630.081	8798
630.144	10840
630.207	7725
630.269	10224
630.332	9348
630.395	9430
630.458	8240
630.520	7210
630.583	8358
630.646	7260
630.708	7819
630.771	7031
630.834	8382
630.896	7293
630.959	6995
631.021	6485
631.084	7897
631.146	7866
631.209	9225
631.272	6837
631.334	7792
631.397	6448
631.459	6678
631.522	7090
631.584	6911
631.646	8411
631.709	7910
631.771	9948
631.834	8668
631.896	7417
631.958	6406
632.021	7741
632.083	6657
632.145	7596
632.208	6424
632.270	7671
632.332	6740
632.395	5978
632.457	7436
632.519	6750
632.581	8292
632.643	6123
632.706	7814
632.768	6388
632.830	7945
632.892	5979
632.954	5641
633.016	6778
633.078	6868
633.141	6224
633.203	6415
633.265	6612
633.327	6820
633.389	6196
633.451	8254
633.513	8755
633.575	9077
633.637	8339
633.698	7488
633.760	6869
633.822	6887
633.884	6439
633.946	7086
634.008	6232
634.070	7560
634.132	8857
634.193	7314
634.255	7090
634.317	7059
634.379	7312
634.441	7095
634.502	5864
634.564	6573
634.626	5885
634.687	6656
634.749	6638
634.811	7070
634.873	5464
634.934	6139
634.996	6618
635.057	5651
635.119	5219
635.181	6750
635.242	5888
635.304	4599
635.365	7728
635.427	5113
635.488	7000
635.550	5286
635.611	6367
635.673	4550
635.734	7223
635.796	6659
635.857	7758
635.918	6313
635.980	6531
636.041	5846
636.102	7612
636.164	6777
636.225	7771
636.286	5259
636.348	6711
636.409	6219
636.470	4893
636.531	6834
636.593	6272
636.654	7658
636.715	5585
636.776	5821
636.838	4712
636.899	6186
636.960	5457
637.021	5216
637.082	4482
637.143	6086
637.204	4559
637.265	4806
637.326	5417
637.387	5658
637.448	4058
637.509	5860
637.570	4770
637.631	6405
637.692	3897
637.753	3846
637.814	5153
637.875	4559
637.936	5482
637.997	4909
638.058	5076
638.119	6335
638.179	4409
638.240	4445
638.301	5433
638.362	4476
638.423	4579
638.483	6343
638.544	3088
638.605	5202
638.666	3760
638.726	5413
638.787	4851
638.848	4599
638.908	4449
638.969	4901
639.030	5482
639.090	4434
639.151	4541
639.211	5588
639.272	6513
639.332	9904
639.393	6450
639.453	3891
639.514	5295
639.574	4651
639.635	3943
639.695	5739
639.756	4551
639.816	5012
639.877	5485
639.937	9697
639.997	11822
640.058	4837
640.118	3426
640.178	5423
640.239	3919
640.299	4646
640.359	4126
640.420	4755
640.480	4635
640.540	4468
640.600	3700
640.661	5229
640.721	3255
640.781	7120
640.841	3770
640.901	6007
640.961	5067
641.021	5556
641.082	4675
641.142	7995
641.202	6149
641.262	3278
641.322	5251
641.382	3796
641.442	3776
641.502	4751
641.562	5521
641.622	3602
641.682	4000
641.742	4300
641.802	5118
641.861	5502
641.921	5140
641.981	5946
642.041	4356
642.101	6462
642.161	3248
642.221	4204
642.280	3586
642.340	4006
642.400	3175
642.460	5054
642.519	3266
642.579	3495
642.639	5669
642.698	2213
642.758	4835
642.818	3690
642.877	3456
642.937	4990
642.997	5372
643.056	7231
643.116	3137
643.175	4878
643.235	4093
643.294	4696
643.354	4893
643.414	4818
643.473	5737
643.532	5290
643.592	6329
643.651	9592
643.711	15836
643.770	27166
643.830	61007
643.889	141098
643.948	36532
644.008	8421
644.067	4337
644.126	4403
644.186	4262
644.245	4535
644.304	2637
644.363	6227
644.423	2712
644.482	3998
644.541	3195
644.600	2305
644.659	4788
644.719	4025
644.778	5766
644.837	6453
644.896	11858
644.955	27027
645.014	11299
645.073	6013
645.132	4146
645.191	4874
645.250	3541
645.309	4826
645.368	3834
645.427	5289
645.486	4070
645.545	8064
645.604	3443
645.663	5277
645.722	3206
645.781	4313
645.840	3995
645.898	5253
645.957	6207
646.016	6614
646.075	13242
646.134	23173
646.192	58366
646.251	91895
646.310	14027
646.369	4653
646.427	4956
646.486	3347
646.545	4079
646.603	3996
646.662	3873
646.721	4440
646.779	2717
646.838	2776
646.896	4727
646.955	4353
647.014	5203
647.072	7166
647.131	16313
647.189	8887
647.248	3517
647.306	4167
647.365	3930
647.423	2438
647.481	3785
647.540	2275
647.598	3383
647.657	2665
647.715	3798
647.773	2326
647.832	3757
647.890	2536
647.948	2785
648.007	4041
648.065	2106
648.123	3737
648.181	4654
648.240	5316
648.298	4030
648.356	3217
648.414	3389
648.472	3648
648.531	3350
648.589	4260
648.647	2726
648.705	4471
648.763	3185
648.821	4451
648.879	3068
648.937	3538
648.995	4316
649.053	3561
649.111	4061
649.169	6912
649.227	9798
649.285	18028
649.343	48119
649.401	27470
649.459	14008
649.516	11856
649.574	8434
649.632	22623
649.690	26190
649.748	9438
649.806	7230
649.863	13013
649.921	13049
649.979	8711
650.037	3610
650.094	2421
650.152	3170
650.210	2269
650.268	3878
650.325	3581
650.383	2808
650.440	2646
650.498	3472
650.556	2873
650.613	1958
650.671	2592
650.728	2853
650.786	3345
650.843	2747
650.901	1603
650.958	2529
651.016	2148
651.073	2054
651.131	2241
651.188	2048
651.246	3525
651.303	2034
651.360	3538
651.418	2296
651.475	3883
651.532	588
651.590	3305
651.647	1634
651.704	2820
651.762	1100
651.819	2939
651.876	1555
651.933	1828
651.990	3151
652.048	1421
652.105	2026
652.162	3124
652.219	2009
652.276	2621
652.333	2750
652.390	1438
652.448	1901
652.505	2195
652.562	2350
652.619	3292
652.676	4638
652.733	6343
652.790	2959
652.847	933
652.904	2660
652.961	1446
653.017	1120
653.074	3293
653.131	1602
653.188	1744
653.245	1717
653.302	1558
653.359	1723
653.415	3363
653.472	1201
653.529	3357
653.586	1641
653.642	1711
653.699	2659
653.756	1289
653.813	1247
653.869	2933
653.926	1180
653.983	2449
654.039	2616
654.096	1825
654.152	2746
654.209	1105
654.266	2208
654.322	1813
654.379	3589
654.435	3268
654.492	2551
654.548	3566
654.605	4988
654.661	3842
654.717	2100
654.774	2682
654.830	2594
654.887	2534
654.943	2149
655.000	2258
655.056	2437
655.112	2726
655.168	1592
655.225	2852
655.281	2650
655.337	3519
655.394	5400
655.450	4931
655.506	3618
655.562	5935
655.618	5941
655.675	974
655.731	2795
655.787	3113
655.843	3189
655.899	2709
655.955	3175
656.011	3066
656.067	2196
656.123	4236
656.179	3550
656.235	4987
656.291	2242
656.347	4043
656.403	3057
656.459	3517
656.515	2881
656.571	2713
656.627	2803
656.683	2663
656.739	3088
656.795	2633
656.850	1873
656.906	3294
656.962	3007
657.018	1634
657.074	1808
657.129	2186
657.185	1963
657.241	2583
657.297	2446
657.352	2951
657.408	1037
657.464	3503
657.519	2111
657.575	1697
657.630	1417
657.686	2717
657.742	1651
657.797	1918
657.853	1373
657.908	2790
657.964	1588
658.019	1192
658.075	1261
658.130	2522
658.186	1403
658.241	2075
658.297	745
658.352	1871
658.407	2182
658.463	1123
658.518	1653
658.573	2394
658.629	1861
658.684	1497
658.739	2309
658.795	1702
658.850	1553
658.905	1662
658.960	1083
659.016	1739
659.071	1995
659.126	2349
659.181	1485
659.236	4707
659.291	3576
659.346	3004
659.401	3136
659.457	2908
659.512	3914
659.567	3674
659.622	1318
659.677	2106
659.732	1013
659.787	2220
659.842	1873
659.897	2706
659.952	2310
660.007	1939
660.061	731
660.116	1625
660.171	1462
660.226	1416
660.281	2238
660.336	744
660.391	1831
660.445	562
660.500	2644
660.555	2071
660.610	1078
660.664	1888
660.719	1531
660.774	2098
660.828	2255
660.883	2212
660.938	2172
660.992	-238
661.047	1500
661.101	1699
661.156	1641
661.211	1140
661.265	1338
661.320	1571
661.374	1668
661.429	1791
661.483	1896
661.538	1390
661.592	1492
661.647	1254
661.701	2037
661.755	2136
661.810	2205
661.864	1824
661.919	1313
661.973	1808
662.027	1542
662.081	1003
662.136	1583
662.190	2155
662.244	1333
662.299	1611
662.353	1772
662.407	1060
662.461	1212
662.515	2776
662.569	1663
662.624	2679
662.678	2070
662.732	1636
662.786	1664
662.840	1402
662.894	2342
662.948	1952
663.002	922
663.056	2059
663.110	836
663.164	1655
663.218	1861
663.272	2150
663.326	1664
663.380	2053
663.434	2051
663.488	1530
663.542	2460
663.595	2049
663.649	1740
663.703	2192
663.757	1452
663.811	1889
663.864	1793
663.918	2109
663.972	1728
664.026	1384
664.079	1431
664.133	2446
664.187	1677
664.240	2119
664.294	1377
664.348	2987
664.401	1867
664.455	2458
664.508	1390
664.562	1954
664.615	2140
664.669	1518
664.722	1340
664.776	1800
664.829	1735
664.883	2186
664.936	1508
664.990	2061
665.043	2822
665.097	2555
665.150	2974
665.203	1549
665.257	1825
665.310	2654
665.363	1258
665.417	1844
665.470	2160
665.523	2270
665.576	2431
665.630	2305
665.683	1616
665.736	1835
665.789	1485
665.842	2258
665.895	1753
665.949	2396
666.002	1904
666.055	2734
666.108	2297
666.161	2718
666.214	1423
666.267	2541
666.320	2724
666.373	2621
666.426	1553
666.479	2028
666.532	1950
666.585	2567
666.638	2943
666.691	2246
666.744	2766
666.796	1581
666.849	1705
666.902	2728
666.955	1001
667.008	1940
667.060	1231
667.113	1245
667.166	1891
667.219	2097
667.271	1986
667.324	1986
667.377	1104
667.430	2602
667.482	1413
667.535	2838
667.587	1555
667.640	2914
667.693	2662
667.745	3356
667.798	4316
667.850	2586
667.903	1810
667.955	1754
668.008	1512
668.060	2674
668.113	1577
668.165	2333
668.218	2964
668.270	2474
668.322	2016
668.375	1638
668.427	2300
668.479	1515
668.532	1762
668.584	2788
668.636	1376
668.689	1944
668.741	1762
668.793	2143
668.845	1569
668.898	2515
668.950	1677
669.002	3122
669.054	1969
669.106	1674
669.158	3237
669.211	2426
669.263	2682
669.315	3251
669.367	2871
669.419	2433
669.471	3806
669.523	4456
669.575	4645
669.627	4501
669.679	2707
669.731	2344
669.783	3006
669.835	3756
669.886	3117
669.938	3361
669.990	2456
670.042	2463
670.094	2951
670.146	3205
670.197	4163
670.249	4843
670.301	6100
670.353	9541
670.404	14251
670.456	20700
670.508	31792
670.560	52173
670.611	85600
670.663	149911
670.715	346785
670.766	576449
670.818	210910
670.869	37835
670.921	16722
670.972	12109
671.024	8360
671.075	6465
671.127	5663
671.178	4890
671.230	3859
671.281	3995
671.333	2967
671.384	3654
671.436	3576
671.487	4718
671.538	3051
671.590	4574
671.641	3934
671.692	5900
671.744	7687
671.795	6371
671.846	4103
671.897	3151
671.949	2760
672.000	2586
672.051	2168
672.102	3111
672.153	1600
672.204	3001
672.256	2481
672.307	2298
672.358	2445
672.409	2774
672.460	1816
672.511	2665
672.562	2004
672.613	2467
672.664	1128
672.715	3122
672.766	2551
672.817	2469
672.868	1772
672.919	2123
672.970	2370
673.021	2356
673.071	1834
673.122	2113
673.173	1912
673.224	1829
673.275	1067
673.326	1671
673.376	1975
673.427	840
673.478	1201
673.528	2515
673.579	1827
673.630	2154
673.680	3339
673.731	1465
673.782	904
673.832	2574
673.883	1849
673.934	1277
673.984	1829
674.035	1788
674.085	2208
674.136	2156
674.186	1998
674.237	3053
674.287	3151
674.338	2359
674.388	1121
674.438	2489
674.489	2063
674.539	2141
674.589	1741
674.640	1916
674.690	1564
674.740	1809
674.791	1479
674.841	2954
674.891	1211
674.942	1937
674.992	1221
675.042	1747
675.092	1144
675.142	1609
675.193	1556
675.243	1877
675.293	1487
675.343	1345
675.393	1376
675.443	1737
675.493	1397
675.543	1046
675.593	1573
675.643	1806
675.693	1817
675.743	1543
675.793	1824
675.843	1728
675.893	1394
675.943	1244
675.993	1397
676.043	1686
676.093	1512
676.142	780
676.192	1738
676.242	2304
676.292	726
676.341	1197
676.391	1107
676.441	413
676.491	1278
676.540	1532
676.590	1933
676.640	1778
676.689	803
676.739	1451
676.789	1100
676.838	2284
676.888	1353
676.937	1139
676.987	524
677.037	1466
677.086	1492
677.136	1514
677.185	1341
677.235	1137
677.284	1183
677.333	1270
677.383	1723
677.432	791
677.482	892
677.531	2265
677.580	158
677.630	2043
677.679	1133
677.728	1354
677.778	1256
677.827	1680
677.876	1103
677.925	469
677.975	1631
678.024	1105
678.073	1171
678.122	1683
678.171	1036
678.220	2066
678.269	1730
678.319	1465
678.368	1582
678.417	1087
678.466	1899
678.515	1956
678.564	1127
678.613	1356
678.662	850
678.711	1269
678.760	1223
678.809	1622
678.857	1666
678.906	1477
678.955	1728
679.004	1655
679.053	542
679.102	2196
679.151	701
679.199	1472
679.248	1308
679.297	1571
679.346	1224
679.394	867
679.443	1765
679.492	855
679.540	295
679.589	1434
679.638	515
679.686	1175
679.735	567
679.784	546
679.832	1304
679.881	1286
679.929	538
679.978	822
680.026	523
680.075	1415
680.123	426
680.172	722
680.220	891
680.268	712
680.317	1261
680.365	1000
680.414	241
680.462	1435
680.510	1469
680.559	1061
680.607	41
680.655	1537
680.703	1073
680.752	1330
680.800	1136
680.848	951
680.896	712
680.945	287
680.993	1083
681.041	732
681.089	632
681.137	1437
681.185	539
681.233	1503
681.258	1238
681.281	967
681.329	993
681.377	641
681.380	662
681.425	638
681.473	1029
681.502	1344
681.521	1515
681.569	1515
681.617	1413
681.624	1411
681.665	1262
681.713	1162
681.745	975
681.761	851
681.809	1350
681.857	1646
681.867	1483
681.904	833
681.952	892
681.989	1398
682.000	1521
682.048	1216
682.096	2377
682.111	2063
682.143	1302
682.191	1163
682.233	1570
682.239	1611
682.286	1561
682.334	406
682.354	896
682.382	1512
682.430	1841
682.476	1988
682.477	1973
682.525	1679
682.572	2119
682.598	1786
682.620	1479
682.667	2258
682.715	1476
682.720	1557
682.763	2140
682.810	2122
682.841	2039
682.857	1946
682.905	1460
682.952	2624
682.963	2511
683.000	2084
683.047	2248
683.085	2150
683.095	2089
683.142	2654
683.190	2005
683.206	2161
683.237	2432
683.284	2225
683.328	3433
683.332	3515
683.379	2112
683.426	2370
683.449	2012
683.473	1635
683.521	2827
683.568	2980
683.571	2970
683.615	2604
683.662	3084
683.693	3135
683.709	3159
683.757	2928
683.804	2869
683.814	2777
683.851	2337
683.898	3420
683.936	3222
683.945	3152
683.992	2498
684.039	2919
684.057	3232
684.086	3737
684.133	3064
684.179	3144
684.180	3129
684.227	2839
684.274	3650
684.300	3233
684.321	2958
684.368	3551
684.415	3989
684.422	3924
684.462	3400
684.509	3037
684.543	3481
684.556	3614
684.603	4036
684.649	3268
684.665	3321
684.696	3410
684.743	3209
684.786	3320
684.790	3328
684.837	3617
684.883	4112
684.908	4508
684.930	4802
684.977	4331
685.023	3867
685.029	3866
685.070	3697
685.117	4040
685.150	3776
685.164	3691
685.210	4595
685.257	4458
685.272	4492
685.303	4591
685.350	4613
685.393	4993
685.396	5003
685.443	4821
685.490	5188
685.514	5331
685.536	5437
685.583	5208
685.629	4589
685.636	4640
685.675	4875
685.722	4608
685.757	4743
685.768	4787
685.815	4468
685.861	5584
685.878	5475
685.908	5251
685.954	5619
686.000	5229
686.000	5225
686.047	5456
686.093	6763
686.121	7154
686.139	7099
686.185	6406
686.232	5857
686.242	5805
686.278	5583
686.324	5357
686.363	5089
686.370	5090
686.416	5197
686.463	5256
686.484	5263
686.509	5337
686.555	4854
686.601	5601
686.606	5607
686.647	5350
686.693	5279
686.727	5054
686.739	5023
686.785	5086
686.831	5026
686.848	5381
686.877	5983
686.923	5325
686.969	6031
686.969	6033
687.015	5504
687.061	5244
687.090	5465
687.107	5573
687.153	5633
687.199	5953
687.211	5820
687.245	5630
687.291	6048
687.332	6155
687.336	6161
687.382	5952
687.428	6197
687.453	6213
687.474	6131
687.520	6589
687.565	5615
687.574	5671
687.611	5933
687.657	5068
687.695	6066
687.702	6314
687.748	6159
687.794	7295
687.816	7005
687.839	6351
687.885	6250
687.931	5682
687.937	5603
687.976	5651
688.022	6013
688.058	6539
688.067	6642
688.113	6213
688.158	6022
688.179	6132
688.204	6232
688.249	6427
688.295	6422
688.300	6433
688.340	6617
688.386	7136
688.421	7196
688.431	7186
688.477	6677
688.522	6540
688.542	6650
688.567	6995
688.613	7201
688.658	7171
688.663	7235
688.703	7565
688.749	7296
688.784	7421
688.794	7423
688.839	6939
688.884	7098
688.905	6840
688.930	6727
688.975	7444
689.020	7256
689.026	7296
689.065	7343
689.110	7060
689.146	7330
689.155	7434
689.201	6680
689.246	7358
689.267	7114
689.291	6960
689.336	7587
689.381	6916
689.388	7055
689.426	7769
689.471	7741
689.509	7656
689.516	7618
689.561	7791
689.606	7666
689.630	7633
689.651	7689
689.696	7205
689.741	7486
689.750	7548
689.785	7752
689.830	7254
689.871	7374
689.875	7402
689.920	7182
689.965	7698
689.992	7355
690.010	7128
690.054	7232
690.099	7473
690.112	7547
690.144	7958
690.189	7440
690.233	8013
690.233	8026
690.278	7376
690.323	7922
690.354	7901
690.367	7996
690.412	8581
690.457	8580
690.474	8722
690.501	8875
690.546	8753
690.590	9181
690.595	9188
690.635	9802
690.680	10435
690.716	10760
690.724	10926
690.769	12336
690.813	13490
690.836	13918
690.857	15270
690.902	18169
690.946	21721
690.957	22618
690.991	30581
691.035	41460
691.077	52411
691.080	52589
691.124	51408
691.168	49327
691.198	48423
691.213	45082
691.257	35769
691.301	25966
691.318	22334
691.346	20401
691.390	17124
691.434	13784
691.439	13447
691.478	12852
691.522	11820
691.559	10848
691.567	10796
691.611	10925
691.655	10211
691.680	9755
691.699	9547
691.743	9750
691.787	9519
691.800	9532
691.831	9865
691.875	9886
691.919	10004
691.921	9994
691.964	10126
692.008	10497
692.041	10159
692.052	10059
692.096	10509
692.139	10139
692.162	10025
692.183	9938
692.227	10286
692.271	9954
692.282	9907
692.315	9998
692.359	10200
692.402	10070
692.403	10086
692.447	9783
692.490	9572
692.523	9291
692.534	9407
692.578	9593
692.622	10184
692.643	10285
692.666	10026
692.709	9483
692.753	9019
692.763	8883
692.797	9160
692.840	9928
692.884	10160
692.884	10181
692.928	10341
692.971	10216
693.004	10175
693.015	10276
693.059	10685
693.102	10856
693.124	11182
693.146	11483
693.189	11457
693.233	11823
693.245	11840
693.276	12167
693.320	12817
693.363	13347
693.365	13337
693.407	14570
693.450	15763
693.485	17051
693.493	17648
693.537	20105
693.580	22808
693.605	24303
693.624	27671
693.667	35741
693.710	43948
693.725	46884
693.753	62319
693.797	87159
693.840	112830
693.845	115341
693.883	112730
693.926	108121
693.966	104867
693.970	102762
694.013	79540
694.056	56416
694.086	40500
694.099	38579
694.142	31975
694.185	25723
694.206	22592
694.229	21388
694.272	19234
694.315	16861
694.326	16246
694.358	15865
694.401	15242
694.444	14577
694.446	14515
694.487	14144
694.530	13515
694.566	13140
694.573	13066
694.616	12195
694.659	11400
694.686	11039
694.702	11133
694.745	11164
694.787	11110
694.806	11052
694.830	11014
694.873	10870
694.916	10976
694.926	10910
694.959	10679
695.002	10328
695.044	10287
695.046	10253
695.087	10405
695.130	10461
695.166	10432
695.172	10479
695.215	10673
695.258	11022
695.286	11173
695.301	11156
695.343	10718
695.386	10667
695.406	10494
695.428	10427
695.471	10517
695.514	10345
695.526	10356
695.556	10450
695.599	10221
695.641	10193
695.646	10152
695.684	10230
695.726	10355
695.766	10412
695.769	10427
695.811	10235
695.854	9989
695.886	9930
695.896	10022
695.938	10159
695.981	10201
696.005	10262
696.023	10347
696.065	10485
696.108	10622
696.125	10625
696.150	10673
696.192	10734
696.235	10834
696.245	10797
696.277	10608
696.319	10444
696.361	10226
696.365	10184
696.404	10698
696.446	11152
696.485	11746
696.488	11775
696.530	11383
696.572	11191
696.604	11085
696.614	11100
696.656	10761
696.698	10564
696.724	10482
696.740	10521
696.783	10433
696.825	10418
696.844	10358
696.867	10553
696.909	10866
696.951	11087
696.964	11161
696.992	10974
697.034	10591
697.076	10211
697.083	10136
697.118	10556
697.160	10924
697.202	11292
697.203	11271
697.244	10932
697.286	10562
697.323	10183
697.327	10230
697.369	10347
697.411	10529
697.442	10644
697.453	10646
697.494	10513
697.536	10262
697.562	10242
697.578	10450
697.620	10684
697.661	10990
697.682	11100
697.703	11139
697.744	11227
697.786	11275
697.801	11253
697.828	11435
697.869	11645
697.911	11896
697.921	11925
697.952	11738
697.994	11470
698.035	11118
698.040	11050
698.077	10886
698.118	10662
698.160	10419
698.160	10388
698.201	10253
698.243	10144
698.279	9978
698.284	10074
698.325	10717
698.367	11330
698.399	11817
698.408	11700
698.449	10977
698.491	10276
698.518	9756
698.532	9937
698.573	10436
698.614	10911
698.638	11148
698.656	11042
698.697	10728
698.738	10415
698.757	10240
698.779	10557
698.820	11102
698.862	11633
698.877	11800
698.903	11951
698.944	12142
698.985	12331
698.996	12350
699.026	12045
699.067	11578
699.116	10992
699.235	10683
699.354	10957
699.474	9855
699.593	12505
699.713	12908
699.832	10843
699.951	11740
700.070	11724
700.190	11388
700.309	10952
700.428	12221
700.547	11099
700.667	10877
700.786	11525
700.905	11651
701.024	11060
701.143	10878
701.262	8894
701.381	9208
701.500	10679
701.619	10568
701.738	10351
701.857	10044
701.976	10550
702.095	9041
702.214	10810
702.333	11197
702.452	10206
702.571	9639
702.690	9306
702.809	9835
702.928	9454
703.047	10073
703.165	10093
703.284	9225
703.403	10098
703.522	10364
703.640	10577
703.759	11485
703.878	15017
703.997	9754
704.115	9815
704.234	9100
704.353	9521
704.471	9657
704.590	8592
704.708	8718
704.827	9214
704.946	9293
705.064	9865
705.183	9165
705.301	10803
705.420	15131
705.538	14469
705.656	12423
705.775	13232
705.893	22211
706.012	27617
706.130	13105
706.249	12666
706.367	11845
706.485	13095
706.604	11703
706.722	11846
706.840	13663
706.958	13747
707.077	12450
707.195	12180
707.313	11715
707.431	11207
707.549	11257
707.668	11101
707.786	11055
707.904	11970
708.022	10864
708.140	10828
708.258	10918
708.376	10229
708.494	11054
708.612	11576
708.730	15963
708.848	15733
708.966	13426
709.084	14548
709.202	12807
709.320	13935
709.438	13776
709.556	13736
709.674	12968
709.791	13983
709.909	13432
710.027	13099
710.145	12533
710.263	13936
710.380	13062
710.498	12209
710.616	12505
710.733	12543
710.851	12750
710.969	13169
711.086	12340
711.204	12412
711.322	12130
711.439	11803
711.557	12742
711.674	12387
711.792	12182
711.909	13211
712.027	14546
712.144	11969
712.262	11571
712.379	13461
712.497	17590
712.614	18081
712.732	15672
712.849	14950
712.966	15185
713.084	18532
713.201	15611
713.318	15213
713.436	15139
713.553	14748
713.670	15189
713.787	16634
713.905	16147
714.022	14747
714.139	13362
714.256	15751
714.373	16371
714.490	18631
714.608	27897
714.725	89231
714.842	109874
714.959	18801
715.076	14465
715.193	14980
715.310	12861
715.427	12374
715.544	12900
715.661	13170
715.778	13081
715.895	14084
716.011	13631
716.128	12969
716.245	12928
716.362	14143
716.479	13245
716.596	11564
716.713	12764
716.829	12610
716.946	12322
717.063	11799
717.180	11336
717.296	12306
717.413	12701
717.530	12116
717.646	11942
717.763	12052
717.880	10728
717.996	11645
718.113	11284
718.229	11461
718.346	10103
718.462	11074
718.579	12375
718.695	15570
718.812	14388
718.928	14826
719.045	12530
719.161	10876
719.277	10665
719.394	9761
719.510	11850
719.626	10551
719.743	12712
719.859	12384
719.975	13676
720.092	27262
720.208	60194
720.324	17379
720.440	10128
720.557	11379
720.673	13374
720.789	19483
720.905	38418
721.021	16300
721.137	9592
721.253	11061
721.369	10618
721.486	11591
721.602	14550
721.718	10734
721.834	8337
721.950	9645
722.066	9266
722.181	9108
722.297	8987
722.413	9170
722.529	8979
722.645	9496
722.761	9124
722.877	9691
722.993	9154
723.108	9319
723.224	8779
723.340	9223
723.456	8637
723.571	9282
723.687	8563
723.803	8869
723.918	8812
724.034	8557
724.150	7781
724.265	9916
724.381	15716
724.497	20819
724.612	8376
724.728	8215
724.843	8200
724.959	10272
725.074	14715
725.190	18565
725.305	9358
725.421	8420
725.536	7972
725.651	8635
725.767	7372
725.882	7591
725.997	7806
726.113	7857
726.228	7404
726.343	7304
726.459	6916
726.574	7716
726.689	7432
726.804	7440
726.920	7625
727.035	7468
727.150	7750
727.265	6781
727.380	8027
727.495	7532
727.610	6804
727.725	8261
727.841	9162
727.956	14145
728.071	13141
728.186	7169
728.301	6580
728.416	7311
728.531	6847
728.645	6555
728.760	6219
728.875	6752
728.990	6843
729.105	8036
729.220	7744
729.335	7422
729.449	6997
729.564	6516
729.679	5850
729.794	6892
729.908	7321
730.023	7950
730.138	5673
730.253	6348
730.367	6434
730.482	5431
730.596	6048
730.711	6199
730.826	6001
730.940	6704
731.055	5986
731.169	6015
731.284	5836
731.398	6333
731.513	6706
731.627	6387
731.742	7300
731.856	7831
731.970	5597
732.085	6182
732.199	6598
732.313	7561
732.428	12565
732.542	25594
732.656	20011
732.771	7551
732.885	6440
732.999	7186
733.113	5574
733.227	6403
733.342	6044
733.456	5826
733.570	5479
733.684	5022
733.798	6362
733.912	5127
734.026	4227
734.140	5683
734.254	6107
734.368	9385
734.482	11378
734.596	5706
734.710	4991
734.824	5534
734.938	5065
735.052	5948
735.166	5852
735.280	6494
735.393	4782
735.507	4631
735.621	7495
735.735	12093
735.849	5830
735.962	6072
736.076	5926
736.190	6602
736.303	6852
736.417	9228
736.531	5701
736.644	5695
736.758	4456
736.872	5322
736.985	4537
737.099	4917
737.212	4446
737.326	4374
737.439	5503
737.553	5109
737.666	5202
737.780	4763
737.893	4286
738.007	5113
738.120	5155
738.233	5659
738.347	4263
738.460	4525
738.573	4613
738.687	5168
738.800	5046
738.913	5764
739.026	5427
739.140	5071
739.253	5098
739.366	5061
739.479	4166
739.592	3595
739.705	4604
739.818	4755
739.932	4566
740.045	5989
740.158	3890
740.271	5056
740.384	5267
740.497	4857
740.610	4944
740.723	4923
740.836	5372
740.949	5668
741.062	5218
741.174	5483
741.287	4891
741.400	5173
741.513	5021
741.626	6155
741.739	4630
741.851	4878
741.964	3977
742.077	5469
742.189	5293
742.302	8091
742.415	6943
742.527	5457
742.640	4503
742.753	5036
742.865	4578
742.978	4427
743.090	4060
743.203	4768
743.316	4189
743.428	3878
743.541	4593
743.653	4667
743.766	3719
743.878	5187
743.990	4660
744.103	8210
744.215	9709
744.327	6325
744.440	4880
744.552	6519
744.664	4013
744.777	4924
744.889	4340
745.001	5244
745.113	3344
745.226	4175
745.338	4659
745.450	4868
745.562	3950
745.674	4902
745.786	4312
745.898	4322
746.010	5477
746.122	4786
746.234	4289
746.347	3894
746.459	4169
746.570	3829
746.682	7272
746.794	11107
746.906	8126
747.018	4618
747.130	4330
747.242	4810
747.354	3389
747.466	4553
747.577	4386
747.689	4433
747.801	4939
747.913	3688
748.024	3421
748.136	3209
748.248	3638
748.359	3480
748.471	4305
748.583	4074
748.694	4523
748.806	5777
748.918	5141
749.029	4132
749.141	4234
749.252	4608
749.364	4203
749.475	6132
749.587	6057
749.698	3942
749.809	4893
749.921	3965
750.032	3622
750.144	3592
750.255	3514
750.366	3542
750.478	3694
750.589	3716
750.700	3322
750.811	5047
750.923	4620
751.034	6882
751.145	7419
751.256	4348
751.367	3099
751.479	4485
751.590	3213
751.701	3915
751.812	4015
751.923	3914
752.034	4273
752.145	4115
752.256	3425
752.367	4164
752.478	4284
752.589	4197
752.700	4309
752.811	4454
752.922	4532
753.032	3590
753.143	4440
753.254	4311
753.365	4772
753.476	3942
753.586	4490
753.697	4676
753.808	3373
753.919	3910
754.029	3885
754.140	5258
754.251	3446
754.361	4355
754.472	4032
754.582	4494
754.693	4127
754.804	4357
754.914	3809
755.025	3704
755.135	5361
755.246	4648
755.356	3383
755.466	5763
755.577	4296
755.687	4135
755.798	3416
755.908	4984
756.018	4349
756.129	4364
756.239	5217
756.349	5128
756.460	4857
756.570	4577
756.680	4250
756.790	4834
756.900	5406
757.011	4746
757.121	4238
757.231	4999
757.341	4653
757.451	5097
757.561	4542
757.671	4429
757.781	4053
757.891	5788
758.001	4336
758.111	5494
758.221	5435
758.331	5800
758.441	5544
758.551	5880
758.661	6019
758.771	6219
758.880	5317
758.990	5290
759.100	5112
759.210	5707
759.320	5861
759.429	5824
759.539	6392
759.649	6145
759.758	6265
759.868	6961
759.978	5921
760.087	7252
760.197	6966
760.307	5678
760.416	6863
760.526	6121
760.635	7301
760.745	6918
760.854	6976
760.964	7933
761.073	5907
761.182	7935
761.292	7247
761.401	8123
761.511	8453
761.620	8102
761.729	8787
761.839	8184
761.948	9753
762.057	9130
762.166	9111
762.276	8123
762.385	10112
762.494	9857
762.603	9769
762.712	10045
762.822	10617
762.931	11083
763.040	11463
763.149	12035
763.258	12291
763.367	13898
763.476	13103
763.585	14585
763.694	15356
763.803	16692
763.912	16728
764.021	18023
764.130	19556
764.238	19945
764.347	20503
764.456	22649
764.565	25037
764.674	27816
764.783	29384
764.891	33132
765.000	37354
765.109	41559
765.217	46632
765.326	56360
765.435	67886
765.543	80484
765.652	100226
765.761	129701
765.869	173190
765.978	246294
766.086	360986
766.195	561521
766.303	851277
766.412	941999
766.520	897778
766.629	754117
766.737	488258
766.846	322363
766.954	225726
767.062	164883
767.171	125345
767.279	97269
767.387	77534
767.496	65203
767.604	57804
767.712	48860
767.820	44429
767.928	40418
768.037	36088
768.145	35335
768.253	34564
768.361	32448
768.469	31713
768.577	32437
768.685	35399
768.793	38419
768.901	41807
769.009	48608
769.117	56501
769.225	74991
769.333	101453
769.441	154803
769.549	251586
769.657	450961
769.765	769003
769.873	827540
769.981	682579
770.088	393368
770.196	227282
770.304	149362
770.412	106424
770.519	79828
770.627	62874
770.735	51802
770.842	43780
770.950	37589
771.058	32373
771.165	30024
771.273	26030
771.380	23635
771.488	21112
771.595	20256
771.703	18811
771.810	18424
771.918	16287
772.025	15746
772.133	13846
772.240	14216
772.348	13460
772.455	13423
772.562	10820
772.670	11415
772.777	11638
772.884	10314
772.991	10674
773.099	9484
773.206	9238
773.313	9485
773.420	9337
773.528	8220
773.635	8009
773.742	8146
773.849	8938
773.956	8246
774.063	6688
774.170	7448
774.277	7341
774.384	7187
774.491	5790
774.598	6597
774.705	6352
774.812	7023
774.919	6764
775.026	6275
775.133	6593
775.239	6876
775.346	6069
775.453	6044
775.560	5472
775.667	5777
775.773	4961
775.880	6648
775.987	5806
776.093	6069
776.200	4840
776.307	5807
776.413	5888
776.520	4520
776.627	5651
776.733	5415
776.840	4000
776.946	8054
777.053	10337
777.159	19707
777.266	12419
777.372	16077
777.478	14430
777.585	9708
777.691	4472
777.798	5097
777.904	5288
778.010	5960
778.117	4925
778.223	5038
778.329	4455
778.435	4564
778.542	4210
778.648	4261
778.754	3747
778.860	4246
778.966	3682
779.072	3331
779.178	4454
779.284	4763
779.391	4126
779.497	4899
779.603	7739
779.708	10136
779.815	21743
779.920	75795
780.026	135451
780.132	24797
780.238	6650
780.344	5806
780.450	4388
780.556	4346
780.661	2975
780.767	3597
780.873	3762
780.979	3690
781.085	3297
781.190	4008
781.296	3255
781.402	3006
781.507	3162
781.613	3673
781.719	3173
781.824	4085
781.930	3924
782.035	3296
782.141	3280
782.246	3152
782.352	2391
782.457	2864
782.563	2715
782.668	3363
782.773	2617
782.879	2512
782.984	3221
783.090	4125
783.195	3766
783.300	3887
783.405	2686
783.511	2880
783.616	2503
783.721	3685
783.826	2676
783.932	3086
784.037	3343
784.142	3227
784.247	2267
784.352	2699
784.457	3341
784.562	2370
784.667	2267
784.772	2972
784.877	1907
784.982	3016
785.087	1877
785.192	3501
785.297	1778
785.402	3662
785.507	2518
785.611	2402
785.716	3147
785.821	2680
785.926	2340
786.031	2641
786.135	3136
786.240	2807
786.345	1048
786.450	2381
786.554	1897
786.659	3056
786.763	1412
786.868	2567
786.973	2966
787.077	2301
787.182	2465
787.286	2897
787.391	1615
787.495	2544
787.600	2158
787.704	2065
787.809	2445
787.913	2296
788.017	2677
788.122	2172
788.226	1994
788.330	1956
788.435	1210
788.539	2121
788.643	1613
788.747	2019
788.852	1772
788.956	1974
789.060	1597
789.164	2452
789.268	1176
789.372	2341
789.476	1262
789.580	1529
789.684	1608
789.788	2921
789.892	1491
789.996	3466
790.100	1505
790.204	2088
790.308	1572
790.412	1515
790.516	2980
790.620	1647
790.724	1776
790.828	2517
790.931	187
791.035	3223
791.139	1577
791.242	1275
791.346	2356
791.450	2408
791.554	1596
791.657	1714
791.761	2560
791.864	2121
791.968	1855
792.072	2085
792.175	1884
792.279	1406
792.382	1908
792.486	2197
792.589	1764
792.693	2122
792.796	1204
792.899	2813
793.003	1431
793.106	1083
793.209	1242
793.313	2949
793.416	142
793.519	2808
793.623	2655
793.726	3259
793.829	2039
793.932	2968
794.035	1226
794.138	2803
794.242	2479
794.345	4139
794.448	5587
794.551	11417
794.654	40027
794.757	76627
794.860	15468
794.963	3832
795.066	2513
795.169	2623
795.272	1989
795.375	2549
795.477	565
795.580	2026
795.683	873
795.786	1938
795.889	690
795.991	2731
796.094	1651
796.197	601
796.300	2701
796.402	1722
796.505	499
796.608	1123
796.710	1824
796.813	1362
796.915	1132
797.018	1590
797.120	1075
797.223	705
797.326	1248
797.428	543
797.530	665
797.633	1318
797.735	2024
797.838	2155
797.940	2376
798.042	1225
798.145	456
798.247	2188
798.349	-331
798.452	2607
798.554	940
798.656	-545
798.758	1420
798.860	860
798.962	420
799.065	1295
799.167	-551
799.269	2100
799.371	1043
799.473	1621
799.575	316
799.677	2034
799.779	2264
799.881	932
799.983	2017
800.085	864
800.187	1212
800.289	541
800.390	1211
800.492	1304
800.594	1408
800.696	927
800.798	470
800.899	318
801.001	823
801.103	296
801.205	539
801.306	1037
801.408	655
801.509	968
801.611	1474
801.713	1128
801.814	238
801.916	1417
802.017	399
802.119	290
802.220	1213
802.322	-408
802.423	2686
802.525	264
802.626	1375
802.727	1012
802.829	993
802.930	-1546
803.031	1076
803.133	810
803.234	408
803.335	82
803.436	-163
803.538	1002
803.639	-971
803.740	1165
803.841	291
803.942	1047
804.043	730
804.144	-439
804.245	383
804.346	888
804.447	72
804.548	979
804.649	1994
804.750	1029
804.851	429
804.952	896
805.053	1285
805.154	-37
805.255	2352
805.355	361
805.456	-190
805.557	-20
805.658	-395
805.758	2010
805.859	923
805.960	804
806.061	205
806.161	918
806.262	965
806.362	726
806.463	1278
806.564	1978
806.664	1403
806.765	962
806.865	1014
806.966	301
807.066	126
807.166	1114
807.267	1446
807.367	-226
807.468	742
807.568	-558
807.668	993
807.769	1278
807.869	796
807.969	92
808.069	1605
808.170	937
808.270	331
808.370	1167
808.470	1049
808.570	-301
808.670	310
808.770	977
808.870	-127
808.970	1558
809.070	378
809.170	646
809.271	1178
809.370	516
809.470	-59
809.570	820
809.670	282
809.770	298
809.870	1129
809.970	126
810.070	56
810.169	1069
810.269	-1281
810.369	1021
810.469	-279
810.568	900
810.668	-24
810.768	274
810.867	537
810.967	204
811.066	348
811.166	214
811.265	863
811.365	-3
811.464	202
811.564	906
811.663	963
811.763	-22
811.862	548
811.962	687
812.061	73
812.160	696
812.260	580
812.359	1262
812.458	827
812.557	3287
812.657	4318
812.756	1307
812.855	645
812.954	1037
813.053	209
813.153	294
813.252	-564
813.351	155
813.450	21
813.549	287
813.648	46
813.747	317
813.846	164
813.945	-148
814.044	-394
814.143	-36
814.242	383
814.341	994
814.439	-299
814.538	507
814.637	335
814.736	859
814.835	570
814.933	98
815.032	834
815.131	-41
815.229	-48
815.328	179
815.427	-1041
815.525	396
815.624	985
815.722	-409
815.821	395
815.919	94
816.018	-327
816.116	542
816.215	615
816.313	268
816.412	229
816.510	84
816.609	1485
816.707	688
816.805	413
816.904	-42
817.002	1091
817.100	1289
817.198	1171
817.296	1171
817.395	1618
817.493	2363
817.591	558
817.689	2092
817.787	1986
817.885	3276
817.983	7305
818.081	14945
818.179	37932
818.277	94437
818.375	91817
818.473	26161
818.571	10493
818.669	6573
818.767	6589
818.865	6223
818.963	5297
819.061	8457
819.158	14283
819.256	34474
819.354	78499
819.452	183124
819.549	129865
819.647	35378
819.745	13063
819.842	7654
819.940	4963
820.038	3686
820.135	2887
820.233	3611
820.330	1542
820.428	1268
820.525	1542
820.623	1385
820.720	398
820.818	1282
820.915	1352
821.012	2386
821.110	432
821.207	1762
821.304	184
821.402	1823
821.499	3440
821.596	5235
821.693	3035
821.791	1577
821.888	555
821.985	2215
822.082	1293
822.179	2787
822.276	1247
822.373	782
822.470	630
822.567	253
822.664	-373
822.761	1307
822.858	-600
822.955	146
823.052	-249
823.149	148
823.246	-672
823.343	-124
823.440	270
823.536	-365
823.633	-488
823.730	411
823.827	424
823.923	117
824.020	1626
824.117	1104
824.213	1360
824.310	1872
824.407	548
824.503	477
824.600	981
824.696	-622
824.793	501
824.889	605
824.986	-107
825.082	1093
825.179	206
825.275	-62
825.371	-278
825.468	931
825.564	518
825.660	757
825.757	-196
825.853	1271
825.949	101
826.045	473
826.142	-539
826.238	-50
826.334	279
826.430	-16
826.526	656
826.622	183
826.718	-535
826.814	-202
826.910	598
827.006	-84
827.102	-771
827.198	474
827.294	-141
827.390	-25
827.486	1061
827.582	-877
827.678	-640
827.774	1029
827.869	-979
827.965	203
828.061	-1348
828.157	357
828.252	84
828.348	-691
828.444	532
828.539	-747
828.635	-542
828.731	1362
828.826	-27
828.922	712
829.017	-759
829.113	-159
829.208	-377
829.304	-224
829.399	553
829.495	-768
829.590	977
829.685	390
829.781	291
829.876	340
829.971	-22
830.066	225
830.162	-101
830.257	-792
830.352	87
830.447	859
830.543	-419
830.638	-1219
830.733	437
830.828	-686
830.923	134
831.018	-204
831.113	115
831.208	-1054
831.303	129
831.398	289
831.493	-278
831.588	143
831.683	-619
831.778	235
831.873	-263
831.967	-129
832.062	-434
832.157	-1198
832.252	-199
832.346	-100
832.441	800
832.536	92
832.631	1329
832.725	1016
832.820	-350
832.914	587
833.009	267
833.104	-537
833.198	371
833.293	-148
833.387	117
833.482	266
833.576	-922
833.670	666
833.765	-212
833.859	-785
833.954	230
834.048	-192
834.142	149
834.237	-543
834.331	-792
834.425	14
834.519	-388
834.613	325
834.708	-385
834.802	204
834.896	-762
834.990	-460
835.084	-211
835.178	123
835.272	-696
835.366	-69
835.460	-164
835.554	-265
835.648	-62
835.742	-625
835.836	-1056
835.930	-1075
836.024	-232
836.117	468
836.211	-460
836.305	647
836.399	986
836.493	-207
836.586	451
836.680	-851
836.774	-643
836.867	704
836.961	-227
837.055	-1167
837.148	-689
837.242	-661
837.335	-738
837.429	-102
837.522	23
837.616	203
837.709	1061
837.803	1021
837.896	-83
837.989	-19
838.083	829
838.176	2180
838.269	1389
838.363	471
838.456	-532
838.549	285
838.642	30
838.735	1915
838.829	298
838.922	-1113
839.015	-468
839.108	-696
839.201	-607
839.294	-102
839.387	605
839.480	-973
839.573	578
839.666	861
839.759	245
839.852	-1470
839.945	-516
840.038	-772
840.131	132
840.223	115
840.316	388
840.409	-754
840.502	-1676
840.594	412
840.687	-691
840.780	-53
840.873	-121
840.965	125
841.058	253
841.150	1702
841.243	-42
841.336	56
841.428	-647
841.521	26
841.613	-934
841.706	-574
841.798	-266
841.890	458
841.983	-1517
842.075	131
842.167	-608
842.260	711
842.352	596
842.444	690
842.537	2551
842.629	3470
842.721	621
842.813	-91
842.905	-1287
842.997	56
843.090	-892
843.182	819
843.274	2151
843.366	5885
843.458	11127
843.550	8910
843.642	228
843.734	65
843.826	4
843.918	822
844.009	-691
844.101	43
844.193	-202
844.285	178
844.377	489
844.469	1792
844.560	3380
844.652	3216
844.744	1443
844.835	-92
844.927	835
845.019	117
845.110	-1313
845.202	402
845.293	-521
845.385	479
845.476	14
845.568	959
845.659	225
845.751	506
845.842	-500
845.934	-774
846.025	-600
846.116	-289
846.208	-826
846.299	-607
846.390	-180
846.482	-732
846.573	68
846.664	721
846.755	25
846.846	1680
846.937	-1365
847.029	-86
847.120	-437
847.211	-55
847.302	420
847.393	-1556
847.484	390
847.575	-596
847.666	-436
847.757	-388
847.847	-477
847.938	721
848.029	-1522
848.120	-63
848.211	-614
848.302	-625
848.392	-331
848.483	-8
848.574	-1411
848.664	-1047
848.755	-1235
848.846	-176
848.936	-138
849.027	-435
849.118	203
849.208	-420
849.299	-512
849.389	531
849.480	351
849.570	1948
849.661	2934
849.751	7006
849.841	2837
849.932	1091
850.022	-320
850.112	484
850.203	-645
850.293	-285
850.383	-568
850.474	-1160
850.564	-880
850.654	474
850.744	-249
850.834	193
850.924	-131
851.014	104
851.104	-399
851.194	-342
851.284	-125
851.374	-718
851.464	-283
851.554	-318
851.644	-31
851.734	849
851.824	437
851.914	1053
852.004	2248
852.094	1951
852.183	-352
852.273	153
852.363	-926
852.452	-423
852.542	-1083
852.632	290
852.721	-455
852.811	-469
852.901	-215
852.990	279
853.080	-504
853.169	-547
853.259	-69
853.348	-573
853.438	-635
853.527	749
853.617	-1057
853.706	2346
853.795	2341
853.885	8288
853.974	14159
854.063	27178
854.152	46773
854.242	21159
854.331	3205
854.420	453
854.509	706
854.598	604
854.687	-514
854.777	-494
854.866	275
854.955	122
855.044	-987
855.133	166
855.222	-102
855.311	-793
855.400	-186
855.488	-876
855.577	-798
855.666	-381
855.755	100
855.844	619
855.933	-249
856.021	1053
856.110	-509
856.199	-968
856.288	-227
856.376	-652
856.465	-1117
856.554	89
856.642	-731
856.731	374
856.819	-827
856.908	154
856.996	-467
857.085	-363
857.173	-104
857.262	82
857.350	-216
857.438	-808
857.527	-369
857.615	-1083
857.703	-412
857.792	-1043
857.880	-576
857.968	-309
858.056	-804
858.145	-351
858.233	-1504
858.321	-955
858.409	41
858.497	-712
858.585	-1405
858.673	279
858.761	-1342
858.849	-591
858.937	-403
859.025	-120
859.113	538
859.201	-1033
859.289	303
859.377	498
859.465	-623
859.552	83
859.640	-1138
859.728	-586
859.816	-785
859.903	345
859.991	-1901
860.079	119
860.166	-1475
860.254	-1073
860.342	-232
860.429	-662
860.517	-670
860.604	-862
860.692	-472
860.779	-1192
860.867	-1126
860.954	-908
861.042	-451
861.129	-482
861.216	-1023
861.304	-912
861.391	-910
861.478	212
861.565	-606
861.653	335
861.740	-1178
861.827	-937
861.914	-173
862.001	-1044
862.089	-844
862.176	-698
862.263	-655
862.350	-663
862.437	-477
862.524	-168
862.611	-768
862.698	582
862.785	1032
862.871	1002
862.958	-933
863.045	-250
863.132	-53
863.219	-1213
863.306	-1000
863.392	-51
863.479	-854
863.566	-695
863.652	-764
863.739	-967
863.826	-434
863.912	-1352
863.999	-1279
864.086	-279
864.172	-1127
864.259	-301
864.345	-1253
864.432	-221
864.518	-855
864.604	-629
864.691	-1400
864.777	176
864.863	-501
864.950	278
865.036	-1163
865.122	-344
865.209	212
865.295	450
865.381	-159
865.467	-587
865.553	-625
865.639	-359
865.726	483
865.812	3130
865.898	7380
865.984	9631
866.070	18795
866.156	24874
866.242	5986
866.328	1164
866.414	-268
866.499	-292
866.585	-307
866.671	-221
866.757	-810
866.843	-98
866.928	-987
867.014	-693
867.100	-430
867.186	245
867.271	27
867.357	-45
867.442	213
867.528	446
867.614	-142
867.699	577
867.785	2207
867.870	2920
867.956	3393
868.041	1688
868.127	633
868.212	2115
868.297	2172
868.383	874
868.468	933
868.553	919
868.639	860
868.724	1837
868.809	1676
868.894	813
868.979	-1090
869.065	390
869.150	-1158
869.235	-335
869.320	-1560
869.405	-231
869.490	-1297
869.575	-914
869.660	-565
869.745	-372
869.830	-1094
869.915	-209
870.000	-341
870.085	300
870.169	-98
870.254	169
870.339	-504
870.424	-1561
870.509	-980
870.593	-686
870.678	-517
870.763	-167
870.847	-131
870.932	-1154
871.016	227
871.101	-359
871.186	-878
871.270	-651
871.355	-920
871.439	-858
871.523	-714
871.608	67
871.692	242
871.777	762
871.861	-81
871.945	-626
872.030	-675
872.114	-668
872.198	-984
872.282	-1001
872.367	-2215
872.451	-642
872.535	-1132
872.619	45
872.703	-1575
872.787	-355
872.871	-996
872.955	-206
873.039	-1712
873.123	-974
873.207	-375
873.291	-886
873.375	-995
873.459	-77
873.543	-628
873.627	-900
873.711	-974
873.794	-798
873.878	-1757
873.962	-1187
874.045	-1828
874.129	-872
874.137	-789
874.213	41
874.245	-500
874.296	-1379
874.352	-1119
874.380	-992
874.460	-757
874.464	-747
874.547	-1050
874.568	-959
874.631	-727
874.676	-757
874.714	-764
874.784	-419
874.798	-350
874.881	-115
874.892	-157
874.965	-433
874.999	-550
875.048	-752
875.107	-302
875.131	-110
875.215	-443
875.215	-443
875.298	-499
875.323	-578
875.381	-739
875.430	-610
875.465	-505
875.538	-614
875.548	-635
875.631	-1212
875.646	-1131
875.714	-792
875.753	-778
875.798	-745
875.861	-1624
875.881	-1879
875.964	109
875.968	88
876.047	-258
876.076	-161
876.130	-92
876.183	-448
876.213	-585
876.291	-222
876.296	-205
876.379	-890
876.398	-762
876.462	-292
876.506	-222
876.545	-192
876.613	-643
876.628	-726
876.711	-455
876.721	-443
876.794	-278
876.828	-283
876.877	-394
876.935	-331
876.960	-238
877.043	-137
877.043	-138
877.125	-401
877.150	-172
877.208	491
877.258	578
877.291	643
877.365	-94
877.374	-203
877.456	847
877.472	761
877.539	565
877.579	374
877.622	51
877.687	-5
877.704	7
877.787	-29
877.794	-69
877.869	-321
877.901	-90
877.952	243
878.008	90
878.034	-16
878.115	-213
878.117	-215
878.199	-664
878.222	-418
878.282	159
878.329	-32
878.364	-102
878.437	27
878.447	42
878.529	-945
878.544	-758
878.611	-2
878.651	-132
878.694	-190
878.758	-283
878.776	-289
878.858	-451
878.865	-368
878.941	422
878.972	277
879.023	-42
879.078	-432
879.105	-487
879.185	-34
879.187	-29
879.269	-102
879.292	-183
879.351	-211
879.399	-313
879.433	-389
879.506	-216
879.516	-218
879.598	-58
879.613	-127
879.680	-324
879.720	-186
879.762	-74
879.827	-611
879.844	-741
879.926	-314
879.933	-301
880.007	-20
880.040	43
880.089	-41
880.147	-136
880.171	-28
880.253	1089
880.254	1085
880.335	270
880.360	590
880.417	1544
880.467	1699
880.499	1845
880.574	2640
880.580	2593
880.662	654
880.680	317
880.744	-74
880.787	-191
880.825	-220
880.893	-5
880.907	41
880.989	302
881.000	313
881.070	254
881.106	122
881.152	-70
881.213	75
881.233	146
881.315	-139
881.319	-128
881.396	370
881.426	204
881.478	-332
881.532	-87
881.559	166
881.639	103
881.641	95
881.722	296
881.745	146
881.803	96
881.852	279
881.885	261
881.958	223
881.966	223
882.047	-13
882.064	-10
882.129	390
882.171	667
882.210	731
882.277	668
882.291	679
882.372	535
882.383	482
882.454	-49
882.489	-145
882.535	-306
882.596	-524
882.616	-445
882.697	155
882.702	151
882.778	250
882.808	386
882.859	201
882.914	162
882.940	162
883.020	-96
883.021	-91
883.102	239
883.127	265
883.183	264
883.233	253
883.264	256
883.339	476
883.345	499
883.426	14
883.445	83
883.507	357
883.551	424
883.587	284
883.657	84
883.668	152
883.749	617
883.763	582
883.830	21
883.869	193
883.910	545
883.975	746
883.991	738
884.072	148
884.081	150
884.152	387
884.187	363
884.233	300
884.292	368
884.314	387
884.394	235
884.398	221
884.475	29
884.504	14
884.555	266
884.610	574
884.636	629
884.716	642
884.716	647
884.797	434
884.821	422
884.877	631
884.927	555
884.958	327
885.033	-0
885.038	24
885.118	466
885.139	503
885.199	401
885.244	397
885.279	313
885.350	-98
885.359	-98
885.439	283
885.456	317
885.520	495
885.561	541
885.600	452
885.667	406
885.680	406
885.760	488
885.773	456
885.840	762
885.878	927
885.920	513
885.984	-24
886.000	-19
886.080	43
886.089	27
886.160	617
886.195	954
886.240	707
886.300	202
886.320	342
886.400	1264
886.406	1301
886.480	703
886.511	485
886.560	623
886.616	790
886.640	866
886.720	903
886.722	900
886.800	572
886.827	531
886.879	847
886.932	942
886.959	943
887.038	1049
887.039	1051
887.119	587
887.143	482
887.198	812
887.248	1118
887.278	986
887.354	527
887.358	524
887.437	220
887.459	195
887.517	788
887.564	1330
887.596	1227
887.669	674
887.676	677
887.755	843
887.774	876
887.835	941
887.880	922
887.914	701
887.985	272
887.994	338
888.073	860
888.090	976
888.153	829
888.195	715
888.232	738
888.300	820
888.311	830
888.391	683
888.405	684
888.470	783
888.510	794
888.549	953
888.615	1227
888.628	1175
888.708	805
888.720	755
888.787	1055
888.825	1165
888.866	1114
888.930	1057
888.945	1068
889.024	1134
889.035	1131
889.103	1060
889.140	1031
889.182	1324
889.245	1769
889.261	1624
889.340	863
889.349	773
889.419	1187
889.454	1397
889.498	913
889.559	234
889.577	392
889.656	1081
889.664	1148
889.735	1634
889.768	1858
889.814	1537
889.873	1100
889.978	1578
890.083	1313
890.187	1329
890.292	1993
890.397	1533
890.501	1679
890.606	677
890.710	1754
890.815	634
890.919	938
891.024	1184
891.128	789
891.233	1374
891.337	1525
891.442	1165
891.546	693
891.650	519
891.755	462
891.859	1677
891.963	604
892.068	1424
892.172	1048
892.276	957
892.380	1698
892.484	761
892.589	1154
892.693	756
892.797	1193
892.901	806
893.005	1154
893.109	1573
893.213	956
893.317	510
893.421	862
893.525	880
893.629	470
893.733	620
893.837	76
893.941	1322
894.045	1396
894.148	1726
894.252	3624
894.356	2670
894.460	1046
894.564	809
894.667	363
894.771	913
894.875	884
894.978	400
895.082	939
895.186	1554
895.289	1273
895.393	1068
895.496	755
895.600	852
895.703	406
895.807	366
895.910	687
896.014	1084
896.117	57
896.221	1016
896.324	1129
896.427	1450
896.531	161
896.634	-328
896.737	665
896.840	707
896.944	760
897.047	151
897.150	392
897.253	457
897.356	1139
897.460	-342
897.563	-388
897.666	-31
897.769	330
897.872	541
897.975	531
898.078	799
898.181	854
898.284	-214
898.387	996
898.490	533
898.593	646
898.695	563
898.798	930
898.901	855
899.004	1306
899.107	278
899.209	673
899.312	1082
899.415	566
899.518	1625
899.620	1263
899.723	740
899.826	1436
899.928	1066
900.031	1255
900.133	411
900.236	403
900.338	-353
900.441	970
900.543	493
900.646	1038
900.748	701
900.851	577
900.953	621
901.055	576
901.158	361
901.260	600
901.362	470
901.465	661
901.567	858
901.669	1409
901.771	-542
901.873	1200
901.976	1372
902.078	976
902.180	837
902.282	770
902.384	851
902.486	1206
902.588	576
902.690	884
902.792	1198
902.894	662
902.996	223
903.098	835
903.200	389
903.302	1306
903.404	988
903.505	984
903.607	838
903.709	747
903.811	872
903.913	754
904.014	511
904.116	1075
904.218	425
904.319	701
904.421	729
904.523	1943
904.624	1437
904.726	762
904.827	1240
904.929	1436
905.030	742
905.132	681
905.233	-25
905.335	590
905.436	57
905.537	852
905.639	699
905.740	1090
905.841	150
905.943	968
906.044	1424
906.145	685
906.247	340
906.348	736
906.449	1857
906.550	665
906.651	524
906.752	431
906.854	334
906.955	550
907.056	-245
907.157	-52
907.258	332
907.359	180
907.460	983
907.561	1107
907.662	1212
907.762	362
907.863	217
907.964	756
908.065	412
908.166	690
908.267	754
908.367	256
908.468	104
908.569	639
908.670	1070
908.770	714
908.871	780
908.971	991
909.072	1767
909.173	777
909.273	778
909.374	885
909.474	144
909.575	166
909.675	-9
909.776	1270
909.876	236
909.977	1294
910.077	940
910.177	431
910.278	110
910.378	452
910.478	218
910.579	519
910.679	556
910.779	780
910.879	-20
910.980	803
911.080	-549
911.180	630
911.280	187
911.380	680
911.480	549
911.580	357
911.680	865
911.780	371
911.880	702
911.980	503
912.080	338
912.180	1158
912.280	710
912.380	1266
912.480	324
912.580	1283
912.679	937
912.779	1018
912.879	378
912.979	659
913.078	1105
913.178	466
913.278	-395
913.377	13
913.477	664
913.577	1082
913.676	707
913.776	-551
913.875	313
913.975	793
914.074	419
914.174	739
914.273	553
914.373	1119
914.472	963
914.572	353
914.671	-32
914.770	494
914.870	213
914.969	385
915.068	-117
915.167	321
915.267	137
915.366	539
915.465	454
915.564	-495
915.663	466
915.763	638
915.862	914
915.961	818
916.060	417
916.159	289
916.258	476
916.357	325
916.456	810
916.555	299
916.654	894
916.752	1413
916.851	711
916.950	932
917.049	534
917.148	408
917.247	805
917.345	565
917.444	354
917.543	269
917.642	375
917.740	133
917.839	193
917.937	551
918.036	647
918.135	839
918.233	3
918.332	712
918.430	-14
918.529	587
918.627	109
918.726	996
918.824	695
918.923	704
919.021	340
919.119	347
919.218	693
919.316	1040
919.414	531
919.512	-330
919.611	642
919.709	-251
919.807	674
919.905	760
920.003	524
920.102	1067
920.200	438
920.298	1051
920.396	140
920.494	-96
920.592	167
920.690	103
920.788	463
920.886	139
920.984	394
921.082	1160
921.180	1602
921.277	189
921.375	307
921.473	429
921.571	38
921.669	106
921.766	994
921.864	825
921.962	450
922.060	153
922.157	759
922.255	-76
922.352	484
922.450	212
922.548	-215
922.645	513
922.743	-146
922.840	296
922.938	219
923.035	73
923.133	351
923.230	474
923.327	611
923.425	528
923.522	81
923.619	640
923.717	-231
923.814	382
923.911	129
924.008	832
924.106	-72
924.203	386
924.300	-106
924.397	645
924.494	939
924.591	724
924.688	-607
924.786	442
924.883	-226
924.979	536
925.077	624
925.173	-332
925.270	427
925.367	38
925.464	476
925.561	426
925.658	633
925.755	688
925.852	-515
925.948	1294
926.045	1985
926.142	1730
926.239	1684
926.335	2242
926.432	1548
926.529	2156
926.625	2805
926.722	965
926.818	534
926.915	728
927.011	332
927.108	728
927.204	246
927.301	819
927.397	325
927.494	761
927.590	-168
927.687	354
927.783	109
927.879	335
927.976	-399
928.072	-134
928.168	783
928.264	748
928.361	-4
928.457	318
928.553	452
928.649	277
928.745	803
928.841	380
928.937	-88
929.033	54
929.129	-25
929.225	-387
929.321	236
929.417	260
929.513	173
929.609	484
929.705	-351
929.801	580
929.897	-32
929.993	456
930.089	-277
930.184	422
930.280	1082
930.376	78
930.471	-120
930.567	556
930.663	676
930.758	290
930.854	233
930.950	531
931.045	479
931.141	558
931.236	781
931.332	472
931.427	222
931.523	500
931.618	30
931.714	-39
931.809	31
931.905	170
932.000	-30
932.095	-48
932.191	909
932.286	1103
932.381	-666
932.476	-418
932.572	532
932.667	153
932.762	-102
932.857	19
932.952	35
933.047	578
933.142	-291
933.237	344
933.332	214
933.427	90
933.522	-366
933.617	118
933.712	246
933.807	-150
933.902	161
933.997	335
934.092	309
934.187	204
934.282	-161
934.376	-16
934.471	318
934.566	-146
934.661	-25
934.755	542
934.850	150
934.945	150
935.039	268
935.134	303
935.228	-336
935.323	462
935.417	-182
935.512	614
935.606	-446
935.701	67
935.795	-858
935.890	229
935.984	1063
936.079	166
936.173	85
936.267	152
936.362	-352
936.456	144
936.550	-148
936.644	-26
936.738	739
936.833	771
936.927	642
937.021	-78
937.115	556
937.209	-264
937.303	1112
937.397	591
937.491	579
937.585	-239
937.679	824
937.773	798
937.867	-82
937.961	422
938.055	-154
938.149	571
938.243	634
938.337	710
938.430	508
938.524	1030
938.618	2754
938.712	2099
938.805	919
938.899	792
938.993	1000
939.086	702
939.180	3403
939.274	3501
939.367	1242
939.461	684
939.554	639
939.648	-484
939.741	593
939.835	510
939.928	-39
940.022	255
940.115	38
940.208	446
940.302	-282
940.395	537
940.488	-705
940.582	617
940.675	-170
940.768	1570
940.861	403
940.954	813
941.048	161
941.141	-62
941.234	693
941.327	360
941.420	892
941.513	-406
941.606	242
941.699	1039
941.792	537
941.885	-244
941.978	-251
942.071	19
942.164	-1258
942.257	1122
942.349	475
942.442	164
942.535	221
942.628	496
942.721	155
942.813	-48
942.906	860
942.999	258
943.091	-285
943.184	-342
943.277	-128
943.369	156
943.462	-106
943.554	656
943.647	110
943.739	-96
943.832	249
943.924	-161
944.017	792
944.109	-377
944.201	148
944.294	498
944.386	-486
944.478	423
944.571	389
944.663	264
944.755	55
944.847	286
944.940	1336
945.032	-360
945.124	-13
945.216	1027
945.308	532
945.400	440
945.492	440
945.584	979
945.676	-162
945.768	169
945.860	-33
945.952	268
946.044	550
946.136	-425
946.228	37
946.320	117
946.412	463
946.503	-268
946.595	1001
946.687	-37
946.779	-146
946.870	-30
946.962	-302
947.054	192
947.145	-367
947.237	416
947.329	506
947.420	-124
947.512	253
947.603	306
947.695	830
947.786	-184
947.878	-240
947.969	225
948.061	-305
948.152	723
948.243	1
948.335	62
948.426	374
948.517	-364
948.609	530
948.700	191
948.791	-350
948.882	34
948.973	-81
949.065	-347
949.156	1173
949.247	163
949.338	-624
949.429	-358
949.520	-27
949.611	-391
949.702	528
949.793	84
949.884	788
949.975	592
950.066	-59
950.157	-424
950.247	662
950.338	932
950.429	11
950.520	664
950.611	-448
950.701	124
950.792	-214
950.883	401
950.973	846
951.064	776
951.155	-63
951.245	185
951.336	361
951.427	-746
951.517	72
951.608	274
951.698	-534
951.788	128
951.879	115
951.969	-509
952.060	749
952.150	549
952.240	684
952.331	-1470
952.421	549
952.511	-1069
952.602	164
952.692	158
952.782	-386
952.872	-840
952.962	-202
953.052	87
953.143	-342
953.233	-26
953.323	-275
953.413	-490
953.503	183
953.593	-308
953.683	-400
953.773	-217
953.863	671
953.953	-80
954.042	545
954.132	707
954.222	231
954.312	-558
954.402	82
954.492	1038
954.581	1464
954.671	384
954.761	99
954.850	611
954.940	-360
955.030	-130
955.119	500
955.209	39
955.298	-276
955.388	-159
955.477	1035
955.567	-828
955.656	222
955.746	41
955.835	675
955.925	711
956.014	8
956.103	229
956.193	-291
956.282	392
956.371	11
956.461	246
956.550	-132
956.639	73
956.728	-85
956.817	-44
956.906	-136
956.995	260
957.085	435
957.174	612
957.263	520
957.352	856
957.441	100
957.530	97
957.619	443
957.708	-329
957.796	-61
957.885	38
957.974	395
958.063	351
958.152	-106
958.241	1661
958.329	-76
958.418	916
958.507	180
958.596	907
958.684	249
958.773	1991
958.861	739
958.950	870
959.039	1005
959.127	839
959.216	1194
959.304	684
959.393	992
959.481	764
959.570	1067
959.658	1152
959.746	1458
959.835	1322
959.923	2662
960.011	651
960.100	-22
960.188	1071
960.276	549
960.365	705
960.453	195
960.541	104
960.629	133
960.717	-230
960.805	-218
960.893	624
960.981	176
961.069	889
961.158	90
961.245	110
961.333	-57
961.421	-653
961.509	-173
961.597	23
961.685	-128
961.773	98
961.861	-396
961.949	1116
962.036	-802
962.124	652
962.212	-752
962.299	-108
962.387	48
962.475	-482
962.562	-628
962.650	934
962.738	594
962.825	-428
962.913	-170
963.000	-146
963.088	90
963.175	77
963.263	674
963.350	346
963.438	-183
963.525	-75
963.612	1385
963.700	2970
963.787	9601
963.874	4193
963.962	2
964.049	337
964.136	-140
964.223	-875
964.310	-72
964.398	-13
964.485	318
964.572	-143
964.659	112
964.746	1335
964.833	-804
964.920	-79
965.007	-628
965.094	146
965.181	-20
965.268	83
965.355	-124
965.441	-134
965.528	-1561
965.615	334
965.702	248
965.789	-763
965.875	-228
965.962	-187
966.049	-1003
966.136	-376
966.222	-253
966.309	-392
966.395	-665
966.482	-24
966.569	-385
966.655	-210
966.742	97
966.828	-500
966.915	-795
967.001	-343
967.087	-551
967.174	-540
967.260	-210
967.347	957
967.433	2208
967.519	5453
967.605	2264
967.692	-651
967.778	-320
967.864	-1090
967.950	-944
968.036	-907
968.123	-210
968.209	-656
968.295	-1045
968.381	-20
968.467	-9
968.553	-1838
968.639	145
968.725	-306
968.811	581
968.897	1073
968.983	-893
969.069	-1294
969.154	-139
969.240	-1027
969.326	-166
969.412	-1520
969.497	-1675
969.583	-916
969.669	-701
969.755	-455
969.840	-959
969.926	-738
970.012	-772
970.097	-333
970.183	-930
970.268	-131
970.354	-165
970.439	730
970.525	4153
970.610	212
970.696	-209
970.781	-727
970.866	-1141
970.952	-938
971.037	-1406
971.122	-329
971.208	-926
971.293	-260
971.378	-854
971.463	-563
971.549	-549
971.634	-559
971.719	-483
971.804	-992
971.889	329
971.974	-441
972.059	-1050
972.144	-432
972.229	-794
972.314	-1111
972.399	-808
972.484	-848
972.569	749
972.654	-1001
972.739	1469
972.824	1308
972.908	163
972.993	11
973.078	-1414
973.163	-1095
973.247	-537
973.332	-2472
973.417	111
973.501	-1124
973.586	-722
973.671	-572
973.755	-262
973.840	-545
973.924	262
974.009	-1714
974.093	-775
974.178	1434
974.262	1052
974.346	1219
974.431	-640
974.515	-582
974.600	-1085
974.684	-778
974.768	-1468
974.852	-473
974.937	-1376
975.021	-491
975.105	-1216
975.189	-543
975.273	-344
975.358	-1150
975.442	-1602
975.526	360
975.610	-1354
975.694	-1074
975.778	-474
975.862	-795
975.946	-2586
976.030	-341
976.114	-1506
976.198	-545
976.281	-1128
976.365	-71
976.449	100
976.533	-961
976.617	-1512
976.700	-621
976.784	-768
976.868	-832
976.951	323
977.035	-670
977.119	-819
977.202	-929
977.286	-671
977.369	-283
977.453	-716
977.536	-981
977.620	-1054
977.703	-950
977.787	-1406
977.870	-458
977.953	629
978.037	-2102
978.120	385
978.203	-106
978.287	1795
978.370	706
978.453	-1143
978.536	-1062
978.620	291
978.703	-121
978.786	-616
978.869	-1929
978.952	-1247
979.035	689
979.118	-475
979.201	-1159
979.284	-675
979.367	-865
979.450	-227
979.533	-2141
979.616	-911
979.699	-1305
979.782	-1181
979.865	-989
979.948	-1275
980.030	-1134
980.113	-623
980.196	-1506
980.279	-1705
980.361	-1456
980.444	-1377
980.526	-817
980.609	-946
980.692	-731
980.774	-550
980.857	-1688
980.939	-240
981.022	-977
981.104	-1582
981.187	-1517
981.269	-320
981.352	91
981.434	-1666
981.516	-1233
981.599	-492
981.681	-405
981.763	-1252
981.846	-1094
981.928	-924
982.010	-926
982.092	-1285
982.174	206
982.256	-1165
982.339	-503
982.421	-920
982.503	-1273
982.585	-1975
982.667	-745
982.749	-951
982.831	-460
982.913	-532
982.995	58
983.077	-1291
983.158	-262
983.240	-1207
983.322	-858
983.404	-449
983.486	-1602
983.568	-723
983.649	-1199
983.731	-471
983.813	-1521
983.894	-1107
983.976	-1429
984.058	-1285
984.139	-139
984.221	-1614
984.302	223
984.384	-1048
984.465	-1000
984.547	-1120
984.628	-1522
984.710	-499
984.791	-1254
984.872	-677
984.954	-1129
985.035	-789
985.116	-2244
985.198	-1487
985.279	464
985.360	-965
985.441	-691
985.522	-511
985.604	-675
985.685	-3186
985.766	-421
985.847	32
985.928	-1713
986.009	-413
986.090	-1609
986.171	13
986.252	-1275
986.333	-845
986.414	-1557
986.495	-661
986.576	-1021
986.656	-807
986.737	-207
986.818	-1399
986.899	-564
986.980	-1178
987.060	-486
987.141	-1211
987.222	-839
987.302	-897
987.383	-887
987.464	-1019
987.544	-747
987.625	-1365
987.705	-38
987.786	-862
987.866	-1676
987.947	-1636
988.027	-919
988.108	-1584
988.188	-193
988.268	-836
988.349	-681
988.429	-1178
988.509	-541
988.589	-1674
988.670	-2082
988.750	-253
988.830	-1386
988.910	-1107
988.990	-894
989.070	205
989.151	-299
989.231	-1654
989.311	-833
989.391	-564
989.471	-562
989.551	-1297
989.631	-686
989.711	-980
989.791	-1992
989.870	-1940
989.950	-532
990.030	-1767
990.110	-804
990.190	-1573
990.269	-1070
990.349	-725
990.429	-723
990.509	-1108
990.588	-1739
990.668	-607
990.747	-1420
990.827	-467
990.907	-165
990.986	-806
991.066	-211
991.145	-1259
991.225	-759
991.304	-1040
991.383	-635
991.463	-1192
991.542	-1204
991.622	-924
991.701	-1017
991.780	-1391
991.859	-1133
991.939	-1351
992.018	-1108
992.097	-1091
992.176	-1111
992.256	-838
992.335	-1027
992.414	-174
992.493	-1637
992.572	-890
992.651	623
992.730	-1152
992.809	-1029
992.888	-1704
992.967	-1040
993.046	-1799
993.125	-917
993.203	-883
993.282	-535
993.361	-341
993.440	-588
993.519	-2065
993.597	-882
993.676	-1122
993.755	-552
993.834	-1368
993.912	-1767
993.991	-678
994.069	-1011
994.148	-1755
994.226	-776
994.305	-1023
994.384	-1382
994.462	53
994.540	-1958
994.619	-1089
994.697	-879
994.776	-1138
994.854	-128
994.932	-1479
995.011	-809
995.089	-1108
995.167	-1270
995.245	-1296
995.324	-1388
995.402	-66
995.480	-980
995.558	-622
995.636	-1796
995.714	-878
995.792	-508
995.870	-1556
995.948	-1567
996.026	-838
996.104	-1768
996.182	-593
996.260	-1330
996.338	-367
996.416	-1779
996.494	-1898
996.572	-952
996.649	-1058
996.727	-1796
996.805	-824
996.883	-1270
996.960	-1093
997.038	-725
997.116	-302
997.193	-2515
997.271	-1210
997.348	-1613
997.426	-964
997.504	-2371
997.581	-588
997.658	-870
997.736	-1764
997.813	-1127
997.891	-606
997.968	-1725
998.046	-881
998.123	-909
998.200	-1132
998.277	-2112
998.355	-649
998.432	-1711
998.509	-1108
998.586	-515
998.663	-669
998.741	-1428
998.818	-1514
998.895	-2319
998.972	-199
999.049	-960
999.126	-853
999.203	-988
999.280	-2009
999.357	-1221
999.434	-1323
999.511	-856
999.587	-656
999.664	-806
999.741	-426
999.818	-1398
999.895	-891
999.971	-1164
1000.048	-1718
1000.125	-672
1000.202	-1226
1000.278	-859
1000.355	-766
1000.431	-1645
1000.508	-2229
1000.584	-835
1000.661	-1325
1000.738	-1445
1000.814	-1478
1000.890	-1358
1000.967	-1725
1001.043	-371
1001.120	-1791
1001.196	-1142
1001.272	-1691
1001.349	-336
1001.425	-860
1001.501	-1685
1001.577	-2433
1001.654	-879
1001.730	-1654
1001.806	-844
1001.882	-2898
1001.958	-554
1002.034	-1632
1002.110	-1414
1002.186	-976
1002.262	-818
1002.338	-1960
1002.414	-1523
1002.490	-457
1002.566	-1578
1002.642	-668
1002.718	-852
1002.794	-1169
1002.870	-1136
1002.945	-2184
1003.021	-1118
1003.097	-840
1003.173	-891
1003.248	-1631
1003.324	-960
1003.400	-617
1003.475	-2014
1003.551	-1557
1003.626	-1619
1003.702	-1360
1003.777	-649
1003.853	-1030
1003.928	-2275
1004.004	-1826
1004.079	-1228
1004.155	-565
1004.230	-2329
1004.305	-1151
1004.381	-1656
1004.456	-1325
1004.531	-1539
1004.607	-1176
1004.682	-1022
1004.757	-1352
1004.832	-1942
1004.907	-1865
1004.982	-1473
1005.057	-1724
1005.133	-1054
1005.208	-1237
1005.283	-1671
1005.358	-1050
1005.433	-1809
1005.508	-509
1005.583	-1990
1005.657	-1237
1005.732	-863
1005.807	-1270
1005.882	-656
1005.957	-1069
1006.032	-1136
1006.106	-1502
1006.181	-2019
1006.256	-1086
1006.331	-1954
1006.405	-1757
1006.480	-1369
1006.554	-1263
1006.629	-788
1006.704	-1660
1006.778	-1610
1006.853	-668
1006.927	-1306
1007.002	-1564
1007.076	-2151
1007.150	-2330
1007.225	-1253
1007.299	-1322
1007.373	-1737
1007.448	-826
1007.522	-1116
1007.596	-1664
1007.671	-1353
1007.745	-1104
1007.819	-1997
1007.893	-1488
1007.967	-1473
1008.041	-2154
1008.115	-500
1008.190	-1271
1008.264	-1166
1008.338	-2413
1008.412	-1342
1008.486	-1300
1008.560	-1665
1008.633	-1994
1008.707	-1428
1008.781	-1188
1008.855	-1328
1008.929	-1717
1009.003	-1568
1009.076	-1873
1009.150	-1955
1009.224	-1807
1009.298	-1512
1009.371	-1808
1009.445	-750
1009.519	-2605
1009.592	-1994
1009.666	-1477
1009.739	-843
1009.813	-1834
1009.886	-1277
1009.960	-2569
1010.033	-1586
1010.107	-1242
1010.180	-2481
1010.253	-1258
1010.327	-1851
1010.400	-755
1010.473	-1539
1010.547	-861
1010.620	-2037
1010.693	-1737
1010.766	-1755
1010.840	-1127
1010.913	-1022
1010.986	-1997
1011.059	-1864
1011.132	-937
1011.205	-201
1011.278	-2189
1011.351	-1409
1011.424	-786
1011.497	-2325
1011.570	-1582
1011.643	-1649
1011.716	-2593
1011.789	-1953
1011.862	-1018
1011.934	-774
1012.007	-2490
1012.080	-964
1012.153	-2010
1012.225	-1931
1012.298	-2248
1012.371	-2137
1012.443	-890
1012.516	-1888
1012.588	-1298
1012.661	-1830
1012.733	-2887
1012.806	-1591
1012.879	-1863
1012.951	-2139
1013.023	-1969
1013.096	-1151
1013.168	-2623
1013.241	-788
1013.313	-1076
1013.385	-1744
1013.458	-2153
1013.530	-1084
1013.602	-2831
1013.674	-1339
1013.746	-1704
1013.819	-2144
1013.891	-2080
1013.963	-2246
1014.035	-1433
1014.107	-1353
1014.179	-1251
1014.251	-1891
1014.323	-1591
1014.395	-2322
1014.467	-1741
1014.539	-981
1014.611	-1650
1014.683	-1449
1014.754	-2044
1014.826	-2794
1014.898	-1585
1014.970	-2554
1015.042	-1047
1015.113	-2337
1015.185	-1885
1015.257	-2383
1015.328	-1348
1015.400	-1974
1015.471	-2505
1015.543	-2111
1015.615	-1223
1015.686	-1294
1015.757	-1941
1015.829	-1013
1015.901	-3022
1015.972	-1940
1016.043	-1962
1016.115	-2113
1016.186	-1908
1016.257	-2053
1016.328	-1343
1016.400	-1241
1016.471	-2622
1016.542	-1867
1016.613	-1287
1016.685	-1335
1016.756	-1737
1016.827	-2491
1016.898	-2461
1016.969	-1230
1017.040	-1772
1017.111	-2248
1017.182	-2219
1017.253	-1982
1017.324	-1908
1017.395	-2337
1017.466	-1964
1017.537	-1612
1017.608	-1707
1017.678	-1398
1017.749	-1900
1017.820	-1848
1017.891	-2470
1017.961	-2192
1018.032	-1967
1018.103	-1279
1018.173	-1532
1018.244	-1570
1018.315	-1796
1018.385	-2047
1018.456	-2354
1018.526	-2058
1018.597	-2075
1018.667	-2032
1018.738	-2631
1018.808	-1439
1018.878	-2958
1018.949	-1547
1019.019	-1090
1019.089	-1445
1019.160	-2074
1019.230	-2533
1019.300	-1562
1019.371	-2850
1019.441	-2050
1019.511	-1093
1019.581	-1821
1019.651	-2204
1019.721	-1410
1019.791	-2570
1019.861	-1821
1019.931	-1100
1020.001	-2648
1020.071	-3119
1020.141	-2822
1020.211	-1997
1020.281	-1719
1020.351	-1973
1020.421	-2080
1020.491	-1569
1020.560	-2587
1020.630	-3000
1020.700	-2071
1020.770	-1664
1020.839	-1937
1020.909	-2177
1020.979	-3189
1021.048	-1916
1021.118	-1357
1021.187	-1947
1021.257	-1937
1021.326	-1904
1021.396	-2127
1021.465	-2037
1021.535	-2006
1021.604	-2403
1021.674	-1974
1021.743	-1622
1021.812	-2514
1021.882	-1838
1021.951	-1927
1022.020	-2433
1022.089	-2890
1022.159	-2711
1022.228	-2616
1022.297	-1788
1022.366	-1729
1022.435	-1987
1022.504	-1883
1022.573	-1452
1022.642	-2026
1022.711	-1835
1022.781	-1385
1022.849	-1660
1022.918	-1966
1022.987	-1325
1023.056	-1604
1023.125	-1739
1023.194	-1749
1023.263	-1995
1023.331	-1693
1023.400	-2589
1023.469	-2045
1023.538	-1532
1023.606	-2218
1023.675	-2331
1023.744	-1877
1023.812	-2191
1023.881	-992
1023.949	-1552
1024.018	-2295
1024.086	-2194
1024.155	-1651
1024.223	-2167
1024.292	-2309
1024.360	-1849
1024.429	-1767
1024.497	-1791
1024.565	-1624
1024.634	-2432
1024.702	-1570
1024.770	-1664
1024.838	-2430
1024.907	-2505
1024.975	-2096
1025.043	-2430
1025.111	-2143
1025.179	-2333
1025.247	-2057
1025.315	-1506
1025.383	-2285
1025.451	-2356
1025.519	-1942
1025.587	-1829
1025.655	-2289
1025.723	-2577
1025.791	-2205
1025.859	-1819
1025.927	-1170
1025.995	-3011
1026.062	-1989
1026.130	-1980
1026.198	-2275
1026.266	-2147
1026.333	-1882
1026.401	-1102
1026.469	-1962
1026.536	-1727
1026.604	-2290
1026.671	-2390
1026.739	-2117
1026.806	-2410
1026.874	-2592
1026.941	-1758
1027.009	-1734
1027.076	-2051
1027.144	-1321
1027.211	-2468
1027.278	-1948
1027.345	-2259
1027.413	-2221
1027.480	-2123
1027.547	-1992
1027.614	-2113
1027.682	-2122
1027.749	-1573
1027.816	-2088
1027.883	-2310
1027.950	-2363
1028.017	-2308
1028.084	-2082
1028.151	-2781
1028.218	-3130
1028.285	-1989
1028.352	-1340
1028.419	-2256
1028.486	-2148
1028.553	-2824
1028.619	-1567
1028.686	-2713
1028.753	-2475
1028.820	-1773
1028.886	-2533
1028.953	-1792
1029.020	-2095
1029.086	-2261
1029.153	-2579
1029.220	-2144
1029.286	-1759
1029.353	-1999
1029.419	-1902
1029.486	-2079
1029.552	-2496
1029.619	-2245
1029.685	-2608
1029.751	-1524
1029.818	-973
1029.884	-2161
1029.951	-1331
1030.017	-2167
1030.083	-2049
1030.149	-2320
1030.216	-2265
1030.282	-1753
1030.348	-1744
1030.414	-2134
1030.480	-1924
1030.546	-2813
1030.612	-1775
1030.678	-2582
1030.744	-2584
1030.810	-2685
1030.876	-1746
1030.942	-2081
1031.008	-2113
1031.074	-2284
1031.140	-1985
1031.206	-1521
1031.272	-3074
1031.337	-2630
1031.403	-1905
1031.469	-2563
1031.534	-2216
1031.600	-2070
1031.666	-2464
1031.731	-1953
1031.797	-2356
1031.863	-2334
1031.928	-2251
1031.994	-2316
1032.059	-2565
1032.125	-1773
1032.190	-1793
1032.256	-1971
1032.321	-2342
1032.386	-1446
1032.452	-2114
1032.517	-2563
1032.582	-3084
1032.647	-1343
1032.713	-2028
1032.778	-1702
1032.843	-2140
1032.908	-2560
1032.974	-1668
1033.039	-2022
1033.104	-2253
1033.169	-2344
1033.234	-1642
1033.299	-1447
1033.364	-2106
1033.429	-1797
1033.494	-2019
1033.559	-2055
1033.624	-1997
1033.688	-1301
1033.753	-2121
1033.818	-2150
1033.883	-2471
1033.948	-1656
1034.013	-1716
1034.077	-1388
1034.142	-2291
1034.207	-2483
1034.271	-1259
1034.336	-1625
1034.400	-1960
1034.465	-1747
1034.530	-2045
1034.594	-2201
1034.658	-2038
1034.723	-2635
1034.787	-1454
1034.852	-1748
1034.916	-2218
1034.981	-2948
1035.045	-2006
1035.109	-1907
1035.173	-1346
1035.238	-2288
1035.302	-2396
1035.366	-2442
1035.430	-1444
1035.495	-2278
1035.559	-1647
1035.623	-2664
1035.687	-1871
1035.751	-2835
1035.815	-2505
1035.879	-1917
1035.943	-2494
1036.007	-1598
1036.071	-1599
1036.135	-2447
1036.198	-2171
1036.262	-2569
1036.326	-2235
1036.390	-2283
1036.454	-2718
1036.517	-2200
1036.581	-2194
1036.645	-2463
1036.709	-1435
1036.772	-2281
1036.836	-1858
1036.900	-1775
1036.963	-2685
1037.026	-1989
1037.090	-3325
1037.154	-2131
1037.217	-1559
1037.280	-2169
1037.344	-1901
1037.407	-3024
1037.471	-1804
1037.534	-1758
1037.597	-2207
1037.661	-2275
1037.724	-2718
1037.787	-1759
1037.850	-2009
1037.913	-2830
1037.977	-2651
1038.040	-3210
1038.103	-1955
1038.166	-2156
1038.229	-1355
1038.292	-2645
1038.355	-2090
1038.418	-2100
1038.481	-2230
1038.544	-2411
1038.607	-2316
1038.670	-2071
1038.732	-1602
1038.795	-2524
1038.858	-2911
1038.921	-2024
1038.984	-1769
1039.046	-1614
1039.109	-2844
1039.172	-2511
1039.234	-2418
1039.297	-3389
1039.360	-1940
1039.422	-2226
1039.485	-2273
1039.547	-2300
1039.610	-2247
1039.672	-2323
1039.734	-1184
1039.797	-1586
1039.859	-2437
1039.922	-2026
1039.984	-2744
1040.046	-2058
1040.109	-2269
1040.171	-2483
1040.233	-2072
1040.295	-2115
1040.358	-2361
1040.420	-1648
1040.482	-2884
1040.544	-1857
1040.606	-1548
1040.668	-2546
1040.730	-1699
1040.792	-2245
1040.854	-2992
1040.916	-2861
1040.978	-2771
1041.040	-1507
1041.102	-3252
1041.164	-2516
1041.225	-3232
1041.287	-1929
1041.349	-2362
1041.411	-2532
1041.472	-1445
1041.534	-2514
1041.596	-2614
1041.657	-2825
1041.719	-1758
1041.781	-2121
1041.842	-2495
1041.904	-2623
1041.965	-2114
1042.027	-2295
1042.088	-1624
1042.150	-2300
1042.211	-2268
1042.272	-1647
1042.334	-2576
1042.395	-2640
1042.456	-2825
1042.518	-1934
1042.579	-1551
1042.640	-2566
1042.701	-2754
1042.763	-2141
1042.824	-2930
1042.885	-2677
1042.946	-2214
1043.007	-2307
1043.068	-1752
1043.129	-3262
1043.190	-2532
1043.251	-1894
1043.312	-2437
1043.373	-1821
1043.434	-2529
1043.495	-2503
1043.556	-1685
1043.616	-1346
1043.677	-1778
1043.738	-2171
1043.799	-2732
1043.859	-1655
1043.920	-1703
1043.981	-3022
1044.041	-1542
1044.102	-2595
1044.162	-2628
1044.223	-2936
1044.284	-2211
1044.344	-2316
1044.405	-2811
1044.465	-2235
1044.525	-2333
1044.586	-1753
1044.646	-2049
1044.707	-2034
1044.767	-2365
1044.827	-1543
1044.887	-2252
1044.948	-2312
1045.008	-2051
1045.068	-1917
1045.128	-2080
1045.188	-2036
1045.249	-1130
1045.309	-1707
1045.369	-1899
1045.429	-2021
1045.489	-1474
1045.549	-1629
1045.609	-1972
1045.669	-2061
1045.729	-2179
1045.789	-2299
1045.848	-2145
1045.908	-1433
1045.968	-1436
1046.028	-1664
1046.088	-2014
1046.147	-2055
1046.207	-1572
1046.267	-2290
1046.326	-944
1046.386	-1732
1046.446	-1008
1046.505	-842
1046.565	-1267
1046.624	-1210
1046.684	-679
1046.743	-1400
1046.803	-275
1046.862	-793
1046.922	0
