'Start Wavelength	183.907
'End Wavelength	1046.922
'Gate Delay	5.000
'Gate Width (ms)	1.050
'Laser Output Level	0.000
'X Position	0.000
'Y Position	0.000
'Z Position	0.000
'Grid Point Number	1.000
'Shot Number	100.000
183.907	304.000
183.977	-771.000
184.047	160
184.116	323
184.186	443
184.256	311
184.325	-356
184.395	-144
184.465	632
184.534	-53
184.604	-881
184.674	306
184.743	439
184.813	493
184.883	341
184.952	124
185.022	92
185.092	500
185.161	-239
185.231	-139
185.301	-95
185.370	726
185.440	-225
185.509	16
185.579	-431
185.649	-30
185.718	-229
185.788	624
185.857	220
185.927	284
185.996	-484
186.066	290
186.136	142
186.205	-79
186.275	139
186.344	41
186.414	284
186.483	-378
186.553	934
186.622	-200
186.692	-438
186.761	700
186.831	-238
186.900	2
186.970	-45
187.039	206
187.109	220
187.178	-88
187.248	-84
187.317	568
187.387	169
187.456	442
187.526	-139
187.595	315
187.664	-505
187.734	-572
187.803	708
187.873	272
187.942	502
188.012	60
188.081	-60
188.150	373
188.220	679
188.289	447
188.358	-433
188.428	189
188.497	22
188.567	-59
188.636	-939
188.705	374
188.775	347
188.844	-199
188.913	948
188.983	-129
189.052	-532
189.121	245
189.191	256
189.260	30
189.329	40
189.399	542
189.468	471
189.537	163
189.606	457
189.676	194
189.745	-674
189.814	404
189.883	-249
189.953	33
190.022	-338
190.091	-99
190.161	-91
190.230	61
190.299	-279
190.368	181
190.437	-219
190.507	99
190.576	-176
190.645	146
190.714	-66
190.783	265
190.853	-100
190.922	617
190.991	34
191.060	102
191.129	-848
191.198	362
191.268	-142
191.337	-128
191.406	82
191.475	830
191.544	-343
191.613	593
191.682	-443
191.752	-468
191.821	-133
191.890	-429
191.959	315
192.028	351
192.097	-156
192.166	260
192.235	-310
192.304	-188
192.373	365
192.442	10
192.511	-484
192.580	157
192.650	24
192.719	-125
192.788	-179
192.857	225
192.926	-463
192.995	-373
193.064	-346
193.133	-554
193.202	-132
193.271	128
193.340	309
193.409	745
193.478	-398
193.547	-503
193.615	732
193.684	-308
193.753	-608
193.822	245
193.891	220
193.960	-185
194.029	-45
194.098	251
194.167	-163
194.236	536
194.305	1
194.374	-700
194.443	279
194.512	639
194.580	384
194.649	-516
194.718	274
194.787	-173
194.856	-940
194.925	-248
194.994	-507
195.062	-131
195.131	-182
195.200	-177
195.269	518
195.338	-552
195.407	151
195.475	796
195.544	429
195.613	468
195.682	-103
195.751	-28
195.819	-329
195.888	336
195.957	110
196.026	535
196.094	433
196.163	96
196.232	-36
196.301	-338
196.369	-843
196.438	15
196.507	-465
196.576	246
196.644	359
196.713	151
196.782	-310
196.850	715
196.919	-553
196.988	-367
197.056	-660
197.125	-536
197.194	-178
197.262	-40
197.331	-410
197.400	-30
197.468	-439
197.537	131
197.606	222
197.674	77
197.743	-18
197.812	-282
197.880	204
197.949	-156
198.017	380
198.086	-70
198.155	-349
198.223	53
198.292	-415
198.360	-221
198.429	445
198.497	512
198.566	-406
198.635	620
198.703	768
198.772	1163
198.840	423
198.909	-125
198.977	-728
199.046	228
199.114	-647
199.183	609
199.251	-420
199.320	-95
199.388	-166
199.457	11
199.525	667
199.594	39
199.662	-436
199.731	266
199.799	78
199.867	97
199.936	-107
200.004	236
200.073	822
200.141	-898
200.210	175
200.278	-24
200.346	-190
200.415	444
200.483	126
200.552	666
200.620	-149
200.688	182
200.757	513
200.825	91
200.893	86
200.962	52
201.030	61
201.098	-238
201.167	-320
201.235	564
201.303	-60
201.372	172
201.440	-556
201.508	505
201.577	294
201.645	536
201.713	-406
201.781	-389
201.850	-121
201.918	406
201.986	-327
202.055	611
202.123	36
202.191	669
202.259	124
202.327	473
202.396	41
202.464	-198
202.532	-13
202.600	223
202.669	-839
202.737	-186
202.805	-455
202.873	-299
202.941	-525
203.009	128
203.078	-479
203.146	1149
203.214	-500
203.282	190
203.350	262
203.418	669
203.487	-181
203.555	435
203.623	-451
203.691	667
203.759	-230
203.827	-826
203.895	209
203.963	3
204.031	81
204.099	-173
204.168	-450
204.236	834
204.304	289
204.372	217
204.440	-668
204.508	-132
204.576	-329
204.644	721
204.712	-1255
204.780	440
204.848	-678
204.916	102
204.984	-278
205.052	404
205.120	-119
205.188	-271
205.256	-760
205.324	80
205.392	-463
205.460	-68
205.528	-118
205.596	83
205.664	-500
205.732	-264
205.799	13
205.867	210
205.935	-605
206.003	818
206.071	-711
206.139	-276
206.207	-604
206.275	58
206.343	-84
206.411	-482
206.478	-781
206.546	127
206.614	-196
206.682	66
206.750	-745
206.818	-338
206.885	95
206.953	-557
207.021	-233
207.089	527
207.157	-535
207.225	403
207.292	-601
207.360	61
207.428	-298
207.496	-808
207.563	250
207.631	624
207.699	-61
207.767	122
207.834	-459
207.902	-463
207.970	210
208.038	338
208.105	-707
208.173	-68
208.241	31
208.309	509
208.376	-562
208.444	-7
208.512	-672
208.579	-1055
208.647	467
208.715	769
208.782	-1405
208.850	269
208.918	-518
208.985	532
209.053	-80
209.120	147
209.188	-392
209.256	-23
209.323	-88
209.391	-531
209.459	577
209.526	624
209.594	-341
209.661	173
209.729	-62
209.796	331
209.864	-357
209.932	-1027
209.999	250
210.067	494
210.134	-559
210.202	444
210.269	-81
210.337	59
210.404	202
210.472	-250
210.539	-822
210.607	-154
210.674	-179
210.742	-656
210.809	128
210.877	-90
210.944	-53
211.012	-87
211.079	989
211.146	661
211.214	-739
211.281	-271
211.349	-265
211.416	76
211.484	-150
211.551	-348
211.618	-835
211.686	25
211.753	-512
211.821	15
211.888	-709
211.955	196
212.023	-1206
212.090	-39
212.157	-38
212.225	-629
212.292	797
212.359	-236
212.427	1310
212.494	802
212.561	-490
212.629	29
212.696	-671
212.763	177
212.831	-807
212.898	-308
212.965	6
213.032	-40
213.100	324
213.167	-820
213.234	631
213.301	143
213.369	269
213.436	-123
213.503	-400
213.570	671
213.638	-473
213.705	502
213.772	-847
213.839	457
213.906	352
213.973	248
214.041	-627
214.108	862
214.175	-2
214.242	-966
214.309	-293
214.376	254
214.444	88
214.511	-262
214.578	-467
214.645	599
214.712	-84
214.779	520
214.846	-710
214.913	425
214.980	-280
215.048	599
215.115	337
215.182	-69
215.249	79
215.316	-331
215.383	705
215.450	498
215.517	223
215.584	-53
215.651	-661
215.718	-104
215.785	292
215.852	-281
215.919	609
215.986	416
216.053	-640
216.120	-124
216.187	-11
216.254	306
216.321	80
216.388	18
216.455	-471
216.522	68
216.589	-953
216.656	-138
216.722	-261
216.789	291
216.856	-271
216.923	378
216.990	337
217.057	-155
217.124	206
217.191	554
217.258	460
217.324	213
217.391	-142
217.458	601
217.525	-238
217.592	472
217.659	-1076
217.725	157
217.792	65
217.859	812
217.926	-848
217.993	359
218.059	-448
218.126	340
218.193	42
218.260	-459
218.327	-674
218.393	262
218.460	-557
218.527	11
218.594	113
218.660	-62
218.727	520
218.794	150
218.860	-635
218.927	-704
218.994	-868
219.061	295
219.127	-206
219.194	-306
219.261	-912
219.327	381
219.394	-340
219.461	-1199
219.527	343
219.594	-113
219.661	-40
219.727	-704
219.794	-621
219.860	-1057
219.927	-217
219.994	352
220.060	-22
220.127	748
220.193	496
220.260	48
220.326	-92
220.393	789
220.460	827
220.526	333
220.593	-835
220.659	1455
220.726	-312
220.792	684
220.859	455
220.925	1092
220.992	2201
221.058	1992
221.125	920
221.191	1802
221.258	211
221.324	488
221.391	-340
221.457	88
221.524	-218
221.590	82
221.657	1457
221.723	425
221.789	-263
221.856	454
221.922	-1234
221.989	200
222.055	-97
222.121	-935
222.188	130
222.254	84
222.321	-1373
222.387	-395
222.453	-282
222.520	502
222.586	-777
222.652	228
222.719	-1114
222.785	629
222.851	-409
222.918	148
222.984	-85
223.050	399
223.116	-2454
223.183	156
223.249	-1296
223.315	-578
223.382	-164
223.448	-476
223.514	-680
223.580	-176
223.647	-685
223.713	-1172
223.779	-135
223.845	-598
223.911	19
223.978	-456
224.044	-423
224.110	-273
224.176	-235
224.242	-295
224.309	-1872
224.375	565
224.441	163
224.507	-409
224.573	-1805
224.639	210
224.705	-622
224.772	-185
224.838	-823
224.904	-17
224.970	-355
225.036	-423
225.102	-2076
225.168	693
225.234	244
225.300	-298
225.366	-574
225.432	342
225.499	-394
225.565	-271
225.631	-1056
225.697	-561
225.763	-370
225.829	645
225.895	-647
225.961	450
226.027	-277
226.093	-706
226.159	492
226.225	623
226.291	1910
226.357	3392
226.423	1157
226.489	279
226.554	-2
226.620	561
226.686	-266
226.752	1107
226.818	1334
226.884	3891
226.950	4033
227.016	1584
227.082	1215
227.148	406
227.214	-406
227.279	786
227.345	-819
227.411	337
227.477	-865
227.543	-246
227.609	-351
227.674	49
227.740	-947
227.806	-263
227.872	-1257
227.938	582
228.003	159
228.069	119
228.135	-948
228.201	-16
228.267	-374
228.332	-148
228.398	-1669
228.464	249
228.530	-963
228.595	120
228.661	-1385
228.727	-590
228.792	-2
228.858	-956
228.924	-1834
228.990	704
229.055	-1085
229.121	673
229.187	-734
229.252	-779
229.318	-1261
229.384	166
229.449	-465
229.515	-1223
229.581	-1653
229.646	1168
229.712	-626
229.777	401
229.843	-562
229.909	-318
229.974	416
230.040	786
230.105	253
230.171	-502
230.236	513
230.302	924
230.368	-411
230.433	-289
230.499	466
230.564	756
230.630	-647
230.695	-109
230.761	-43
230.826	-1647
230.892	831
230.957	-1109
231.023	-136
231.088	488
231.154	-346
231.219	493
231.284	-1021
231.350	-203
231.415	-1084
231.481	-267
231.546	-624
231.612	103
231.677	-1192
231.742	-800
231.808	370
231.873	-45
231.939	-1811
232.004	688
232.069	751
232.135	-772
232.200	-624
232.265	181
232.331	-171
232.396	-281
232.461	-610
232.527	-944
232.592	-244
232.657	-648
232.723	-390
232.788	-1042
232.853	-236
232.918	-31
232.984	-1192
233.049	-48
233.114	-874
233.179	487
233.245	-176
233.310	250
233.375	-1684
233.440	-639
233.506	-1451
233.571	-428
233.636	475
233.701	141
233.766	-190
233.832	196
233.897	-754
233.962	-972
234.027	344
234.092	483
234.157	-391
234.222	-855
234.288	-763
234.353	-336
234.418	593
234.483	1289
234.548	-498
234.613	54
234.678	-171
234.743	-263
234.808	1040
234.873	-198
234.938	176
235.004	-29
235.069	-235
235.134	7
235.199	-263
235.264	226
235.329	-1716
235.394	-149
235.459	-209
235.524	-256
235.589	-108
235.654	-818
235.719	-1447
235.784	196
235.849	-631
235.913	-221
235.978	-309
236.043	456
236.108	-205
236.173	-896
236.238	-155
236.303	-802
236.368	-620
236.433	62
236.498	-532
236.563	-160
236.627	1599
236.692	5852
236.757	2982
236.822	1531
236.887	412
236.952	863
237.017	-956
237.081	1026
237.146	-996
237.211	2711
237.276	4884
237.341	7897
237.405	3124
237.470	772
237.535	-703
237.600	674
237.664	-664
237.729	-760
237.794	-145
237.859	2056
237.923	-403
237.988	419
238.053	206
238.118	57
238.182	321
238.247	1339
238.312	-1129
238.376	1214
238.441	-1964
238.506	849
238.570	-1514
238.635	1094
238.700	-203
238.764	410
238.829	-76
238.893	-629
238.958	-81
239.023	-59
239.087	-845
239.152	238
239.216	-820
239.281	-507
239.346	-286
239.410	13
239.475	-557
239.539	1687
239.604	-659
239.668	88
239.733	-817
239.797	-442
239.862	-1452
239.926	187
239.991	79
240.055	231
240.120	-1145
240.184	-417
240.249	-1753
240.313	-349
240.378	-716
240.442	-66
240.507	837
240.571	-390
240.635	-328
240.700	483
240.764	-935
240.829	-218
240.893	-1339
240.957	966
241.022	-83
241.086	1324
241.151	-1375
241.215	-756
241.279	383
241.344	-795
241.408	290
241.472	-1022
241.537	443
241.601	589
241.665	-1301
241.730	393
241.794	242
241.858	-416
241.922	-903
241.987	-117
242.051	-1195
242.115	-919
242.179	248
242.244	-1201
242.308	-133
242.372	-302
242.436	-188
242.501	-310
242.565	-1326
242.629	-1072
242.693	504
242.757	-675
242.822	-533
242.886	732
242.950	985
243.014	-482
243.078	-74
243.142	79
243.206	-984
243.271	258
243.335	-1033
243.399	798
243.463	1010
243.527	5301
243.591	500
243.655	669
243.719	-1181
243.783	729
243.847	706
243.911	756
243.975	-657
244.040	-569
244.104	621
244.168	-106
244.232	-86
244.296	119
244.360	387
244.424	-420
244.488	-333
244.552	155
244.615	-1615
244.679	-115
244.743	-253
244.807	-1005
244.871	-979
244.935	-373
244.999	-2001
245.063	-780
245.127	659
245.191	1118
245.255	-526
245.319	446
245.383	-2239
245.446	962
245.510	-612
245.574	-28
245.638	-458
245.702	-791
245.766	908
245.829	47
245.893	-85
245.957	-575
246.021	520
246.085	439
246.149	-707
246.212	1411
246.276	-21
246.340	323
246.404	-363
246.467	884
246.531	-1109
246.595	804
246.659	-269
246.722	-552
246.786	-268
246.850	317
246.913	347
246.977	-1744
247.041	-261
247.104	-174
247.168	-327
247.232	1178
247.295	1933
247.359	576
247.423	-22
247.486	525
247.550	827
247.614	-174
247.677	-429
247.741	447
247.804	-535
247.868	-138
247.932	-577
247.995	2996
248.059	-534
248.122	-1204
248.186	833
248.249	169
248.313	3918
248.376	4081
248.440	1475
248.503	-1062
248.567	1014
248.630	786
248.694	1004
248.757	2462
248.821	3999
248.884	2817
248.948	676
249.011	2685
249.075	4425
249.138	4731
249.202	1608
249.265	322
249.328	789
249.392	-308
249.455	431
249.519	426
249.582	-42
249.645	1120
249.709	273
249.772	-449
249.835	285
249.899	-143
249.962	-274
250.025	-772
250.089	767
250.152	1661
250.215	846
250.279	368
250.342	377
250.405	737
250.468	-441
250.532	128
250.595	1334
250.658	4678
250.721	8475
250.785	2291
250.848	2182
250.911	244
250.974	401
251.038	586
251.101	1880
251.164	524
251.227	216
251.290	721
251.354	2260
251.417	7858
251.480	6865
251.543	4396
251.606	15049
251.669	10494
251.732	3553
251.795	3550
251.859	3418
251.922	10082
251.985	4936
252.048	2382
252.111	926
252.174	744
252.237	1673
252.300	5306
252.363	4145
252.426	12915
252.489	3581
252.552	1766
252.615	687
252.678	1794
252.741	3555
252.804	4105
252.867	11575
252.930	6495
252.993	2104
253.056	2442
253.119	350
253.182	612
253.245	181
253.308	1520
253.371	549
253.434	1005
253.497	1021
253.559	2101
253.622	268
253.685	607
253.748	746
253.811	-585
253.874	168
253.937	-750
254.000	-727
254.062	804
254.125	1358
254.188	3057
254.251	324
254.314	441
254.376	-42
254.439	1500
254.502	760
254.565	491
254.628	2672
254.690	1161
254.753	-78
254.816	-581
254.878	-18
254.941	961
255.004	306
255.067	805
255.129	-506
255.192	142
255.255	-920
255.317	569
255.380	-89
255.443	-641
255.505	-411
255.568	-793
255.631	-551
255.693	-524
255.756	-1576
255.819	1019
255.881	-834
255.944	-540
256.006	-715
256.069	-736
256.132	-1024
256.194	-526
256.257	390
256.319	128
256.382	-732
256.444	-484
256.507	150
256.569	-1049
256.632	-572
256.694	-616
256.757	2838
256.819	8658
256.882	975
256.944	991
257.007	-35
257.069	486
257.132	-182
257.194	1003
257.257	-871
257.319	-1025
257.381	-565
257.444	2395
257.506	9275
257.569	10778
257.631	2605
257.693	1635
257.756	-235
257.818	-511
257.880	-427
257.943	126
258.005	-1219
258.067	-281
258.130	392
258.192	-109
258.254	-394
258.317	-816
258.379	-78
258.441	342
258.503	428
258.566	747
258.628	1272
258.690	-936
258.753	-55
258.815	7
258.877	-599
258.939	296
259.001	199
259.064	-91
259.126	-1126
259.188	-415
259.250	147
259.312	-446
259.375	687
259.437	-541
259.499	-923
259.561	343
259.623	-150
259.685	-513
259.747	106
259.809	593
259.872	1143
259.934	4192
259.996	4881
260.058	1535
260.120	-1405
260.182	-252
260.244	-430
260.306	-218
260.368	165
260.430	-1057
260.492	939
260.554	2821
260.616	-815
260.678	1771
260.740	1693
260.802	-285
260.864	-68
260.926	-1531
260.988	302
261.050	-627
261.112	1366
261.174	5164
261.236	1417
261.298	-439
261.359	-593
261.421	1809
261.483	-1294
261.545	576
261.607	-2058
261.669	-224
261.731	-272
261.793	910
261.854	-1090
261.916	-233
261.978	-137
262.040	341
262.102	-427
262.164	47
262.225	-514
262.287	-623
262.349	-232
262.411	92
262.472	726
262.534	-229
262.596	137
262.658	-172
262.719	-1520
262.781	-295
262.843	-286
262.904	300
262.966	-712
263.028	-219
263.090	1817
263.151	9005
263.213	3137
263.275	1252
263.336	76
263.398	-342
263.459	-1217
263.521	-483
263.583	308
263.644	167
263.706	-552
263.767	-1703
263.829	108
263.891	-766
263.952	-1014
264.014	-783
264.075	166
264.137	3011
264.198	1141
264.260	-1829
264.321	-434
264.383	430
264.444	3982
264.506	878
264.567	-245
264.629	1106
264.690	2642
264.752	556
264.813	-780
264.875	-118
264.936	821
264.998	-989
265.059	-2130
265.120	-648
265.182	-506
265.243	4013
265.305	3882
265.366	436
265.427	-57
265.489	2
265.550	-1299
265.611	-440
265.673	-1120
265.734	-386
265.795	-174
265.857	-1421
265.918	-1588
265.979	1207
266.040	6581
266.102	5832
266.163	869
266.224	1475
266.286	-632
266.347	-846
266.408	-1157
266.469	-404
266.530	-990
266.592	-436
266.653	-267
266.714	97
266.775	-529
266.836	-689
266.898	-1366
266.959	-6
267.020	-9
267.081	230
267.142	-1105
267.203	-700
267.264	-2073
267.326	306
267.387	-1391
267.448	-1053
267.509	-1517
267.570	-1543
267.631	-1739
267.692	-1554
267.753	-853
267.814	-993
267.875	171
267.936	1276
267.997	252
268.058	352
268.119	-1046
268.180	-243
268.241	-2162
268.302	-756
268.363	-1309
268.424	39
268.485	-484
268.546	-1866
268.607	-1192
268.668	-878
268.729	-1076
268.790	-1345
268.851	-506
268.912	-349
268.972	-277
269.033	-370
269.094	-949
269.155	-1083
269.216	-1680
269.277	-1056
269.338	-864
269.398	-100
269.459	-1039
269.520	-144
269.581	-1233
269.642	-691
269.702	-567
269.763	-1232
269.824	-1367
269.885	-14
269.945	-842
270.006	-829
270.067	-1647
270.128	-810
270.188	-697
270.249	-794
270.310	-1123
270.370	-1225
270.431	-361
270.492	-1211
270.553	-965
270.613	-72
270.674	480
270.734	-263
270.795	-594
270.856	-607
270.916	-1566
270.977	-839
271.038	-1184
271.098	-736
271.159	-923
271.219	-876
271.280	-1003
271.340	-711
271.401	-1540
271.462	-861
271.522	-989
271.583	-956
271.643	-880
271.704	-687
271.764	-960
271.825	-105
271.885	3009
271.946	4346
272.006	502
272.066	1605
272.127	3311
272.187	54
272.248	-962
272.308	-746
272.369	2068
272.429	607
272.489	-171
272.550	-229
272.610	-698
272.671	357
272.731	-357
272.791	-627
272.852	-1875
272.912	-459
272.972	-1392
273.033	-619
273.093	-1465
273.153	-576
273.214	-431
273.274	-301
273.334	1828
273.394	4489
273.455	142
273.515	1347
273.575	2378
273.635	760
273.696	247
273.756	3188
273.816	-772
273.876	548
273.936	64
273.997	2121
274.057	-295
274.117	-1036
274.177	-367
274.237	5287
274.297	3324
274.358	1735
274.418	2333
274.478	1053
274.538	-543
274.598	-1029
274.658	599
274.718	1021
274.778	338
274.838	-298
274.898	-544
274.958	2461
275.018	2511
275.078	1803
275.138	-269
275.198	-942
275.258	-745
275.318	-484
275.378	-1014
275.438	313
275.498	-1183
275.558	253
275.618	2459
275.678	1387
275.738	241
275.798	904
275.858	-341
275.918	-1587
275.978	-841
276.038	-1193
276.098	-1154
276.157	-596
276.217	1796
276.277	462
276.337	-602
276.397	-330
276.457	-745
276.517	-174
276.576	-895
276.636	-656
276.696	-1685
276.756	887
276.815	-296
276.875	-1506
276.935	-1165
276.995	-607
277.055	-545
277.114	-1716
277.174	-583
277.234	1917
277.293	-738
277.353	-677
277.413	-1024
277.472	-948
277.532	-1260
277.592	61
277.651	-657
277.711	1427
277.771	-842
277.830	2925
277.890	960
277.950	286
278.009	4144
278.069	1223
278.128	565
278.188	1112
278.248	-627
278.307	850
278.367	42
278.426	-906
278.486	-1251
278.545	-957
278.605	-1155
278.664	-255
278.724	-1130
278.783	1067
278.843	3778
278.902	300
278.962	-1156
279.021	-646
279.081	-1170
279.140	-1697
279.199	-1222
279.259	-621
279.318	-830
279.378	-40
279.437	-372
279.496	4139
279.556	14751
279.615	10944
279.675	2117
279.734	934
279.793	236
279.853	3558
279.912	128
279.971	19
280.031	-976
280.090	1153
280.149	2422
280.208	1431
280.268	10704
280.327	9995
280.386	531
280.445	1056
280.505	-119
280.564	90
280.623	-472
280.682	365
280.742	180
280.801	-568
280.860	-1328
280.919	-765
280.978	-975
281.037	-956
281.097	-1557
281.156	-64
281.215	-975
281.274	-1094
281.333	2119
281.392	172
281.451	-998
281.510	-1450
281.569	-1418
281.628	-1018
281.688	-1279
281.747	-519
281.806	-389
281.865	-962
281.924	-1761
281.983	-959
282.042	-1887
282.101	-1483
282.160	-716
282.219	-1378
282.278	-1176
282.337	433
282.396	-283
282.454	-1106
282.513	-1248
282.572	1520
282.631	80
282.690	-1114
282.749	-1803
282.808	-574
282.867	-1563
282.926	-845
282.985	-696
283.043	-1222
283.102	-1284
283.161	-950
283.220	137
283.279	2513
283.338	32
283.396	-801
283.455	-2106
283.514	-550
283.573	-354
283.631	-1210
283.690	-1104
283.749	-1031
283.808	-502
283.866	484
283.925	-1219
283.984	-247
284.043	-1610
284.101	-379
284.160	-858
284.219	-65
284.277	-901
284.336	-508
284.395	1926
284.453	1653
284.512	-722
284.570	-712
284.629	215
284.688	-735
284.746	-1520
284.805	-179
284.863	-802
284.922	13
284.981	-533
285.039	1276
285.098	1513
285.156	7775
285.215	22461
285.273	21210
285.332	8065
285.390	3717
285.449	886
285.507	360
285.566	147
285.624	-641
285.683	-718
285.741	-587
285.799	-847
285.858	-753
285.916	-1167
285.975	-1278
286.033	-889
286.091	-677
286.150	-786
286.208	-956
286.267	-783
286.325	37
286.383	-825
286.442	-575
286.500	-1614
286.558	-1244
286.616	-1699
286.675	-1177
286.733	-1331
286.791	-1248
286.850	-815
286.908	-810
286.966	247
287.024	-731
287.083	-1879
287.141	-918
287.199	-627
287.257	-850
287.315	-829
287.374	-465
287.432	-157
287.490	-84
287.548	-1121
287.606	-616
287.664	-1294
287.723	-519
287.781	-308
287.839	-1420
287.897	-1163
287.955	-448
288.013	-532
288.071	1240
288.129	11281
288.187	34832
288.245	13786
288.303	3125
288.361	368
288.419	730
288.477	-295
288.535	-166
288.593	-266
288.651	-343
288.709	-552
288.767	-1406
288.825	-1619
288.883	-324
288.941	-1303
288.999	-1829
289.057	-449
289.115	-847
289.173	-1589
289.231	-725
289.289	-643
289.346	-1540
289.404	-1070
289.462	-707
289.520	-1357
289.578	-1973
289.636	-1523
289.694	-807
289.751	-1829
289.809	-1083
289.867	-937
289.925	-579
289.983	-1987
290.040	-403
290.098	-1029
290.156	-1501
290.214	-1706
290.271	-739
290.329	-1400
290.387	-853
290.444	-1563
290.502	-1405
290.560	-1507
290.617	-856
290.675	-1844
290.733	-743
290.790	-878
290.848	-660
290.906	-1413
290.963	-905
291.021	-893
291.078	-113
291.136	-1397
291.194	1145
291.251	4651
291.309	533
291.366	-1069
291.424	-1131
291.481	-1768
291.539	-1013
291.596	-1952
291.654	-868
291.711	-975
291.769	-802
291.826	-607
291.884	-258
291.941	-960
291.999	-725
292.056	-1077
292.114	-1201
292.171	-987
292.228	-1158
292.286	-1752
292.343	-161
292.401	-1057
292.458	-1321
292.515	-2049
292.573	-225
292.630	-1475
292.687	-669
292.745	-1368
292.802	-575
292.859	2370
292.917	3233
292.974	409
293.031	-567
293.089	-1242
293.146	-544
293.203	-605
293.260	-949
293.318	-1370
293.375	894
293.432	-561
293.489	-714
293.546	-1460
293.604	-1041
293.661	738
293.718	5310
293.775	2151
293.832	215
293.889	-663
293.947	-425
294.004	-736
294.061	-533
294.118	-302
294.175	2292
294.232	7717
294.289	1926
294.346	-750
294.403	-204
294.460	-1017
294.517	-972
294.574	-1747
294.631	-446
294.688	-719
294.745	883
294.802	7099
294.859	10777
294.916	2033
294.973	125
295.030	-783
295.087	358
295.144	-596
295.201	-753
295.258	-1418
295.315	-353
295.372	1430
295.429	3135
295.486	837
295.542	447
295.599	3931
295.656	8916
295.713	4310
295.770	4397
295.827	834
295.883	462
295.940	-1006
295.997	53
296.054	-304
296.111	-801
296.167	-813
296.224	-505
296.281	-585
296.338	-1184
296.394	-828
296.451	-119
296.508	1617
296.564	3710
296.621	2372
296.678	4682
296.734	7699
296.791	2658
296.848	277
296.904	-248
296.961	1368
297.018	5781
297.074	3527
297.131	599
297.187	-224
297.244	206
297.301	4089
297.357	8030
297.414	2085
297.470	408
297.527	-71
297.583	502
297.640	-676
297.696	257
297.753	-1284
297.809	-1055
297.866	-1158
297.922	-762
297.979	-1338
298.035	-1015
298.092	-442
298.148	1810
298.204	1743
298.261	431
298.317	1474
298.374	6758
298.430	2780
298.486	1002
298.543	-59
298.599	-65
298.656	-200
298.712	634
298.768	2894
298.824	2090
298.881	-657
298.937	-707
298.993	-741
299.050	-138
299.106	-972
299.162	-189
299.218	-886
299.275	122
299.331	-929
299.387	183
299.443	4061
299.500	4826
299.556	1033
299.612	-324
299.668	-130
299.724	-569
299.780	-570
299.837	-946
299.893	-657
299.949	4076
300.005	3398
300.061	3861
300.117	7868
300.173	3410
300.229	266
300.285	-212
300.341	548
300.397	407
300.453	-547
300.510	-791
300.566	-837
300.622	-766
300.678	-360
300.734	2020
300.790	2865
300.845	4162
300.901	1927
300.957	2993
301.013	1447
301.069	37
301.125	-475
301.181	-543
301.237	-455
301.293	-283
301.349	-583
301.405	-889
301.461	-730
301.516	-481
301.572	-1167
301.628	-122
301.684	-600
301.740	588
301.796	1855
301.851	1380
301.907	2032
301.963	1660
302.019	4372
302.074	14833
302.130	13724
302.186	6693
302.242	1572
302.297	943
302.353	513
302.409	2253
302.464	1643
302.520	1127
302.576	3969
302.631	5999
302.687	2396
302.743	359
302.798	47
302.854	-1219
302.910	-426
302.965	300
303.021	760
303.076	859
303.132	595
303.187	2262
303.243	-119
303.299	-534
303.354	-1101
303.410	-460
303.465	-810
303.521	284
303.576	-1269
303.632	-828
303.687	829
303.743	4617
303.798	3271
303.853	1515
303.909	-374
303.964	-205
304.020	5
304.075	448
304.130	694
304.186	1338
304.241	3024
304.297	1024
304.352	-358
304.358	-282
304.407	327
304.449	-752
304.463	-1114
304.518	-389
304.539	-146
304.573	218
304.629	226
304.630	201
304.684	-815
304.720	1800
304.739	3107
304.794	5171
304.811	4180
304.850	1827
304.902	693
304.905	624
304.960	-90
304.992	-374
305.015	-600
305.071	223
305.083	163
305.126	-116
305.173	-120
305.181	-95
305.236	-953
305.264	-132
305.292	612
305.347	53
305.354	25
305.402	-20
305.445	71
305.457	66
305.512	122
305.535	171
305.567	351
305.622	349
305.626	378
305.678	1031
305.716	3752
305.733	4757
305.788	5875
305.807	5183
305.843	4042
305.897	4632
305.898	4635
305.953	5445
305.988	3148
306.008	1940
306.063	1500
306.078	1340
306.118	857
306.168	297
306.173	258
306.228	-151
306.259	162
306.283	355
306.338	124
306.349	161
306.393	304
306.440	-96
306.448	-137
306.503	729
306.530	873
306.558	1236
306.613	3070
306.620	3358
306.668	4840
306.711	5486
306.723	5485
306.778	3585
306.801	2650
306.833	1791
306.888	678
306.892	644
306.943	135
306.982	254
306.997	360
307.052	746
307.072	625
307.107	609
307.162	1502
307.163	1512
307.217	2637
307.253	3036
307.272	3035
307.327	3282
307.343	2800
307.381	2036
307.434	1630
307.436	1667
307.491	4850
307.524	6719
307.546	7057
307.600	5811
307.614	4869
307.655	2413
307.704	1353
307.710	1354
307.765	1811
307.795	2663
307.819	3283
307.874	5869
307.885	5876
307.929	5169
307.975	3947
307.984	3921
308.038	4799
308.065	5402
308.093	8733
308.148	19114
308.156	21430
308.202	31133
308.246	36317
308.257	35746
308.312	20622
308.336	14861
308.366	10982
308.421	6753
308.426	6401
308.475	4203
308.517	3017
308.530	2781
308.585	2819
308.607	2567
308.639	2259
308.694	2522
308.697	2570
308.748	4872
308.787	7635
308.803	7916
308.857	5736
308.877	4868
308.912	4114
308.967	3470
308.967	3473
309.021	4996
309.058	5682
309.076	6991
309.130	12699
309.148	14814
309.185	24591
309.238	43266
309.239	43371
309.293	45573
309.328	40493
309.348	35444
309.402	18441
309.418	14368
309.457	10021
309.508	5891
309.511	5751
309.566	4738
309.598	4252
309.620	4245
309.674	4728
309.688	4940
309.729	4756
309.778	3746
309.783	3682
309.837	3158
309.868	2750
309.892	3225
309.946	5063
309.959	5656
310.001	7426
310.049	8882
310.055	8585
310.109	4931
310.139	2782
310.163	2270
310.218	1572
310.229	1504
310.272	1450
310.319	1244
310.326	1190
310.381	1113
310.409	990
310.435	1129
310.489	1290
310.499	1328
310.543	1204
310.589	1133
310.598	1219
310.652	1836
310.679	1965
310.706	1809
310.760	1644
310.769	1599
310.814	1492
310.859	1494
310.868	1484
310.923	1188
310.948	1161
310.977	1535
311.031	1935
311.038	2010
311.085	1596
311.128	1125
311.139	1218
311.193	1835
311.218	1946
311.247	1824
311.301	1863
311.308	1854
311.356	1857
311.398	1770
311.410	1811
311.464	1995
311.488	2051
311.518	1807
311.572	1380
311.578	1326
311.626	1468
311.668	1577
311.680	1790
311.734	2756
311.758	3154
311.788	2765
311.842	2029
311.847	1947
311.896	3214
311.937	4323
311.950	4075
312.004	2947
312.027	2429
312.058	2384
312.112	2317
312.117	2304
312.165	2317
312.207	2314
312.297	3257
312.386	2237
312.476	1868
312.566	2743
312.656	1822
312.745	2055
312.835	2470
312.925	2353
313.015	1885
313.104	2128
313.194	2079
313.284	1648
313.374	2098
313.463	1826
313.553	2107
313.643	1393
313.732	1699
313.822	1532
313.912	3049
314.001	1389
314.091	2674
314.180	3357
314.270	2836
314.360	2339
314.449	2315
314.539	2093
314.628	1770
314.718	1470
314.808	1906
314.897	2482
314.987	2115
315.076	1399
315.166	2097
315.255	1874
315.345	1433
315.434	2136
315.524	2200
315.613	1430
315.703	1908
315.792	2160
315.881	1733
315.971	1829
316.060	3131
316.150	4737
316.239	5058
316.328	2436
316.418	1721
316.507	1742
316.597	2370
316.686	1850
316.775	2610
316.865	4467
316.954	2014
317.043	1178
317.133	1912
317.222	1722
317.311	1709
317.400	122
317.490	2299
317.579	1476
317.668	1847
317.757	1439
317.847	2110
317.936	1894
318.025	3010
318.114	1067
318.203	2150
318.293	3404
318.382	4437
318.471	4451
318.560	7761
318.649	16024
318.738	2967
318.828	1994
318.917	2085
319.006	2611
319.095	6504
319.184	19247
319.273	8116
319.362	2809
319.451	1700
319.540	1628
319.629	2386
319.718	4191
319.807	3465
319.896	6664
319.985	22336
320.074	5670
320.163	2309
320.252	3497
320.341	4917
320.430	3188
320.519	2686
320.608	1648
320.697	2571
320.786	1712
320.875	2132
320.964	1693
321.053	2457
321.142	3273
321.230	3678
321.319	4032
321.408	7596
321.497	2985
321.586	3822
321.675	4606
321.764	4124
321.852	2991
321.941	4370
322.030	2790
322.119	3830
322.207	6968
322.296	6992
322.385	3664
322.474	3112
322.562	6910
322.651	4230
322.740	3329
322.829	4465
322.917	5447
323.006	2420
323.095	2870
323.183	2502
323.272	3912
323.361	6278
323.449	16460
323.538	5227
323.626	12705
323.715	5912
323.804	3614
323.892	12183
323.981	4593
324.069	3444
324.158	7489
324.246	5101
324.335	2539
324.424	3127
324.512	1667
324.601	2913
324.689	1986
324.778	3250
324.866	4172
324.954	2306
325.043	1546
325.131	2494
325.220	6483
325.308	5247
325.397	3823
325.485	2314
325.574	1066
325.662	1539
325.750	1006
325.839	1895
325.927	1292
326.015	1785
326.104	2159
326.192	3273
326.280	1722
326.369	1579
326.457	1497
326.545	2507
326.634	1346
326.722	1000
326.810	1218
326.898	1435
326.987	1589
327.075	1629
327.163	2536
327.251	1896
327.340	1604
327.428	1546
327.516	1232
327.604	1559
327.692	1141
327.781	1960
327.869	2828
327.957	1826
328.045	1243
328.133	1536
328.221	1192
328.309	1359
328.397	1265
328.485	1768
328.574	1702
328.662	3462
328.750	2062
328.838	2172
328.926	422
329.014	1094
329.102	1466
329.190	5638
329.278	2912
329.366	1507
329.454	1117
329.542	1096
329.630	894
329.718	1839
329.806	1176
329.893	2302
329.981	1110
330.069	2621
330.157	6187
330.245	16641
330.333	6894
330.421	2429
330.509	1918
330.597	4372
330.684	2935
330.772	2949
330.860	4223
330.948	5947
331.036	1857
331.123	805
331.211	1087
331.299	1498
331.387	5720
331.475	7339
331.562	1658
331.650	1619
331.738	1253
331.825	2233
331.913	624
332.001	1464
332.089	1546
332.176	3590
332.264	6992
332.352	4349
332.439	1746
332.527	1295
332.614	819
332.702	2364
332.790	1560
332.877	2805
332.965	5399
333.052	1647
333.140	1577
333.228	2598
333.315	1374
333.403	2257
333.490	3919
333.578	1622
333.665	1605
333.753	774
333.840	898
333.928	1408
334.015	4226
334.103	7911
334.190	21979
334.278	5350
334.365	2529
334.452	1812
334.540	1673
334.627	1611
334.715	1436
334.802	4133
334.889	20156
334.977	14956
335.064	1881
335.151	1184
335.239	2556
335.326	3609
335.413	13968
335.501	13975
335.588	2011
335.675	2006
335.762	2805
335.850	4600
335.937	2217
336.024	7188
336.111	24084
336.199	6663
336.286	1131
336.373	1462
336.460	874
336.547	1351
336.635	1173
336.722	1389
336.809	1176
336.896	1915
336.983	7897
337.070	19351
337.157	22193
337.245	14371
337.332	7735
337.419	1600
337.506	829
337.593	2427
337.680	7265
337.767	19960
337.854	4658
337.941	6862
338.028	5391
338.115	1655
338.202	3658
338.289	5147
338.376	12998
338.463	4077
338.550	13508
338.637	10210
338.724	3024
338.811	5133
338.898	807
338.984	1782
339.071	1443
339.158	1961
339.245	3127
339.332	2214
339.419	3297
339.506	2813
339.593	-50
339.679	1514
339.766	452
339.853	1580
339.940	1376
340.027	828
340.113	879
340.200	1781
340.287	824
340.374	1274
340.460	2050
340.547	651
340.634	1784
340.720	4674
340.807	2274
340.894	949
340.980	689
341.067	621
341.154	1676
341.240	1488
341.327	1823
341.414	1843
341.500	255
341.587	1348
341.674	904
341.760	2389
341.847	1389
341.933	515
342.020	106
342.106	692
342.193	1055
342.279	1654
342.366	984
342.452	1446
342.539	519
342.625	2509
342.712	4120
342.798	1824
342.885	1200
342.971	596
343.058	274
343.144	94
343.230	733
343.317	1218
343.403	-8
343.490	526
343.576	-48
343.662	1225
343.749	524
343.835	1364
343.921	1648
344.008	10732
344.094	19005
344.180	4349
344.267	1785
344.353	7098
344.439	6410
344.525	2908
344.612	5141
344.698	4310
344.784	2144
344.870	451
344.957	157
345.043	1447
345.129	240
345.215	1309
345.301	761
345.387	722
345.474	515
345.560	1054
345.646	511
345.732	1099
345.818	848
345.904	159
345.990	152
346.076	838
346.162	1942
346.249	850
346.335	136
346.421	1098
346.507	2976
346.593	9257
346.679	1239
346.765	1689
346.851	356
346.937	270
347.023	1890
347.108	939
347.194	-95
347.280	1181
347.366	423
347.452	2840
347.538	8130
347.624	8431
347.710	6339
347.796	869
347.882	1140
347.967	1009
348.053	1936
348.139	1023
348.225	137
348.311	595
348.397	89
348.482	1814
348.568	1060
348.654	36
348.740	614
348.825	-900
348.911	1598
348.997	6732
349.083	9112
349.168	1236
349.254	-77
349.340	660
349.425	818
349.511	421
349.597	574
349.682	1730
349.768	5878
349.854	2691
349.939	1274
350.025	1350
350.110	571
350.196	556
350.282	-469
350.367	584
350.453	1768
350.538	1358
350.624	665
350.709	1325
350.795	259
350.880	-87
350.966	1395
351.051	1083
351.137	892
351.222	787
351.308	2055
351.393	4615
351.479	409
351.564	-187
351.649	380
351.735	908
351.820	-389
351.906	673
351.991	671
352.076	3563
352.162	4656
352.247	1112
352.332	869
352.418	280
352.503	2332
352.588	8448
352.673	4848
352.759	861
352.844	377
352.929	1135
353.014	-98
353.100	1389
353.185	863
353.270	1210
353.355	1027
353.441	1081
353.526	702
353.611	1544
353.696	871
353.781	1338
353.866	826
353.952	1215
354.037	1212
354.122	2886
354.207	2023
354.292	1525
354.377	1121
354.462	944
354.547	425
354.632	1338
354.717	2100
354.802	568
354.887	-212
354.972	735
355.057	391
355.142	489
355.227	667
355.312	715
355.397	1483
355.482	3426
355.567	1833
355.652	2745
355.737	1193
355.822	6351
355.907	3947
355.991	1585
356.076	111
356.161	344
356.246	-178
356.331	1056
356.416	1357
356.501	11950
356.585	9593
356.670	768
356.755	2023
356.840	1928
356.924	7942
357.009	23150
357.094	7531
357.179	1595
357.263	1237
357.348	1568
357.433	1823
357.517	1037
357.602	1112
357.687	1185
357.771	1911
357.856	6341
357.941	3149
358.025	7102
358.110	24856
358.195	10130
358.279	418
358.364	1331
358.448	4766
358.533	12284
358.617	7266
358.702	7930
358.787	2695
358.871	1626
358.956	1570
359.040	526
359.125	84
359.209	1512
359.294	3223
359.378	4529
359.462	811
359.547	841
359.631	747
359.716	-472
359.800	1169
359.885	2328
359.969	272
360.053	1542
360.138	781
360.222	880
360.306	1577
360.391	1211
360.475	2564
360.559	5935
360.644	4010
360.728	2077
360.812	7205
360.896	16414
360.981	7171
361.065	3963
361.149	1964
361.233	514
361.318	620
361.402	819
361.486	1929
361.570	838
361.654	-19
361.739	2258
361.823	9713
361.907	14702
361.991	2312
362.075	1113
362.159	658
362.243	1957
362.327	117
362.411	2993
362.495	292
362.580	778
362.664	1231
362.748	-473
362.832	1053
362.916	-659
363.000	2251
363.084	10160
363.168	15896
363.252	3452
363.336	1984
363.420	3349
363.503	17533
363.587	18286
363.671	1726
363.755	1360
363.839	3007
363.923	221
364.007	1585
364.091	1950
364.175	4803
364.258	26080
364.342	8974
364.426	4080
364.510	939
364.594	4212
364.677	4666
364.761	13683
364.845	9765
364.929	2620
365.013	2008
365.096	1630
365.180	1319
365.264	9152
365.347	27562
365.431	11077
365.515	2292
365.598	414
365.682	2746
365.766	3600
365.849	4832
365.933	466
366.017	3735
366.100	2236
366.184	-27
366.267	1402
366.351	968
366.435	-493
366.518	305
366.602	991
366.685	-92
366.769	489
366.852	3252
366.936	4236
367.019	1118
367.103	2237
367.186	6253
367.270	1851
367.353	-657
367.436	1333
367.520	-310
367.603	519
367.687	-289
367.770	783
367.853	1820
367.937	5191
368.020	6274
368.104	828
368.187	1981
368.270	2703
368.353	1682
368.437	4198
368.520	8616
368.603	5489
368.687	5144
368.770	8797
368.853	1394
368.936	3940
369.020	4188
369.103	900
369.186	135
369.269	739
369.352	1266
369.436	1863
369.519	1691
369.602	-216
369.685	1984
369.768	249
369.851	1208
369.934	49
370.018	583
370.101	936
370.184	3543
370.267	1860
370.350	1228
370.433	3184
370.516	8093
370.599	8058
370.682	418
370.765	5849
370.848	7834
370.931	11275
371.014	6440
371.097	990
371.180	829
371.263	1323
371.346	-979
371.429	1021
371.511	-404
371.594	1429
371.677	3645
371.760	5834
371.843	2293
371.926	11241
372.009	21733
372.091	8968
372.174	4285
372.257	12050
372.340	4492
372.423	5329
372.505	8091
372.588	2787
372.671	4347
372.754	10130
372.836	5392
372.919	10001
373.002	15609
373.085	3144
373.167	2796
373.250	4825
373.332	10962
373.415	17157
373.498	26727
373.580	11047
373.663	13727
373.746	16697
373.828	3666
373.911	3174
373.993	3453
374.076	17388
374.159	13607
374.241	4715
374.324	8742
374.406	7088
374.489	9255
374.571	25082
374.654	8894
374.736	5855
374.819	15202
374.901	22597
374.983	19532
375.066	3253
375.148	2041
375.231	12938
375.313	24423
375.395	8376
375.478	843
375.560	1175
375.643	1370
375.725	5642
375.807	17411
375.890	17107
375.972	6006
376.054	4399
376.136	7519
376.219	2662
376.301	6523
376.383	14545
376.465	4767
376.548	2087
376.630	4163
376.712	13720
376.794	5338
376.877	1044
376.959	-293
377.041	1631
377.123	5099
377.205	5628
377.287	-28
377.369	689
377.452	75
377.534	628
377.616	-245
377.698	-92
377.780	-443
377.862	591
377.944	1647
378.026	77
378.108	75
378.190	411
378.272	612
378.354	537
378.436	-135
378.518	1760
378.600	7542
378.682	4824
378.764	6316
378.846	4830
378.928	1800
379.010	1182
379.091	1782
379.173	957
379.255	92
379.337	71
379.419	3579
379.501	9880
379.583	3434
379.664	1393
379.746	1218
379.828	7767
379.910	7721
379.991	7515
380.073	970
380.155	651
380.237	325
380.318	209
380.400	418
380.482	1962
380.564	1617
380.645	667
380.727	1241
380.809	2033
380.890	445
380.972	-576
381.053	693
381.135	1600
381.217	2007
381.298	7351
381.380	3044
381.461	2567
381.543	12829
381.624	14318
381.706	2397
381.787	1510
381.869	1468
381.951	6637
382.032	20691
382.113	14516
382.195	1412
382.276	3056
382.358	4011
382.439	12256
382.521	14780
382.602	19743
382.684	9755
382.765	15424
382.846	13247
382.928	10124
383.009	4854
383.090	4325
383.172	15739
383.253	22331
383.334	11127
383.416	16805
383.497	7697
383.578	2718
383.659	5459
383.741	14941
383.822	34450
383.903	17017
383.984	9864
384.066	22460
384.147	11036
384.228	2631
384.309	587
384.390	545
384.471	414
384.553	1461
384.634	1335
384.715	2804
384.796	791
384.877	1159
384.958	6144
385.039	5458
385.120	1771
385.201	2473
385.282	2071
385.363	3244
385.444	1473
385.525	3155
385.606	10867
385.687	9009
385.768	2854
385.849	3565
385.930	12160
386.011	19854
386.092	4964
386.173	1162
386.254	1230
386.335	3163
386.416	1245
386.496	5047
386.577	7299
386.658	3305
386.739	1755
386.820	3708
386.901	1325
386.981	1442
387.062	466
387.143	1484
387.224	6113
387.304	6937
387.385	3390
387.466	635
387.547	3876
387.627	881
387.708	2878
387.789	12961
387.869	13906
387.950	5059
388.031	1045
388.111	168
388.192	6420
388.273	9708
388.353	3641
388.434	1843
388.514	2401
388.595	12416
388.676	14327
388.756	7362
388.837	5777
388.917	3518
388.998	-538
389.078	1668
389.159	743
389.239	105
389.320	2594
389.400	348
389.480	4494
389.561	8432
389.641	3888
389.722	1158
389.802	1469
389.883	4349
389.963	10390
390.043	6956
390.124	2414
390.204	3428
390.284	7242
390.365	4488
390.445	11479
390.525	17416
390.605	11188
390.686	3042
390.766	2429
390.846	1722
390.927	88
391.007	138
391.087	1787
391.167	922
391.247	-648
391.328	2727
391.408	4773
391.488	3725
391.568	-1150
391.648	104
391.728	1639
391.808	1728
391.888	802
391.969	4557
392.049	6073
392.129	4409
392.209	3762
392.289	9859
392.369	6591
392.449	8738
392.529	3578
392.609	2809
392.689	2203
392.769	7096
392.849	6570
392.929	8759
393.009	15487
393.089	6767
393.169	2402
393.248	3150
393.328	20640
393.408	20660
393.488	3825
393.568	1541
393.648	647
393.728	789
393.807	24
393.887	1852
393.967	404
394.047	1661
394.127	2379
394.206	4861
394.286	22390
394.366	75111
394.446	75502
394.525	20923
394.605	5938
394.685	5215
394.764	12794
394.844	19868
394.924	11694
395.003	2284
395.083	1414
395.163	1755
395.242	798
395.322	1468
395.402	-60
395.481	3379
395.561	7630
395.640	18972
395.720	12832
395.799	21446
395.879	16822
395.958	10424
396.038	34086
396.117	97609
396.197	98842
396.276	39888
396.356	14250
396.435	10092
396.515	5156
396.594	2297
396.673	3166
396.753	6935
396.832	19097
396.912	16740
396.991	5501
397.070	1999
397.150	-710
397.229	1284
397.308	53
397.388	569
397.467	670
397.546	1007
397.625	-1685
397.705	2497
397.784	779
397.863	168
397.942	699
398.022	785
398.101	7102
398.180	19883
398.259	10217
398.338	3550
398.417	417
398.497	752
398.576	905
398.655	-51
398.734	941
398.813	2155
398.892	7081
398.971	20726
399.050	9743
399.129	-102
399.208	371
399.287	1401
399.366	-435
399.445	930
399.524	487
399.603	-1088
399.682	1131
399.761	5883
399.840	21625
399.919	16719
399.998	1425
400.077	-79
400.156	-571
400.235	2228
400.313	460
400.392	327
400.471	3400
400.550	5703
400.629	441
400.708	1102
400.786	1471
400.865	6456
400.944	5690
401.023	3607
401.102	-366
401.180	-68
401.259	767
401.338	268
401.416	1002
401.495	101
401.574	1512
401.652	433
401.731	1111
401.810	187
401.888	85
401.967	-706
402.046	-288
402.124	1091
402.203	427
402.281	1264
402.360	1729
402.438	7887
402.517	4173
402.596	1374
402.674	1307
402.753	757
402.831	597
402.910	1503
402.988	2239
403.066	8487
403.145	5443
403.223	4017
403.302	6513
403.380	5892
403.459	3987
403.537	2118
403.615	907
403.694	-2
403.772	882
403.850	691
403.929	382
404.007	-145
404.085	1865
404.164	625
404.242	1110
404.320	8876
404.398	25505
404.477	23505
404.555	20500
404.633	20167
404.711	18189
404.789	13459
404.868	2111
404.946	429
405.024	313
405.102	-40
405.180	-463
405.258	-222
405.336	992
405.415	272
405.493	1461
405.571	2027
405.649	-747
405.727	-438
405.805	1791
405.883	350
405.961	1822
406.039	1430
406.117	-845
406.195	1120
406.273	3089
406.351	15029
406.429	9661
406.507	2674
406.585	105
406.663	415
406.740	55
406.818	-446
406.896	-651
406.974	690
407.052	383
407.130	8852
407.208	10430
407.285	2464
407.363	-568
407.441	340
407.519	-577
407.596	964
407.674	969
407.752	2708
407.830	6188
407.907	3719
407.985	-360
408.063	691
408.141	440
408.218	2388
408.296	739
408.373	197
408.451	-42
408.529	218
408.606	-497
408.684	164
408.762	-182
408.839	-372
408.917	-347
408.994	616
409.072	-1365
409.149	-373
409.227	162
409.304	-193
409.382	4
409.459	-1002
409.537	-259
409.614	205
409.692	-421
409.769	-470
409.846	-662
409.924	1057
410.001	-2081
410.079	308
410.156	483
410.233	964
410.311	-513
410.388	-169
410.465	65
410.543	-250
410.620	-18
410.697	627
410.775	-412
410.852	-1589
410.929	381
411.006	709
411.083	-650
411.161	1009
411.238	2235
411.315	1158
411.392	-258
411.469	1094
411.547	128
411.624	-989
411.701	546
411.778	95
411.855	-53
411.932	-342
412.009	-274
412.086	-285
412.163	-400
412.240	518
412.317	922
412.394	241
412.471	445
412.548	-346
412.625	-673
412.702	694
412.779	2072
412.856	643
412.933	-1227
413.010	295
413.087	506
413.164	2460
413.241	3763
413.318	300
413.395	707
413.471	300
413.548	-213
413.625	1111
413.702	-844
413.779	79
413.855	-83
413.932	-819
414.009	-628
414.086	-430
414.162	-448
414.239	665
414.316	3133
414.393	6736
414.469	1743
414.546	127
414.623	-590
414.699	70
414.776	-902
414.853	-758
414.929	353
415.006	-277
415.082	-22
415.159	-704
415.236	-112
415.312	533
415.389	-25
415.465	-721
415.542	375
415.618	-968
415.695	336
415.771	-674
415.848	-210
415.924	1314
416.000	-300
416.077	269
416.153	-1549
416.230	-841
416.306	-175
416.383	-132
416.459	-284
416.535	271
416.612	-134
416.688	-184
416.764	-417
416.841	-690
416.917	-512
416.993	344
417.069	-66
417.146	270
417.222	1151
417.298	-130
417.374	-286
417.451	-414
417.527	-835
417.603	-391
417.679	75
417.755	-122
417.831	-870
417.908	246
417.984	-873
418.060	-848
418.136	764
418.212	157
418.288	-67
418.364	295
418.440	-503
418.516	543
418.592	1113
418.668	2100
418.744	571
418.820	559
418.896	436
418.972	-1479
419.048	-119
419.124	1172
419.200	-1136
419.276	-528
419.352	-1724
419.428	-162
419.504	-308
419.579	-576
419.655	-1210
419.731	-633
419.807	111
419.883	445
419.959	364
420.034	550
420.110	531
420.186	3185
420.262	3091
420.337	458
420.413	-967
420.489	-231
420.565	1161
420.640	-913
420.716	-163
420.792	-1453
420.867	410
420.943	-1096
421.019	637
421.094	-485
421.170	-241
421.245	-913
421.321	99
421.397	-504
421.472	632
421.548	24
421.623	-374
421.699	256
421.774	-473
421.850	-664
421.925	-276
422.001	-550
422.076	-879
422.152	-423
422.227	-440
422.302	727
422.378	397
422.453	309
422.529	2500
422.604	15664
422.679	34821
422.755	16446
422.830	2450
422.905	559
422.981	-1003
423.056	-298
423.131	356
423.207	-332
423.282	-1013
423.357	95
423.432	-156
423.508	147
423.583	375
423.658	620
423.733	-248
423.808	482
423.883	-15
423.959	-441
424.034	-1523
424.109	-442
424.184	-880
424.259	-744
424.334	-1245
424.409	-935
424.484	-1077
424.559	-181
424.634	-634
424.709	-169
424.784	-288
424.859	-150
424.934	474
425.009	2230
425.084	4027
425.159	777
425.234	-21
425.309	33
425.384	1754
425.459	1708
425.534	292
425.609	-8
425.683	-980
425.758	-116
425.833	-36
425.908	544
425.983	448
426.058	4754
426.132	1028
426.207	87
426.282	2572
426.357	697
426.431	-140
426.506	665
426.581	352
426.655	119
426.730	-70
426.805	-1176
426.879	-256
426.954	-23
427.029	946
427.103	4896
427.178	11990
427.253	5945
427.327	383
427.402	1779
427.476	4637
427.551	2005
427.625	571
427.700	1141
427.774	-1157
427.849	734
427.923	-711
427.998	-704
428.072	-734
428.147	1754
428.221	2040
428.296	3530
428.370	814
428.444	-149
428.519	2304
428.593	5542
428.667	5399
428.742	6649
428.816	3940
428.890	8768
428.965	7872
429.039	5066
429.113	6895
429.188	1733
429.262	-407
429.336	895
429.410	2087
429.485	1024
429.559	4635
429.633	3666
429.707	-83
429.781	2080
429.855	10689
429.930	12453
430.004	13511
430.078	26034
430.152	17253
430.226	4193
430.300	2269
430.374	-454
430.448	523
430.522	7954
430.596	20836
430.670	11625
430.744	7122
430.818	12894
430.892	2822
430.966	-147
431.040	-629
431.114	-1178
431.188	-717
431.262	-272
431.336	504
431.410	2972
431.484	6246
431.557	2887
431.631	-368
431.705	-866
431.779	-607
431.853	2117
431.927	1318
432.000	-670
432.074	-875
432.148	-870
432.222	-251
432.295	-207
432.369	-403
432.443	-119
432.516	6060
432.590	13540
432.664	5972
432.737	501
432.811	-1597
432.885	-504
432.958	-391
433.032	-836
433.106	-779
433.179	-358
433.253	-403
433.326	-239
433.400	-1069
433.473	372
433.547	-633
433.620	-24
433.694	-411
433.767	621
433.841	-750
433.914	-409
433.988	-1156
434.061	-49
434.134	-1006
434.208	-568
434.281	-1388
434.355	-874
434.428	-440
434.501	-331
434.575	-1465
434.648	270
434.721	-612
434.795	-1064
434.868	-648
434.941	-307
435.014	-914
435.088	-580
435.161	117
435.234	358
435.307	-1344
435.381	-211
435.454	-629
435.527	-739
435.600	-808
435.673	-532
435.746	-462
435.819	-1027
435.892	-832
435.966	-945
436.039	-439
436.112	412
436.185	-934
436.258	-427
436.331	-478
436.404	-558
436.477	-1771
436.550	-298
436.623	-543
436.696	-189
436.769	-1099
436.842	-677
436.915	-417
436.987	229
437.060	-818
437.133	-132
437.206	-790
437.279	-288
437.352	-784
437.425	-826
437.498	-375
437.570	836
437.643	-961
437.716	-1141
437.789	-792
437.861	267
437.934	1567
438.007	645
438.080	-229
438.152	-1099
438.225	458
438.298	6857
438.370	19852
438.443	8029
438.516	1199
438.588	-661
438.661	-1586
438.734	-942
438.806	-278
438.879	-351
438.951	-549
439.024	803
439.096	-480
439.169	-843
439.241	-1042
439.314	-379
439.386	493
439.459	737
439.531	477
439.604	-820
439.676	-283
439.749	-25
439.821	-1586
439.893	-499
439.966	-664
440.038	-438
440.110	-707
440.183	-660
440.255	-912
440.327	272
440.400	3706
440.472	13560
440.544	8720
440.617	726
440.689	908
440.761	127
440.833	1562
440.905	290
440.978	-683
441.050	-798
441.122	121
441.194	-780
441.266	-611
441.338	-125
441.411	67
441.483	4305
441.555	4952
441.627	1289
441.699	483
441.771	1065
441.843	-457
441.915	-802
441.987	-383
442.059	-245
442.131	-205
442.203	657
442.275	399
442.347	796
442.419	-31
442.491	-213
442.563	1567
442.635	3481
442.706	5036
442.778	5152
442.850	226
442.922	-657
442.994	-866
443.066	435
443.137	104
443.209	-533
443.281	-607
443.353	862
443.425	1475
443.496	3194
443.568	1205
443.640	-177
443.711	370
443.783	-639
443.855	-479
443.926	-454
443.998	-573
444.070	291
444.141	168
444.213	199
444.285	544
444.356	316
444.428	62
444.499	250
444.571	-825
444.642	-776
444.714	-330
444.785	130
444.857	1453
444.928	5543
445.000	3213
445.071	3776
445.143	3694
445.214	1185
445.285	2173
445.357	8189
445.428	6657
445.500	7807
445.571	8745
445.642	3401
445.714	5593
445.785	9541
445.856	1508
445.928	-137
445.999	-524
446.070	-79
446.141	232
446.213	251
446.284	289
446.355	722
446.426	-618
446.497	-52
446.569	100
446.640	1350
446.711	422
446.782	357
446.853	-592
446.924	590
446.995	-507
447.066	1039
447.138	2033
447.209	1051
447.280	-889
447.351	-343
447.422	-636
447.493	759
447.564	550
447.635	-290
447.706	-512
447.777	-278
447.847	-653
447.918	-445
447.989	198
448.060	1206
448.131	4185
448.202	3409
448.273	971
448.344	442
448.414	-825
448.485	-251
448.556	-449
448.627	-304
448.698	372
448.768	-691
448.839	19
448.910	1735
448.981	1676
449.051	91
449.122	-592
449.193	-443
449.263	54
449.334	-589
449.405	440
449.475	1372
449.546	1109
449.616	2096
449.687	1615
449.758	864
449.828	332
449.899	-138
449.969	-911
450.040	-233
450.110	606
450.181	686
450.251	-382
450.322	-415
450.392	-322
450.463	980
450.533	-1108
450.604	263
450.674	-602
450.744	-134
450.815	78
450.885	12
450.955	78
451.026	-721
451.096	-531
451.166	669
451.237	2482
451.307	8298
451.377	3795
451.447	94
451.518	-118
451.588	174
451.658	335
451.728	1126
451.799	8464
451.869	10784
451.939	2397
452.009	-357
452.079	482
452.149	962
452.219	2231
452.289	10295
452.360	7878
452.430	1421
452.500	-1263
452.570	662
452.640	1324
452.710	5128
452.780	8512
452.850	4246
452.920	1353
452.990	917
453.060	359
453.129	696
453.199	1510
453.269	9887
453.339	23221
453.409	36606
453.479	33632
453.549	52416
453.619	57123
453.688	25862
453.758	3343
453.828	1730
453.898	555
453.968	37
454.037	-457
454.087	515
454.107	913
454.168	118
454.177	-4
454.247	255
454.249	235
454.316	-511
454.330	-192
454.386	950
454.411	2356
454.456	4644
454.492	6484
454.525	8176
454.574	3704
454.595	1775
454.655	169
454.665	-96
454.734	356
454.736	411
454.804	1744
454.817	3110
454.873	8641
454.898	9584
454.943	11372
454.979	7318
455.013	3664
455.060	1709
455.082	884
455.141	987
455.152	972
455.221	7210
455.222	7306
455.291	13021
455.303	12426
455.360	9767
455.384	11781
455.430	14921
455.465	12741
455.499	10838
455.546	10324
455.569	10050
455.627	6789
455.638	6232
455.707	1138
455.708	1140
455.777	721
455.789	554
455.846	-262
455.869	-226
455.916	-116
455.950	40
455.985	135
456.031	405
456.054	573
456.112	116
456.124	17
456.193	215
456.193	207
456.262	576
456.274	827
456.332	1936
456.355	1462
456.401	500
456.436	667
456.470	870
456.516	280
456.540	-42
456.597	44
456.609	54
456.678	-19
456.678	-22
456.747	156
456.759	77
456.817	-430
456.840	-524
456.886	-578
456.920	-609
456.955	-609
457.001	-6
457.024	214
457.082	42
457.093	14
457.162	570
457.163	577
457.232	261
457.243	244
457.301	195
457.324	29
457.370	-259
457.405	147
457.439	502
457.485	-78
457.508	-289
457.566	178
457.577	227
457.646	234
457.647	236
457.715	355
457.727	310
457.784	-175
457.808	-105
457.853	330
457.889	493
457.922	391
457.969	266
457.991	325
458.050	110
458.060	14
458.129	250
458.130	251
458.198	415
458.211	442
458.267	107
458.292	-173
458.336	-291
458.372	213
458.405	515
458.453	45
458.474	-64
458.533	945
458.543	1095
458.611	895
458.614	931
458.680	1066
458.694	842
458.749	463
458.775	437
458.818	321
458.855	488
458.887	523
458.936	130
458.955	80
459.016	203
459.024	186
459.093	689
459.097	664
459.162	472
459.177	601
459.230	627
459.257	587
459.299	761
459.338	834
459.368	833
459.418	1029
459.437	1037
459.499	596
459.505	586
459.574	416
459.579	474
459.643	729
459.659	542
459.711	226
459.740	300
459.780	391
459.820	366
459.849	397
459.900	675
459.917	742
459.981	1275
459.986	1293
460.054	785
460.061	764
460.123	994
460.141	1039
460.191	873
460.222	858
460.260	961
460.302	1011
460.328	1006
460.382	1122
460.397	1277
460.462	1568
460.465	1553
460.534	1433
460.543	1428
460.602	2630
460.623	3375
460.671	5331
460.703	7332
460.739	7122
460.783	5576
460.808	5345
460.864	2277
460.876	1771
460.944	1025
460.945	1019
461.013	905
461.024	868
461.081	447
461.104	606
461.150	1059
461.184	904
461.218	743
461.264	869
461.286	858
461.345	301
461.355	288
461.423	1305
461.425	1316
461.491	1805
461.505	1860
461.559	3233
461.585	3993
461.628	5443
461.665	7524
461.696	8195
461.745	10351
461.764	9888
461.825	4182
461.832	4035
461.901	1464
461.905	1464
461.969	630
461.985	506
462.037	1266
462.065	1673
462.105	1735
462.145	1757
462.173	2304
462.225	3477
462.241	3958
462.305	6396
462.310	6231
462.378	4515
462.385	3953
462.446	1608
462.465	1130
462.514	1236
462.545	1560
462.582	1233
462.625	1154
462.650	1293
462.705	1271
462.718	1269
462.785	1427
462.786	1442
462.854	1984
462.865	2203
462.922	2968
462.945	3265
462.990	2843
463.025	2162
463.058	2074
463.104	1548
463.126	1223
463.184	1318
463.194	1420
463.262	1211
463.264	1229
463.330	1923
463.344	2020
463.398	1664
463.424	1480
463.466	1559
463.504	1836
463.533	1828
463.583	1156
463.601	1245
463.663	2210
463.669	2240
463.737	2413
463.743	2434
463.805	4997
463.823	5775
463.873	7956
463.903	9480
463.940	9349
463.982	9588
464.008	8142
464.062	3503
464.076	3313
464.142	1711
464.144	1675
464.211	1296
464.221	1335
464.279	1447
464.301	1372
464.347	2036
464.381	2722
464.414	2640
464.461	2321
464.482	1984
464.540	1447
464.550	1556
464.617	1662
464.620	1665
464.685	1934
464.699	2072
464.753	2575
464.779	2792
464.820	3230
464.859	3728
464.888	3493
464.938	3012
464.956	3183
465.018	3597
465.023	3573
465.091	3385
465.098	3314
465.158	2117
465.177	1917
465.226	2864
465.257	3288
465.293	3028
465.336	2812
465.361	2924
465.416	3142
465.428	3501
465.495	5436
465.496	5469
465.563	9394
465.575	10183
465.631	10982
465.654	11399
465.698	7770
465.734	3948
465.765	3426
465.813	2702
465.833	2564
465.893	2593
465.900	2531
465.968	2048
465.972	2011
466.035	2043
466.052	2067
466.102	2250
466.131	2300
466.170	2119
466.210	1956
466.237	2140
466.290	2539
466.304	2652
466.369	3032
466.372	3027
466.439	2804
466.449	2763
466.506	3579
466.528	3869
466.573	6060
466.607	7707
466.641	9925
466.687	13028
466.708	13518
466.766	15086
466.775	13858
466.842	4319
466.845	3859
466.909	2369
466.925	2089
466.977	2503
467.004	2779
467.044	2388
467.083	2004
467.111	2972
467.163	4771
467.178	4706
467.242	4427
467.245	4428
467.312	4388
467.321	4381
467.379	3953
467.400	3790
467.446	5014
467.480	5892
467.559	4830
467.638	2971
467.717	3082
467.796	4513
467.875	3320
467.955	4981
468.034	9175
468.113	16213
468.192	21672
468.271	4278
468.350	3494
468.429	3724
468.508	3401
468.588	3939
468.667	3761
468.746	3626
468.825	3515
468.904	3725
468.983	4632
469.062	6824
469.141	8082
469.220	3473
469.299	3481
469.378	2307
469.456	4810
469.535	3728
469.614	2983
469.693	4044
469.772	5368
469.851	7772
469.930	3529
470.009	3066
470.088	2277
470.166	3381
470.245	3337
470.324	2822
470.403	3029
470.482	3448
470.560	2998
470.639	2657
470.718	3366
470.797	3462
470.875	4361
470.954	5660
471.033	5399
471.111	3012
471.190	2351
471.269	3068
471.347	2308
471.426	3027
471.505	4336
471.583	4090
471.662	3503
471.740	2629
471.819	2667
471.898	2719
471.976	3279
472.055	2868
472.133	4744
472.212	4606
472.290	4706
472.369	3015
472.447	3800
472.526	2295
472.604	3008
472.683	3723
472.761	2095
472.839	2574
472.918	2971
472.996	2956
473.075	3456
473.153	2243
473.231	2152
473.310	3175
473.388	2412
473.466	2238
473.545	3021
473.623	3607
473.701	3308
473.780	3040
473.858	2033
473.936	4216
474.014	2676
474.093	3902
474.171	6162
474.249	7792
474.327	2677
474.405	1296
474.484	2244
474.562	3155
474.640	2136
474.718	2966
474.796	3202
474.874	2633
474.952	1748
475.030	2134
475.108	2527
475.187	2477
475.265	1534
475.343	3774
475.421	3364
475.499	2912
475.577	3038
475.655	5317
475.733	8940
475.811	15758
475.889	13100
475.966	6393
476.044	3261
476.122	2485
476.200	2600
476.278	2975
476.356	1710
476.434	3117
476.512	3477
476.590	3962
476.667	3464
476.745	3081
476.823	3280
476.901	3306
476.979	3050
477.056	3508
477.134	2931
477.212	4051
477.290	2174
477.367	2490
477.445	2330
477.523	1799
477.601	3153
477.678	2918
477.756	4077
477.834	4396
477.911	2423
477.989	3473
478.066	3363
478.144	2978
478.222	3538
478.299	2917
478.377	2553
478.454	2591
478.532	2330
478.609	2381
478.687	3053
478.764	2707
478.842	2497
478.919	2228
478.997	2644
479.074	2848
479.152	3763
479.229	4256
479.307	2057
479.384	2615
479.461	2576
479.539	3238
479.616	3229
479.694	3055
479.771	3153
479.848	3250
479.926	3865
480.003	4153
480.080	2549
480.157	2342
480.235	1543
480.312	3485
480.389	3040
480.467	5262
480.544	5844
480.621	2660
480.698	3017
480.775	3484
480.853	3435
480.930	2789
481.007	3047
481.084	2851
481.161	3352
481.238	3198
481.315	1856
481.392	2546
481.470	2989
481.547	3144
481.624	3220
481.701	2931
481.778	2295
481.855	3484
481.932	5406
482.009	10249
482.086	4118
482.163	2120
482.240	2693
482.317	2969
482.393	2177
482.470	2731
482.547	2665
482.624	2913
482.701	2419
482.778	2117
482.855	1415
482.932	1922
483.009	2039
483.085	2837
483.162	2225
483.239	2489
483.316	1968
483.393	2825
483.469	1891
483.546	3075
483.623	2645
483.699	2883
483.776	1880
483.853	3669
483.930	6094
484.006	13618
484.083	22393
484.160	9269
484.236	13208
484.313	9013
484.389	6372
484.466	8123
484.543	6088
484.619	6588
484.696	6752
484.772	8081
484.849	8353
484.925	6669
485.002	6637
485.078	7279
485.155	6458
485.231	6794
485.308	6682
485.384	6693
485.461	8933
485.537	12949
485.614	14795
485.690	7033
485.766	5766
485.843	6394
485.919	6492
485.995	6687
486.072	5021
486.148	6296
486.224	5099
486.301	5603
486.377	6351
486.453	5956
486.530	6227
486.606	8492
486.682	9170
486.758	11707
486.835	12591
486.911	10770
486.987	16631
487.063	10888
487.139	8985
487.215	6998
487.292	6618
487.368	5627
487.444	5751
487.520	6484
487.596	4201
487.672	7030
487.748	6721
487.824	6321
487.900	5090
487.976	6385
488.052	5583
488.128	7306
488.204	4062
488.280	6594
488.356	8372
488.432	16123
488.508	20523
488.584	6157
488.660	4622
488.736	5066
488.812	5309
488.888	5460
488.964	6504
489.039	9587
489.115	11203
489.191	7453
489.267	5836
489.343	5200
489.418	3765
489.494	5343
489.570	3064
489.646	5129
489.722	4720
489.797	5121
489.873	9241
489.949	18122
490.024	11128
490.100	4330
490.176	4133
490.251	5032
490.327	5229
490.403	3976
490.478	3708
490.554	3135
490.629	2970
490.705	3641
490.781	3517
490.856	3424
490.932	4449
491.007	4186
491.083	3408
491.158	4226
491.234	6956
491.309	13871
491.385	10139
491.460	3836
491.536	4806
491.611	3521
491.686	3583
491.762	4366
491.837	6297
491.913	10703
491.988	12949
492.063	12848
492.139	9144
492.214	5199
492.289	2422
492.365	3606
492.440	3788
492.515	2957
492.590	4102
492.666	3252
492.741	5840
492.816	7708
492.891	3086
492.967	1952
493.042	2715
493.117	2367
493.192	4163
493.267	9335
493.342	22041
493.418	21775
493.493	3286
493.568	2943
493.643	2829
493.718	4260
493.793	5413
493.868	5087
493.943	2346
494.018	2475
494.093	2999
494.168	3340
494.243	2106
494.318	3119
494.393	2905
494.468	1705
494.543	2170
494.618	3045
494.693	1323
494.768	2176
494.842	2423
494.917	2711
494.992	1860
495.067	1631
495.142	955
495.217	2279
495.292	2538
495.366	2677
495.441	2598
495.516	5379
495.591	5554
495.665	12353
495.740	20456
495.815	7885
495.890	3489
495.964	2423
496.039	5655
496.114	3622
496.188	3843
496.263	3281
496.338	3216
496.412	4097
496.487	4630
496.561	4667
496.636	3326
496.710	3587
496.785	4518
496.860	4868
496.934	3619
497.009	3343
497.083	3605
497.158	3800
497.232	3983
497.307	4880
497.381	3929
497.455	5812
497.530	7440
497.604	3926
497.679	5542
497.753	8448
497.827	7450
497.902	6511
497.976	11060
498.050	37391
498.125	106783
498.199	71960
498.273	7677
498.348	5292
498.422	4539
498.496	5049
498.570	4336
498.645	5142
498.719	4135
498.793	6912
498.867	11278
498.941	17994
499.016	53529
499.090	105644
499.164	22840
499.238	4920
499.312	4080
499.386	4801
499.460	4934
499.534	4280
499.609	6496
499.683	8916
499.757	9716
499.831	28169
499.905	82144
499.979	51382
500.053	10751
500.127	9179
500.201	4164
500.275	4038
500.349	4916
500.422	5263
500.496	6672
500.570	14736
500.644	49011
500.718	69809
500.792	9772
500.866	5142
500.940	6784
501.013	5522
501.087	4746
501.161	7765
501.235	10745
501.309	36137
501.382	79536
501.456	47190
501.530	15000
501.603	24065
501.677	6470
501.751	2862
501.825	5968
501.898	13220
501.972	31395
502.046	13364
502.119	5624
502.193	16763
502.266	31798
502.340	13498
502.413	17880
502.487	28162
502.561	13231
502.634	4035
502.708	2810
502.781	2052
502.855	3591
502.928	1924
503.002	2983
503.075	2694
503.149	3007
503.222	2394
503.295	3286
503.369	4603
503.442	8139
503.516	29089
503.589	57157
503.662	28007
503.736	12268
503.809	28015
503.882	19674
503.956	33589
504.029	18567
504.102	4545
504.175	3473
504.249	2196
504.322	4398
504.395	3860
504.468	2514
504.542	2581
504.615	1025
504.688	2784
504.761	1217
504.834	4260
504.907	2946
504.980	3469
505.053	3057
505.127	482
505.200	5216
505.273	4879
505.346	2743
505.419	2017
505.492	3069
505.565	1620
505.638	1390
505.711	2038
505.784	1188
505.857	1704
505.930	3263
506.003	996
506.076	4214
506.149	3220
506.221	2923
506.294	6191
506.367	15860
506.440	41562
506.513	14878
506.586	4267
506.659	1443
506.731	2605
506.804	2131
506.877	2497
506.950	2835
507.022	3246
507.095	2298
507.168	3644
507.241	2425
507.313	1168
507.386	1038
507.459	2293
507.531	969
507.604	1095
507.677	1936
507.749	114
507.822	3137
507.894	4184
507.967	5632
508.040	2898
508.112	4091
508.185	3340
508.257	1883
508.330	4484
508.402	2164
508.475	2917
508.547	2952
508.620	3874
508.692	5773
508.765	3206
508.837	1507
508.909	2807
508.982	1970
509.054	2475
509.127	1705
509.199	1750
509.271	1585
509.344	1878
509.416	2268
509.488	2553
509.560	2456
509.633	1570
509.705	2787
509.777	2703
509.849	3397
509.922	1358
509.994	2554
510.066	4011
510.138	2662
510.210	7397
510.283	4960
510.355	4669
510.427	3219
510.499	2957
510.571	3142
510.643	2061
510.715	4542
510.787	1213
510.859	4128
510.931	3492
511.003	3836
511.076	4185
511.148	1690
511.219	3177
511.291	6118
511.363	5892
511.435	3191
511.507	1702
511.579	3899
511.651	3289
511.723	2010
511.795	1980
511.867	2533
511.939	3880
512.010	8136
512.082	5106
512.154	1213
512.226	2655
512.298	4923
512.369	5466
512.441	4253
512.513	2921
512.585	1701
512.656	4036
512.728	3592
512.800	2260
512.871	2933
512.943	3735
513.015	410
513.086	3607
513.158	3251
513.230	2073
513.301	1822
513.373	3622
513.444	1874
513.516	2017
513.588	2150
513.659	3080
513.731	2705
513.802	1532
513.874	4933
513.945	4350
514.016	1822
514.088	3167
514.159	1677
514.231	3834
514.302	4199
514.374	4858
514.445	2691
514.516	10380
514.588	4118
514.659	4715
514.730	7024
514.802	5510
514.873	301
514.944	4710
515.016	2703
515.087	2998
515.158	5194
515.229	7813
515.301	1424
515.372	2495
515.443	1529
515.514	2626
515.585	1356
515.656	2479
515.728	1981
515.799	1639
515.870	2622
515.941	2396
516.012	1167
516.083	3840
516.154	2536
516.225	4151
516.296	3610
516.367	3283
516.438	2444
516.509	3261
516.580	5353
516.651	12484
516.722	25900
516.793	11021
516.864	5000
516.935	6370
517.006	6080
517.077	6733
517.148	12053
517.219	31385
517.289	40367
517.360	39784
517.431	11277
517.502	3480
517.573	4178
517.643	4209
517.714	3612
517.785	4997
517.856	3558
517.926	6284
517.997	5395
518.068	4040
518.138	6310
518.209	7989
518.280	25491
518.350	58507
518.421	13692
518.492	5253
518.562	4829
518.633	3914
518.703	1393
518.774	5642
518.845	4218
518.915	3978
518.986	4194
519.056	5124
519.127	7892
519.197	16627
519.268	43594
519.338	20132
519.408	5075
519.479	5149
519.549	3340
519.620	5167
519.690	3032
519.760	3915
519.831	2367
519.901	3172
519.971	3343
520.042	3549
520.112	3562
520.182	4893
520.253	3350
520.323	3194
520.393	3414
520.463	5794
520.534	2300
520.604	9499
520.674	5170
520.744	5494
520.814	8040
520.885	7937
520.955	20998
521.025	51834
521.095	11894
521.165	4683
521.235	2897
521.305	2062
521.375	3288
521.445	3245
521.515	2364
521.585	3859
521.655	574
521.725	4231
521.795	3637
521.865	1299
521.935	6883
522.005	3465
522.075	2052
522.145	4352
522.215	2286
522.285	5777
522.355	8001
522.424	14560
522.494	8268
522.564	4041
522.634	6345
522.704	11642
522.774	2755
522.843	3927
522.913	2137
522.983	1745
523.053	1650
523.122	3154
523.192	1677
523.262	5800
523.331	4528
523.401	2950
523.471	1832
523.540	3013
523.610	1095
523.680	2292
523.749	1497
523.819	3320
523.888	1589
523.958	1323
524.027	2077
524.097	2723
524.166	1203
524.236	1331
524.305	4188
524.375	1721
524.444	1429
524.514	3765
524.583	2013
524.653	2626
524.722	2786
524.791	1555
524.861	3308
524.930	1260
524.999	1132
525.069	4070
525.138	3335
525.207	3331
525.277	2802
525.346	2366
525.415	2765
525.484	2275
525.554	1745
525.623	2487
525.692	1866
525.761	2087
525.830	2109
525.900	1105
525.969	3126
526.038	2100
526.107	394
526.176	3534
526.245	1283
526.314	3709
526.383	4004
526.452	777
526.522	8351
526.591	8365
526.660	3729
526.729	3120
526.797	4104
526.867	8682
526.935	31070
527.004	18584
527.073	5325
527.142	1393
527.211	2383
527.280	2299
527.349	2162
527.418	316
527.487	2303
527.555	-56
527.624	813
527.693	759
527.762	1973
527.831	950
527.899	2518
527.968	2027
528.037	236
528.106	2430
528.174	3396
528.243	4548
528.312	4933
528.380	4318
528.449	934
528.518	3515
528.586	381
528.655	2380
528.723	1463
528.792	1041
528.861	1051
528.929	160
528.998	2460
529.066	1323
529.135	1461
529.203	1035
529.272	-253
529.340	2578
529.409	2531
529.477	335
529.545	1236
529.614	4189
529.682	1613
529.751	2983
529.819	4993
529.887	1181
529.956	1162
530.024	1703
530.092	1365
530.161	2377
530.229	1550
530.297	875
530.365	1853
530.434	1362
530.502	-803
530.570	711
530.638	-1111
530.707	2566
530.775	2826
530.843	1886
530.911	1184
530.979	1691
531.047	928
531.115	2981
531.183	552
531.252	1746
531.320	1324
531.388	561
531.456	2183
531.524	73
531.592	2912
531.660	3012
531.728	777
531.796	463
531.864	1288
531.932	1603
532.000	1146
532.067	1511
532.135	1567
532.203	1898
532.271	777
532.339	3928
532.407	4576
532.475	2498
532.542	1824
532.610	3012
532.678	2851
532.746	13811
532.814	20631
532.881	4324
532.949	1749
533.017	2460
533.084	1329
533.152	1192
533.220	428
533.287	602
533.355	1672
533.423	1469
533.490	403
533.558	1568
533.625	1644
533.693	1563
533.761	1824
533.828	2390
533.896	466
533.963	4982
534.031	3538
534.098	3927
534.166	1503
534.233	1284
534.300	3419
534.368	2476
534.435	1226
534.503	2254
534.570	1787
534.637	1220
534.705	902
534.772	2214
534.840	510
534.907	2572
534.974	1295
535.041	1507
535.109	2271
535.176	1073
535.243	1754
535.310	943
535.378	-145
535.445	2137
535.512	1124
535.579	2140
535.646	753
535.714	2667
535.781	2224
535.848	2224
535.915	3464
535.982	2848
536.049	2425
536.116	3461
536.183	1812
536.250	1376
536.317	1272
536.384	2865
536.451	2103
536.518	1630
536.585	715
536.652	3313
536.719	3471
536.786	439
536.853	884
536.920	4716
536.987	3405
537.053	3140
537.120	13464
537.187	8164
537.254	84
537.321	1820
537.388	1405
537.454	983
537.521	1663
537.588	1216
537.654	1604
537.721	2514
537.788	2807
537.855	1536
537.921	995
537.988	1077
538.055	1656
538.121	1217
538.188	1951
538.254	1839
538.321	3195
538.388	2322
538.454	1698
538.521	2145
538.587	1022
538.654	1328
538.720	1642
538.787	1671
538.853	1017
538.920	3064
538.986	2929
539.053	1786
539.119	2011
539.185	1794
539.252	2785
539.318	1891
539.385	3459
539.451	1255
539.517	2368
539.583	3561
539.650	5592
539.716	9240
539.782	2382
539.849	1280
539.915	1871
539.981	1245
540.047	1408
540.114	1887
540.180	2939
540.246	964
540.312	2667
540.378	3505
540.444	4394
540.510	5650
540.576	8783
540.643	2814
540.709	1137
540.775	2307
540.841	1903
540.907	3801
540.973	4915
541.039	2987
541.105	1465
541.171	1829
541.237	827
541.303	2523
541.369	3351
541.435	2752
541.500	3174
541.566	861
541.632	1426
541.698	1145
541.764	3386
541.830	2087
541.896	254
541.961	2142
542.027	938
542.093	1967
542.159	1801
542.224	993
542.290	2913
542.356	3049
542.421	3034
542.487	3179
542.553	1774
542.618	2499
542.684	1586
542.750	1679
542.815	2194
542.881	3814
542.947	9669
543.012	5235
543.078	1476
543.143	2044
543.209	1477
543.274	1282
543.340	2159
543.405	4303
543.471	3915
543.536	2490
543.602	2377
543.667	692
543.732	2392
543.798	1427
543.863	1633
543.928	1547
543.994	635
544.059	1870
544.124	1905
544.190	986
544.255	1655
544.320	2261
544.386	922
544.451	3078
544.516	2876
544.581	1996
544.646	7442
544.712	8747
544.777	3067
544.842	3047
544.907	2861
544.972	2420
545.037	2698
545.102	3364
545.168	1780
545.233	3825
545.298	3747
545.363	3224
545.428	2664
545.493	6750
545.558	6142
545.623	4478
545.688	1799
545.753	3393
545.818	2584
545.883	4100
545.947	2171
546.012	3857
546.077	3480
546.142	4068
546.207	2007
546.272	3812
546.337	2030
546.401	3408
546.466	2931
546.531	2342
546.596	3386
546.661	2768
546.725	3485
546.790	2337
546.855	3055
546.919	1786
546.984	2222
547.049	3269
547.113	2835
547.178	2166
547.243	3032
547.307	4042
547.372	4280
547.436	3508
547.501	1490
547.565	3776
547.630	2800
547.695	3619
547.759	4452
547.823	2908
547.888	3805
547.952	2397
548.017	2628
548.081	4136
548.146	4439
548.210	4116
548.274	2409
548.339	2300
548.403	2895
548.468	2243
548.532	1259
548.596	2945
548.660	1815
548.725	3752
548.789	3012
548.853	3631
548.917	3588
548.982	5953
549.046	4800
549.110	3182
549.174	2696
549.238	2051
549.303	1584
549.367	3744
549.431	1684
549.495	2630
549.559	1588
549.623	2447
549.687	3107
549.751	3906
549.815	2331
549.879	3759
549.943	1939
550.007	3765
550.071	3326
550.135	4066
550.199	2803
550.263	3055
550.327	3410
550.391	5184
550.455	2583
550.519	3417
550.582	3333
550.646	3346
550.710	2668
550.774	2937
550.838	3297
550.901	3085
550.965	3146
551.029	2718
551.093	4599
551.156	6783
551.220	13784
551.284	8671
551.347	6879
551.411	18815
551.475	11603
551.538	3814
551.602	2428
551.666	3348
551.729	2150
551.793	3194
551.856	2328
551.920	2962
551.983	2521
552.047	2940
552.110	3303
552.174	1855
552.237	2131
552.301	3116
552.364	2527
552.428	2556
552.491	2254
552.554	2726
552.618	3214
552.681	3235
552.745	2520
552.808	3680
552.871	3396
552.934	3304
552.998	2627
553.061	3370
553.124	3210
553.187	3269
553.251	3542
553.314	5113
553.377	3553
553.440	9185
553.503	26617
553.567	27493
553.630	4119
553.693	2998
553.756	2388
553.819	2282
553.882	2832
553.945	3050
554.008	2780
554.071	1806
554.134	2998
554.197	2651
554.260	1995
554.323	3613
554.386	3063
554.449	2405
554.512	3930
554.575	2421
554.638	2586
554.701	2418
554.764	2630
554.827	2754
554.889	1842
554.952	2091
555.015	1786
555.078	2306
555.141	2255
555.203	2234
555.266	2026
555.329	2515
555.391	2520
555.454	2711
555.517	2398
555.580	2402
555.642	2331
555.705	2636
555.768	1732
555.830	2123
555.893	1683
555.955	2733
556.018	2539
556.080	2927
556.143	1869
556.206	2345
556.268	2430
556.330	2728
556.393	2280
556.455	3717
556.518	4972
556.580	3791
556.643	1872
556.705	2037
556.767	1198
556.830	2670
556.892	1803
556.955	2671
557.017	2952
557.079	2573
557.142	2448
557.204	2413
557.266	3975
557.328	3702
557.391	1586
557.453	1903
557.515	2164
557.577	3195
557.639	2207
557.701	2454
557.764	1351
557.826	2604
557.888	1792
557.950	1678
558.012	1653
558.074	2506
558.136	2691
558.198	2771
558.260	2496
558.322	1600
558.384	1384
558.446	2549
558.508	2559
558.570	2556
558.632	3880
558.694	4639
558.756	3009
558.818	5213
558.880	7798
558.942	2668
559.003	2784
559.065	2865
559.127	1940
559.189	2364
559.251	1926
559.312	2784
559.374	3329
559.436	6267
559.498	3681
559.559	2061
559.621	2924
559.683	4032
559.744	5737
559.806	7664
559.868	5859
559.929	3405
559.991	4053
560.052	4133
560.114	3965
560.176	3304
560.237	4201
560.299	4120
560.360	2971
560.422	3600
560.483	4084
560.545	3843
560.606	3153
560.667	3549
560.729	2655
560.790	3080
560.852	3741
560.913	3947
560.974	3507
561.036	3822
561.097	2936
561.158	3965
561.220	3501
561.281	3061
561.342	3995
561.403	5117
561.465	3696
561.526	6790
561.587	6516
561.648	3346
561.709	3901
561.771	3470
561.832	3266
561.893	4667
561.954	3827
562.015	4168
562.076	3206
562.137	4070
562.198	3494
562.259	3843
562.320	2707
562.381	3894
562.442	4257
562.503	4149
562.564	4703
562.625	3532
562.686	3474
562.747	4209
562.808	2957
562.869	4380
562.930	5485
562.991	5749
563.051	4977
563.112	3847
563.173	3372
563.234	3665
563.294	4269
563.355	3259
563.416	4307
563.477	4666
563.537	3674
563.598	4240
563.659	3015
563.720	3565
563.780	3558
563.841	4343
563.901	4175
563.962	4294
564.023	4441
564.083	5171
564.144	3241
564.204	4193
564.265	4018
564.325	6041
564.386	9947
564.446	6719
564.507	3653
564.567	3743
564.628	3850
564.688	3942
564.749	3542
564.809	5674
564.869	5549
564.930	3330
564.990	4431
565.050	4222
565.111	4658
565.171	3943
565.231	3404
565.292	5323
565.352	3024
565.412	4741
565.472	4031
565.532	4439
565.593	3351
565.653	3985
565.713	4014
565.773	4168
565.833	3918
565.893	4939
565.953	3271
566.013	4700
566.074	4381
566.134	7321
566.194	8589
566.254	6995
566.314	4617
566.374	3300
566.434	4016
566.494	4225
566.554	3238
566.614	4752
566.673	4105
566.733	4878
566.793	4334
566.853	4324
566.913	4280
566.973	4499
567.033	4039
567.092	4062
567.152	3543
567.212	4988
567.272	4629
567.331	4399
567.391	5458
567.451	5933
567.511	7617
567.570	6161
567.630	4710
567.690	4484
567.749	4587
567.809	3913
567.868	4966
567.928	5165
567.988	5868
568.047	4965
568.107	4848
568.166	6700
568.226	7300
568.285	8802
568.345	6967
568.404	7119
568.464	6986
568.523	5134
568.582	6307
568.642	6243
568.701	8224
568.761	9189
568.820	12068
568.879	11670
568.939	11323
568.998	8930
569.057	7026
569.116	5832
569.176	5540
569.235	5249
569.294	4981
569.353	4998
569.413	5087
569.472	4865
569.531	3783
569.590	4523
569.649	4103
569.708	4072
569.767	5188
569.827	5346
569.886	4450
569.945	4190
570.004	4094
570.063	3819
570.122	3687
570.181	4459
570.240	4162
570.299	5091
570.358	4090
570.417	4204
570.475	3460
570.534	4388
570.593	3711
570.652	4181
570.711	3556
570.770	4005
570.829	3779
570.887	3291
570.946	3720
571.005	3412
571.064	4321
571.122	3622
571.181	3886
571.240	3423
571.299	3626
571.357	4528
571.416	3527
571.475	5430
571.533	4377
571.592	3483
571.650	4491
571.709	4239
571.768	3239
571.826	3389
571.885	4285
571.943	3674
572.002	4294
572.060	3103
572.119	3802
572.177	3842
572.236	3273
572.294	3798
572.352	3158
572.411	4067
572.469	3320
572.528	3691
572.586	3080
572.644	4233
572.703	4156
572.761	3959
572.819	3075
572.877	2993
572.936	4237
572.994	4135
573.052	3126
573.110	3301
573.169	2528
573.227	3896
573.285	3131
573.343	3355
573.401	3624
573.459	3743
573.517	3370
573.576	3769
573.634	4254
573.692	4329
573.750	2960
573.808	3730
573.866	2753
573.924	5190
573.982	4401
574.040	3870
574.098	3194
574.155	3090
574.213	3350
574.271	3425
574.329	3081
574.387	3347
574.445	3143
574.503	3431
574.560	2466
574.618	3086
574.676	2688
574.734	3229
574.792	3095
574.849	2956
574.907	3215
574.965	2780
575.022	2097
575.080	2891
575.138	3412
575.195	3229
575.253	3239
575.311	3534
575.368	3454
575.426	2340
575.483	2880
575.541	3872
575.598	3605
575.656	3538
575.713	3314
575.771	3257
575.828	3555
575.886	3910
575.943	4207
576.001	4300
576.058	3215
576.115	3993
576.173	4312
576.230	4654
576.287	4299
576.345	5041
576.402	3104
576.459	4765
576.517	3496
576.574	4897
576.631	4221
576.688	3850
576.746	3056
576.803	3817
576.860	2949
576.917	4173
576.974	3406
577.031	3529
577.089	4205
577.146	3605
577.203	3662
577.260	4882
577.317	4453
577.374	4615
577.431	3446
577.488	3910
577.545	3244
577.602	4966
577.659	4346
577.716	4099
577.773	3801
577.830	3926
577.886	4304
577.943	3833
578.000	4371
578.057	5611
578.114	5349
578.171	6018
578.227	6727
578.284	6737
578.341	5212
578.398	5110
578.454	4171
578.511	4360
578.568	4544
578.625	4240
578.681	3956
578.738	4574
578.794	3377
578.851	4319
578.908	3260
578.964	3512
579.021	3847
579.077	3797
579.134	3099
579.190	4671
579.247	3507
579.303	4066
579.360	3282
579.416	3186
579.473	2764
579.529	4149
579.586	3532
579.642	4396
579.698	4318
579.755	4761
579.811	4162
579.867	5056
579.924	4488
579.980	4909
580.036	6197
580.093	8038
580.149	10902
580.205	11674
580.261	8510
580.317	7580
580.374	5907
580.430	6477
580.486	4624
580.542	5052
580.598	4499
580.619	4629
580.654	4851
580.692	4312
580.710	4045
580.765	3912
580.767	3904
580.823	4186
580.838	3913
580.879	3184
580.911	3354
580.935	3469
580.984	3508
580.991	3515
581.047	4311
581.057	4486
581.103	5216
581.130	5056
581.159	4877
581.203	5436
581.215	5564
581.270	6095
581.276	6076
581.326	5887
581.349	5679
581.382	5368
581.422	5656
581.438	5749
581.494	4263
581.494	4279
581.550	5697
581.567	5687
581.606	5550
581.640	5114
581.661	4888
581.713	5381
581.717	5415
581.773	5226
581.786	5301
581.829	5430
581.859	5452
581.885	5537
581.932	5184
581.940	5105
581.996	5328
582.004	5214
582.052	4510
582.077	4702
582.107	4956
582.150	5009
582.163	5005
582.219	5555
582.223	5518
582.274	5202
582.296	5412
582.330	5585
582.368	5736
582.386	5867
582.441	6054
582.441	6050
582.497	5495
582.514	5673
582.552	6436
582.587	6640
582.608	6585
582.659	6550
582.663	6543
582.719	6208
582.732	6145
582.774	6110
582.805	5972
582.830	5828
582.877	6279
582.885	6335
582.941	5997
582.950	6028
582.996	6300
583.023	6836
583.052	7653
583.095	8026
583.107	8128
583.162	10600
583.168	10707
583.218	11153
583.240	10695
583.273	9777
583.313	9189
583.328	9056
583.384	8693
583.385	8677
583.439	7913
583.458	7787
583.494	7680
583.531	7119
583.549	6969
583.603	7791
583.605	7804
583.660	7399
583.676	7299
583.715	7272
583.748	7511
583.770	7765
583.820	7490
583.825	7437
583.881	7690
583.893	7658
583.936	7643
583.965	7684
583.991	7645
584.038	7547
584.046	7562
584.101	7466
584.110	7623
584.156	8428
584.183	8306
584.211	8160
584.255	7453
584.266	7282
584.321	7771
584.328	7742
584.376	7891
584.400	8318
584.431	8656
584.472	8421
584.486	8358
584.541	8707
584.545	8681
584.596	8377
584.617	8298
584.651	8501
584.689	8949
584.706	9062
584.761	9676
584.762	9665
584.816	9855
584.834	10100
584.871	10250
584.906	9874
584.926	9833
584.978	9930
584.980	9953
585.035	10830
585.051	10859
585.090	10987
585.123	11227
585.145	11241
585.195	10966
585.200	11008
585.254	11377
585.267	11646
585.309	12514
585.340	12809
585.364	12828
585.412	12075
585.419	11950
585.473	11253
585.484	11155
585.528	11697
585.556	12171
585.583	12628
585.628	13116
585.637	13299
585.692	14380
585.700	14637
585.747	15636
585.772	15020
585.801	13905
585.845	13108
585.856	13075
585.910	12468
585.917	12548
585.965	13586
585.989	13585
586.019	13825
586.061	14013
586.074	14023
586.128	14672
586.133	14613
586.183	14646
586.205	14922
586.237	15471
586.277	15984
586.292	16085
586.346	15858
586.349	15847
586.401	16587
586.421	16706
586.455	17176
586.493	18421
586.509	19995
586.564	25007
586.565	25112
586.618	34184
586.637	34779
586.672	27591
586.709	22273
586.727	21068
586.781	18108
586.781	18153
586.835	18275
586.853	18275
586.889	18335
586.925	18247
586.944	18276
586.996	18511
586.998	18589
587.052	20104
587.068	20288
587.106	20253
587.140	19932
587.161	20107
587.212	21106
587.215	21233
587.269	22325
587.284	22576
587.323	23024
587.356	23274
587.377	23579
587.427	23942
587.431	24019
587.485	24528
587.499	24526
587.539	25325
587.571	25923
587.593	26500
587.643	27488
587.648	27668
587.702	28784
587.715	28914
587.755	29973
587.786	31104
587.810	31783
587.858	32550
587.864	32905
587.917	36099
587.930	36579
587.971	39388
588.001	41455
588.025	42640
588.073	44425
588.079	44930
588.133	48740
588.145	49525
588.187	53957
588.217	56582
588.241	59518
588.288	65489
588.295	66725
588.348	76119
588.360	77845
588.402	87010
588.431	93549
588.456	100994
588.503	114636
588.510	117548
588.564	139469
588.575	143981
588.617	170732
588.646	189721
588.671	218065
588.718	273911
588.725	289903
588.778	415326
588.789	441551
588.832	626904
588.861	755321
588.886	857287
588.932	1034790
588.939	1036041
588.993	985419
589.004	970122
589.047	899488
589.075	837872
589.100	706460
589.147	466162
589.154	450826
589.207	327967
589.218	302499
589.261	278363
589.290	262682
589.314	275464
589.361	301186
589.368	316399
589.421	442467
589.433	469401
589.475	673733
589.504	818175
589.528	890411
589.576	995811
589.582	983877
589.635	824943
589.647	786021
589.689	542889
589.718	374985
589.742	315711
589.790	198385
589.795	194114
589.849	150123
589.861	139612
589.902	125603
589.932	113955
589.955	104277
590.004	83359
590.009	82774
590.062	73971
590.075	71427
590.115	66004
590.146	61549
590.168	60249
590.218	56785
590.222	56731
590.275	53398
590.289	52254
590.328	51156
590.360	50003
590.381	48981
590.431	46019
590.435	46106
590.488	44404
590.503	43842
590.541	43309
590.574	42569
590.594	42249
590.645	40711
590.647	40850
590.700	40293
590.716	40019
590.753	38999
590.787	37675
590.806	37474
590.859	36585
590.859	36723
590.912	36203
590.930	35921
590.965	35622
591.001	35055
591.018	35521
591.071	36450
591.072	36310
591.124	35872
591.143	35536
591.177	35411
591.214	35011
591.230	35493
591.283	36706
591.285	36599
591.336	35872
591.356	35394
591.389	35428
591.427	35128
591.442	35043
591.495	34222
591.498	34016
591.547	33242
591.569	32743
591.600	33146
591.640	33309
591.653	33472
591.706	33611
591.711	33485
591.759	34959
591.782	35537
591.811	36608
591.853	37706
591.864	37472
591.917	35528
591.924	35092
591.969	34175
591.995	33450
592.022	34067
592.066	34701
592.075	35126
592.127	36844
592.137	37029
592.180	40497
592.208	42383
592.233	39915
592.279	34797
592.285	34887
592.338	34436
592.350	34178
592.390	33479
592.421	32749
592.443	32973
592.491	32969
592.495	33103
592.548	33069
592.562	32924
592.600	32930
592.633	32682
592.653	32686
592.704	32166
592.705	32358
592.775	32690
592.846	32016
592.916	32268
592.987	32232
593.058	32084
593.128	31817
593.199	31373
593.270	31627
593.341	30481
593.411	30264
593.482	30047
593.553	30573
593.623	29074
593.694	30541
593.764	32470
593.835	29532
593.906	29745
593.976	28995
594.047	30150
594.117	33891
594.188	34441
594.258	29729
594.329	28031
594.399	28498
594.470	27855
594.540	27314
594.611	28507
594.681	27319
594.751	28326
594.822	30017
594.892	29687
594.963	31447
595.033	30203
595.103	29110
595.174	31229
595.244	39010
595.314	46890
595.384	30592
595.455	29023
595.525	29993
595.595	29107
595.665	29724
595.736	28103
595.806	29147
595.876	27819
595.946	28875
596.016	26939
596.087	28297
596.157	29244
596.227	27386
596.297	29531
596.367	29592
596.437	31709
596.507	37935
596.577	43337
596.647	30539
596.717	27327
596.787	27769
596.857	27547
596.927	28329
596.997	28058
597.067	27587
597.137	31404
597.207	30881
597.277	28953
597.347	30080
597.417	29462
597.487	28928
597.557	29847
597.626	29006
597.696	30692
597.766	34565
597.836	42929
597.906	31588
597.975	28138
598.045	27052
598.115	26862
598.185	26148
598.254	27201
598.324	26734
598.394	25751
598.464	26728
598.533	26568
598.603	26320
598.672	26340
598.742	26931
598.812	26351
598.881	26066
598.951	26226
599.020	25261
599.090	24736
599.159	25696
599.229	24881
599.299	23612
599.368	24792
599.437	25216
599.507	25024
599.576	25881
599.646	27727
599.715	27638
599.785	25496
599.854	27464
599.924	29250
599.993	27525
600.062	26333
600.132	25199
600.201	25925
600.270	24973
600.340	26172
600.409	25548
600.478	25236
600.547	25296
600.617	25835
600.686	26236
600.755	24715
600.824	24336
600.894	26237
600.963	24495
601.032	23325
601.101	25157
601.170	24738
601.239	24454
601.308	25488
601.378	24581
601.447	24657
601.516	23443
601.585	24982
601.654	24295
601.723	25099
601.792	23898
601.861	24916
601.930	27933
601.999	25738
602.068	22660
602.137	24438
602.206	23554
602.275	22262
602.343	25075
602.412	23056
602.481	22400
602.550	22638
602.619	22532
602.688	22922
602.756	22615
602.825	22252
602.894	22217
602.963	22400
603.032	22111
603.100	22888
603.169	22548
603.238	23393
603.307	22364
603.375	21438
603.444	22992
603.513	21827
603.581	21860
603.650	22554
603.719	21612
603.787	22285
603.856	21931
603.924	21701
603.993	21490
604.061	21018
604.130	20808
604.198	20971
604.267	21689
604.335	21261
604.404	20147
604.472	20576
604.541	20895
604.609	20720
604.678	20522
604.746	21395
604.815	21334
604.883	21297
604.951	21801
605.020	20486
605.088	21658
605.156	19515
605.225	20065
605.293	21148
605.361	19907
605.429	20270
605.498	20559
605.566	21082
605.634	20663
605.702	21256
605.771	21365
605.839	20896
605.907	21142
605.975	21376
606.043	20284
606.111	20632
606.180	21662
606.248	24969
606.316	27188
606.384	21480
606.452	25134
606.520	22859
606.588	19895
606.656	18733
606.724	18441
606.792	18471
606.860	18514
606.928	17610
606.996	18627
607.064	17136
607.132	17771
607.200	18410
607.267	19075
607.335	17946
607.403	17788
607.471	17588
607.539	18650
607.607	18171
607.674	17430
607.742	19260
607.810	17388
607.878	17351
607.946	16789
608.013	17536
608.081	18455
608.149	17474
608.216	16732
608.284	18263
608.352	17225
608.419	18458
608.487	26788
608.555	20709
608.622	18289
608.690	16838
608.757	17571
608.825	17956
608.893	17706
608.960	19098
609.028	21842
609.095	27046
609.163	19594
609.230	19151
609.298	18823
609.365	17180
609.432	18255
609.500	18003
609.567	18092
609.635	18000
609.702	18866
609.769	19505
609.837	20697
609.904	19843
609.971	17425
610.039	21335
610.106	22769
610.173	31017
610.241	54442
610.308	81960
610.375	58164
610.442	25806
610.509	19332
610.577	18799
610.644	18560
610.711	18184
610.778	17797
610.845	17309
610.912	19332
610.980	20853
611.047	29208
611.114	23072
611.181	17937
611.248	15808
611.315	17803
611.382	17422
611.449	15232
611.516	17913
611.583	16606
611.650	17383
611.717	16749
611.784	17732
611.851	17373
611.918	17579
611.984	17372
612.051	20708
612.118	24922
612.185	36899
612.252	28938
612.319	18398
612.386	17180
612.452	17243
612.519	20041
612.586	27745
612.653	20890
612.719	17141
612.786	16397
612.853	17448
612.919	15414
612.986	16509
613.053	15128
613.120	15878
613.186	15518
613.253	18093
613.319	15986
613.386	15693
613.453	15890
613.519	16706
613.586	17273
613.652	20406
613.719	16642
613.785	16961
613.852	16449
613.918	15706
613.985	17087
614.051	21626
614.118	35953
614.184	33889
614.250	17508
614.317	16133
614.383	14881
614.449	14237
614.516	15254
614.582	16503
614.648	15621
614.715	14414
614.781	15428
614.847	18264
614.914	18883
614.980	17459
615.046	16584
615.112	15789
615.179	15346
615.245	16635
615.311	17565
615.377	20141
615.443	22552
615.509	19386
615.575	17571
615.642	17065
615.708	18618
615.774	19295
615.840	22014
615.906	25974
615.972	27023
616.038	35033
616.104	45852
616.170	56097
616.236	51069
616.302	29712
616.368	24405
616.434	22568
616.500	24654
616.565	24187
616.631	22639
616.697	22122
616.763	21246
616.829	23462
616.895	26229
616.961	25816
617.026	22898
617.092	20878
617.158	21454
617.224	20371
617.289	21161
617.355	22797
617.421	24202
617.487	24822
617.552	23284
617.618	21637
617.684	20844
617.749	22795
617.815	21766
617.880	20462
617.946	20682
618.012	21991
618.077	22025
618.143	21041
618.208	21161
618.274	22520
618.339	24347
618.405	22519
618.470	24844
618.536	23900
618.601	29426
618.667	28048
618.732	26115
618.798	25032
618.863	25777
618.928	24918
618.994	26467
619.059	26474
619.124	28132
619.190	25986
619.255	25711
619.320	26143
619.386	24117
619.451	23458
619.516	24271
619.581	25600
619.647	25434
619.712	24992
619.777	24388
619.842	24901
619.907	25352
619.972	25540
620.038	24667
620.103	24885
620.168	23475
620.233	24541
620.298	23729
620.363	23972
620.428	24649
620.493	24026
620.558	23398
620.623	23292
620.688	23921
620.753	22750
620.818	23343
620.883	22672
620.948	23064
621.013	22854
621.078	24396
621.143	23610
621.207	25940
621.272	26084
621.337	26778
621.402	30449
621.467	39198
621.532	38606
621.596	32449
621.661	30915
621.726	28238
621.791	29526
621.855	30768
621.920	29736
621.985	30174
622.049	34110
622.114	32699
622.179	31967
622.243	35409
622.308	33262
622.373	34658
622.437	34058
622.502	32490
622.566	33685
622.631	31656
622.695	33617
622.760	33482
622.824	32460
622.889	31496
622.953	31533
623.018	35196
623.082	33744
623.147	30930
623.211	29958
623.276	29841
623.340	29929
623.404	29612
623.469	28879
623.533	29157
623.597	29478
623.662	29821
623.726	29272
623.790	29473
623.854	29446
623.919	30166
623.983	28648
624.047	29466
624.111	27128
624.176	28823
624.240	27493
624.304	30887
624.368	28500
624.432	28160
624.496	29187
624.560	28371
624.625	28397
624.689	28199
624.753	27862
624.817	28134
624.881	27231
624.945	26834
625.009	28301
625.073	27424
625.137	27524
625.201	28765
625.265	28466
625.329	26302
625.393	27084
625.456	27042
625.520	27069
625.584	28503
625.648	34522
625.712	47473
625.776	91866
625.839	100977
625.903	45863
625.967	30971
626.031	46342
626.095	62304
626.158	30608
626.222	23761
626.286	24479
626.349	23524
626.413	24362
626.477	25477
626.540	22517
626.604	23796
626.668	24501
626.731	24100
626.795	25716
626.858	24730
626.922	23698
626.986	24497
627.049	22461
627.113	23332
627.176	23310
627.240	22619
627.303	23291
627.366	23223
627.430	22140
627.493	24347
627.557	25028
627.620	25197
627.684	23240
627.747	24138
627.810	22602
627.874	22912
627.937	21846
628.000	24468
628.064	23829
628.127	19833
628.190	23439
628.253	22451
628.317	21437
628.380	21457
628.443	21074
628.506	21314
628.569	21280
628.632	20198
628.696	20838
628.759	20363
628.822	20124
628.885	19972
628.948	19778
629.011	20893
629.074	19892
629.137	19892
629.200	20168
629.263	22376
629.326	18449
629.389	19532
629.452	20474
629.515	20929
629.578	19704
629.641	20946
629.704	20629
629.767	21060
629.830	20196
629.892	20645
629.955	18884
630.018	20688
630.081	17937
630.144	20471
630.207	17605
630.269	21160
630.332	22004
630.395	19935
630.458	18703
630.520	17592
630.583	19912
630.646	17948
630.708	17894
630.771	16696
630.834	18251
630.896	16988
630.959	17257
631.021	17424
631.084	17499
631.146	18180
631.209	20899
631.272	17360
631.334	16825
631.397	16840
631.459	15635
631.522	15717
631.584	16748
631.646	17579
631.709	16146
631.771	17626
631.834	17364
631.896	16634
631.958	15086
632.021	16517
632.083	15999
632.145	17324
632.208	16112
632.270	16244
632.332	15526
632.395	15535
632.457	17128
632.519	15727
632.581	16376
632.643	14913
632.706	16704
632.768	15015
632.830	15184
632.892	15432
632.954	15279
633.016	16510
633.078	14490
633.141	15264
633.203	15792
633.265	16220
633.327	15175
633.389	14655
633.451	16354
633.513	15924
633.575	16976
633.637	14997
633.698	14255
633.760	15441
633.822	15337
633.884	14781
633.946	14180
634.008	14375
634.070	15290
634.132	16751
634.193	16146
634.255	14532
634.317	12823
634.379	14534
634.441	13073
634.502	13829
634.564	13649
634.626	13682
634.687	13360
634.749	14369
634.811	14549
634.873	12953
634.934	13584
634.996	14213
635.057	13142
635.119	13211
635.181	12903
635.242	13624
635.304	12060
635.365	14486
635.427	12558
635.488	13393
635.550	12872
635.611	13124
635.673	11535
635.734	15766
635.796	14602
635.857	14896
635.918	11976
635.980	14539
636.041	12826
636.102	13400
636.164	12932
636.225	12725
636.286	10654
636.348	13200
636.409	13112
636.470	12457
636.531	12897
636.593	13532
636.654	14444
636.715	11717
636.776	10831
636.838	11577
636.899	12815
636.960	11760
637.021	11281
637.082	11628
637.143	12415
637.204	11479
637.265	11763
637.326	12279
637.387	11875
637.448	10248
637.509	10750
637.570	12147
637.631	12449
637.692	10590
637.753	9920
637.814	11709
637.875	11912
637.936	12358
637.997	10474
638.058	11172
638.119	12312
638.179	11707
638.240	10657
638.301	11105
638.362	10759
638.423	11415
638.483	12774
638.544	9692
638.605	11724
638.666	10052
638.726	11171
638.787	11725
638.848	11112
638.908	10394
638.969	10854
639.030	11088
639.090	9560
639.151	9554
639.211	11027
639.272	11610
639.332	12810
639.393	10740
639.453	9747
639.514	10213
639.574	10430
639.635	9683
639.695	10723
639.756	9260
639.816	10294
639.877	10597
639.937	12334
639.997	11804
640.058	9738
640.118	9697
640.178	10349
640.239	9849
640.299	9812
640.359	9228
640.420	9727
640.480	9944
640.540	9196
640.600	8680
640.661	10297
640.721	8527
640.781	11174
640.841	9669
640.901	10525
640.961	10050
641.021	9935
641.082	9176
641.142	9300
641.202	11380
641.262	8169
641.322	10388
641.382	8200
641.442	10381
641.502	10076
641.562	10265
641.622	8544
641.682	9959
641.742	9531
641.802	9576
641.861	10295
641.921	9627
641.981	9998
642.041	10515
642.101	10927
642.161	8204
642.221	8631
642.280	8978
642.340	9173
642.400	8621
642.460	10421
642.519	9005
642.579	10214
642.639	10536
642.698	7051
642.758	10512
642.818	9397
642.877	8229
642.937	9638
642.997	9335
643.056	10609
643.116	8360
643.175	11375
643.235	9056
643.294	8571
643.354	9134
643.414	8591
643.473	9582
643.532	8389
643.592	8467
643.651	9514
643.711	10948
643.770	13052
643.830	16780
643.889	29536
643.948	12057
644.008	8949
644.067	7584
644.126	7830
644.186	8000
644.245	8079
644.304	6242
644.363	9989
644.423	6178
644.482	8055
644.541	8285
644.600	6288
644.659	8749
644.719	7340
644.778	9277
644.837	9040
644.896	10362
644.955	12583
645.014	10819
645.073	9950
645.132	8038
645.191	10057
645.250	7559
645.309	9528
645.368	7900
645.427	8624
645.486	6207
645.545	9060
645.604	7422
645.663	8478
645.722	6631
645.781	7596
645.840	8586
645.898	7525
645.957	8716
646.016	6704
646.075	8413
646.134	9808
646.192	16412
646.251	20633
646.310	8831
646.369	7391
646.427	7631
646.486	5649
646.545	7003
646.603	7581
646.662	8125
646.721	7940
646.779	6441
646.838	5895
646.896	7216
646.955	7146
647.014	7473
647.072	7731
647.131	8440
647.189	7509
647.248	6750
647.306	7213
647.365	8346
647.423	5797
647.481	7486
647.540	5821
647.598	7431
647.657	7028
647.715	7182
647.773	6553
647.832	7490
647.890	5917
647.948	7446
648.007	8292
648.065	5964
648.123	7745
648.181	8902
648.240	9912
648.298	7826
648.356	7960
648.414	7904
648.472	7605
648.531	7559
648.589	7230
648.647	7257
648.705	7732
648.763	7577
648.821	6882
648.879	6786
648.937	7103
648.995	6967
649.053	7063
649.111	7460
649.169	8152
649.227	8687
649.285	8723
649.343	13611
649.401	11322
649.459	11796
649.516	10929
649.574	9035
649.632	16737
649.690	20456
649.748	11886
649.806	12351
649.863	18431
649.921	10252
649.979	7116
650.037	7427
650.094	5546
650.152	7318
650.210	6235
650.268	7121
650.325	7056
650.383	6279
650.440	6146
650.498	7478
650.556	6774
650.613	5729
650.671	6706
650.728	6421
650.786	6667
650.843	7287
650.901	4290
650.958	6623
651.016	6318
651.073	6588
651.131	5876
651.188	6282
651.246	6702
651.303	6424
651.360	6473
651.418	6308
651.475	6477
651.532	4763
651.590	5937
651.647	5988
651.704	7234
651.762	6208
651.819	6586
651.876	5715
651.933	6093
651.990	6805
652.048	4751
652.105	5571
652.162	6646
652.219	5572
652.276	6580
652.333	5908
652.390	4700
652.448	5324
652.505	6463
652.562	7450
652.619	7046
652.676	10418
652.733	10672
652.790	5544
652.847	4600
652.904	5889
652.961	4776
653.017	5531
653.074	6133
653.131	6045
653.188	4548
653.245	5091
653.302	5241
653.359	4838
653.415	5212
653.472	5057
653.529	5650
653.586	5836
653.642	5267
653.699	6202
653.756	5406
653.813	5120
653.869	6011
653.926	4225
653.983	4933
654.039	5044
654.096	5215
654.152	5651
654.209	3889
654.266	5917
654.322	4439
654.379	6587
654.435	6620
654.492	5754
654.548	8755
654.605	9032
654.661	7506
654.717	5806
654.774	6071
654.830	5951
654.887	5873
654.943	6080
655.000	6147
655.056	6813
655.112	5608
655.168	5877
655.225	6028
655.281	7007
655.337	8295
655.394	11270
655.450	9148
655.506	8048
655.562	11903
655.618	11020
655.675	4626
655.731	5713
655.787	5349
655.843	5614
655.899	4461
655.955	5707
656.011	5490
656.067	4644
656.123	5612
656.179	5669
656.235	6514
656.291	3724
656.347	6543
656.403	5068
656.459	5604
656.515	6421
656.571	6287
656.627	5900
656.683	6020
656.739	6203
656.795	5706
656.850	5444
656.906	5709
656.962	6554
657.018	4986
657.074	5762
657.129	5627
657.185	5166
657.241	5307
657.297	4841
657.352	5808
657.408	4549
657.464	6215
657.519	5046
657.575	4779
657.630	6530
657.686	4609
657.742	5166
657.797	6076
657.853	5570
657.908	6454
657.964	4436
658.019	6249
658.075	5654
658.130	6469
658.186	4646
658.241	5987
658.297	4309
658.352	5226
658.407	5784
658.463	5376
658.518	5830
658.573	5751
658.629	4852
658.684	5251
658.739	5576
658.795	4103
658.850	5365
658.905	4298
658.960	4917
659.016	5173
659.071	5545
659.126	5493
659.181	5240
659.236	6508
659.291	6284
659.346	6262
659.401	6689
659.457	7596
659.512	8098
659.567	7535
659.622	5821
659.677	5592
659.732	4952
659.787	5872
659.842	5358
659.897	7436
659.952	5721
660.007	5766
660.061	5938
660.116	4891
660.171	5284
660.226	5269
660.281	5537
660.336	5203
660.391	5413
660.445	4864
660.500	5419
660.555	5557
660.610	5263
660.664	6377
660.719	5222
660.774	5709
660.828	4981
660.883	4575
660.938	6139
660.992	4254
661.047	5296
661.101	4805
661.156	5029
661.211	4157
661.265	4400
661.320	4775
661.374	5760
661.429	5108
661.483	5602
661.538	3952
661.592	4876
661.647	5196
661.701	5890
661.755	5321
661.810	6549
661.864	4841
661.919	4929
661.973	5965
662.027	5190
662.081	4720
662.136	5108
662.190	5444
662.244	5751
662.299	5517
662.353	5369
662.407	5138
662.461	5967
662.515	5887
662.569	5983
662.624	6631
662.678	5465
662.732	5167
662.786	5434
662.840	6125
662.894	5462
662.948	5822
663.002	5323
663.056	5696
663.110	5012
663.164	5061
663.218	5491
663.272	4600
663.326	5485
663.380	5199
663.434	5553
663.488	5644
663.542	6267
663.595	5420
663.649	4810
663.703	4913
663.757	6307
663.811	5177
663.864	4868
663.918	5949
663.972	5145
664.026	4169
664.079	5255
664.133	6025
664.187	4922
664.240	5601
664.294	4724
664.348	5679
664.401	5155
664.455	5513
664.508	5422
664.562	5383
664.615	5735
664.669	4662
664.722	6404
664.776	4720
664.829	5492
664.883	4675
664.936	5235
664.990	5818
665.043	6565
665.097	5725
665.150	7676
665.203	6950
665.257	6164
665.310	6495
665.363	5985
665.417	6077
665.470	6495
665.523	6544
665.576	6156
665.630	6022
665.683	5801
665.736	5457
665.789	7028
665.842	6041
665.895	7061
665.949	5852
666.002	5664
666.055	6660
666.108	7167
666.161	5551
666.214	6338
666.267	6025
666.320	6944
666.373	6776
666.426	5779
666.479	5694
666.532	6245
666.585	7150
666.638	6550
666.691	6034
666.744	7135
666.796	5936
666.849	5897
666.902	5686
666.955	5928
667.008	5433
667.060	5812
667.113	5263
667.166	4469
667.219	5944
667.271	5993
667.324	5304
667.377	6036
667.430	5511
667.482	6721
667.535	5925
667.587	5452
667.640	6351
667.693	5491
667.745	7046
667.798	7422
667.850	6612
667.903	6389
667.955	6477
668.008	6003
668.060	7828
668.113	7502
668.165	7051
668.218	7026
668.270	7096
668.322	6836
668.375	5885
668.427	6788
668.479	5978
668.532	6272
668.584	7329
668.636	6419
668.689	6084
668.741	6445
668.793	6097
668.845	5350
668.898	7457
668.950	5913
669.002	6948
669.054	5801
669.106	5998
669.158	6481
669.211	6920
669.263	6265
669.315	8927
669.367	8702
669.419	5875
669.471	7499
669.523	7278
669.575	6714
669.627	6879
669.679	6869
669.731	7172
669.783	6781
669.835	7327
669.886	6284
669.938	6575
669.990	6192
670.042	6671
670.094	7242
670.146	6543
670.197	7830
670.249	9542
670.301	9151
670.353	12156
670.404	15181
670.456	19885
670.508	29890
670.560	49855
670.611	83150
670.663	143351
670.715	308001
670.766	425639
670.818	152269
670.869	37879
670.921	20554
670.972	14823
671.024	11894
671.075	10471
671.127	9463
671.178	7540
671.230	7951
671.281	7864
671.333	7737
671.384	8059
671.436	7214
671.487	8819
671.538	7447
671.590	8043
671.641	7260
671.692	7913
671.744	8479
671.795	8712
671.846	7258
671.897	6552
671.949	7102
672.000	7515
672.051	6743
672.102	6193
672.153	6689
672.204	6670
672.256	6466
672.307	6753
672.358	7354
672.409	6888
672.460	6797
672.511	5547
672.562	6888
672.613	5753
672.664	7096
672.715	6466
672.766	5533
672.817	5997
672.868	6352
672.919	6509
672.970	5117
673.021	6026
673.071	5548
673.122	6570
673.173	6145
673.224	5948
673.275	5902
673.326	5460
673.376	6415
673.427	5861
673.478	6050
673.528	5683
673.579	5852
673.630	4862
673.680	6574
673.731	4753
673.782	6033
673.832	6225
673.883	6044
673.934	5150
673.984	5300
674.035	5889
674.085	5562
674.136	6481
674.186	6571
674.237	6392
674.287	8989
674.338	6367
674.388	5434
674.438	5434
674.489	6395
674.539	5444
674.589	5204
674.640	5905
674.690	6399
674.740	6577
674.791	6111
674.841	6020
674.891	6165
674.942	6006
674.992	5375
675.042	4916
675.092	5019
675.142	5252
675.193	5254
675.243	4710
675.293	5954
675.343	5493
675.393	5822
675.443	5203
675.493	4418
675.543	4950
675.593	5144
675.643	4725
675.693	6228
675.743	4847
675.793	4581
675.843	6040
675.893	5350
675.943	5236
675.993	5538
676.043	5004
676.093	5273
676.142	4582
676.192	5317
676.242	5150
676.292	3892
676.341	4464
676.391	4992
676.441	4648
676.491	4144
676.540	4478
676.590	5405
676.640	5455
676.689	5783
676.739	4424
676.789	4016
676.838	4452
676.888	4832
676.937	4217
676.987	4291
677.037	3950
677.086	4186
677.136	4579
677.185	4031
677.235	3969
677.284	4433
677.333	3870
677.383	3986
677.432	3770
677.482	4944
677.531	4215
677.580	3450
677.630	4107
677.679	3449
677.728	4832
677.778	4915
677.827	4320
677.876	4163
677.925	3874
677.975	3802
678.024	4798
678.073	4739
678.122	5557
678.171	4601
678.220	5123
678.269	5323
678.319	4402
678.368	4388
678.417	5184
678.466	4625
678.515	5122
678.564	5544
678.613	3660
678.662	4844
678.711	5134
678.760	4448
678.809	5725
678.857	4476
678.906	4740
678.955	4915
679.004	5090
679.053	4596
679.102	3248
679.151	4539
679.199	4360
679.248	3947
679.297	4439
679.346	5072
679.394	5252
679.443	4201
679.492	3940
679.540	4063
679.589	4843
679.638	4246
679.686	4006
679.735	4444
679.784	4305
679.832	4564
679.881	3580
679.929	3798
679.978	3731
680.026	3358
680.075	4433
680.123	4162
680.172	4214
680.220	3783
680.268	4005
680.317	3663
680.365	3669
680.414	3928
680.462	4582
680.510	4342
680.559	3797
680.607	3261
680.655	4109
680.703	4224
680.752	3934
680.800	4241
680.848	2916
680.896	3632
680.945	3701
680.993	3707
681.041	3502
681.089	3558
681.137	3624
681.185	2921
681.233	3427
681.258	3628
681.281	3761
681.329	4596
681.377	3454
681.380	3590
681.425	5023
681.473	5131
681.502	4565
681.521	4052
681.569	4188
681.617	4468
681.624	4538
681.665	4571
681.713	5375
681.745	5135
681.761	4931
681.809	4629
681.857	5464
681.867	5414
681.904	4989
681.952	5005
681.989	4919
682.000	4824
682.048	5566
682.096	5348
682.111	5499
682.143	5672
682.191	5677
682.233	6379
682.239	6424
682.286	5426
682.334	6267
682.354	6033
682.382	5569
682.430	6365
682.476	7181
682.477	7147
682.525	6751
682.572	6608
682.598	6213
682.620	5828
682.667	6408
682.715	7083
682.720	7166
682.763	7433
682.810	6228
682.841	6667
682.857	6814
682.905	7653
682.952	7242
682.963	7417
683.000	7871
683.047	7925
683.085	7998
683.095	7945
683.142	6834
683.190	7496
683.206	7372
683.237	7066
683.284	7663
683.328	8049
683.332	8027
683.379	8327
683.426	8604
683.449	8375
683.473	8113
683.521	8220
683.568	8510
683.571	8549
683.615	8573
683.662	9343
683.693	9200
683.709	9020
683.757	8515
683.804	9050
683.814	9119
683.851	9280
683.898	9733
683.936	9018
683.945	8809
683.992	9573
684.039	9844
684.057	9815
684.086	9574
684.133	10073
684.179	10007
684.180	9974
684.227	9859
684.274	9202
684.300	9816
684.321	10256
684.368	9851
684.415	10472
684.422	10422
684.462	9960
684.509	9687
684.543	9707
684.556	9702
684.603	10540
684.649	10817
684.665	10997
684.696	11230
684.743	11832
684.786	11231
684.790	11165
684.837	11373
684.883	12098
684.908	12242
684.930	12375
684.977	13630
685.023	13311
685.029	13340
685.070	12949
685.117	12854
685.150	13020
685.164	13164
685.210	14428
685.257	14570
685.272	14701
685.303	14507
685.350	13168
685.393	13138
685.396	13156
685.443	13974
685.490	14663
685.514	14684
685.536	14471
685.583	14985
685.629	14111
685.636	14116
685.675	14087
685.722	14175
685.757	14405
685.768	14516
685.815	15050
685.861	14946
685.878	14681
685.908	14067
685.954	15502
686.000	15585
686.000	15576
686.047	15602
686.093	16185
686.121	16539
686.139	16577
686.185	15612
686.232	16104
686.242	16012
686.278	15668
686.324	15602
686.363	15009
686.370	14916
686.416	15323
686.463	15511
686.484	15525
686.509	15558
686.555	16101
686.601	15881
686.606	15917
686.647	16053
686.693	15834
686.727	15854
686.739	15906
686.785	15700
686.831	16562
686.848	16276
686.877	15516
686.923	15662
686.969	15221
686.969	15219
687.015	15759
687.061	15937
687.090	16588
687.107	16847
687.153	17093
687.199	16017
687.211	16044
687.245	16089
687.291	16464
687.332	16734
687.336	16802
687.382	16919
687.428	16865
687.453	17033
687.474	16783
687.520	17398
687.565	16220
687.574	16179
687.611	16555
687.657	16113
687.695	16337
687.702	16394
687.748	17046
687.794	17476
687.816	17590
687.839	17465
687.885	16987
687.931	16490
687.937	16559
687.976	17333
688.022	17537
688.058	17599
688.067	17635
688.113	17813
688.158	17943
688.179	17977
688.204	17969
688.249	18423
688.295	18370
688.300	18404
688.340	18971
688.386	19595
688.421	19241
688.431	19007
688.477	18835
688.522	18655
688.542	18446
688.567	18495
688.613	18494
688.658	18520
688.663	18522
688.703	18658
688.749	19180
688.784	19053
688.794	19004
688.839	19162
688.884	19890
688.905	19709
688.930	19440
688.975	18834
689.020	19238
689.026	19194
689.065	19536
689.110	19738
689.146	20224
689.155	20183
689.201	19534
689.246	18808
689.267	18505
689.291	18728
689.336	19885
689.381	20069
689.388	20093
689.426	19806
689.471	20060
689.509	19638
689.516	19584
689.561	19328
689.606	19135
689.630	19214
689.651	19520
689.696	19348
689.741	19985
689.750	20002
689.785	20006
689.830	20307
689.871	20207
689.875	20185
689.920	19842
689.965	19621
689.992	19138
690.010	19177
690.054	20026
690.099	20549
690.112	20569
690.144	20190
690.189	19863
690.233	19488
690.233	19515
690.278	20389
690.323	21057
690.354	21083
690.367	21150
690.412	21919
690.457	22525
690.474	22777
690.501	22954
690.546	22570
690.590	22566
690.595	22545
690.635	23679
690.680	25013
690.716	26025
690.724	26543
690.769	29334
690.813	32712
690.836	33734
690.857	36844
690.902	44666
690.946	52096
690.957	54045
690.991	71416
691.035	95600
691.077	118045
691.080	118408
691.124	117004
691.168	115192
691.198	114840
691.213	107386
691.257	85154
691.301	62790
691.318	54255
691.346	49788
691.390	41810
691.434	34130
691.439	33321
691.478	32126
691.522	30017
691.559	27998
691.567	27836
691.611	26988
691.655	25922
691.680	25105
691.699	24953
691.743	25302
691.787	25210
691.800	25011
691.831	24886
691.875	25372
691.919	25452
691.921	25412
691.964	25439
692.008	25330
692.041	25218
692.052	25178
692.096	25080
692.139	24853
692.162	24677
692.183	24635
692.227	24552
692.271	24024
692.282	23933
692.315	24322
692.359	24950
692.402	25608
692.403	25654
692.447	25282
692.490	24942
692.523	24569
692.534	24681
692.578	25175
692.622	25343
692.643	25502
692.666	25575
692.709	25632
692.753	25425
692.763	25396
692.797	25540
692.840	25430
692.884	25648
692.884	25705
692.928	26150
692.971	26763
693.004	27185
693.015	27280
693.059	27640
693.102	27928
693.124	27846
693.146	27943
693.189	28631
693.233	28947
693.245	28987
693.276	30188
693.320	31671
693.363	33066
693.365	33067
693.407	35897
693.450	38400
693.485	40464
693.493	41747
693.537	48348
693.580	54637
693.605	58293
693.624	65633
693.667	82651
693.710	100497
693.725	106803
693.753	140094
693.797	193063
693.840	245882
693.845	251293
693.883	248880
693.926	245013
693.966	242594
693.970	238192
694.013	187474
694.056	137462
694.086	102686
694.099	97596
694.142	80765
694.185	63983
694.206	55803
694.229	52813
694.272	47360
694.315	41768
694.326	40122
694.358	37884
694.401	35159
694.444	32463
694.446	32247
694.487	31822
694.530	31464
694.566	31019
694.573	30880
694.616	29640
694.659	28396
694.686	27488
694.702	27290
694.745	26680
694.787	26123
694.806	25673
694.830	25713
694.873	26003
694.916	26083
694.926	26059
694.959	25720
695.002	25389
695.044	24787
695.046	24713
695.087	25261
695.130	25679
695.166	26007
695.172	26087
695.215	26000
695.258	26177
695.286	26169
695.301	26120
695.343	25800
695.386	25589
695.406	25303
695.428	25116
695.471	24806
695.514	24698
695.526	24501
695.556	24677
695.599	25028
695.641	25456
695.646	25418
695.684	25074
695.726	24938
695.766	24404
695.769	24489
695.811	25240
695.854	25598
695.886	26071
695.896	26005
695.938	25233
695.981	24454
696.005	24027
696.023	24216
696.065	24459
696.108	24788
696.125	24824
696.150	25253
696.192	25986
696.235	26499
696.245	26616
696.277	26633
696.319	26487
696.361	26272
696.365	26205
696.404	26870
696.446	27288
696.485	27699
696.488	27742
696.530	27461
696.572	27021
696.604	26690
696.614	26630
696.656	26188
696.698	25557
696.724	25136
696.740	24941
696.783	24308
696.825	23677
696.844	23369
696.867	23763
696.909	24155
696.951	24629
696.964	24733
696.992	24680
697.034	24509
697.076	24398
697.083	24290
697.118	24350
697.160	24436
697.202	24527
697.203	24465
697.244	24077
697.286	23674
697.323	23146
697.327	23186
697.369	23057
697.411	22882
697.442	22758
697.453	23019
697.494	23794
697.536	24586
697.562	25016
697.578	24922
697.620	24443
697.661	24049
697.682	23736
697.703	23629
697.744	23393
697.786	23211
697.801	23023
697.828	23517
697.869	24308
697.911	25015
697.921	25138
697.952	24933
697.994	24609
698.035	24213
698.040	24105
698.077	24155
698.118	24088
698.160	24050
698.160	23983
698.201	23831
698.243	23537
698.279	23238
698.284	23329
698.325	23595
698.367	23855
698.399	24012
698.408	23928
698.449	23186
698.491	22540
698.518	21991
698.532	22288
698.573	23053
698.614	23831
698.638	24200
698.656	24260
698.697	24270
698.738	24251
698.757	24192
698.779	24438
698.820	24748
698.862	25085
698.877	25143
698.903	25257
698.944	25326
698.985	25396
698.996	25350
699.026	25429
699.067	25446
699.116	25401
699.235	24307
699.354	23778
699.474	24349
699.593	24937
699.713	25197
699.832	23989
699.951	23536
700.070	23205
700.190	22888
700.309	23612
700.428	22617
700.547	23216
700.667	22819
700.786	23052
700.905	21245
701.024	22990
701.143	22642
701.262	21155
701.381	20993
701.500	21259
701.619	21208
701.738	20549
701.857	20732
701.976	21147
702.095	20371
702.214	21696
702.333	20964
702.452	20502
702.571	20254
702.690	20700
702.809	19982
702.928	18982
703.047	20011
703.165	19394
703.284	19844
703.403	18711
703.522	20050
703.640	20291
703.759	21681
703.878	24014
703.997	18872
704.115	19671
704.234	19206
704.353	18904
704.471	19272
704.590	18235
704.708	18903
704.827	18036
704.946	18788
705.064	19805
705.183	20093
705.301	24954
705.420	39551
705.538	36008
705.656	29284
705.775	29178
705.893	42709
706.012	52330
706.130	31163
706.249	30099
706.367	30247
706.485	29706
706.604	28700
706.722	28698
706.840	29137
706.958	29702
707.077	28156
707.195	27211
707.313	26712
707.431	26024
707.549	26046
707.668	26076
707.786	26154
707.904	24710
708.022	24613
708.140	25143
708.258	25073
708.376	25855
708.494	24424
708.612	29492
708.730	43294
708.848	40252
708.966	35098
709.084	33637
709.202	32182
709.320	34275
709.438	34850
709.556	35550
709.674	34305
709.791	34892
709.909	31899
710.027	32912
710.145	31986
710.263	33218
710.380	32063
710.498	31024
710.616	31972
710.733	31353
710.851	30656
710.969	31170
711.086	30652
711.204	30101
711.322	29026
711.439	30256
711.557	29677
711.674	28733
711.792	28497
711.909	30777
712.027	31430
712.144	26786
712.262	29175
712.379	31244
712.497	46872
712.614	49857
712.732	40281
712.849	36319
712.966	36194
713.084	40126
713.201	39901
713.318	39658
713.436	38121
713.553	39146
713.670	38078
713.787	39797
713.905	39919
714.022	37366
714.139	35385
714.256	36797
714.373	35940
714.490	35818
714.608	35524
714.725	43833
714.842	45345
714.959	34380
715.076	33127
715.193	32154
715.310	32330
715.427	32505
715.544	29928
715.661	32463
715.778	31679
715.895	36292
716.011	34506
716.128	32493
716.245	30893
716.362	32050
716.479	32652
716.596	30190
716.713	31687
716.829	30858
716.946	31675
717.063	29603
717.180	29244
717.296	28731
717.413	29316
717.530	27790
717.646	28085
717.763	28535
717.880	27579
717.996	27462
718.113	27367
718.229	25767
718.346	26027
718.462	25354
718.579	26910
718.695	27754
718.812	29122
718.928	28812
719.045	25396
719.161	24145
719.277	23138
719.394	23202
719.510	26816
719.626	25062
719.743	30759
719.859	27368
719.975	26044
720.092	27428
720.208	29765
720.324	28017
720.440	24948
720.557	26713
720.673	27889
720.789	34198
720.905	54966
721.021	31511
721.137	25352
721.253	25261
721.369	24479
721.486	25436
721.602	28995
721.718	24241
721.834	21499
721.950	22194
722.066	20872
722.181	21434
722.297	22142
722.413	21218
722.529	22175
722.645	20525
722.761	20240
722.877	22065
722.993	19435
723.108	21746
723.224	19789
723.340	20652
723.456	19960
723.571	20246
723.687	20093
723.803	20015
723.918	18477
724.034	19542
724.150	19123
724.265	19750
724.381	29020
724.497	31517
724.612	18102
724.728	18041
724.843	17699
724.959	19266
725.074	25812
725.190	29423
725.305	18991
725.421	18294
725.536	16435
725.651	17526
725.767	16483
725.882	17703
725.997	16869
726.113	16495
726.228	16764
726.343	17619
726.459	15632
726.574	17009
726.689	15629
726.804	15733
726.920	16859
727.035	16216
727.150	16211
727.265	15691
727.380	16429
727.495	16446
727.610	15566
727.725	15882
727.841	16498
727.956	24670
728.071	23023
728.186	15701
728.301	13312
728.416	15582
728.531	14616
728.645	13058
728.760	15018
728.875	14136
728.990	13448
729.105	15097
729.220	13035
729.335	12971
729.449	13325
729.564	13537
729.679	13141
729.794	13354
729.908	14136
730.023	14187
730.138	11870
730.253	12979
730.367	12397
730.482	12080
730.596	12578
730.711	13135
730.826	11909
730.940	12513
731.055	12766
731.169	12614
731.284	12919
731.398	11636
731.513	12981
731.627	12959
731.742	13234
731.856	12303
731.970	11311
732.085	12022
732.199	11799
732.313	11615
732.428	11808
732.542	14158
732.656	13055
732.771	11375
732.885	10911
732.999	11050
733.113	11834
733.227	11962
733.342	10990
733.456	10909
733.570	10540
733.684	10715
733.798	10909
733.912	10550
734.026	9714
734.140	10518
734.254	10421
734.368	14570
734.482	17443
734.596	10516
734.710	9655
734.824	10712
734.938	9365
735.052	9697
735.166	10477
735.280	10913
735.393	9050
735.507	9815
735.621	11404
735.735	16083
735.849	9939
735.962	9881
736.076	10151
736.190	9971
736.303	11655
736.417	13470
736.531	10224
736.644	10585
736.758	8532
736.872	9282
736.985	8940
737.099	9973
737.212	8908
737.326	8795
737.439	9328
737.553	9346
737.666	9436
737.780	9150
737.893	8084
738.007	9016
738.120	9190
738.233	8869
738.347	9251
738.460	8785
738.573	9029
738.687	8634
738.800	9041
738.913	9355
739.026	8862
739.140	9340
739.253	9821
739.366	9060
739.479	8384
739.592	7929
739.705	8495
739.818	9129
739.932	9056
740.045	8356
740.158	8598
740.271	8882
740.384	8059
740.497	7632
740.610	8299
740.723	8725
740.836	8732
740.949	8253
741.062	8665
741.174	10137
741.287	8317
741.400	8554
741.513	8925
741.626	8967
741.739	8919
741.851	8642
741.964	8125
742.077	9068
742.189	8116
742.302	8827
742.415	7970
742.527	7837
742.640	7602
742.753	8848
742.865	9198
742.978	9012
743.090	8508
743.203	7758
743.316	8907
743.428	8526
743.541	8559
743.653	7893
743.766	7145
743.878	8117
743.990	9381
744.103	8828
744.215	8146
744.327	7611
744.440	7925
744.552	8589
744.664	7511
744.777	7856
744.889	7385
745.001	8243
745.113	7894
745.226	8838
745.338	8286
745.450	8582
745.562	8243
745.674	7700
745.786	7462
745.898	7724
746.010	8026
746.122	7718
746.234	7966
746.347	7730
746.459	8645
746.570	8401
746.682	8194
746.794	8400
746.906	7958
747.018	7723
747.130	7101
747.242	7895
747.354	7959
747.466	9268
747.577	7699
747.689	7903
747.801	7664
747.913	8122
748.024	7142
748.136	7866
748.248	7479
748.359	7869
748.471	7721
748.583	8242
748.694	7981
748.806	10126
748.918	9070
749.029	8231
749.141	9067
749.252	8759
749.364	8648
749.475	8553
749.587	8658
749.698	7955
749.809	8433
749.921	8161
750.032	8631
750.144	7880
750.255	7983
750.366	7787
750.478	7926
750.589	8382
750.700	8034
750.811	9063
750.923	8960
751.034	8201
751.145	9321
751.256	7549
751.367	7783
751.479	8332
751.590	7410
751.701	7871
751.812	8936
751.923	8496
752.034	7856
752.145	8409
752.256	8361
752.367	8061
752.478	8233
752.589	9271
752.700	8581
752.811	8764
752.922	8223
753.032	8459
753.143	8300
753.254	8899
753.365	10213
753.476	9281
753.586	8361
753.697	8507
753.808	8975
753.919	8721
754.029	8214
754.140	8970
754.251	9695
754.361	9278
754.472	9236
754.582	9129
754.693	9032
754.804	9463
754.914	9441
755.025	9456
755.135	9251
755.246	9599
755.356	9237
755.466	8842
755.577	9995
755.687	9784
755.798	8973
755.908	9445
756.018	9097
756.129	9426
756.239	9877
756.349	10006
756.460	9908
756.570	10587
756.680	9773
756.790	10310
756.900	11209
757.011	10700
757.121	10191
757.231	11197
757.341	11443
757.451	11298
757.561	11271
757.671	11664
757.781	10642
757.891	11913
758.001	12177
758.111	12667
758.221	11342
758.331	12298
758.441	12684
758.551	12145
758.661	12315
758.771	12747
758.880	13491
758.990	14556
759.100	14864
759.210	14470
759.320	14415
759.429	14255
759.539	14764
759.649	15020
759.758	16010
759.868	14855
759.978	15289
760.087	16115
760.197	15907
760.307	17064
760.416	16406
760.526	16677
760.635	17582
760.745	18257
760.854	18434
760.964	19047
761.073	18978
761.182	20529
761.292	20691
761.401	21401
761.511	20968
761.620	21073
761.729	20918
761.839	22587
761.948	23511
762.057	23771
762.166	23750
762.276	23937
762.385	27554
762.494	27243
762.603	28243
762.712	29587
762.822	30666
762.931	32580
763.040	32675
763.149	34033
763.258	36110
763.367	38981
763.476	41060
763.585	43505
763.694	44373
763.803	47839
763.912	50260
764.021	53914
764.130	57008
764.238	61521
764.347	64801
764.456	69045
764.565	75388
764.674	82560
764.783	89776
764.891	98951
765.000	112013
765.109	125783
765.217	141374
765.326	163221
765.435	191745
765.543	225881
765.652	270185
765.761	328830
765.869	410216
765.978	512655
766.086	638553
766.195	759857
766.303	772208
766.412	532675
766.520	527064
766.629	738145
766.737	736716
766.846	620173
766.954	497090
767.062	393961
767.171	316384
767.279	254123
767.387	207550
767.496	175101
767.604	151722
767.712	131796
767.820	118503
767.928	109673
768.037	100419
768.145	95781
768.253	92566
768.361	89006
768.469	90472
768.577	92589
768.685	95934
768.793	101912
768.901	111298
769.009	128819
769.117	153898
769.225	189963
769.333	247626
769.441	339339
769.549	473018
769.657	653833
769.765	707686
769.873	508809
769.981	648328
770.088	637138
770.196	489319
770.304	361827
770.412	276018
770.519	216178
770.627	176488
770.735	147083
770.842	124302
770.950	106855
771.058	93909
771.165	83214
771.273	74380
771.380	69651
771.488	62761
771.595	57605
771.703	52456
771.810	49123
771.918	46530
772.025	44035
772.133	40926
772.240	38743
772.348	35862
772.455	34562
772.562	32371
772.670	31343
772.777	30503
772.884	28361
772.991	28248
773.099	27167
773.206	25503
773.313	25125
773.420	23845
773.528	22604
773.635	22188
773.742	22002
773.849	21694
773.956	20333
774.063	20422
774.170	18850
774.277	20296
774.384	19793
774.491	17654
774.598	17649
774.705	17468
774.812	17732
774.919	18261
775.026	17637
775.133	15378
775.239	16794
775.346	16306
775.453	16166
775.560	15123
775.667	15301
775.773	14405
775.880	15179
775.987	15212
776.093	14103
776.200	13365
776.307	13577
776.413	13797
776.520	11840
776.627	13772
776.733	12927
776.840	11859
776.946	13691
777.053	11674
777.159	12366
777.266	10795
777.372	13585
777.478	11301
777.585	11193
777.691	10328
777.798	11580
777.904	11828
778.010	11687
778.117	11628
778.223	10848
778.329	10306
778.435	10570
778.542	10917
778.648	10179
778.754	9963
778.860	10001
778.966	10282
779.072	9922
779.178	10620
779.284	9743
779.391	10636
779.497	10567
779.603	14717
779.708	18515
779.815	37198
779.920	114218
780.026	222536
780.132	52555
780.238	16206
780.344	11691
780.450	11297
780.556	10154
780.661	9450
780.767	8548
780.873	8556
780.979	7919
781.085	6562
781.190	8804
781.296	8262
781.402	7789
781.507	6966
781.613	8091
781.719	6719
781.824	7591
781.930	7713
782.035	8257
782.141	8324
782.246	7205
782.352	6824
782.457	7187
782.563	6619
782.668	6579
782.773	6353
782.879	7282
782.984	7150
783.090	7277
783.195	7651
783.300	6263
783.405	6575
783.511	5802
783.616	6200
783.721	6555
783.826	5875
783.932	6993
784.037	6945
784.142	6873
784.247	6129
784.352	6552
784.457	5946
784.562	5750
784.667	5660
784.772	5801
784.877	7103
784.982	5913
785.087	5111
785.192	6369
785.297	5196
785.402	6334
785.507	5070
785.611	5283
785.716	5403
785.821	6207
785.926	4206
786.031	5358
786.135	5712
786.240	6053
786.345	4569
786.450	5260
786.554	5331
786.659	4839
786.763	4570
786.868	6067
786.973	5101
787.077	4943
787.182	4552
787.286	5405
787.391	5071
787.495	5182
787.600	5036
787.704	4675
787.809	4594
787.913	4259
788.017	5676
788.122	5353
788.226	4864
788.330	4293
788.435	5920
788.539	4451
788.643	3824
788.747	4214
788.852	4005
788.956	4408
789.060	4897
789.164	4638
789.268	4091
789.372	4767
789.476	4448
789.580	3902
789.684	3343
789.788	5234
789.892	3464
789.996	4400
790.100	4141
790.204	3857
790.308	4430
790.412	4849
790.516	4814
790.620	4321
790.724	4842
790.828	4697
790.931	3492
791.035	5556
791.139	4515
791.242	3688
791.346	5510
791.450	3931
791.554	4328
791.657	3202
791.761	5157
791.864	5285
791.968	4319
792.072	3630
792.175	4073
792.279	4301
792.382	3900
792.486	4517
792.589	2719
792.693	5224
792.796	2910
792.899	5619
793.003	3354
793.106	3227
793.209	3862
793.313	4826
793.416	2193
793.519	4992
793.623	4061
793.726	3838
793.829	3799
793.932	4230
794.035	2477
794.138	4767
794.242	5080
794.345	6125
794.448	9347
794.551	18732
794.654	61595
794.757	136078
794.860	32127
794.963	7914
795.066	4832
795.169	5920
795.272	3775
795.375	4525
795.477	3756
795.580	3728
795.683	2091
795.786	4234
795.889	2804
795.991	4749
796.094	3496
796.197	3281
796.300	3818
796.402	3484
796.505	2969
796.608	3342
796.710	4459
796.813	3252
796.915	3103
797.018	3691
797.120	2502
797.223	1645
797.326	3537
797.428	2881
797.530	3184
797.633	3253
797.735	4009
797.838	4277
797.940	4365
798.042	2708
798.145	3189
798.247	4422
798.349	2085
798.452	4003
798.554	2922
798.656	2532
798.758	3919
798.860	3410
798.962	3054
799.065	3791
799.167	2158
799.269	3734
799.371	2861
799.473	2768
799.575	2993
799.677	2867
799.779	4276
799.881	1582
799.983	2783
800.085	2541
800.187	2569
800.289	2087
800.390	2737
800.492	3137
800.594	3784
800.696	2388
800.798	3365
800.899	2045
801.001	2477
801.103	2300
801.205	2189
801.306	2778
801.408	861
801.509	2622
801.611	2029
801.713	2608
801.814	2120
801.916	2552
802.017	1897
802.119	2137
802.220	2465
802.322	1821
802.423	4228
802.525	1598
802.626	2483
802.727	2468
802.829	2420
802.930	373
803.031	3939
803.133	2015
803.234	1968
803.335	2571
803.436	1773
803.538	2371
803.639	1728
803.740	3753
803.841	1854
803.942	1645
804.043	2403
804.144	2043
804.245	1310
804.346	1801
804.447	1484
804.548	1964
804.649	3178
804.750	1519
804.851	1137
804.952	2824
805.053	1641
805.154	982
805.255	2262
805.355	1755
805.456	1060
805.557	1508
805.658	1117
805.758	3321
805.859	2240
805.960	2316
806.061	1800
806.161	2307
806.262	1703
806.362	1789
806.463	1584
806.564	2406
806.664	1562
806.765	2126
806.865	2722
806.966	1757
807.066	1482
807.166	2548
807.267	1871
807.367	1153
807.468	1265
807.568	1194
807.668	1507
807.769	2820
807.869	793
807.969	1653
808.069	1063
808.170	1417
808.270	1458
808.370	2141
808.470	2172
808.570	1095
808.670	798
808.770	2449
808.870	576
808.970	1816
809.070	1317
809.170	1663
809.271	1955
809.370	1564
809.470	2011
809.570	1721
809.670	862
809.770	1881
809.870	2551
809.970	1239
810.070	2136
810.169	2066
810.269	250
810.369	2836
810.469	1456
810.568	1084
810.668	1222
810.768	1687
810.867	1952
810.967	1587
811.066	1582
811.166	874
811.265	2569
811.365	909
811.464	820
811.564	1151
811.663	1689
811.763	-172
811.862	1709
811.962	2344
812.061	1393
812.160	917
812.260	1138
812.359	1339
812.458	1320
812.557	5110
812.657	6629
812.756	3362
812.855	1557
812.954	1615
813.053	2755
813.153	1427
813.252	1274
813.351	1208
813.450	1621
813.549	1583
813.648	1027
813.747	1316
813.846	1631
813.945	590
814.044	603
814.143	1497
814.242	1442
814.341	1096
814.439	1433
814.538	1712
814.637	1702
814.736	1124
814.835	1591
814.933	1424
815.032	1864
815.131	2010
815.229	1078
815.328	1412
815.427	1154
815.525	1553
815.624	1717
815.722	1235
815.821	1118
815.919	1907
816.018	287
816.116	2063
816.215	908
816.313	1748
816.412	607
816.510	1511
816.609	2357
816.707	1562
816.805	1887
816.904	301
817.002	1518
817.100	2696
817.198	1845
817.296	1331
817.395	1669
817.493	2854
817.591	2069
817.689	3293
817.787	3538
817.885	5531
817.983	9306
818.081	19916
818.179	46837
818.277	112751
818.375	118298
818.473	36887
818.571	14617
818.669	8395
818.767	6760
818.865	6993
818.963	8309
819.061	11492
819.158	18543
819.256	39965
819.354	89977
819.452	200411
819.549	156472
819.647	51291
819.745	20657
819.842	11256
819.940	7471
820.038	5398
820.135	4294
820.233	4932
820.330	3427
820.428	3123
820.525	2877
820.623	1944
820.720	871
820.818	2325
820.915	2524
821.012	2090
821.110	583
821.207	2740
821.304	927
821.402	1076
821.499	1842
821.596	2184
821.693	656
821.791	918
821.888	1007
821.985	1928
822.082	1267
822.179	1787
822.276	811
822.373	753
822.470	832
822.567	923
822.664	-330
822.761	1703
822.858	-165
822.955	984
823.052	999
823.149	1005
823.246	753
823.343	782
823.440	1576
823.536	299
823.633	999
823.730	615
823.827	747
823.923	-108
824.020	2346
824.117	1126
824.213	-48
824.310	1542
824.407	1222
824.503	1250
824.600	256
824.696	884
824.793	1302
824.889	261
824.986	749
825.082	734
825.179	1201
825.275	778
825.371	248
825.468	1529
825.564	168
825.660	1046
825.757	870
825.853	1821
825.949	403
826.045	843
826.142	-596
826.238	21
826.334	847
826.430	-48
826.526	1201
826.622	756
826.718	-149
826.814	-184
826.910	2025
827.006	751
827.102	852
827.198	1302
827.294	-25
827.390	1371
827.486	1071
827.582	252
827.678	279
827.774	1174
827.869	252
827.965	817
828.061	188
828.157	1173
828.252	-132
828.348	-468
828.444	1543
828.539	80
828.635	337
828.731	1023
828.826	-362
828.922	1181
829.017	-64
829.113	1036
829.208	-151
829.304	-295
829.399	1961
829.495	-19
829.590	516
829.685	-23
829.781	1493
829.876	739
829.971	499
830.066	866
830.162	-129
830.257	479
830.352	672
830.447	1028
830.543	1347
830.638	-696
830.733	754
830.828	764
830.923	581
831.018	496
831.113	786
831.208	438
831.303	625
831.398	921
831.493	340
831.588	-202
831.683	-578
831.778	1524
831.873	117
831.967	1457
832.062	449
832.157	-169
832.252	461
832.346	398
832.441	327
832.536	547
832.631	1251
832.725	1990
832.820	149
832.914	373
833.009	-156
833.104	1248
833.198	1015
833.293	193
833.387	318
833.482	599
833.576	-579
833.670	1387
833.765	318
833.859	798
833.954	702
834.048	371
834.142	-58
834.237	196
834.331	171
834.425	425
834.519	-299
834.613	1192
834.708	632
834.802	809
834.896	-305
834.990	-50
835.084	269
835.178	667
835.272	665
835.366	9
835.460	1103
835.554	622
835.648	61
835.742	425
835.836	176
835.930	255
836.024	662
836.117	1937
836.211	-81
836.305	1778
836.399	2417
836.493	-957
836.586	866
836.680	391
836.774	-204
836.867	1094
836.961	-412
837.055	138
837.148	-175
837.242	990
837.335	172
837.429	218
837.522	-87
837.616	929
837.709	2331
837.803	944
837.896	1481
837.989	728
838.083	1516
838.176	3053
838.269	2753
838.363	1072
838.456	241
838.549	890
838.642	581
838.735	2250
838.829	1702
838.922	154
839.015	70
839.108	170
839.201	376
839.294	514
839.387	981
839.480	49
839.573	914
839.666	1135
839.759	1344
839.852	-45
839.945	263
840.038	-341
840.131	107
840.223	700
840.316	1092
840.409	386
840.502	-495
840.594	1611
840.687	-1214
840.780	815
840.873	-253
840.965	639
841.058	737
841.150	2240
841.243	1461
841.336	1240
841.428	460
841.521	-193
841.613	-403
841.706	776
841.798	288
841.890	181
841.983	-573
842.075	1093
842.167	659
842.260	159
842.352	1734
842.444	1569
842.537	3346
842.629	4929
842.721	1881
842.813	1376
842.905	-625
842.997	1189
843.090	311
843.182	1547
843.274	3159
843.366	7765
843.458	13239
843.550	9282
843.642	1542
843.734	656
843.826	544
843.918	1398
844.009	934
844.101	529
844.193	115
844.285	526
844.377	1066
844.469	750
844.560	198
844.652	353
844.744	463
844.835	512
844.927	287
845.019	526
845.110	136
845.202	1028
845.293	509
845.385	184
845.476	453
845.568	1323
845.659	698
845.751	801
845.842	123
845.934	106
846.025	23
846.116	743
846.208	388
846.299	956
846.390	494
846.482	779
846.573	1061
846.664	985
846.755	884
846.846	1156
846.937	-249
847.029	959
847.120	-313
847.211	-361
847.302	1390
847.393	-412
847.484	356
847.575	-138
847.666	51
847.757	478
847.847	185
847.938	650
848.029	389
848.120	314
848.211	371
848.302	-357
848.392	440
848.483	591
848.574	218
848.664	11
848.755	772
848.846	455
848.936	421
849.027	-45
849.118	80
849.208	572
849.299	-128
849.389	611
849.480	42
849.570	-492
849.661	218
849.751	438
849.841	136
849.932	179
850.022	210
850.112	457
850.203	328
850.293	-302
850.383	1053
850.474	-572
850.564	-372
850.654	1035
850.744	-272
850.834	1095
850.924	715
851.014	275
851.104	338
851.194	531
851.284	196
851.374	521
851.464	69
851.554	802
851.644	72
851.734	1502
851.824	1449
851.914	2113
852.004	4549
852.094	3961
852.183	1326
852.273	224
852.363	291
852.452	-186
852.542	125
852.632	-56
852.721	381
852.811	367
852.901	291
852.990	-251
853.080	414
853.169	390
853.259	-1062
853.348	-489
853.438	51
853.527	260
853.617	198
853.706	215
853.795	-426
853.885	971
853.974	400
854.063	1348
854.152	1132
854.242	87
854.331	273
854.420	598
854.509	222
854.598	587
854.687	342
854.777	228
854.866	-362
854.955	378
855.044	-4
855.133	-499
855.222	-186
855.311	117
855.400	392
855.488	-380
855.577	174
855.666	252
855.755	593
855.844	617
855.933	20
856.021	1228
856.110	726
856.199	-369
856.288	-426
856.376	-282
856.465	-440
856.554	48
856.642	191
856.731	-628
856.819	572
856.908	268
856.996	39
857.085	55
857.173	41
857.262	133
857.350	176
857.438	200
857.527	314
857.615	-442
857.703	376
857.792	-153
857.880	-61
857.968	147
858.056	-538
858.145	-261
858.233	355
858.321	-536
858.409	346
858.497	-802
858.585	-316
858.673	682
858.761	-563
858.849	133
858.937	-390
859.025	941
859.113	-200
859.201	-864
859.289	730
859.377	-149
859.465	444
859.552	332
859.640	-607
859.728	659
859.816	322
859.903	357
859.991	-286
860.079	372
860.166	-103
860.254	-140
860.342	-454
860.429	-1189
860.517	-561
860.604	490
860.692	-246
860.779	95
860.867	-713
860.954	-328
861.042	48
861.129	-46
861.216	-248
861.304	-763
861.391	-225
861.478	652
861.565	39
861.653	675
861.740	-571
861.827	-650
861.914	-230
862.001	-198
862.089	-1123
862.176	-46
862.263	-1203
862.350	-678
862.437	-178
862.524	438
862.611	-620
862.698	-278
862.785	-38
862.871	-170
862.958	-838
863.045	39
863.132	35
863.219	343
863.306	-1098
863.392	-238
863.479	-949
863.566	26
863.652	-140
863.739	35
863.826	180
863.912	423
863.999	-936
864.086	-144
864.172	-652
864.259	417
864.345	-311
864.432	389
864.518	-637
864.604	-20
864.691	-275
864.777	474
864.863	-405
864.950	-43
865.036	-1294
865.122	377
865.209	-1070
865.295	-47
865.381	-617
865.467	-96
865.553	-417
865.639	-1052
865.726	-421
865.812	-697
865.898	470
865.984	328
866.070	564
866.156	1179
866.242	-428
866.328	-661
866.414	-349
866.499	-117
866.585	-223
866.671	-219
866.757	-310
866.843	-326
866.928	-325
867.014	-320
867.100	-4
867.186	321
867.271	-747
867.357	524
867.442	1293
867.528	567
867.614	-500
867.699	-1250
867.785	501
867.870	-685
867.956	-116
868.041	-23
868.127	-387
868.212	-37
868.297	-753
868.383	-579
868.468	-475
868.553	518
868.639	-496
868.724	1215
868.809	1137
868.894	130
868.979	-163
869.065	-570
869.150	-618
869.235	280
869.320	-779
869.405	38
869.490	-953
869.575	-669
869.660	-489
869.745	-553
869.830	-965
869.915	-538
870.000	-333
870.085	-613
870.169	-891
870.254	-312
870.339	-1343
870.424	-1091
870.509	-684
870.593	-1154
870.678	230
870.763	-1114
870.847	-773
870.932	-847
871.016	-617
871.101	-781
871.186	-1044
871.270	-284
871.355	-1810
871.439	-184
871.523	-826
871.608	-582
871.692	-779
871.777	-965
871.861	-1101
871.945	-324
872.030	-694
872.114	-1263
872.198	-905
872.282	-760
872.367	-821
872.451	-1073
872.535	-1062
872.619	-132
872.703	-746
872.787	-113
872.871	-1198
872.955	-1558
873.039	-308
873.123	-391
873.207	118
873.291	-1462
873.375	-1061
873.459	-94
873.543	-1456
873.627	-845
873.711	-728
873.794	-323
873.878	-1540
873.962	-982
874.045	-1238
874.129	-104
874.137	-201
874.213	-1175
874.245	-812
874.296	-227
874.352	-677
874.380	-899
874.460	-822
874.464	-820
874.547	-721
874.568	-640
874.631	-385
874.676	-409
874.714	-451
874.784	-402
874.798	-381
874.881	229
874.892	112
874.965	-734
874.999	-896
875.048	-1117
875.107	-1342
875.131	-1446
875.215	-1165
875.215	-1164
875.298	-285
875.323	-430
875.381	-788
875.430	-940
875.465	-1009
875.538	-1107
875.548	-1136
875.631	-807
875.646	-792
875.714	-644
875.753	-816
875.798	-1061
875.861	-936
875.881	-875
875.964	-661
875.968	-700
876.047	-1357
876.076	-965
876.130	-315
876.183	-539
876.213	-652
876.291	-726
876.296	-730
876.379	-555
876.398	-601
876.462	-769
876.506	-1048
876.545	-1276
876.613	-791
876.628	-727
876.711	-1016
876.721	-1045
876.794	-987
876.828	-779
876.877	-515
876.935	-255
876.960	-121
877.043	-697
877.043	-695
877.125	-264
877.150	-413
877.208	-693
877.258	-762
877.291	-796
877.365	-891
877.374	-896
877.456	-597
877.472	-575
877.539	-513
877.579	-302
877.622	-63
877.687	88
877.704	94
877.787	-206
877.794	-255
877.869	-590
877.901	-367
877.952	-66
878.008	-274
878.034	-403
878.115	-635
878.117	-632
878.199	-563
878.222	-271
878.282	160
878.329	-361
878.364	-613
878.437	-267
878.447	-227
878.529	112
878.544	49
878.611	-327
878.651	-383
878.694	-406
878.758	-476
878.776	-530
878.858	-998
878.865	-966
878.941	-472
878.972	-635
879.023	-760
879.078	-536
879.105	-489
879.185	-939
879.187	-944
879.269	-347
879.292	-384
879.351	-613
879.399	-399
879.433	-229
879.506	-380
879.516	-384
879.598	348
879.613	185
879.680	-851
879.720	-819
879.762	-577
879.827	-1222
879.844	-1383
879.926	-254
879.933	-285
880.007	-664
880.040	-676
880.089	-660
880.147	-231
880.171	-114
880.253	-325
880.254	-327
880.335	-439
880.360	-231
880.417	207
880.467	-171
880.499	-465
880.574	113
880.580	165
880.662	-239
880.680	-368
880.744	-522
880.787	-251
880.825	-349
880.893	-676
880.907	-680
880.989	-807
881.000	-819
881.070	-572
881.106	-356
881.152	-143
881.213	182
881.233	164
881.315	-307
881.319	-329
881.396	-530
881.426	-637
881.478	-632
881.532	-259
881.559	-112
881.639	-305
881.641	-314
881.722	-598
881.745	-727
881.803	-757
881.852	-529
881.885	-476
881.958	-321
881.966	-295
882.047	-363
882.064	-282
882.129	-95
882.171	-150
882.210	-107
882.277	195
882.291	251
882.372	-381
882.383	-402
882.454	-404
882.489	-372
882.535	-649
882.596	-960
882.616	-916
882.697	-563
882.702	-565
882.778	-487
882.808	-227
882.859	194
882.914	138
882.940	52
883.020	246
883.021	245
883.102	-521
883.127	-712
883.183	-431
883.233	-25
883.264	-40
883.339	-220
883.345	-226
883.426	-839
883.445	-861
883.507	-642
883.551	-424
883.587	-509
883.657	-457
883.668	-339
883.749	-460
883.763	-395
883.830	-337
883.869	-120
883.910	10
883.975	-125
883.991	-116
884.072	147
884.081	126
884.152	-287
884.187	-479
884.233	-689
884.292	-559
884.314	-465
884.394	-247
884.398	-259
884.475	-393
884.504	-278
884.555	-256
884.610	-441
884.636	-498
884.716	-581
884.716	-579
884.797	-370
884.821	-373
884.877	-128
884.927	133
884.958	105
885.033	181
885.038	184
885.118	-277
885.139	-350
885.199	-321
885.244	-117
885.279	-141
885.350	-428
885.359	-381
885.439	271
885.456	301
885.520	-105
885.561	-166
885.600	-21
885.667	-8
885.680	-38
885.760	164
885.773	124
885.840	-262
885.878	-292
885.920	-239
885.984	-525
886.000	-477
886.080	-132
886.089	-93
886.160	-497
886.195	-574
886.240	-102
886.300	284
886.320	205
886.400	97
886.406	72
886.480	25
886.511	73
886.560	14
886.616	-182
886.640	-164
886.720	-7
886.722	-3
886.800	-405
886.827	-617
886.879	-195
886.932	243
886.959	283
887.038	365
887.039	364
887.119	-18
887.143	-70
887.198	194
887.248	139
887.278	-111
887.354	-405
887.358	-396
887.437	-384
887.459	-352
887.517	-74
887.564	56
887.596	-67
887.669	-293
887.676	-300
887.755	-386
887.774	-403
887.835	1
887.880	325
887.914	430
887.985	423
887.994	306
888.073	-481
888.090	-680
888.153	-667
888.195	-660
888.232	-524
888.300	-206
888.311	-187
888.391	-66
888.405	-59
888.470	107
888.510	249
888.549	210
888.615	166
888.628	161
888.708	3
888.720	4
888.787	120
888.825	108
888.866	-13
888.930	-144
888.945	-74
889.024	310
889.035	358
889.103	326
889.140	304
889.182	196
889.245	63
889.261	-8
889.340	-373
889.349	-412
889.419	-295
889.454	-227
889.498	-305
889.559	-405
889.577	-271
889.656	322
889.664	382
889.735	525
889.768	592
889.814	468
889.873	300
889.978	-68
890.083	387
890.187	-9
890.292	155
890.397	-118
890.501	267
890.606	-62
890.710	611
890.815	233
890.919	422
891.024	-501
891.128	299
891.233	288
891.337	168
891.442	-337
891.546	-721
891.650	-464
891.755	-256
891.859	1023
891.963	34
892.068	-214
892.172	172
892.276	-854
892.380	-139
892.484	-839
892.589	-6
892.693	-1251
892.797	-427
892.901	-709
893.005	286
893.109	264
893.213	453
893.317	-260
893.421	-699
893.525	-714
893.629	8
893.733	-448
893.837	-98
893.941	58
894.045	800
894.148	-592
894.252	315
894.356	-616
894.460	130
894.564	-414
894.667	80
894.771	-297
894.875	-197
894.978	182
895.082	-659
895.186	-637
895.289	-232
895.393	-603
895.496	585
895.600	-46
895.703	-134
895.807	-305
895.910	-807
896.014	-257
896.117	273
896.221	-88
896.324	137
896.427	-350
896.531	-246
896.634	-618
896.737	379
896.840	-337
896.944	-595
897.047	-41
897.150	-442
897.253	-908
897.356	123
897.460	-616
897.563	-801
897.666	-402
897.769	973
897.872	-406
897.975	-260
898.078	-76
898.181	282
898.284	-235
898.387	-501
898.490	-753
898.593	-731
898.695	-149
898.798	-263
898.901	213
899.004	-138
899.107	223
899.209	-234
899.312	-92
899.415	-382
899.518	339
899.620	-463
899.723	12
899.826	-384
899.928	-13
900.031	-570
900.133	-769
900.236	149
900.338	-313
900.441	-1047
900.543	-353
900.646	-186
900.748	-705
900.851	545
900.953	-564
901.055	-79
901.158	-530
901.260	-444
901.362	-66
901.465	-662
901.567	-434
901.669	-648
901.771	-703
901.873	-632
901.976	-818
902.078	296
902.180	-22
902.282	-491
902.384	-247
902.486	67
902.588	-231
902.690	-283
902.792	672
902.894	152
902.996	-518
903.098	-257
903.200	-606
903.302	-279
903.404	-685
903.505	-377
903.607	-313
903.709	-1151
903.811	-1194
903.913	-29
904.014	-567
904.116	-409
904.218	-178
904.319	-76
904.421	-64
904.523	-746
904.624	1245
904.726	-760
904.827	-1088
904.929	-747
905.030	-795
905.132	-548
905.233	53
905.335	-24
905.436	-534
905.537	450
905.639	-268
905.740	-346
905.841	-226
905.943	-541
906.044	-219
906.145	113
906.247	-254
906.348	-278
906.449	889
906.550	-1184
906.651	213
906.752	-939
906.854	-883
906.955	-917
907.056	-346
907.157	-1109
907.258	-315
907.359	-379
907.460	-1612
907.561	-420
907.662	-448
907.762	-268
907.863	-1142
907.964	-193
908.065	432
908.166	-670
908.267	-87
908.367	-1154
908.468	-525
908.569	88
908.670	-666
908.770	-279
908.871	-555
908.971	347
909.072	-93
909.173	41
909.273	-541
909.374	555
909.474	-1424
909.575	180
909.675	-565
909.776	-302
909.876	-271
909.977	-549
910.077	218
910.177	174
910.278	-496
910.378	-875
910.478	-970
910.579	-423
910.679	-385
910.779	-192
910.879	-78
910.980	-507
911.080	-975
911.180	-402
911.280	-250
911.380	547
911.480	-642
911.580	-415
911.680	-1289
911.780	-42
911.880	124
911.980	-713
912.080	401
912.180	13
912.280	-230
912.380	-364
912.480	-175
912.580	-308
912.679	-838
912.779	-50
912.879	-296
912.979	-361
913.078	-899
913.178	-409
913.278	-419
913.377	-475
913.477	-641
913.577	-403
913.676	-210
913.776	-590
913.875	-974
913.975	189
914.074	-107
914.174	-701
914.273	-1431
914.373	-388
914.472	-1357
914.572	-1672
914.671	-474
914.770	-587
914.870	-72
914.969	-376
915.068	-658
915.167	302
915.267	-1225
915.366	-1172
915.465	-584
915.564	-799
915.663	-372
915.763	-767
915.862	41
915.961	-158
916.060	-1175
916.159	-1046
916.258	-527
916.357	-604
916.456	16
916.555	-246
916.654	-964
916.752	-410
916.851	-516
916.950	-309
917.049	-946
917.148	-741
917.247	-907
917.345	-437
917.444	-425
917.543	-547
917.642	-568
917.740	233
917.839	-474
917.937	-94
918.036	-642
918.135	-407
918.233	-616
918.332	-480
918.430	-1333
918.529	312
918.627	-580
918.726	208
918.824	-582
918.923	-719
919.021	-246
919.119	-1540
919.218	-1144
919.316	-646
919.414	-382
919.512	-320
919.611	-1144
919.709	259
919.807	-453
919.905	-581
920.003	-909
920.102	-283
920.200	-831
920.298	-250
920.396	-254
920.494	-527
920.592	-682
920.690	-255
920.788	-930
920.886	-1044
920.984	-248
921.082	-798
921.180	114
921.277	-49
921.375	-323
921.473	-639
921.571	-650
921.669	-1155
921.766	-776
921.864	122
921.962	-641
922.060	-38
922.157	-814
922.255	141
922.352	608
922.450	896
922.548	-137
922.645	-1323
922.743	-22
922.840	-254
922.938	-465
923.035	-849
923.133	-457
923.230	-757
923.327	-398
923.425	256
923.522	-685
923.619	-872
923.717	-611
923.814	-399
923.911	-1109
924.008	-219
924.106	-984
924.203	-421
924.300	-1464
924.397	-857
924.494	118
924.591	-161
924.688	-600
924.786	-80
924.883	326
924.979	-82
925.077	-554
925.173	352
925.270	-73
925.367	-865
925.464	-833
925.561	-70
925.658	-98
925.755	-385
925.852	-1025
925.948	-23
926.045	-71
926.142	-953
926.239	-115
926.335	-293
926.432	-67
926.529	42
926.625	-397
926.722	-442
926.818	-939
926.915	-271
927.011	-849
927.108	-395
927.204	68
927.301	-473
927.397	-401
927.494	-506
927.590	-593
927.687	-734
927.783	-375
927.879	-371
927.976	-425
928.072	10
928.168	-894
928.264	-773
928.361	-974
928.457	-1091
928.553	-1122
928.649	118
928.745	20
928.841	-176
928.937	-579
929.033	-207
929.129	-687
929.225	3
929.321	-239
929.417	-503
929.513	-714
929.609	-453
929.705	-812
929.801	-1118
929.897	-465
929.993	-571
930.089	-613
930.184	-116
930.280	-139
930.376	-183
930.471	-420
930.567	-632
930.663	-497
930.758	-845
930.854	-853
930.950	-413
931.045	-735
931.141	148
931.236	-685
931.332	435
931.427	-380
931.523	-297
931.618	-421
931.714	-799
931.809	-527
931.905	-527
932.000	-280
932.095	-532
932.191	-1305
932.286	-686
932.381	-474
932.476	-357
932.572	-1036
932.667	-330
932.762	-524
932.857	-426
932.952	-93
933.047	-773
933.142	-30
933.237	-196
933.332	-770
933.427	-205
933.522	-366
933.617	-595
933.712	-430
933.807	-298
933.902	-490
933.997	-517
934.092	-717
934.187	-358
934.282	-1028
934.376	-701
934.471	-688
934.566	-583
934.661	-744
934.755	-217
934.850	-1781
934.945	-811
935.039	-747
935.134	288
935.228	-680
935.323	-1130
935.417	531
935.512	420
935.606	-916
935.701	-842
935.795	-953
935.890	-1143
935.984	-1143
936.079	-968
936.173	197
936.267	-433
936.362	-381
936.456	741
936.550	-978
936.644	-1730
936.738	-427
936.833	-238
936.927	-856
937.021	-806
937.115	-84
937.209	-1756
937.303	-1
937.397	-788
937.491	-1165
937.585	-989
937.679	-752
937.773	-578
937.867	-733
937.961	-106
938.055	-395
938.149	-974
938.243	-660
938.337	177
938.430	-527
938.524	699
938.618	-1089
938.712	-342
938.805	-256
938.899	-615
938.993	-1120
939.086	-502
939.180	288
939.274	-943
939.367	-199
939.461	-71
939.554	-869
939.648	-1121
939.741	-454
939.835	-488
939.928	-884
940.022	-63
940.115	-1091
940.208	-858
940.302	-1300
940.395	-591
940.488	-1223
940.582	-134
940.675	-1730
940.768	-776
940.861	-1477
940.954	-1045
941.048	-1044
941.141	-195
941.234	-1729
941.327	-796
941.420	219
941.513	-512
941.606	-1062
941.699	-101
941.792	-943
941.885	-1058
941.978	-1129
942.071	-1426
942.164	-1505
942.257	-491
942.349	-1379
942.442	-1349
942.535	-625
942.628	35
942.721	-413
942.813	-1728
942.906	-463
942.999	-292
943.091	-268
943.184	-1007
943.277	-244
943.369	-579
943.462	-146
943.554	-1028
943.647	-1290
943.739	-481
943.832	-973
943.924	-933
944.017	-444
944.109	-1660
944.201	-407
944.294	-257
944.386	-831
944.478	-895
944.571	-856
944.663	-975
944.755	-352
944.847	-272
944.940	-528
945.032	-392
945.124	-1118
945.216	95
945.308	-306
945.400	-626
945.492	-145
945.584	-405
945.676	-227
945.768	-1298
945.860	-331
945.952	-1374
946.044	-479
946.136	-996
946.228	-290
946.320	-518
946.412	-979
946.503	-921
946.595	351
946.687	-729
946.779	-597
946.870	-367
946.962	-251
947.054	-349
947.145	-656
947.237	-1188
947.329	-734
947.420	-1063
947.512	-806
947.603	-1406
947.695	-1291
947.786	-830
947.878	-840
947.969	-424
948.061	-1965
948.152	-706
948.243	-1072
948.335	-290
948.426	-1139
948.517	-1074
948.609	-987
948.700	-1071
948.791	-1354
948.882	-661
948.973	-930
949.065	-15
949.156	-1557
949.247	-1086
949.338	-421
949.429	-1608
949.520	-778
949.611	-1721
949.702	-180
949.793	-1069
949.884	-1246
949.975	-1156
950.066	-1149
950.157	-1027
950.247	-1628
950.338	-1570
950.429	-1239
950.520	-997
950.611	-1183
950.701	-735
950.792	-796
950.883	-581
950.973	-125
951.064	-1190
951.155	-1366
951.245	657
951.336	-1366
951.427	-1146
951.517	-376
951.608	-851
951.698	-1484
951.788	-520
951.879	-737
951.969	-1213
952.060	-1406
952.150	-1298
952.240	-972
952.331	-2208
952.421	122
952.511	-1772
952.602	-585
952.692	-931
952.782	-945
952.872	-1575
952.962	-1388
953.052	-1041
953.143	-1207
953.233	-479
953.323	-672
953.413	-681
953.503	-1507
953.593	-952
953.683	-594
953.773	-1605
953.863	-686
953.953	-1128
954.042	-918
954.132	-1688
954.222	-1151
954.312	-1117
954.402	-1074
954.492	-255
954.581	-543
954.671	-1206
954.761	-1959
954.850	-161
954.940	-837
955.030	-889
955.119	-1544
955.209	-912
955.298	-835
955.388	-903
955.477	-348
955.567	-1273
955.656	105
955.746	-1031
955.835	-588
955.925	-917
956.014	-1241
956.103	-1349
956.193	-1433
956.282	-638
956.371	-730
956.461	-1123
956.550	-1622
956.639	-985
956.728	-1498
956.817	-1131
956.906	-749
956.995	-611
957.085	-1397
957.174	-916
957.263	-1336
957.352	-1484
957.441	-824
957.530	-765
957.619	-352
957.708	-1074
957.796	-1553
957.885	-1723
957.974	-1714
958.063	-406
958.152	-1536
958.241	-1112
958.329	-513
958.418	-981
958.507	-1748
958.596	130
958.684	-1401
958.773	-1004
958.861	-1078
958.950	-562
959.039	-866
959.127	-864
959.216	-805
959.304	-754
959.393	-880
959.481	-1178
959.570	-1602
959.658	-1071
959.746	-1548
959.835	-254
959.923	-1324
960.011	-364
960.100	-75
960.188	-797
960.276	-1957
960.365	-324
960.453	-736
960.541	-714
960.629	-1248
960.717	-855
960.805	-2274
960.893	-654
960.981	-1174
961.069	65
961.158	-1261
961.245	-755
961.333	-1290
961.421	-2014
961.509	-876
961.597	-306
961.685	-1180
961.773	-1127
961.861	-1261
961.949	-875
962.036	-1787
962.124	-94
962.212	-387
962.299	-1192
962.387	-1465
962.475	-610
962.562	-2090
962.650	-608
962.738	-1044
962.825	-1343
962.913	-823
963.000	-1380
963.088	-1319
963.175	-1486
963.263	-1435
963.350	-1764
963.438	-619
963.525	-1765
963.612	66
963.700	-356
963.787	1339
963.874	572
963.962	-1414
964.049	-934
964.136	-1134
964.223	-1136
964.310	-1731
964.398	-1342
964.485	-1180
964.572	-960
964.659	-1052
964.746	-700
964.833	-691
964.920	-747
965.007	-1090
965.094	-146
965.181	-1989
965.268	-1008
965.355	-1359
965.441	-1483
965.528	-1490
965.615	-994
965.702	-1210
965.789	-1869
965.875	-1442
965.962	-596
966.049	-1214
966.136	-949
966.222	-1921
966.309	-845
966.395	-1822
966.482	-1172
966.569	-1444
966.655	-1121
966.742	-1269
966.828	-1160
966.915	-1158
967.001	-978
967.087	-1038
967.174	-721
967.260	-1593
967.347	-911
967.433	-376
967.519	310
967.605	-1023
967.692	-1734
967.778	-1382
967.864	-1619
967.950	-1391
968.036	-1286
968.123	-1759
968.209	-1418
968.295	-1803
968.381	-734
968.467	-561
968.553	-1932
968.639	-315
968.725	-1385
968.811	-1071
968.897	-178
968.983	-380
969.069	-1036
969.154	-533
969.240	-622
969.326	-1429
969.412	-1470
969.497	-1886
969.583	-1429
969.669	-996
969.755	-927
969.840	-2507
969.926	-1127
970.012	-1228
970.097	-826
970.183	-2057
970.268	-2026
970.354	-829
970.439	-1972
970.525	677
970.610	-1865
970.696	-649
970.781	-1202
970.866	-1755
970.952	-1244
971.037	-1633
971.122	-1541
971.208	-1323
971.293	-1468
971.378	-2654
971.463	-645
971.549	-1260
971.634	-1194
971.719	-1078
971.804	-1344
971.889	-847
971.974	-1034
972.059	-1982
972.144	-1269
972.229	-1563
972.314	-1686
972.399	-829
972.484	-1607
972.569	-1215
972.654	-1862
972.739	-678
972.824	-876
972.908	-1055
972.993	-913
973.078	-1917
973.163	-1014
973.247	-875
973.332	-2205
973.417	-482
973.501	-2305
973.586	-1415
973.671	-571
973.755	-1331
973.840	-1063
973.924	-450
974.009	-1205
974.093	-1355
974.178	-393
974.262	-1038
974.346	-1245
974.431	-667
974.515	-1092
974.600	-1411
974.684	-1018
974.768	-1279
974.852	-866
974.937	-2459
975.021	-1744
975.105	-1280
975.189	-1959
975.273	-1012
975.358	-1195
975.442	-2256
975.526	-768
975.610	-1900
975.694	-1525
975.778	-447
975.862	-1487
975.946	-3102
976.030	-68
976.114	-2103
976.198	-723
976.281	-1488
976.365	-427
976.449	-2388
976.533	-1288
976.617	-1317
976.700	-1518
976.784	-1621
976.868	-814
976.951	-822
977.035	-1399
977.119	-1264
977.202	-1398
977.286	-1277
977.369	-633
977.453	-1533
977.536	-924
977.620	-1517
977.703	-1436
977.787	-1641
977.870	-174
977.953	-584
978.037	-2236
978.120	-462
978.203	-1143
978.287	-961
978.370	-817
978.453	-1056
978.536	-1647
978.620	-1061
978.703	-1004
978.786	-2256
978.869	-2187
978.952	-2318
979.035	-351
979.118	-1366
979.201	-962
979.284	-1337
979.367	-1286
979.450	-1104
979.533	-1234
979.616	-1997
979.699	-1358
979.782	-1164
979.865	-1380
979.948	-1910
980.030	-1840
980.113	-1313
980.196	-2206
980.279	-1305
980.361	-1311
980.444	-1452
980.526	-1649
980.609	-1671
980.692	-1583
980.774	-814
980.857	-2562
980.939	-1133
981.022	-1595
981.104	-1734
981.187	-2117
981.269	-1146
981.352	-1190
981.434	-2353
981.516	-1845
981.599	-362
981.681	-850
981.763	-1108
981.846	-1337
981.928	-1319
982.010	-1761
982.092	-1405
982.174	-1283
982.256	-1760
982.339	-2033
982.421	-2050
982.503	-840
982.585	-2119
982.667	-1018
982.749	-1674
982.831	-1426
982.913	-2778
982.995	-477
983.077	-2405
983.158	-855
983.240	-2158
983.322	-718
983.404	-2090
983.486	-2096
983.568	-1265
983.649	-1822
983.731	-1793
983.813	-1746
983.894	-1484
983.976	-1269
984.058	-1241
984.139	-1067
984.221	-2201
984.302	-721
984.384	-1628
984.465	-2467
984.547	-816
984.628	-1924
984.710	-1602
984.791	-1916
984.872	-1265
984.954	-934
985.035	-1939
985.116	-2096
985.198	-2129
985.279	-847
985.360	-1107
985.441	-1573
985.522	-1403
985.604	-1578
985.685	-2948
985.766	-249
985.847	81
985.928	-1836
986.009	-1650
986.090	-1919
986.171	-523
986.252	-1059
986.333	-1571
986.414	-1847
986.495	-1961
986.576	-2291
986.656	-2641
986.737	-1303
986.818	-1427
986.899	-2046
986.980	-2361
987.060	13
987.141	-1099
987.222	-1009
987.302	-1354
987.383	-1288
987.464	-2063
987.544	-1491
987.625	-2553
987.705	-1065
987.786	-1747
987.866	-997
987.947	-1727
988.027	-2052
988.108	-2096
988.188	-673
988.268	-1376
988.349	-1457
988.429	-1738
988.509	-1873
988.589	-1244
988.670	-2774
988.750	-506
988.830	-1647
988.910	-911
988.990	-1523
989.070	-1375
989.151	-1070
989.231	-1466
989.311	-1842
989.391	-1317
989.471	-891
989.551	-2182
989.631	-1417
989.711	-1064
989.791	-1632
989.870	-1447
989.950	-407
990.030	-2302
990.110	-1106
990.190	-2211
990.269	-2040
990.349	-1341
990.429	-1691
990.509	-1671
990.588	-2280
990.668	-1259
990.747	-1012
990.827	-2092
990.907	-950
990.986	-1933
991.066	-1238
991.145	-2317
991.225	-1270
991.304	-1096
991.383	-1965
991.463	-1345
991.542	-1003
991.622	-1398
991.701	-1414
991.780	-2542
991.859	-1206
991.939	-1994
992.018	-1489
992.097	-1359
992.176	-1431
992.256	-2291
992.335	-1418
992.414	-856
992.493	-1538
992.572	-2034
992.651	-982
992.730	-1935
992.809	-1451
992.888	-2037
992.967	-1656
993.046	-1070
993.125	-2997
993.203	-1251
993.282	-1672
993.361	-1403
993.440	-620
993.519	-2437
993.597	-1303
993.676	-1300
993.755	-1170
993.834	-1211
993.912	-1896
993.991	-618
994.069	-1982
994.148	-2217
994.226	-1824
994.305	-960
994.384	-1939
994.462	-761
994.540	-1988
994.619	-1593
994.697	-822
994.776	-2439
994.854	-1895
994.932	-1609
995.011	-1447
995.089	-1934
995.167	-1958
995.245	-2129
995.324	-1985
995.402	-1020
995.480	-1546
995.558	-1406
995.636	-1999
995.714	-1870
995.792	-488
995.870	-1547
995.948	-2023
996.026	-1028
996.104	-2593
996.182	-1227
996.260	-1719
996.338	-542
996.416	-2828
996.494	-2501
996.572	-17
996.649	-1823
996.727	-2537
996.805	-795
996.883	-2104
996.960	-2648
997.038	-720
997.116	-912
997.193	-1940
997.271	-1175
997.348	-2020
997.426	-1370
997.504	-1269
997.581	-1130
997.658	-1014
997.736	-2782
997.813	-2311
997.891	-242
997.968	-1684
998.046	-1457
998.123	-1652
998.200	-862
998.277	-2432
998.355	-749
998.432	-1801
998.509	-1816
998.586	-702
998.663	-1799
998.741	-1062
998.818	-1554
998.895	-1481
998.972	-1175
999.049	-1869
999.126	-1864
999.203	-1535
999.280	-676
999.357	-2413
999.434	-1889
999.511	-1818
999.587	-936
999.664	-2781
999.741	-1394
999.818	-1855
999.895	-2642
999.971	-1978
1000.048	-1589
1000.125	-692
1000.202	-2580
1000.278	-1988
1000.355	-2254
1000.431	-1519
1000.508	-1604
1000.584	-685
1000.661	-741
1000.738	-1556
1000.814	-2167
1000.890	-1553
1000.967	-1605
1001.043	-1972
1001.120	-2228
1001.196	-1311
1001.272	-2229
1001.349	-1375
1001.425	-2162
1001.501	-1692
1001.577	-2797
1001.654	-1141
1001.730	-1590
1001.806	-1987
1001.882	-2694
1001.958	-672
1002.034	-1196
1002.110	-1816
1002.186	-2394
1002.262	-1674
1002.338	-2404
1002.414	-1523
1002.490	-1272
1002.566	-1617
1002.642	-2323
1002.718	-926
1002.794	-1749
1002.870	-1343
1002.945	-1811
1003.021	-2090
1003.097	-2037
1003.173	-1372
1003.248	-2424
1003.324	-1724
1003.400	-1428
1003.475	-2309
1003.551	-2005
1003.626	-1285
1003.702	-1909
1003.777	-2163
1003.853	-2610
1003.928	-2085
1004.004	-2686
1004.079	-1352
1004.155	-1950
1004.230	-2424
1004.305	-954
1004.381	-2009
1004.456	-1560
1004.531	-1605
1004.607	-1321
1004.682	-1442
1004.757	-1500
1004.832	-2048
1004.907	-1656
1004.982	-1688
1005.057	-1380
1005.133	-2286
1005.208	-1803
1005.283	-1606
1005.358	-836
1005.433	-2955
1005.508	-1075
1005.583	-1797
1005.657	-2097
1005.732	-1317
1005.807	-1757
1005.882	-2399
1005.957	-2044
1006.032	-948
1006.106	-2366
1006.181	-1788
1006.256	-1842
1006.331	-2641
1006.405	-2485
1006.480	-1828
1006.554	-2488
1006.629	-1581
1006.704	-1964
1006.778	-1177
1006.853	-1617
1006.927	-1511
1007.002	-2044
1007.076	-1869
1007.150	-1969
1007.225	-2068
1007.299	-1580
1007.373	-2253
1007.448	-1372
1007.522	-1263
1007.596	-1869
1007.671	-1762
1007.745	-1075
1007.819	-2373
1007.893	-1808
1007.967	-2028
1008.041	-2557
1008.115	-925
1008.190	-1391
1008.264	-1231
1008.338	-2498
1008.412	-1834
1008.486	-2074
1008.560	-1304
1008.633	-2417
1008.707	-1525
1008.781	-2032
1008.855	-1539
1008.929	-1531
1009.003	-1835
1009.076	-2764
1009.150	-2078
1009.224	-1344
1009.298	-1247
1009.371	-2238
1009.445	-631
1009.519	-1926
1009.592	-2624
1009.666	-1242
1009.739	-2236
1009.813	-3453
1009.886	-1533
1009.960	-1625
1010.033	-1312
1010.107	-1921
1010.180	-2745
1010.253	-1335
1010.327	-2256
1010.400	-2372
1010.473	-2429
1010.547	-408
1010.620	-2992
1010.693	-1227
1010.766	-1290
1010.840	-1745
1010.913	-1464
1010.986	-2646
1011.059	-2186
1011.132	-1823
1011.205	-1817
1011.278	-1847
1011.351	-2231
1011.424	-1803
1011.497	-2236
1011.570	-1777
1011.643	-1994
1011.716	-2404
1011.789	-1981
1011.862	-1789
1011.934	-1422
1012.007	-2187
1012.080	-2157
1012.153	-1908
1012.225	-1023
1012.298	-2134
1012.371	-1981
1012.443	-1451
1012.516	-2864
1012.588	-2266
1012.661	-1714
1012.733	-2757
1012.806	-1232
1012.879	-2729
1012.951	-1671
1013.023	-2408
1013.096	-1740
1013.168	-2468
1013.241	-2212
1013.313	-1714
1013.385	-2917
1013.458	-2685
1013.530	-1499
1013.602	-3334
1013.674	-1583
1013.746	-2980
1013.819	-2365
1013.891	-2993
1013.963	-2532
1014.035	-1134
1014.107	-1979
1014.179	-1969
1014.251	-2042
1014.323	-1821
1014.395	-2431
1014.467	-2395
1014.539	-1935
1014.611	-2670
1014.683	-1524
1014.754	-2795
1014.826	-2859
1014.898	-2256
1014.970	-2304
1015.042	-1511
1015.113	-2454
1015.185	-2169
1015.257	-2487
1015.328	-2091
1015.400	-2254
1015.471	-2284
1015.543	-2947
1015.615	-2769
1015.686	-2449
1015.757	-2291
1015.829	-2195
1015.901	-2232
1015.972	-1805
1016.043	-2407
1016.115	-1655
1016.186	-2213
1016.257	-2776
1016.328	-2014
1016.400	-2060
1016.471	-2990
1016.542	-1920
1016.613	-1422
1016.685	-1139
1016.756	-2861
1016.827	-2487
1016.898	-1447
1016.969	-1742
1017.040	-2597
1017.111	-2569
1017.182	-2299
1017.253	-2474
1017.324	-1894
1017.395	-1897
1017.466	-1913
1017.537	-2035
1017.608	-2340
1017.678	-2476
1017.749	-2702
1017.820	-2044
1017.891	-2177
1017.961	-2484
1018.032	-2408
1018.103	-2103
1018.173	-2036
1018.244	-2074
1018.315	-2617
1018.385	-1040
1018.456	-2832
1018.526	-3004
1018.597	-2768
1018.667	-2327
1018.738	-2727
1018.808	-1822
1018.878	-2467
1018.949	-1679
1019.019	-1887
1019.089	-1948
1019.160	-1669
1019.230	-3164
1019.300	-1627
1019.371	-2461
1019.441	-1361
1019.511	-2511
1019.581	-2916
1019.651	-1809
1019.721	-2570
1019.791	-2695
1019.861	-2284
1019.931	-1729
1020.001	-2090
1020.071	-1990
1020.141	-2432
1020.211	-1708
1020.281	-2133
1020.351	-2431
1020.421	-1866
1020.491	-1183
1020.560	-2749
1020.630	-2438
1020.700	-2126
1020.770	-2748
1020.839	-2601
1020.909	-2099
1020.979	-2515
1021.048	-2709
1021.118	-2055
1021.187	-2229
1021.257	-2243
1021.326	-2494
1021.396	-2549
1021.465	-1970
1021.535	-2091
1021.604	-1773
1021.674	-1879
1021.743	-2007
1021.812	-2163
1021.882	-1752
1021.951	-1764
1022.020	-2221
1022.089	-2374
1022.159	-3157
1022.228	-2651
1022.297	-2256
1022.366	-2591
1022.435	-2064
1022.504	-2809
1022.573	-2255
1022.642	-1708
1022.711	-2185
1022.781	-2364
1022.849	-2674
1022.918	-2128
1022.987	-2328
1023.056	-2241
1023.125	-2387
1023.194	-2073
1023.263	-2467
1023.331	-2306
1023.400	-2652
1023.469	-2691
1023.538	-1905
1023.606	-2470
1023.675	-2324
1023.744	-2822
1023.812	-2415
1023.881	-2498
1023.949	-2240
1024.018	-1667
1024.086	-1959
1024.155	-2382
1024.223	-2529
1024.292	-2181
1024.360	-2181
1024.429	-1997
1024.497	-1971
1024.565	-1303
1024.634	-2076
1024.702	-1717
1024.770	-1801
1024.838	-2717
1024.907	-2140
1024.975	-2256
1025.043	-1614
1025.111	-2300
1025.179	-1410
1025.247	-2879
1025.315	-1702
1025.383	-2496
1025.451	-3057
1025.519	-2370
1025.587	-2092
1025.655	-2674
1025.723	-1843
1025.791	-1594
1025.859	-1748
1025.927	-2034
1025.995	-2107
1026.062	-1926
1026.130	-1590
1026.198	-2508
1026.266	-1271
1026.333	-1643
1026.401	-1940
1026.469	-2337
1026.536	-2992
1026.604	-2094
1026.671	-2927
1026.739	-2351
1026.806	-1967
1026.874	-2428
1026.941	-2803
1027.009	-2564
1027.076	-1511
1027.144	-2357
1027.211	-1528
1027.278	-2448
1027.345	-2347
1027.413	-2339
1027.480	-1970
1027.547	-2728
1027.614	-2475
1027.682	-2497
1027.749	-1934
1027.816	-1907
1027.883	-1999
1027.950	-2400
1028.017	-2596
1028.084	-1750
1028.151	-1857
1028.218	-2411
1028.285	-2006
1028.352	-2391
1028.419	-2477
1028.486	-2063
1028.553	-1970
1028.619	-2712
1028.686	-2021
1028.753	-2209
1028.820	-3183
1028.886	-1899
1028.953	-2947
1029.020	-2671
1029.086	-2399
1029.153	-2335
1029.220	-2619
1029.286	-2248
1029.353	-1951
1029.419	-2436
1029.486	-1804
1029.552	-2487
1029.619	-2208
1029.685	-2161
1029.751	-2251
1029.818	-1912
1029.884	-2593
1029.951	-1447
1030.017	-2330
1030.083	-2547
1030.149	-1327
1030.216	-2321
1030.282	-2724
1030.348	-2570
1030.414	-2143
1030.480	-2712
1030.546	-2613
1030.612	-1956
1030.678	-2969
1030.744	-2247
1030.810	-1725
1030.876	-2365
1030.942	-2617
1031.008	-1784
1031.074	-2213
1031.140	-1775
1031.206	-1571
1031.272	-2804
1031.337	-1633
1031.403	-2020
1031.469	-2007
1031.534	-2264
1031.600	-2129
1031.666	-1873
1031.731	-1980
1031.797	-2077
1031.863	-1629
1031.928	-2504
1031.994	-2084
1032.059	-1845
1032.125	-1524
1032.190	-1982
1032.256	-2362
1032.321	-2018
1032.386	-2559
1032.452	-1639
1032.517	-1881
1032.582	-2362
1032.647	-1418
1032.713	-2857
1032.778	-1351
1032.843	-1875
1032.908	-1964
1032.974	-2201
1033.039	-1500
1033.104	-2366
1033.169	-2239
1033.234	-2232
1033.299	-1573
1033.364	-2804
1033.429	-1724
1033.494	-1772
1033.559	-2241
1033.624	-2076
1033.688	-1580
1033.753	-2532
1033.818	-2486
1033.883	-2875
1033.948	-1604
1034.013	-2529
1034.077	-1994
1034.142	-2480
1034.207	-1520
1034.271	-1965
1034.336	-2270
1034.400	-2612
1034.465	-2478
1034.530	-2428
1034.594	-1873
1034.658	-1302
1034.723	-2010
1034.787	-1733
1034.852	-1223
1034.916	-2273
1034.981	-1304
1035.045	-2250
1035.109	-2241
1035.173	-1911
1035.238	-1455
1035.302	-1759
1035.366	-2417
1035.430	-1939
1035.495	-2762
1035.559	-1134
1035.623	-1354
1035.687	-2609
1035.751	-1989
1035.815	-1888
1035.879	-1630
1035.943	-2106
1036.007	-2102
1036.071	-2698
1036.135	-1859
1036.198	-2710
1036.262	-2424
1036.326	-1959
1036.390	-1650
1036.454	-1909
1036.517	-2521
1036.581	-2827
1036.645	-2032
1036.709	-1734
1036.772	-2391
1036.836	-1830
1036.900	-1504
1036.963	-2503
1037.026	-2978
1037.090	-3021
1037.154	-1674
1037.217	-1968
1037.280	-2902
1037.344	-1759
1037.407	-2139
1037.471	-1900
1037.534	-2782
1037.597	-2498
1037.661	-1973
1037.724	-2228
1037.787	-2023
1037.850	-1931
1037.913	-1283
1037.977	-1959
1038.040	-1818
1038.103	-2121
1038.166	-1965
1038.229	-1984
1038.292	-2605
1038.355	-1970
1038.418	-2307
1038.481	-1615
1038.544	-2056
1038.607	-1752
1038.670	-1934
1038.732	-1819
1038.795	-2296
1038.858	-1864
1038.921	-2358
1038.984	-1321
1039.046	-2520
1039.109	-2170
1039.172	-1752
1039.234	-2082
1039.297	-2196
1039.360	-1906
1039.422	-2256
1039.485	-1908
1039.547	-2049
1039.610	-2360
1039.672	-1375
1039.734	-1813
1039.797	-1992
1039.859	-1598
1039.922	-2227
1039.984	-1935
1040.046	-2022
1040.109	-2213
1040.171	-2577
1040.233	-2186
1040.295	-1950
1040.358	-2293
1040.420	-1945
1040.482	-2156
1040.544	-2070
1040.606	-1958
1040.668	-2503
1040.730	-2412
1040.792	-1575
1040.854	-1922
1040.916	-1752
1040.978	-2176
1041.040	-1332
1041.102	-2094
1041.164	-2011
1041.225	-2501
1041.287	-3375
1041.349	-1899
1041.411	-1537
1041.472	-1700
1041.534	-1959
1041.596	-2570
1041.657	-1964
1041.719	-2430
1041.781	-1722
1041.842	-2608
1041.904	-1668
1041.965	-2825
1042.027	-2434
1042.088	-1714
1042.150	-1798
1042.211	-1919
1042.272	-1493
1042.334	-2047
1042.395	-2159
1042.456	-2210
1042.518	-2106
1042.579	-2081
1042.640	-2066
1042.701	-2384
1042.763	-2751
1042.824	-2993
1042.885	-2435
1042.946	-2077
1043.007	-2461
1043.068	-2165
1043.129	-2507
1043.190	-2504
1043.251	-2481
1043.312	-1905
1043.373	-1691
1043.434	-2548
1043.495	-2212
1043.556	-2319
1043.616	-2226
1043.677	-1973
1043.738	-1957
1043.799	-2827
1043.859	-2016
1043.920	-2422
1043.981	-2003
1044.041	-2042
1044.102	-2187
1044.162	-2511
1044.223	-1982
1044.284	-1956
1044.344	-2125
1044.405	-2252
1044.465	-2173
1044.525	-1953
1044.586	-2141
1044.646	-2394
1044.707	-630
1044.767	-1687
1044.827	-1938
1044.887	-3012
1044.948	-1779
1045.008	-2347
1045.068	-2093
1045.128	-2525
1045.188	-1540
1045.249	-915
1045.309	-2345
1045.369	-1470
1045.429	-2430
1045.489	-1962
1045.549	-2229
1045.609	-2083
1045.669	-2309
1045.729	-2962
1045.789	-2690
1045.848	-1964
1045.908	-1342
1045.968	-1631
1046.028	-1588
1046.088	-2324
1046.147	-1533
1046.207	-1690
1046.267	-2343
1046.326	-1847
1046.386	-1598
1046.446	-1352
1046.505	-1098
1046.565	-868
1046.624	-1055
1046.684	-832
1046.743	-642
1046.803	-799
1046.862	-458
1046.922	0
