'Start Wavelength	183.907
'End Wavelength	1046.922
'Gate Delay	5.000
'Gate Width (ms)	1.050
'Laser Output Level	0.000
'X Position	0.000
'Y Position	0.000
'Z Position	0.000
'Grid Point Number	1.000
'Shot Number	100.000
183.907	248.000
183.977	-239.000
184.047	-292
184.116	202
184.186	409
184.256	-311
184.325	166
184.395	69
184.465	2
184.534	505
184.604	397
184.674	-22
184.743	477
184.813	-100
184.883	178
184.952	188
185.022	35
185.092	-339
185.161	175
185.231	1076
185.301	114
185.370	927
185.440	26
185.509	687
185.579	186
185.649	248
185.718	215
185.788	23
185.857	-11
185.927	306
185.996	214
186.066	631
186.136	19
186.205	428
186.275	323
186.344	197
186.414	195
186.483	279
186.553	-14
186.622	235
186.692	272
186.761	697
186.831	674
186.900	166
186.970	331
187.039	551
187.109	1138
187.178	1092
187.248	461
187.317	173
187.387	406
187.456	581
187.526	602
187.595	534
187.664	792
187.734	770
187.803	335
187.873	1518
187.942	1242
188.012	596
188.081	280
188.150	598
188.220	872
188.289	277
188.358	1296
188.428	1070
188.497	925
188.567	795
188.636	77
188.705	163
188.775	363
188.844	-167
188.913	1267
188.983	724
189.052	498
189.121	50
189.191	884
189.260	2080
189.329	974
189.399	776
189.468	713
189.537	667
189.606	1027
189.676	-62
189.745	609
189.814	853
189.883	1071
189.953	1222
190.022	2283
190.091	5561
190.161	3786
190.230	1426
190.299	429
190.368	760
190.437	1261
190.507	1071
190.576	1464
190.645	119
190.714	493
190.783	94
190.853	1087
190.922	766
190.991	652
191.060	291
191.129	752
191.198	703
191.268	1209
191.337	864
191.406	284
191.475	555
191.544	409
191.613	922
191.682	591
191.752	817
191.821	743
191.890	772
191.959	882
192.028	378
192.097	881
192.166	1302
192.235	337
192.304	158
192.373	687
192.442	197
192.511	743
192.580	434
192.650	371
192.719	1379
192.788	1059
192.857	1024
192.926	1178
192.995	1412
193.064	2140
193.133	2042
193.202	2625
193.271	2452
193.340	1430
193.409	1595
193.478	2328
193.547	2677
193.615	3698
193.684	2286
193.753	1392
193.822	1073
193.891	1322
193.960	1256
194.029	1726
194.098	1499
194.167	857
194.236	1154
194.305	1214
194.374	179
194.443	986
194.512	1267
194.580	1709
194.649	1446
194.718	1266
194.787	730
194.856	-73
194.925	1630
194.994	1847
195.062	1447
195.131	1396
195.200	1672
195.269	1836
195.338	979
195.407	879
195.475	1380
195.544	2046
195.613	1569
195.682	1454
195.751	2674
195.819	1748
195.888	1292
195.957	2639
196.026	1593
196.094	2195
196.163	1404
196.232	1618
196.301	1945
196.369	1744
196.438	1080
196.507	1062
196.576	1174
196.644	1153
196.713	1867
196.782	1126
196.850	1563
196.919	578
196.988	1112
197.056	1500
197.125	1560
197.194	1197
197.262	1172
197.331	1514
197.400	894
197.468	902
197.537	1059
197.606	1856
197.674	4195
197.743	4624
197.812	2698
197.880	5207
197.949	2558
198.017	5468
198.086	1844
198.155	1414
198.223	4089
198.292	5493
198.360	2372
198.429	2122
198.497	2114
198.566	5498
198.635	3494
198.703	2266
198.772	3182
198.840	8639
198.909	3459
198.977	1395
199.046	931
199.114	1707
199.183	1671
199.251	1926
199.320	934
199.388	1445
199.457	1002
199.525	1333
199.594	1835
199.662	1649
199.731	1507
199.799	1708
199.867	1822
199.936	1054
200.004	1359
200.073	1129
200.141	1844
200.210	1399
200.278	998
200.346	1698
200.415	2469
200.483	2242
200.552	1116
200.620	2363
200.688	1458
200.757	1860
200.825	1779
200.893	1889
200.962	1686
201.030	910
201.098	1810
201.167	2308
201.235	1214
201.303	1232
201.372	1609
201.440	1448
201.508	1731
201.577	1876
201.645	1594
201.713	1463
201.781	1149
201.850	2323
201.918	1532
201.986	1419
202.055	1932
202.123	1407
202.191	1360
202.259	2063
202.327	1712
202.396	1420
202.464	1746
202.532	3076
202.600	5697
202.669	2535
202.737	1652
202.805	1845
202.873	1661
202.941	2271
203.009	1187
203.078	1732
203.146	1856
203.214	1667
203.282	1535
203.350	2218
203.418	1579
203.487	1845
203.555	2073
203.623	2030
203.691	1683
203.759	1906
203.827	1487
203.895	2107
203.963	1263
204.031	1693
204.099	1253
204.168	1916
204.236	2486
204.304	2919
204.372	1734
204.440	1992
204.508	1620
204.576	1510
204.644	1149
204.712	2347
204.780	1743
204.848	2249
204.916	1494
204.984	2189
205.052	2139
205.120	2350
205.188	1724
205.256	1984
205.324	2367
205.392	2849
205.460	2997
205.528	2537
205.596	2904
205.664	2350
205.732	3007
205.799	11197
205.867	7242
205.935	3081
206.003	3061
206.071	2477
206.139	3155
206.207	2674
206.275	2195
206.343	2843
206.411	2243
206.478	2607
206.546	3130
206.614	2557
206.682	2117
206.750	3280
206.818	2515
206.885	1828
206.953	1771
207.021	2829
207.089	2455
207.157	1970
207.225	2908
207.292	3012
207.360	3150
207.428	2407
207.496	2302
207.563	2678
207.631	2032
207.699	2840
207.767	2834
207.834	3091
207.902	2557
207.970	2919
208.038	2375
208.105	2565
208.173	3494
208.241	4809
208.309	3690
208.376	4656
208.444	6353
208.512	2837
208.579	2841
208.647	2768
208.715	2919
208.782	2714
208.850	3304
208.918	3070
208.985	2664
209.053	2845
209.120	2761
209.188	2765
209.256	3036
209.323	3692
209.391	3633
209.459	3314
209.526	2644
209.594	2779
209.661	2871
209.729	2997
209.796	2961
209.864	2723
209.932	3668
209.999	2582
210.067	3805
210.134	3290
210.202	3186
210.269	4612
210.337	3394
210.404	3400
210.472	2852
210.539	3392
210.607	4563
210.674	4362
210.742	3481
210.809	4586
210.877	3872
210.944	3653
211.012	3608
211.079	3677
211.146	3435
211.214	3256
211.281	4262
211.349	3733
211.416	4619
211.484	3914
211.551	3834
211.618	3533
211.686	4048
211.753	2688
211.821	3536
211.888	3679
211.955	3508
212.023	3455
212.090	3789
212.157	4687
212.225	5783
212.292	9266
212.359	21658
212.427	29319
212.494	10616
212.561	6366
212.629	4844
212.696	5175
212.763	4457
212.831	4283
212.898	3653
212.965	5101
213.032	3703
213.100	4651
213.167	4522
213.234	5155
213.301	3839
213.369	4242
213.436	4262
213.503	3850
213.570	3960
213.638	3888
213.705	4092
213.772	3442
213.839	6183
213.906	4033
213.973	4868
214.041	3979
214.108	3531
214.175	4252
214.242	3779
214.309	4376
214.376	3756
214.444	4559
214.511	5436
214.578	4649
214.645	4823
214.712	4675
214.779	4452
214.846	4569
214.913	4727
214.980	5878
215.048	6454
215.115	6313
215.182	4888
215.249	4875
215.316	4457
215.383	4242
215.450	3834
215.517	4299
215.584	3508
215.651	4161
215.718	4298
215.785	4752
215.852	5424
215.919	5265
215.986	4798
216.053	3928
216.120	4314
216.187	4794
216.254	4547
216.321	4503
216.388	5136
216.455	5279
216.522	5109
216.589	6497
216.656	9876
216.722	7488
216.789	6356
216.856	7263
216.923	6243
216.990	5573
217.057	6268
217.124	7282
217.191	6847
217.258	7681
217.324	10015
217.391	9294
217.458	6994
217.525	5667
217.592	5065
217.659	5421
217.725	6179
217.792	8772
217.859	5622
217.926	4019
217.993	4406
218.059	4664
218.126	3953
218.193	3732
218.260	3837
218.327	3742
218.393	3855
218.460	4232
218.527	3779
218.594	5736
218.660	8612
218.727	6222
218.794	4263
218.860	3862
218.927	4275
218.994	3417
219.061	3429
219.127	4866
219.194	6086
219.261	3746
219.327	4143
219.394	3579
219.461	2556
219.527	4425
219.594	6008
219.661	3879
219.727	4235
219.794	3790
219.860	3925
219.927	4014
219.994	7255
220.060	8134
220.127	4496
220.193	4846
220.260	5747
220.326	8109
220.393	13183
220.460	13129
220.526	7945
220.593	7336
220.659	6125
220.726	10672
220.792	17019
220.859	12958
220.925	19398
220.992	22215
221.058	25123
221.125	20640
221.191	13862
221.258	6859
221.324	5962
221.391	5680
221.457	4979
221.524	5950
221.590	11456
221.657	22888
221.723	12033
221.789	16686
221.856	10589
221.922	7165
221.989	5294
222.055	4688
222.121	4446
222.188	5310
222.254	4619
222.321	4308
222.387	3652
222.453	3875
222.520	4297
222.586	3809
222.652	3529
222.719	4285
222.785	3720
222.851	3649
222.918	4104
222.984	4021
223.050	4354
223.116	4030
223.183	2643
223.249	3531
223.315	2695
223.382	3943
223.448	2726
223.514	3128
223.580	3571
223.647	3193
223.713	3267
223.779	3861
223.845	3816
223.911	3963
223.978	3887
224.044	4042
224.110	3504
224.176	3715
224.242	4621
224.309	3263
224.375	3543
224.441	3450
224.507	3409
224.573	3071
224.639	3390
224.705	3078
224.772	2975
224.838	3549
224.904	3945
224.970	3410
225.036	4712
225.102	4000
225.168	3649
225.234	3517
225.300	3407
225.366	3589
225.432	2788
225.499	3489
225.565	4251
225.631	5111
225.697	4665
225.763	6126
225.829	6210
225.895	6914
225.961	8754
226.027	7281
226.093	7100
226.159	8458
226.225	11908
226.291	27676
226.357	26387
226.423	14166
226.489	9889
226.554	7210
226.620	8365
226.686	10298
226.752	14173
226.818	24217
226.884	43081
226.950	24517
227.016	11740
227.082	9380
227.148	8294
227.214	7358
227.279	6057
227.345	5478
227.411	5182
227.477	5676
227.543	7010
227.609	7407
227.674	5475
227.740	5347
227.806	6235
227.872	4777
227.938	6455
228.003	6924
228.069	4523
228.135	5120
228.201	4345
228.267	5667
228.332	5733
228.398	7037
228.464	4757
228.530	4152
228.595	4269
228.661	5143
228.727	7135
228.792	4799
228.858	4936
228.924	5324
228.990	6268
229.055	6740
229.121	5255
229.187	4258
229.252	5100
229.318	3805
229.384	4876
229.449	5166
229.515	3236
229.581	3128
229.646	4505
229.712	6147
229.777	12039
229.843	8369
229.909	8282
229.974	9290
230.040	7766
230.105	7169
230.171	8063
230.236	11309
230.302	14871
230.368	8932
230.433	7947
230.499	6809
230.564	6651
230.630	6305
230.695	5066
230.761	5473
230.826	5984
230.892	7433
230.957	5239
231.023	5571
231.088	5343
231.154	5968
231.219	6105
231.284	7791
231.350	6195
231.415	4628
231.481	4693
231.546	4352
231.612	4769
231.677	4346
231.742	4452
231.808	3942
231.873	4348
231.939	4783
232.004	8289
232.069	5283
232.135	5621
232.200	4779
232.265	4751
232.331	4354
232.396	3868
232.461	4188
232.527	4134
232.592	4530
232.657	4752
232.723	8647
232.788	4091
232.853	4858
232.918	4346
232.984	4208
233.049	4665
233.114	7464
233.179	4914
233.245	11418
233.310	7926
233.375	5090
233.440	4971
233.506	4126
233.571	4524
233.636	4449
233.701	5062
233.766	10264
233.832	6363
233.897	5412
233.962	5686
234.027	5993
234.092	4922
234.157	4162
234.222	5371
234.288	12187
234.353	21105
234.418	15286
234.483	9419
234.548	8647
234.613	7694
234.678	7814
234.743	12012
234.808	22295
234.873	10415
234.938	7293
235.004	6398
235.069	7399
235.134	5884
235.199	5825
235.264	5714
235.329	5945
235.394	5994
235.459	7859
235.524	6322
235.589	5969
235.654	5822
235.719	6134
235.784	4947
235.849	8684
235.913	11680
235.978	15205
236.043	10096
236.108	6158
236.173	7439
236.238	6024
236.303	6667
236.368	6784
236.433	12651
236.498	12763
236.563	11179
236.627	26952
236.692	55445
236.757	26118
236.822	16929
236.887	13886
236.952	11433
237.017	11528
237.081	11323
237.146	16903
237.211	29276
237.276	69391
237.341	66010
237.405	26603
237.470	15752
237.535	12333
237.600	10260
237.664	8623
237.729	8355
237.794	14596
237.859	15439
237.923	10621
237.988	8073
238.053	11774
238.118	13276
238.182	32792
238.247	14513
238.312	12632
238.376	8633
238.441	7796
238.506	6793
238.570	5651
238.635	5534
238.700	5749
238.764	7135
238.829	17654
238.893	11829
238.958	9596
239.023	7277
239.087	6180
239.152	7158
239.216	5695
239.281	5876
239.346	5935
239.410	6419
239.475	10698
239.539	30311
239.604	11262
239.668	6673
239.733	5739
239.797	5917
239.862	11972
239.926	16701
239.991	6061
240.055	5748
240.120	6633
240.184	6086
240.249	5229
240.313	5770
240.378	6976
240.442	22589
240.507	16908
240.571	7676
240.635	17471
240.700	10050
240.764	6364
240.829	5138
240.893	4927
240.957	7088
241.022	21500
241.086	20757
241.151	9053
241.215	6067
241.279	11554
241.344	11640
241.408	8281
241.472	8140
241.537	8671
241.601	8285
241.665	7612
241.730	7953
241.794	8043
241.858	7382
241.922	7741
241.987	6990
242.051	6605
242.115	7074
242.179	7241
242.244	6389
242.308	7572
242.372	8160
242.436	7973
242.501	6644
242.565	7240
242.629	6211
242.693	7128
242.757	6263
242.822	6619
242.886	6516
242.950	6944
243.014	6726
243.078	8027
243.142	7180
243.206	7895
243.271	8004
243.335	8609
243.399	16253
243.463	72694
243.527	72377
243.591	19822
243.655	11080
243.719	9833
243.783	11371
243.847	21407
243.911	18518
243.975	20927
244.040	10090
244.104	7483
244.168	7781
244.232	13171
244.296	17590
244.360	15454
244.424	8663
244.488	7604
244.552	7558
244.615	6284
244.679	5995
244.743	10276
244.807	7654
244.871	6405
244.935	5898
244.999	5934
245.063	6018
245.127	8139
245.191	16871
245.255	8848
245.319	10377
245.383	6891
245.446	6513
245.510	6246
245.574	7462
245.638	6230
245.702	9835
245.766	14306
245.829	9006
245.893	8141
245.957	7430
246.021	8188
246.085	8405
246.149	11483
246.212	27238
246.276	23349
246.340	12572
246.404	9209
246.467	13711
246.531	13832
246.595	9107
246.659	9285
246.722	10208
246.786	10529
246.850	14677
246.913	11624
246.977	7713
247.041	8788
247.104	7955
247.168	11289
247.232	28498
247.295	34797
247.359	12352
247.423	12339
247.486	15794
247.550	9706
247.614	9894
247.677	11273
247.741	7659
247.804	8224
247.868	10694
247.932	29143
247.995	27330
248.059	10561
248.122	8124
248.186	12261
248.249	28184
248.313	70591
248.376	48112
248.440	27442
248.503	13451
248.567	14843
248.630	22182
248.694	25793
248.757	44705
248.821	57562
248.884	30089
248.948	44959
249.011	54895
249.075	76848
249.138	42805
249.202	21189
249.265	19223
249.328	19803
249.392	16760
249.455	12776
249.519	12243
249.582	17022
249.645	22057
249.709	14002
249.772	12335
249.835	12161
249.899	12110
249.962	11816
250.025	13800
250.089	35569
250.152	25450
250.215	16047
250.279	14296
250.342	14831
250.405	13603
250.468	14066
250.532	20390
250.595	39853
250.658	145213
250.721	101497
250.785	38549
250.848	23296
250.911	17950
250.974	18571
251.038	32263
251.101	34196
251.164	20729
251.227	23957
251.290	23906
251.354	59378
251.417	161131
251.480	89050
251.543	136038
251.606	235452
251.669	110731
251.732	59586
251.795	63940
251.859	90409
251.922	143319
251.985	51259
252.048	27971
252.111	23016
252.174	26104
252.237	58440
252.300	74877
252.363	137879
252.426	143195
252.489	51743
252.552	30522
252.615	26205
252.678	36574
252.741	69540
252.804	134682
252.867	158805
252.930	77602
252.993	41114
253.056	30843
253.119	22557
253.182	27362
253.245	38183
253.308	22365
253.371	23828
253.434	18676
253.497	24258
253.559	36175
253.622	23068
253.685	36667
253.748	22890
253.811	15493
253.874	21571
253.937	16045
254.000	15267
254.062	36731
254.125	29313
254.188	34999
254.251	18556
254.314	16098
254.376	31157
254.439	25956
254.502	21232
254.565	36556
254.628	35253
254.690	22090
254.753	14125
254.816	13487
254.878	15436
254.941	34543
255.004	17655
255.067	14269
255.129	11082
255.192	7551
255.255	8893
255.317	8981
255.380	5951
255.443	5838
255.505	6065
255.568	6356
255.631	7194
255.693	6813
255.756	6847
255.819	6212
255.881	5515
255.944	5223
256.006	6198
256.069	6086
256.132	6302
256.194	12710
256.257	19831
256.319	16388
256.382	11601
256.444	9551
256.507	7854
256.569	7502
256.632	10069
256.694	15107
256.757	51681
256.819	63123
256.882	22879
256.944	12925
257.007	13029
257.069	12806
257.132	9546
257.194	8668
257.257	9031
257.319	9226
257.381	12269
257.444	38329
257.506	111702
257.569	68158
257.631	38828
257.693	21662
257.756	14206
257.818	12638
257.880	9153
257.943	8633
258.005	8107
258.067	7797
258.130	8100
258.192	14366
258.254	17615
258.317	9148
258.379	10947
258.441	26301
258.503	15762
258.566	40219
258.628	19896
258.690	8848
258.753	13858
258.815	17372
258.877	9557
258.939	8627
259.001	8084
259.064	7676
259.126	12357
259.188	10498
259.250	10478
259.312	15301
259.375	25664
259.437	11494
259.499	8398
259.561	8965
259.623	9335
259.685	8030
259.747	10750
259.809	41744
259.872	40403
259.934	79722
259.996	30680
260.058	11796
260.120	10068
260.182	8372
260.244	7866
260.306	6767
260.368	6845
260.430	8673
260.492	16033
260.554	24620
260.616	17761
260.678	51582
260.740	28435
260.802	11394
260.864	10972
260.926	8199
260.988	8808
261.050	10602
261.112	24980
261.174	54051
261.236	21206
261.298	12572
261.359	31575
261.421	19221
261.483	9511
261.545	8872
261.607	7879
261.669	8255
261.731	23404
261.793	26007
261.854	11355
261.916	9549
261.978	8717
262.040	8777
262.102	8776
262.164	14809
262.225	7887
262.287	10068
262.349	22179
262.411	9318
262.472	7846
262.534	25199
262.596	20231
262.658	9118
262.719	7501
262.781	17289
262.843	25146
262.904	9255
262.966	10803
263.028	19224
263.090	117517
263.151	102692
263.213	32023
263.275	17085
263.336	10073
263.398	8332
263.459	7750
263.521	9816
263.583	17929
263.644	9010
263.706	5401
263.767	4743
263.829	4317
263.891	4412
263.952	4338
264.014	4370
264.075	11543
264.137	14054
264.198	6653
264.260	4542
264.321	6275
264.383	21388
264.444	17675
264.506	6991
264.567	6736
264.629	15854
264.690	14296
264.752	8705
264.813	6436
264.875	5619
264.936	5378
264.998	4800
265.059	4864
265.120	6276
265.182	15542
265.243	54399
265.305	19584
265.366	8131
265.427	6140
265.489	6058
265.550	4572
265.611	6251
265.673	6008
265.734	4435
265.795	4390
265.857	5198
265.918	6393
265.979	25463
266.040	77138
266.102	26077
266.163	13443
266.224	11295
266.286	7678
266.347	5900
266.408	7112
266.469	6564
266.530	4757
266.592	6571
266.653	16971
266.714	12503
266.775	5342
266.836	4212
266.898	6204
266.959	8017
267.020	5421
267.081	5441
267.142	5168
267.203	5088
267.264	5441
267.326	6047
267.387	5181
267.448	4836
267.509	5461
267.570	4061
267.631	4398
267.692	4547
267.753	5156
267.814	5148
267.875	18570
267.936	15999
267.997	9926
268.058	7796
268.119	6278
268.180	6387
268.241	5030
268.302	5067
268.363	5278
268.424	6053
268.485	5640
268.546	3439
268.607	3881
268.668	4691
268.729	4700
268.790	4951
268.851	6799
268.912	19968
268.972	13295
269.033	6474
269.094	4538
269.155	5068
269.216	5298
269.277	5039
269.338	4205
269.398	5842
269.459	7098
269.520	9411
269.581	13917
269.642	12635
269.702	8328
269.763	5647
269.824	6770
269.885	11499
269.945	9597
270.006	5221
270.067	4926
270.128	4834
270.188	4735
270.249	5504
270.310	3861
270.370	5099
270.431	4969
270.492	4527
270.553	7137
270.613	17339
270.674	20048
270.734	7470
270.795	6200
270.856	10680
270.916	5926
270.977	6545
271.038	8020
271.098	6598
271.159	14746
271.219	7407
271.280	5145
271.340	5321
271.401	11064
271.462	14747
271.522	7853
271.583	5916
271.643	6022
271.704	5508
271.764	9756
271.825	28828
271.885	76799
271.946	45356
272.006	20660
272.066	53335
272.127	36370
272.187	12040
272.248	10049
272.308	20211
272.369	37887
272.429	14460
272.489	20318
272.550	14447
272.610	18674
272.671	10557
272.731	16930
272.791	17290
272.852	10689
272.912	8168
272.972	6068
273.033	8133
273.093	11725
273.153	8178
273.214	7106
273.274	9810
273.334	45781
273.394	38486
273.455	17231
273.515	33498
273.575	35255
273.635	16545
273.696	41834
273.756	40453
273.816	14584
273.876	12888
273.936	44477
273.997	27383
274.057	9800
274.117	10242
274.177	28419
274.237	78176
274.297	41509
274.358	36546
274.418	44376
274.478	21512
274.538	11114
274.598	18885
274.658	48824
274.718	35628
274.778	12696
274.838	11217
274.898	45140
274.958	58986
275.018	54679
275.078	22322
275.138	10826
275.198	7696
275.258	7329
275.318	11463
275.378	19975
275.438	14611
275.498	14069
275.558	51494
275.618	55790
275.678	25189
275.738	22937
275.798	12771
275.858	8367
275.918	6633
275.978	9935
276.038	7034
276.098	6752
276.157	26433
276.217	32129
276.277	14442
276.337	10455
276.397	7960
276.457	9051
276.517	5677
276.576	5446
276.636	6245
276.696	13434
276.756	26244
276.815	10433
276.875	7481
276.935	9718
276.995	6594
277.055	5634
277.114	5561
277.174	18141
277.234	26422
277.293	9387
277.353	6747
277.413	5300
277.472	6832
277.532	6164
277.592	8460
277.651	32597
277.711	20533
277.771	19102
277.830	52538
277.890	21263
277.950	46690
278.009	54954
278.069	18318
278.128	35543
278.188	23325
278.248	20125
278.307	36855
278.367	13598
278.426	8185
278.486	6338
278.545	5828
278.605	5519
278.664	6072
278.724	8637
278.783	39961
278.843	36154
278.902	10602
278.962	10308
279.021	8715
279.081	11383
279.140	9291
279.199	8699
279.259	8060
279.318	9427
279.378	12633
279.437	35782
279.496	114529
279.556	231622
279.615	77204
279.675	27900
279.734	24608
279.793	51910
279.853	44306
279.912	16049
279.971	11450
280.031	13204
280.090	37418
280.149	31731
280.208	51099
280.268	185692
280.327	69265
280.386	23870
280.445	31153
280.505	17075
280.564	11755
280.623	10703
280.682	25334
280.742	17003
280.801	7408
280.860	6220
280.919	5620
280.978	5914
281.037	5008
281.097	5409
281.156	4738
281.215	5782
281.274	14244
281.333	41379
281.392	12621
281.451	4926
281.510	5525
281.569	5041
281.628	3984
281.688	4218
281.747	6587
281.806	5167
281.865	3913
281.924	5103
281.983	3329
282.042	4131
282.101	3567
282.160	3771
282.219	4443
282.278	9465
282.337	22264
282.396	7718
282.454	5802
282.513	15161
282.572	31395
282.631	10002
282.690	5229
282.749	5163
282.808	6004
282.867	7691
282.926	4916
282.985	3632
283.043	4164
283.102	4414
283.161	6909
283.220	26407
283.279	22026
283.338	6565
283.396	5834
283.455	6673
283.514	8390
283.573	9905
283.631	6931
283.690	4998
283.749	6217
283.808	17930
283.866	9757
283.925	5091
283.984	5102
284.043	10217
284.101	6508
284.160	5547
284.219	6733
284.277	6711
284.336	19251
284.395	44751
284.453	16663
284.512	10576
284.570	14686
284.629	9141
284.688	8559
284.746	8922
284.805	10503
284.863	13912
284.922	14422
284.981	18323
285.039	26188
285.098	58784
285.156	172101
285.215	287713
285.273	183810
285.332	80401
285.390	44661
285.449	29744
285.507	21562
285.566	17234
285.624	13342
285.683	10953
285.741	8088
285.799	8360
285.858	8319
285.916	6565
285.975	6025
286.033	4225
286.091	4868
286.150	4592
286.208	5330
286.267	6527
286.325	8840
286.383	12001
286.442	6550
286.500	4948
286.558	4632
286.616	4749
286.675	7810
286.733	6563
286.791	5139
286.850	7874
286.908	13222
286.966	12768
287.024	5546
287.083	4623
287.141	4142
287.199	6978
287.257	8445
287.315	6179
287.374	10753
287.432	18654
287.490	8009
287.548	7276
287.606	6010
287.664	7028
287.723	11131
287.781	8719
287.839	7739
287.897	11350
287.955	14280
288.013	26926
288.071	76680
288.129	311451
288.187	365381
288.245	120300
288.303	49962
288.361	32760
288.419	24812
288.477	18037
288.535	13400
288.593	10524
288.651	8533
288.709	6970
288.767	6346
288.825	5340
288.883	4878
288.941	4206
288.999	4897
289.057	4486
289.115	3393
289.173	4632
289.231	4799
289.289	4026
289.346	4730
289.404	6532
289.462	11205
289.520	8563
289.578	3989
289.636	2848
289.694	2942
289.751	2974
289.809	3318
289.867	3827
289.925	6586
289.983	5285
290.040	3664
290.098	3864
290.156	5612
290.214	5681
290.271	3355
290.329	2855
290.387	2633
290.444	2614
290.502	2555
290.560	3226
290.617	2738
290.675	2562
290.733	4247
290.790	3472
290.848	2531
290.906	4344
290.963	3493
291.021	3134
291.078	3958
291.136	6586
291.194	24842
291.251	21286
291.309	5581
291.366	3599
291.424	3831
291.481	4050
291.539	3385
291.596	2998
291.654	2776
291.711	2102
291.769	6936
291.826	10308
291.884	4934
291.941	3296
291.999	3793
292.056	5629
292.114	4077
292.171	3072
292.228	3301
292.286	6656
292.343	11536
292.401	9850
292.458	5326
292.515	5133
292.573	6073
292.630	6582
292.687	5719
292.745	4428
292.802	9098
292.859	22058
292.917	32434
292.974	11096
293.031	5106
293.089	3915
293.146	3994
293.203	3423
293.260	3827
293.318	6500
293.375	4999
293.432	3116
293.489	3334
293.546	4076
293.604	8902
293.661	37272
293.718	44722
293.775	17238
293.832	9081
293.889	7879
293.947	8182
294.004	6750
294.061	9186
294.118	22708
294.175	29884
294.232	21203
294.289	7610
294.346	7124
294.403	6332
294.460	5390
294.517	4348
294.574	3497
294.631	4958
294.688	8336
294.745	30964
294.802	65978
294.859	36696
294.916	17243
294.973	11380
295.030	11925
295.087	6939
295.144	5932
295.201	5588
295.258	4584
295.315	10455
295.372	39033
295.429	34626
295.486	12802
295.542	10972
295.599	30907
295.656	26007
295.713	34849
295.770	30218
295.827	11290
295.883	7406
295.940	8507
295.997	15415
296.054	8941
296.111	5696
296.167	4574
296.224	3676
296.281	3308
296.338	3732
296.394	5211
296.451	9007
296.508	29294
296.564	27987
296.621	26398
296.678	70716
296.734	47578
296.791	16959
296.848	12062
296.904	19573
296.961	39860
297.018	50577
297.074	21788
297.131	10403
297.187	11010
297.244	23023
297.301	79806
297.357	60205
297.414	19570
297.470	10207
297.527	7493
297.583	7182
297.640	6514
297.696	5767
297.753	4451
297.809	4130
297.866	3058
297.922	3646
297.979	3692
298.035	6305
298.092	15281
298.148	32861
298.204	18262
298.261	13213
298.317	39132
298.374	54465
298.430	21684
298.486	14497
298.543	10524
298.599	9429
298.656	14630
298.712	37649
298.768	67525
298.824	27722
298.881	11094
298.937	7590
298.993	7748
299.050	8806
299.106	6276
299.162	5759
299.218	5667
299.275	4699
299.331	8144
299.387	25097
299.443	63836
299.500	30726
299.556	12216
299.612	8555
299.668	6254
299.724	5145
299.780	5384
299.837	7129
299.893	20046
299.949	50819
300.005	36889
300.061	53592
300.117	55794
300.173	21053
300.229	14843
300.285	20260
300.341	16103
300.397	9007
300.453	6482
300.510	5447
300.566	5718
300.622	6964
300.678	18094
300.734	33800
300.790	44882
300.845	39847
300.901	27145
300.957	41587
301.013	19998
301.069	10603
301.125	10294
301.181	8067
301.237	6033
301.293	4460
301.349	4612
301.405	4584
301.461	5298
301.516	5428
301.572	9803
301.628	14192
301.684	12037
301.740	25780
301.796	24154
301.851	22796
301.907	36054
301.963	35434
302.019	92521
302.074	160933
302.130	103666
302.186	40845
302.242	19950
302.297	15368
302.353	21436
302.409	32613
302.464	22391
302.520	31132
302.576	64834
302.631	49539
302.687	22959
302.743	10878
302.798	7698
302.854	7094
302.910	7574
302.965	11845
303.021	18057
303.076	15861
303.132	24035
303.187	19440
303.243	8916
303.299	6335
303.354	5241
303.410	5292
303.465	4282
303.521	4842
303.576	5400
303.632	9477
303.687	26524
303.743	51660
303.798	26106
303.853	11344
303.909	7970
303.964	8376
304.020	17112
304.075	18259
304.130	20749
304.186	33341
304.241	28410
304.297	17935
304.352	9601
304.358	9244
304.407	6344
304.449	7455
304.463	7840
304.518	7626
304.539	7209
304.573	6538
304.629	8143
304.630	8367
304.684	18632
304.720	38664
304.739	49075
304.794	42077
304.811	35563
304.850	18978
304.902	9370
304.905	8794
304.960	6929
304.992	7503
305.015	7999
305.071	6198
305.083	5863
305.126	4601
305.173	3844
305.181	3729
305.236	3738
305.264	4253
305.292	4764
305.347	5101
305.354	5190
305.402	5760
305.445	7391
305.457	7896
305.512	10028
305.535	9518
305.567	8657
305.622	10223
305.626	11033
305.678	25572
305.716	47013
305.733	55983
305.788	43644
305.807	41470
305.843	35847
305.897	50750
305.898	50972
305.953	35388
305.988	25156
306.008	18310
306.063	10287
306.078	8853
306.118	7030
306.168	5615
306.173	5493
306.228	4728
306.259	4142
306.283	3792
306.338	4829
306.349	4922
306.393	5248
306.440	5676
306.448	5729
306.503	5755
306.530	7065
306.558	9202
306.613	19446
306.620	20789
306.668	30709
306.711	42720
306.723	45006
306.778	28555
306.801	23572
306.833	15773
306.888	7993
306.892	7624
306.943	5682
306.982	4930
306.997	4819
307.052	5048
307.072	4855
307.107	4511
307.162	6734
307.163	6766
307.217	10273
307.253	12651
307.272	13516
307.327	12783
307.343	12227
307.381	10070
307.434	9539
307.436	9748
307.491	22493
307.524	31941
307.546	37074
307.600	33361
307.614	30955
307.655	18099
307.704	9549
307.710	9274
307.765	10807
307.795	14083
307.819	18008
307.874	25108
307.885	24684
307.929	17471
307.975	14465
307.984	14689
308.038	19842
308.065	27415
308.093	42708
308.148	96864
308.156	108631
308.202	198115
308.246	218230
308.257	204042
308.312	105865
308.336	74445
308.366	58940
308.421	34795
308.426	32949
308.475	20650
308.517	13748
308.530	12802
308.585	11605
308.607	11118
308.639	10722
308.694	11077
308.697	11358
308.748	20349
308.787	27630
308.803	28930
308.857	23044
308.877	22012
308.912	17629
308.967	13266
308.967	13244
309.021	18118
309.058	24107
309.076	30006
309.130	56419
309.148	69071
309.185	124226
309.238	230044
309.239	231956
309.293	295349
309.328	296023
309.348	241475
309.402	102027
309.418	67171
309.457	45514
309.508	25087
309.511	24555
309.566	20902
309.598	19770
309.620	21685
309.674	29868
309.688	31237
309.729	30155
309.778	25652
309.783	24881
309.837	17927
309.868	15369
309.892	17923
309.946	29762
309.959	33223
310.001	50859
310.049	61621
310.055	59485
310.109	35507
310.139	24032
310.163	18315
310.218	9051
310.229	7450
310.272	5931
310.319	4506
310.326	4447
310.381	4648
310.409	4617
310.435	4303
310.489	3829
310.499	3778
310.543	3817
310.589	3865
310.598	3900
310.652	4293
310.679	4380
310.706	4012
310.760	3203
310.769	3087
310.814	2619
310.859	2360
310.868	2415
310.923	2725
310.948	2874
310.977	2885
311.031	3061
311.038	3078
311.085	3210
311.128	3210
311.139	3226
311.193	3530
311.218	3564
311.247	3131
311.301	2439
311.308	2353
311.356	2216
311.398	2180
311.410	2262
311.464	2662
311.488	2808
311.518	2436
311.572	1890
311.578	1851
311.626	3456
311.668	4781
311.680	4740
311.734	4505
311.758	4423
311.788	4287
311.842	4074
311.847	4056
311.896	4308
311.937	4658
311.950	4820
312.004	5451
312.027	5744
312.058	4914
312.112	3457
312.117	3316
312.165	3051
312.207	2839
312.297	3456
312.386	2839
312.476	2756
312.566	7489
312.656	5748
312.745	2684
312.835	2310
312.925	3231
313.015	3192
313.104	3952
313.194	2994
313.284	2500
313.374	3579
313.463	4433
313.553	2002
313.643	2278
313.732	2986
313.822	1911
313.912	2064
314.001	3125
314.091	3352
314.180	4070
314.270	4581
314.360	5408
314.449	5439
314.539	3001
314.628	1875
314.718	3220
314.808	4079
314.897	3357
314.987	1700
315.076	3356
315.166	5313
315.255	5070
315.345	4647
315.434	4871
315.524	4304
315.613	4657
315.703	4989
315.792	5689
315.881	4384
315.971	3977
316.060	8413
316.150	13442
316.239	14820
316.328	8992
316.418	2681
316.507	2452
316.597	4063
316.686	4403
316.775	4552
316.865	15188
316.954	5824
317.043	3011
317.133	1974
317.222	1928
317.311	2295
317.400	2912
317.490	3122
317.579	5198
317.668	2838
317.757	3037
317.847	5725
317.936	6216
318.025	10316
318.114	6094
318.203	4719
318.293	4821
318.382	7413
318.471	7778
318.560	10339
318.649	23106
318.738	9072
318.828	4671
318.917	5869
319.006	6195
319.095	16252
319.184	31802
319.273	27186
319.362	17744
319.451	5396
319.540	4197
319.629	8738
319.718	20129
319.807	8253
319.896	12444
319.985	41257
320.074	26527
320.163	6327
320.252	8469
320.341	6839
320.430	5167
320.519	7242
320.608	6353
320.697	3420
320.786	3214
320.875	5669
320.964	7481
321.053	11329
321.142	16483
321.230	21865
321.319	12446
321.408	27610
321.497	16961
321.586	11668
321.675	13229
321.764	15834
321.852	8142
321.941	14200
322.030	15292
322.119	10887
322.207	29728
322.296	26538
322.385	10576
322.474	10859
322.562	32472
322.651	28749
322.740	12396
322.829	21610
322.917	20935
323.006	14901
323.095	10274
323.183	7706
323.272	10899
323.361	20945
323.449	66226
323.538	39302
323.626	37207
323.715	44713
323.804	11012
323.892	33933
323.981	34264
324.069	7309
324.158	15898
324.246	27746
324.335	6789
324.424	11107
324.512	5716
324.601	5049
324.689	6361
324.778	9238
324.866	13918
324.954	6171
325.043	4692
325.131	7695
325.220	15576
325.308	19847
325.397	14558
325.485	12015
325.574	3118
325.662	2291
325.750	3398
325.839	3494
325.927	2077
326.015	3611
326.104	4427
326.192	10666
326.280	3604
326.369	2789
326.457	4540
326.545	8352
326.634	5702
326.722	1694
326.810	1775
326.898	1802
326.987	2462
327.075	6293
327.163	9739
327.251	4303
327.340	2431
327.428	3579
327.516	1779
327.604	2615
327.692	2929
327.781	3098
327.869	6222
327.957	5331
328.045	4589
328.133	2617
328.221	2753
328.309	3884
328.397	2848
328.485	3294
328.574	5349
328.662	17930
328.750	16113
328.838	5560
328.926	2892
329.014	2234
329.102	3373
329.190	7571
329.278	7998
329.366	2292
329.454	1666
329.542	1808
329.630	2002
329.718	2095
329.806	3369
329.893	3524
329.981	3103
330.069	2409
330.157	10674
330.245	29443
330.333	16335
330.421	4067
330.509	4571
330.597	20612
330.684	21179
330.772	4703
330.860	4678
330.948	6587
331.036	3629
331.123	1409
331.211	1654
331.299	2365
331.387	4525
331.475	9832
331.562	5312
331.650	2083
331.738	2591
331.825	4004
331.913	1776
332.001	1558
332.089	3026
332.176	6038
332.264	16446
332.352	21549
332.439	4998
332.527	2415
332.614	2622
332.702	4034
332.790	3230
332.877	6544
332.965	18946
333.052	5527
333.140	3859
333.228	10118
333.315	3908
333.403	3104
333.490	7643
333.578	12220
333.665	8937
333.753	6608
333.840	2749
333.928	3367
334.015	9444
334.103	16714
334.190	48374
334.278	22975
334.365	4376
334.452	3143
334.540	2743
334.627	3204
334.715	5967
334.802	10626
334.889	55832
334.977	112249
335.064	13811
335.151	3292
335.239	4199
335.326	3955
335.413	16487
335.501	34248
335.588	6381
335.675	2397
335.762	2561
335.850	5126
335.937	4642
336.024	11901
336.111	64435
336.199	47831
336.286	5944
336.373	2229
336.460	1294
336.547	1796
336.635	2906
336.722	3111
336.809	2510
336.896	3720
336.983	11849
337.070	29108
337.157	49288
337.245	44350
337.332	55733
337.419	6039
337.506	2868
337.593	2632
337.680	7729
337.767	24277
337.854	10169
337.941	8288
338.028	14213
338.115	8343
338.202	4347
338.289	9270
338.376	45925
338.463	27330
338.550	12657
338.637	19375
338.724	6642
338.811	16188
338.898	4938
338.984	1846
339.071	1818
339.158	2521
339.245	9765
339.332	8289
339.419	7138
339.506	12659
339.593	2558
339.679	2065
339.766	1573
339.853	3241
339.940	8068
340.027	4214
340.113	2825
340.200	4553
340.287	4094
340.374	3665
340.460	8385
340.547	3788
340.634	5200
340.720	20691
340.807	23133
340.894	2512
340.980	2260
341.067	3021
341.154	3155
341.240	3771
341.327	11797
341.414	5490
341.500	3805
341.587	3269
341.674	2274
341.760	5793
341.847	10455
341.933	4315
342.020	1452
342.106	1135
342.193	2388
342.279	5816
342.366	4318
342.452	8536
342.539	4995
342.625	8510
342.712	27365
342.798	16490
342.885	5611
342.971	1596
343.058	1765
343.144	1545
343.230	2360
343.317	1499
343.403	1666
343.490	1232
343.576	1966
343.662	2370
343.749	2710
343.835	4225
343.921	8405
344.008	46614
344.094	171543
344.180	64076
344.267	11487
344.353	27984
344.439	49453
344.525	15158
344.612	7347
344.698	5213
344.784	4073
344.870	1717
344.957	1829
345.043	4552
345.129	3258
345.215	7172
345.301	4857
345.387	3012
345.474	1373
345.560	1712
345.646	2434
345.732	1981
345.818	1657
345.904	2400
345.990	3334
346.076	2767
346.162	6545
346.249	3507
346.335	2091
346.421	3087
346.507	10441
346.593	56190
346.679	24865
346.765	2968
346.851	2122
346.937	3165
347.023	2627
347.108	2277
347.194	3477
347.280	2466
347.366	3801
347.452	10379
347.538	61278
347.624	59544
347.710	43541
347.796	9194
347.882	2479
347.967	1692
348.053	2731
348.139	2113
348.225	2068
348.311	2516
348.397	2192
348.482	2427
348.568	3642
348.654	1715
348.740	1242
348.825	1576
348.911	4565
348.997	20657
349.083	72134
349.168	19415
349.254	3412
349.340	2576
349.425	1742
349.511	2937
349.597	4186
349.682	7626
349.768	30611
349.854	25411
349.939	2511
350.025	1952
350.110	2266
350.196	1267
350.282	1115
350.367	1259
350.453	2856
350.538	5127
350.624	3311
350.709	3218
350.795	1492
350.880	2161
350.966	1776
351.051	3924
351.137	4269
351.222	3008
351.308	7155
351.393	28179
351.479	11432
351.564	2456
351.649	1510
351.735	2093
351.820	691
351.906	2087
351.991	2865
352.076	12968
352.162	32937
352.247	7885
352.332	2867
352.418	5550
352.503	8794
352.588	31830
352.673	43333
352.759	9144
352.844	4258
352.929	3306
353.014	6406
353.100	3044
353.185	4593
353.270	8848
353.355	11624
353.441	2927
353.526	3355
353.611	6433
353.696	12375
353.781	6007
353.866	3446
353.952	2981
354.037	6454
354.122	18790
354.207	19377
354.292	9601
354.377	2393
354.462	1507
354.547	3127
354.632	3656
354.717	3424
354.802	6475
354.887	3506
354.972	1292
355.057	1595
355.142	1466
355.227	2328
355.312	4506
355.397	10959
355.482	28507
355.567	23242
355.652	8666
355.737	13161
355.822	32378
355.907	48609
355.991	7328
356.076	3006
356.161	2393
356.246	2085
356.331	3432
356.416	6770
356.501	52615
356.585	111469
356.670	17094
356.755	5760
356.840	7700
356.924	30318
357.009	174018
357.094	121426
357.179	14923
357.263	8871
357.348	5611
357.433	7128
357.517	5733
357.602	5818
357.687	4502
357.771	4709
357.856	10959
357.941	10590
358.025	23436
358.110	160359
358.195	144434
358.279	16021
358.364	6932
358.448	18813
358.533	68302
358.617	64145
358.702	54309
358.787	29504
358.871	9944
358.956	9186
359.040	3141
359.125	1915
359.209	1857
359.294	3601
359.378	8496
359.462	6495
359.547	4586
359.631	3510
359.716	2201
359.800	2340
359.885	3557
359.969	3142
360.053	2424
360.138	1615
360.222	3543
360.306	8527
360.391	8259
360.475	7195
360.559	21112
360.644	23610
360.728	25907
360.812	24427
360.896	120175
360.981	64023
361.065	22293
361.149	5256
361.233	4703
361.318	3562
361.402	3833
361.486	4210
361.570	2730
361.654	3742
361.739	10307
361.823	48921
361.907	144860
361.991	37862
362.075	8093
362.159	17557
362.243	14736
362.327	6458
362.411	5199
362.495	5159
362.580	3974
362.664	1807
362.748	1909
362.832	1610
362.916	2992
363.000	6039
363.084	36392
363.168	146951
363.252	53847
363.336	8105
363.420	8476
363.503	25493
363.587	43899
363.671	10013
363.755	5504
363.839	7489
363.923	4858
364.007	5861
364.091	11496
364.175	9491
364.258	41950
364.342	34475
364.426	6864
364.510	5358
364.594	7126
364.677	11104
364.761	77923
364.845	110612
364.929	21552
365.013	16579
365.096	10290
365.180	15895
365.264	10961
365.347	48814
365.431	34236
365.515	6411
365.598	4339
365.682	2700
365.766	2917
365.849	6107
365.933	3255
366.017	4853
366.100	3489
366.184	1635
366.267	1851
366.351	2114
366.435	1581
366.518	1408
366.602	2183
366.685	1296
366.769	2586
366.852	4268
366.936	8104
367.019	6841
367.103	3320
367.186	4818
367.270	2063
367.353	1734
367.436	1563
367.520	1440
367.603	1766
367.687	4684
367.770	11147
367.853	7110
367.937	16188
368.020	50354
368.104	16540
368.187	7661
368.270	11606
368.353	11183
368.437	10771
368.520	28825
368.603	26326
368.687	20637
368.770	62424
368.853	20603
368.936	8418
369.020	8572
369.103	3440
369.186	1212
369.269	1755
369.352	5241
369.436	10562
369.519	6873
369.602	2865
369.685	2076
369.768	3976
369.851	2771
369.934	1876
370.018	2621
370.101	8158
370.184	8167
370.267	4216
370.350	5197
370.433	10831
370.516	31886
370.599	68625
370.682	17745
370.765	22217
370.848	31828
370.931	70573
371.014	42478
371.097	5365
371.180	4109
371.263	1846
371.346	1744
371.429	1832
371.511	2730
371.594	4235
371.677	8006
371.760	7884
371.843	7441
371.926	34329
372.009	158237
372.091	75095
372.174	20945
372.257	66950
372.340	44804
372.423	11564
372.505	13588
372.588	6313
372.671	12411
372.754	63570
372.836	55815
372.919	13737
373.002	27242
373.085	13580
373.167	7911
373.250	20599
373.332	63046
373.415	74019
373.498	213556
373.580	119392
373.663	55162
373.746	147403
373.828	45489
373.911	10494
373.993	8090
374.076	23079
374.159	31295
374.241	14113
374.324	46988
374.406	51525
374.489	33239
374.571	161520
374.654	109412
374.736	23976
374.819	81886
374.901	131609
374.983	199776
375.066	51101
375.148	7312
375.231	16156
375.313	45713
375.395	22334
375.478	6381
375.560	3233
375.643	4681
375.725	15054
375.807	104025
375.890	138212
375.972	45147
376.054	17251
376.136	25917
376.219	18046
376.301	18148
376.383	106820
376.465	70295
376.548	18579
376.630	23554
376.712	76603
376.794	68224
376.877	7763
376.959	2251
377.041	2882
377.123	3782
377.205	5060
377.287	2381
377.369	1482
377.452	1699
377.534	1741
377.616	1928
377.698	1751
377.780	1907
377.862	2334
377.944	2171
378.026	1393
378.108	1609
378.190	1885
378.272	905
378.354	591
378.436	1386
378.518	2492
378.600	10207
378.682	12547
378.764	29304
378.846	42010
378.928	7981
379.010	9287
379.091	6385
379.173	2776
379.255	1843
379.337	3032
379.419	10158
379.501	51232
379.583	37512
379.664	5328
379.746	9064
379.828	28990
379.910	49331
379.991	59194
380.073	14488
380.155	3542
380.237	3563
380.318	1899
380.400	2312
380.482	4041
380.564	12288
380.645	9901
380.727	11092
380.809	5793
380.890	3563
380.972	2863
381.053	2946
381.135	2965
381.217	6842
381.298	36039
381.380	26770
381.461	11248
381.543	54924
381.624	143266
381.706	36447
381.787	7356
381.869	6534
381.951	18609
382.032	135865
382.113	153253
382.195	25358
382.276	8476
382.358	13889
382.439	67045
382.521	81393
382.602	157989
382.684	89534
382.765	78861
382.846	104931
382.928	77710
383.009	62915
383.090	21725
383.172	67837
383.253	210540
383.334	98607
383.416	104252
383.497	91483
383.578	16700
383.659	17716
383.741	52244
383.822	256957
383.903	236537
383.984	59985
384.066	125713
384.147	118544
384.228	25703
384.309	8451
384.390	8384
384.471	4983
384.553	4638
384.634	6508
384.715	9286
384.796	4250
384.877	4716
384.958	22263
385.039	51179
385.120	20696
385.201	5287
385.282	5559
385.363	5005
385.444	5140
385.525	6575
385.606	40813
385.687	73133
385.768	15989
385.849	8300
385.930	36419
386.011	138440
386.092	61480
386.173	7518
386.254	2908
386.335	3037
386.416	2938
386.496	11963
386.577	40212
386.658	17022
386.739	5403
386.820	4345
386.901	3754
386.981	3082
387.062	2440
387.143	4647
387.224	26559
387.304	43208
387.385	12630
387.466	5069
387.547	3598
387.627	3217
387.708	5922
387.789	46553
387.869	102934
387.950	42187
388.031	4672
388.111	1879
388.192	4896
388.273	8815
388.353	7447
388.434	3858
388.514	7408
388.595	48027
388.676	112228
388.756	54221
388.837	30675
388.917	29167
388.998	5231
389.078	2494
389.159	3053
389.239	2872
389.320	3946
389.400	5199
389.480	6925
389.561	36663
389.641	30141
389.722	4919
389.802	8963
389.883	11229
389.963	42851
390.043	45459
390.124	11002
390.204	6320
390.284	33751
390.365	37352
390.445	19342
390.525	90719
390.605	188292
390.686	53919
390.766	9540
390.846	4139
390.927	1844
391.007	1833
391.087	2904
391.167	2684
391.247	1921
391.328	3991
391.408	7068
391.488	4538
391.568	1454
391.648	1810
391.728	5368
391.808	5266
391.888	6529
391.969	11847
392.049	39370
392.129	18418
392.209	8554
392.289	40766
392.369	34000
392.449	10197
392.529	7083
392.609	5691
392.689	6613
392.769	32689
392.849	51379
392.929	14914
393.009	41706
393.089	54577
393.169	11064
393.248	8323
393.328	67857
393.408	183962
393.488	49970
393.568	6034
393.648	4147
393.728	2757
393.807	2476
393.887	2781
393.967	2551
394.047	4412
394.127	6048
394.206	10145
394.286	30965
394.366	204687
394.446	445554
394.525	129218
394.605	18680
394.685	8849
394.764	13215
394.844	23814
394.924	24014
395.003	8445
395.083	5816
395.163	5040
395.242	3857
395.322	4729
395.402	3687
395.481	3083
395.561	7464
395.640	27674
395.720	25702
395.799	28878
395.879	36239
395.958	18564
396.038	46021
396.117	270323
396.197	585461
396.276	188249
396.356	32883
396.435	16413
396.515	10199
396.594	8048
396.673	10259
396.753	13924
396.832	76686
396.912	134830
396.991	58828
397.070	10193
397.150	4493
397.229	2598
397.308	1787
397.388	2271
397.467	1655
397.546	798
397.625	1135
397.705	3588
397.784	4281
397.863	2618
397.942	747
398.022	786
398.101	3904
398.180	25644
398.259	19462
398.338	3323
398.417	2604
398.497	1843
398.576	1278
398.655	619
398.734	310
398.813	1211
398.892	3749
398.971	28452
399.050	24472
399.129	2872
399.208	541
399.287	1097
399.366	518
399.445	883
399.524	895
399.603	419
399.682	1363
399.761	8019
399.840	29442
399.919	36681
399.998	7238
400.077	1021
400.156	244
400.235	1121
400.313	1317
400.392	1277
400.471	8849
400.550	34137
400.629	15184
400.708	2348
400.786	1297
400.865	3953
400.944	6379
401.023	4455
401.102	526
401.180	-530
401.259	44
401.338	431
401.416	1570
401.495	2584
401.574	1155
401.652	850
401.731	2103
401.810	2519
401.888	953
401.967	-447
402.046	-18
402.124	1051
402.203	2656
402.281	1776
402.360	489
402.438	4705
402.517	6184
402.596	1097
402.674	1569
402.753	910
402.831	-311
402.910	611
402.988	3975
403.066	34697
403.145	36632
403.223	9412
403.302	29158
403.380	29438
403.459	23881
403.537	13942
403.615	3147
403.694	-402
403.772	505
403.850	-380
403.929	513
404.007	-84
404.085	2804
404.164	5245
404.242	1582
404.320	3850
404.398	15786
404.477	18854
404.555	70886
404.633	149370
404.711	42711
404.789	9534
404.868	2803
404.946	1511
405.024	553
405.102	-380
405.180	303
405.258	-308
405.336	483
405.415	489
405.493	2511
405.571	3553
405.649	1483
405.727	-63
405.805	818
405.883	1876
405.961	1436
406.039	2300
406.117	357
406.195	1968
406.273	7674
406.351	70084
406.429	91071
406.507	13784
406.585	1735
406.663	832
406.740	2699
406.818	3187
406.896	1102
406.974	1097
407.052	2917
407.130	25660
407.208	88941
407.285	33622
407.363	2114
407.441	1458
407.519	527
407.596	1197
407.674	3361
407.752	4982
407.830	8627
407.907	5320
407.985	1756
408.063	929
408.141	-895
408.218	718
408.296	1301
408.373	1415
408.451	1985
408.529	2130
408.606	514
408.684	248
408.762	-806
408.839	-682
408.917	48
408.994	-669
409.072	-394
409.149	-533
409.227	-457
409.304	-167
409.382	-453
409.459	-555
409.537	-520
409.614	-265
409.692	416
409.769	-868
409.846	-433
409.924	480
410.001	192
410.079	-36
410.156	211
410.233	-15
410.311	1113
410.388	501
410.465	218
410.543	494
410.620	6
410.697	-487
410.775	1328
410.852	117
410.929	186
411.006	1315
411.083	208
411.161	246
411.238	1041
411.315	1214
411.392	-755
411.469	828
411.547	712
411.624	-530
411.701	-362
411.778	665
411.855	2815
411.932	3769
412.009	625
412.086	480
412.163	63
412.240	521
412.317	969
412.394	961
412.471	414
412.548	-697
412.625	87
412.702	453
412.779	1663
412.856	1144
412.933	-438
413.010	-34
413.087	621
413.164	7409
413.241	27800
413.318	11911
413.395	2198
413.471	3391
413.548	2421
413.625	-3
413.702	1090
413.779	1225
413.855	-870
413.932	-950
414.009	-709
414.086	526
414.162	-851
414.239	626
414.316	6378
414.393	34555
414.469	29212
414.546	3051
414.623	-295
414.699	271
414.776	511
414.853	-341
414.929	-490
415.006	28
415.082	253
415.159	381
415.236	628
415.312	29
415.389	1141
415.465	4510
415.542	3647
415.618	464
415.695	1766
415.771	1840
415.848	727
415.924	509
416.000	280
416.077	206
416.153	-740
416.230	-1157
416.306	-512
416.383	-501
416.459	-50
416.535	-782
416.612	-913
416.688	-445
416.764	-362
416.841	-257
416.917	-184
416.993	-318
417.069	-2
417.146	764
417.222	2320
417.298	2229
417.374	584
417.451	-257
417.527	-109
417.603	1707
417.679	1484
417.755	657
417.831	-315
417.908	311
417.984	-720
418.060	-365
418.136	1233
418.212	5858
418.288	2110
418.364	55
418.440	-70
418.516	1352
418.592	1025
418.668	3762
418.744	9641
418.820	10128
418.896	2896
418.972	-13
419.048	-874
419.124	1809
419.200	4444
419.276	885
419.352	-605
419.428	344
419.504	176
419.579	987
419.655	903
419.731	420
419.807	2642
419.883	11082
419.959	13627
420.034	3746
420.110	2008
420.186	13962
420.262	28842
420.337	6662
420.413	241
420.489	1299
420.565	-976
420.640	-404
420.716	6
420.792	-1257
420.867	155
420.943	-209
421.019	700
421.094	2198
421.170	-169
421.245	-910
421.321	-287
421.397	-568
421.472	-639
421.548	841
421.623	3695
421.699	1044
421.774	726
421.850	325
421.925	698
422.001	2726
422.076	113
422.152	-311
422.227	936
422.302	2351
422.378	249
422.453	1707
422.529	3291
422.604	11905
422.679	69575
422.755	66793
422.830	14284
422.905	1496
422.981	581
423.056	-629
423.131	-203
423.207	128
423.282	-509
423.357	2955
423.432	4351
423.508	2140
423.583	6292
423.658	11060
423.733	2552
423.808	1129
423.883	1322
423.959	2610
424.034	-150
424.109	-193
424.184	-738
424.259	56
424.334	-1268
424.409	-912
424.484	-1089
424.559	-133
424.634	-834
424.709	491
424.784	2119
424.859	897
424.934	620
425.009	7292
425.084	26641
425.159	20601
425.234	2519
425.309	-291
425.384	-262
425.459	1477
425.534	1606
425.609	-826
425.683	189
425.758	-473
425.833	80
425.908	242
425.983	2045
426.058	22056
426.132	23123
426.207	3145
426.282	746
426.357	698
426.431	-496
426.506	-173
426.581	-755
426.655	-39
426.730	-494
426.805	-777
426.879	639
426.954	-122
427.029	755
427.103	10546
427.178	60107
427.253	70062
427.327	11190
427.402	895
427.476	2930
427.551	2341
427.625	130
427.700	-496
427.774	193
427.849	-384
427.923	-658
427.998	-581
428.072	-51
428.147	763
428.221	2397
428.296	8511
428.370	4313
428.444	-388
428.519	680
428.593	2512
428.667	3988
428.742	3707
428.816	4129
428.890	2979
428.965	7940
429.039	4858
429.113	5052
429.188	3275
429.262	75
429.336	12
429.410	7688
429.485	11678
429.559	3732
429.633	3614
429.707	345
429.781	-143
429.855	5470
429.930	15776
430.004	15424
430.078	21133
430.152	23983
430.226	7771
430.300	4788
430.374	983
430.448	-721
430.522	2997
430.596	19423
430.670	23385
430.744	15669
430.818	74321
430.892	50983
430.966	4994
431.040	753
431.114	-17
431.188	-520
431.262	518
431.336	-461
431.410	649
431.484	4126
431.557	9057
431.631	1407
431.705	-863
431.779	-35
431.853	733
431.927	2385
432.000	268
432.074	-820
432.148	-699
432.222	-152
432.295	-240
432.369	-1108
432.443	-120
432.516	8022
432.590	61547
432.664	68678
432.737	10448
432.811	568
432.885	-457
432.958	-394
433.032	-759
433.106	-1310
433.179	-1788
433.253	-534
433.326	-1513
433.400	-1234
433.473	-1154
433.547	-1278
433.620	-471
433.694	-5
433.767	2540
433.841	122
433.914	-484
433.988	-1263
434.061	-1086
434.134	-846
434.208	-1427
434.281	-390
434.355	-1018
434.428	-503
434.501	-771
434.575	-992
434.648	-925
434.721	-553
434.795	-1012
434.868	-1317
434.941	-1531
435.014	-688
435.088	-782
435.161	-1119
435.234	137
435.307	2051
435.381	140
435.454	-805
435.527	-641
435.600	-1135
435.673	-802
435.746	-1540
435.819	-1398
435.892	-1180
435.966	-328
436.039	-1882
436.112	-1195
436.185	-954
436.258	-630
436.331	-1520
436.404	-1036
436.477	-1456
436.550	-562
436.623	-1140
436.696	-1679
436.769	-532
436.842	-651
436.915	-1011
436.987	-157
437.060	38
437.133	-1328
437.206	-1135
437.279	-1343
437.352	-1195
437.425	-855
437.498	-1102
437.570	516
437.643	3918
437.716	545
437.789	-752
437.861	-494
437.934	181
438.007	1744
438.080	-1008
438.152	-156
438.225	1164
438.298	8997
438.370	88810
438.443	113425
438.516	20302
438.588	1509
438.661	487
438.734	-845
438.806	-936
438.879	473
438.951	33
439.024	56
439.096	-151
439.169	-261
439.241	-519
439.314	-1085
439.386	-558
439.459	292
439.531	2416
439.604	1252
439.676	-916
439.749	-1177
439.821	-758
439.893	-1145
439.966	-880
440.038	-545
440.110	-25
440.183	-493
440.255	-720
440.327	223
440.400	2583
440.472	33942
440.544	79218
440.617	23306
440.689	1866
440.761	146
440.833	737
440.905	2120
440.978	33
441.050	-1363
441.122	-409
441.194	-856
441.266	-944
441.338	-1361
441.411	-202
441.483	4497
441.555	30283
441.627	18699
441.699	1744
441.771	367
441.843	-349
441.915	-620
441.987	-1472
442.059	-1202
442.131	-771
442.203	-547
442.275	384
442.347	182
442.419	-501
442.491	-1242
442.563	-317
442.635	1176
442.706	2341
442.778	8021
442.850	2493
442.922	-578
442.994	-1154
443.066	-109
443.137	516
443.209	-731
443.281	-925
443.353	-378
443.425	232
443.496	1042
443.568	1751
443.640	-149
443.711	5
443.783	-1633
443.855	-1228
443.926	-1733
443.998	-1334
444.070	-896
444.141	-1015
444.213	-61
444.285	1857
444.356	2178
444.428	1889
444.499	-115
444.571	-1457
444.642	-1344
444.714	-1344
444.785	255
444.857	1080
444.928	1336
445.000	2665
445.071	419
445.143	2055
445.214	1297
445.285	-123
445.357	2966
445.428	4483
445.500	5100
445.571	7355
445.642	3148
445.714	782
445.785	5255
445.856	3379
445.928	1497
445.999	1922
446.070	-62
446.141	397
446.213	2085
446.284	1567
446.355	-586
446.426	-774
446.497	-672
446.569	-666
446.640	-97
446.711	2559
446.782	656
446.853	-688
446.924	1001
446.995	-404
447.066	67
447.138	-899
447.209	461
447.280	-988
447.351	-1794
447.422	-1321
447.493	-1241
447.564	-843
447.635	461
447.706	474
447.777	-1075
447.847	-1279
447.918	-961
447.989	-693
448.060	249
448.131	1014
448.202	2049
448.273	2111
448.344	1486
448.414	-953
448.485	-448
448.556	-458
448.627	-677
448.698	-740
448.768	-1719
448.839	-1695
448.910	-923
448.981	302
449.051	-87
449.122	-591
449.193	-1582
449.263	-1621
449.334	-1230
449.405	-744
449.475	1387
449.546	2904
449.616	1360
449.687	35
449.758	-402
449.828	-1316
449.899	-792
449.969	-432
450.040	-1219
450.110	-988
450.181	-192
450.251	-146
450.322	-663
450.392	-832
450.463	-973
450.533	-201
450.604	-1282
450.674	-432
450.744	-56
450.815	-966
450.885	-517
450.955	-2082
451.026	-1726
451.096	-1302
451.166	-1766
451.237	-358
451.307	2652
451.377	2708
451.447	17
451.518	-752
451.588	-1115
451.658	-642
451.728	-1788
451.799	779
451.869	6095
451.939	1868
452.009	-611
452.079	-1404
452.149	-1284
452.219	-881
452.289	1145
452.360	5212
452.430	1559
452.500	366
452.570	-74
452.640	601
452.710	178
452.780	3376
452.850	4258
452.920	6786
452.990	5869
453.060	502
453.129	143
453.199	753
453.269	1882
453.339	18481
453.409	35125
453.479	23120
453.549	29618
453.619	37913
453.688	29324
453.758	8484
453.828	99
453.898	136
453.968	-514
454.037	-693
454.087	-664
454.107	-680
454.168	-522
454.177	-528
454.247	-449
454.249	-436
454.316	-774
454.330	-715
454.386	-512
454.411	-59
454.456	203
454.492	2051
454.525	3543
454.574	3070
454.595	2908
454.655	-144
454.665	-635
454.734	-106
454.736	-12
454.804	2021
454.817	2545
454.873	3327
454.898	5049
454.943	7405
454.979	6279
455.013	5573
455.060	3428
455.082	2736
455.141	1982
455.152	1852
455.221	4102
455.222	4308
455.291	9774
455.303	10343
455.360	12927
455.384	17699
455.430	22295
455.465	25285
455.499	28890
455.546	17231
455.569	11411
455.627	6741
455.638	5983
455.707	2339
455.708	2357
455.777	1022
455.789	927
455.846	181
455.869	204
455.916	204
455.950	277
455.985	397
456.031	821
456.054	873
456.112	468
456.124	402
456.193	274
456.193	249
456.262	790
456.274	785
456.332	607
456.355	988
456.401	1172
456.436	1429
456.470	1841
456.516	1151
456.540	777
456.597	558
456.609	499
456.678	848
456.678	826
456.747	487
456.759	457
456.817	305
456.840	344
456.886	532
456.920	475
456.955	413
457.001	985
457.024	1343
457.082	1483
457.093	1428
457.162	1634
457.163	1668
457.232	2499
457.243	2576
457.301	2474
457.324	1918
457.370	1379
457.405	1400
457.439	1221
457.485	1255
457.508	1354
457.566	1585
457.577	1608
457.646	2019
457.647	2043
457.715	1782
457.727	1794
457.784	1803
457.808	1900
457.853	2198
457.889	2154
457.922	1980
457.969	2476
457.991	2695
458.050	2748
458.060	2692
458.129	1988
458.130	2004
458.198	1809
458.211	1830
458.267	1825
458.292	1923
458.336	2000
458.372	1744
458.405	1720
458.453	2248
458.474	2493
458.533	2692
458.543	2751
458.611	3940
458.614	3995
458.680	3108
458.694	2826
458.749	2080
458.775	1888
458.818	1991
458.855	2182
458.887	2146
458.936	2380
458.955	2496
459.016	1958
459.024	1879
459.093	2811
459.097	2785
459.162	2944
459.177	3274
459.230	4327
459.257	4782
459.299	4435
459.338	4072
459.368	3978
459.418	4271
459.437	4270
459.499	3470
459.505	3417
459.574	3554
459.579	3557
459.643	3243
459.659	3176
459.711	3521
459.740	3815
459.780	4054
459.820	4182
459.849	4301
459.900	4772
459.917	4767
459.981	4615
459.986	4597
460.054	4489
460.061	4535
460.123	5308
460.141	5362
460.191	7070
460.222	8364
460.260	9508
460.302	10937
460.328	9476
460.382	6942
460.397	6912
460.462	5692
460.465	5709
460.534	6223
460.543	6322
460.602	11640
460.623	13678
460.671	25762
460.703	34174
460.739	28679
460.783	22659
460.808	18283
460.864	6218
460.876	6116
460.944	4911
460.945	4894
461.013	5583
461.024	5637
461.081	5827
461.104	6131
461.150	6019
461.184	5455
461.218	4884
461.264	4653
461.286	4796
461.345	4806
461.355	4838
461.423	5068
461.425	5082
461.491	4728
461.505	4671
461.559	6757
461.585	7699
461.628	14122
461.665	19789
461.696	22704
461.745	28269
461.764	23616
461.825	8496
461.832	8593
461.901	7351
461.905	7292
461.969	5862
461.985	5723
462.037	5651
462.065	5406
462.105	5493
462.145	5729
462.173	7652
462.225	11292
462.241	13037
462.305	20081
462.310	19450
462.378	10196
462.385	9065
462.446	7464
462.465	6880
462.514	6891
462.545	6865
462.582	5968
462.625	5356
462.650	5390
462.705	5329
462.718	5439
462.785	5871
462.786	5907
462.854	7724
462.865	8064
462.922	10513
462.945	11427
462.990	8465
463.025	6437
463.058	6394
463.104	5640
463.126	5344
463.184	4778
463.194	4894
463.262	5996
463.264	6026
463.330	6168
463.344	6160
463.398	6244
463.424	6250
463.466	6243
463.504	6434
463.533	6723
463.583	7105
463.601	7353
463.663	8021
463.669	8241
463.737	10723
463.743	10937
463.805	13258
463.823	13946
463.873	21372
463.903	25915
463.940	28486
463.982	31400
464.008	24874
464.062	11281
464.076	10785
464.142	7047
464.144	7045
464.211	6765
464.221	6780
464.279	7277
464.301	7543
464.347	7945
464.381	8270
464.414	8622
464.461	8893
464.482	9248
464.540	10350
464.550	10247
464.617	9445
464.620	9392
464.685	11730
464.699	12259
464.753	15554
464.779	17240
464.820	19100
464.859	20727
464.888	19307
464.938	16799
464.956	16818
465.018	16361
465.023	16191
465.091	14044
465.098	13782
465.158	13686
465.177	13617
465.226	13425
465.257	13347
465.293	14278
465.336	15108
465.361	16212
465.416	18875
465.428	19424
465.495	21997
465.496	22086
465.563	29767
465.575	31029
465.631	40947
465.654	45104
465.698	29833
465.734	17232
465.765	15912
465.813	13397
465.833	13486
465.893	13859
465.900	13880
465.968	14034
465.972	14013
466.035	14278
466.052	14313
466.102	14221
466.131	14121
466.170	14693
466.210	15232
466.237	15523
466.290	16022
466.304	15925
466.369	15246
466.372	15328
466.439	16881
466.449	17050
466.506	18255
466.528	18708
466.573	21859
466.607	24124
466.641	33324
466.687	46016
466.708	52843
466.766	71363
466.775	66734
466.842	31021
466.845	29257
466.909	22991
466.925	21412
466.977	20325
467.004	19737
467.044	19746
467.083	19677
467.111	22175
467.163	26751
467.178	28079
467.242	33299
467.245	33120
467.312	27840
467.321	27076
467.379	25662
467.400	25064
467.446	25822
467.480	26271
467.559	24282
467.638	21682
467.717	21647
467.796	23571
467.875	27803
467.955	24064
468.034	26126
468.113	49586
468.192	81785
468.271	27724
468.350	19236
468.429	18211
468.508	18579
468.588	16561
468.667	17402
468.746	18474
468.825	19442
468.904	16357
468.983	19337
469.062	24780
469.141	32429
469.220	18476
469.299	16961
469.378	20179
469.456	25475
469.535	23709
469.614	21496
469.693	22003
469.772	23466
469.851	31397
469.930	24630
470.009	19932
470.088	19871
470.166	21074
470.245	25012
470.324	27419
470.403	24136
470.482	20295
470.560	18652
470.639	19985
470.718	25376
470.797	19914
470.875	20273
470.954	25321
471.033	28770
471.111	16650
471.190	16432
471.269	14832
471.347	15642
471.426	16338
471.505	18986
471.583	22281
471.662	20416
471.740	17862
471.819	16823
471.898	16810
471.976	16857
472.055	16478
472.133	17825
472.212	21659
472.290	23202
472.369	16217
472.447	16488
472.526	15028
472.604	16559
472.683	17641
472.761	19479
472.839	16829
472.918	17146
472.996	15788
473.075	17123
473.153	17518
473.231	14915
473.310	18195
473.388	18755
473.466	16590
473.545	20159
473.623	28786
473.701	29786
473.780	17675
473.858	17160
473.936	17128
474.014	16293
474.093	16938
474.171	20738
474.249	28928
474.327	21539
474.405	15501
474.484	14438
474.562	16206
474.640	16382
474.718	15287
474.796	16643
474.874	15308
474.952	14280
475.030	14846
475.108	14498
475.187	17987
475.265	18249
475.343	24153
475.421	30999
475.499	16904
475.577	16415
475.655	17282
475.733	26443
475.811	47850
475.889	45851
475.966	34027
476.044	14690
476.122	18225
476.200	24981
476.278	21645
476.356	13362
476.434	15167
476.512	16860
476.590	22840
476.667	20462
476.745	13169
476.823	15047
476.901	13277
476.979	13988
477.056	14125
477.134	14509
477.212	15467
477.290	14657
477.367	11871
477.445	12520
477.523	12189
477.601	12956
477.678	11372
477.756	14299
477.834	15812
477.911	12799
477.989	13959
478.066	11532
478.144	14250
478.222	16616
478.299	27524
478.377	28584
478.454	12337
478.532	11422
478.609	12975
478.687	15156
478.764	12280
478.842	12803
478.919	14489
478.997	14581
479.074	11920
479.152	12752
479.229	15648
479.307	12468
479.384	9662
479.461	10493
479.539	10608
479.616	14606
479.694	10876
479.771	11379
479.848	12481
479.926	15410
480.003	17068
480.080	11969
480.157	10599
480.235	10703
480.312	10799
480.389	10842
480.467	15934
480.544	21585
480.621	12863
480.698	10860
480.775	12713
480.853	13642
480.930	10321
481.007	12331
481.084	12288
481.161	12904
481.238	12172
481.315	9873
481.392	9719
481.470	10808
481.547	10437
481.624	11101
481.701	10113
481.778	10519
481.855	11363
481.932	13832
482.009	25574
482.086	21540
482.163	10997
482.240	14589
482.317	31883
482.393	27773
482.470	10854
482.547	11368
482.624	10119
482.701	10497
482.778	9032
482.855	8374
482.932	9161
483.009	8076
483.085	9033
483.162	10917
483.239	10558
483.316	9597
483.393	8705
483.469	9197
483.546	10666
483.623	11214
483.699	9467
483.776	10482
483.853	12439
483.930	15410
484.006	33509
484.083	74095
484.160	45569
484.236	85506
484.313	65314
484.389	48162
484.466	39902
484.543	37526
484.619	36550
484.696	38015
484.772	38417
484.849	41203
484.925	37124
485.002	35571
485.078	36366
485.155	36328
485.231	34075
485.308	33316
485.384	34100
485.461	36829
485.537	50265
485.614	64112
485.690	35363
485.766	32407
485.843	34397
485.919	47440
485.995	57313
486.072	31660
486.148	30138
486.224	30039
486.301	29952
486.377	33088
486.453	33577
486.530	32702
486.606	44801
486.682	52545
486.758	50683
486.835	59843
486.911	45866
486.987	67173
487.063	82132
487.139	129869
487.215	95149
487.292	42749
487.368	32586
487.444	34381
487.520	36485
487.596	33756
487.672	32846
487.748	40644
487.824	55948
487.900	34687
487.976	29906
488.052	30617
488.128	36090
488.204	34961
488.280	27979
488.356	31827
488.432	47909
488.508	86669
488.584	40053
488.660	29499
488.736	30281
488.812	32958
488.888	42048
488.964	50172
489.039	101517
489.115	186459
489.191	123698
489.267	32269
489.343	29457
489.418	25070
489.494	25846
489.570	23258
489.646	24596
489.722	23706
489.797	24681
489.873	29298
489.949	56314
490.024	59456
490.100	24380
490.176	24715
490.251	27542
490.327	43475
490.403	25208
490.478	22528
490.554	18731
490.629	21024
490.705	19165
490.781	23350
490.856	20184
490.932	26517
491.007	25712
491.083	25563
491.158	20813
491.234	24616
491.309	40600
491.385	52599
491.460	23313
491.536	22795
491.611	22590
491.686	24034
491.762	32180
491.837	61360
491.913	123708
491.988	138120
492.063	251953
492.139	55529
492.214	30386
492.289	19651
492.365	17171
492.440	23012
492.515	19552
492.590	21241
492.666	16526
492.741	20968
492.816	31556
492.891	19971
492.967	18161
493.042	15275
493.117	17855
493.192	18862
493.267	25565
493.342	74612
493.418	143383
493.493	33185
493.568	15422
493.643	14991
493.718	18721
493.793	26088
493.868	38288
493.943	25959
494.018	18150
494.093	14933
494.168	14479
494.243	14487
494.318	13380
494.393	13309
494.468	13961
494.543	13474
494.618	17207
494.693	16142
494.768	12786
494.842	15384
494.917	12358
494.992	14118
495.067	13185
495.142	11557
495.217	14682
495.292	14053
495.366	16502
495.441	22635
495.516	26297
495.591	37259
495.665	108510
495.740	390112
495.815	184120
495.890	25906
495.964	17997
496.039	17949
496.114	16574
496.188	16161
496.263	19060
496.338	15348
496.412	16798
496.487	21564
496.561	23306
496.636	27847
496.710	19159
496.785	19306
496.860	23118
496.934	19421
497.009	17725
497.083	17942
497.158	19768
497.232	20656
497.307	27265
497.381	22852
497.455	22747
497.530	32217
497.604	24827
497.679	24620
497.753	35044
497.827	50363
497.902	46929
497.976	52347
498.050	80685
498.125	312441
498.199	465436
498.273	88722
498.348	63557
498.422	52751
498.496	46433
498.570	44341
498.645	30707
498.719	29641
498.793	31037
498.867	41102
498.941	54887
499.016	100871
499.090	410789
499.164	185011
499.238	23045
499.312	19310
499.386	26575
499.460	24391
499.534	17307
499.609	20978
499.683	31648
499.757	30965
499.831	45711
499.905	214066
499.979	294268
500.053	40342
500.127	41689
500.201	41059
500.275	20530
500.349	19769
500.422	21260
500.496	30596
500.570	70884
500.644	122713
500.718	295693
500.792	75933
500.866	17756
500.940	22706
501.013	20062
501.087	19417
501.161	36281
501.235	53298
501.309	60751
501.382	190525
501.456	241553
501.530	45857
501.603	74681
501.677	35200
501.751	14319
501.825	16556
501.898	23650
501.972	80951
502.046	66227
502.119	17863
502.193	33189
502.266	94430
502.340	55089
502.413	30986
502.487	81973
502.561	52128
502.634	18663
502.708	17784
502.781	16137
502.855	12049
502.928	9802
503.002	9233
503.075	9815
503.149	10061
503.222	10538
503.295	10930
503.369	14656
503.442	18500
503.516	42458
503.589	153309
503.662	120437
503.736	29328
503.809	64008
503.882	64768
503.956	73338
504.029	89288
504.102	34891
504.175	35136
504.249	14191
504.322	12266
504.395	14939
504.468	10569
504.542	10604
504.615	8779
504.688	9200
504.761	9598
504.834	12319
504.907	16304
504.980	37691
505.053	15751
505.127	20272
505.200	24334
505.273	16411
505.346	11363
505.419	9437
505.492	8042
505.565	6816
505.638	7077
505.711	7791
505.784	8705
505.857	6793
505.930	8166
506.003	6935
506.076	9139
506.149	10850
506.221	15955
506.294	12581
506.367	24649
506.440	108400
506.513	84193
506.586	16593
506.659	11617
506.731	9114
506.804	10944
506.877	21336
506.950	13152
507.022	7965
507.095	10694
507.168	14895
507.241	12237
507.313	8487
507.386	9860
507.459	17638
507.531	11856
507.604	8608
507.677	8827
507.749	7800
507.822	11737
507.894	26574
507.967	40464
508.040	21519
508.112	16821
508.185	14834
508.257	14448
508.330	24727
508.402	15678
508.475	13821
508.547	14801
508.620	12597
508.692	19557
508.765	15257
508.837	11731
508.909	11331
508.982	11822
509.054	14349
509.127	13252
509.199	10344
509.271	10362
509.344	9570
509.416	10832
509.488	10201
509.560	11037
509.633	12244
509.705	15804
509.777	15214
509.849	21966
509.922	17882
509.994	13209
510.066	11365
510.138	13799
510.210	27411
510.283	28429
510.355	22772
510.427	18843
510.499	16804
510.571	16726
510.643	17454
510.715	26434
510.787	31136
510.859	17178
510.931	20094
511.003	27517
511.076	28421
511.148	16068
511.219	15386
511.291	20260
511.363	26099
511.435	15639
511.507	14456
511.579	14252
511.651	13797
511.723	13514
511.795	13670
511.867	13887
511.939	14711
512.010	24323
512.082	24463
512.154	15677
512.226	15317
512.298	20737
512.369	37284
512.441	27811
512.513	26974
512.585	22956
512.656	19989
512.728	24005
512.800	17719
512.871	14992
512.943	16189
513.015	15434
513.086	16418
513.158	19036
513.230	18548
513.301	24899
513.373	33804
513.444	20973
513.516	15773
513.588	16218
513.659	16414
513.731	23209
513.802	20702
513.874	31517
513.945	80785
514.016	31779
514.088	15511
514.159	18597
514.231	21578
514.302	35668
514.374	22901
514.445	20782
514.516	28710
514.588	28110
514.659	19476
514.730	27514
514.802	28166
514.873	23898
514.944	22296
515.016	20168
515.087	24330
515.158	23753
515.229	33033
515.301	20459
515.372	28242
515.443	21772
515.514	17464
515.585	14922
515.656	15456
515.728	14925
515.799	14831
515.870	15650
515.941	15212
516.012	16175
516.083	20448
516.154	24148
516.225	29338
516.296	28431
516.367	22914
516.438	24835
516.509	32006
516.580	42105
516.651	85420
516.722	372828
516.793	276725
516.864	45464
516.935	40243
517.006	39738
517.077	53933
517.148	119417
517.219	272722
517.289	694984
517.360	191699
517.431	74831
517.502	23427
517.573	20165
517.643	19042
517.714	22271
517.785	23217
517.856	22534
517.926	26108
517.997	29154
518.068	37457
518.138	48242
518.209	68175
518.280	172557
518.350	841192
518.421	515641
518.492	53605
518.562	28644
518.633	22991
518.703	19927
518.774	18632
518.845	20068
518.915	21192
518.986	19632
519.056	25347
519.127	49501
519.197	73019
519.268	134975
519.338	107076
519.408	26179
519.479	36233
519.549	32652
519.620	18775
519.690	14117
519.760	14277
519.831	14949
519.901	17500
519.971	12519
520.042	13622
520.112	15569
520.182	17984
520.253	25827
520.323	14352
520.393	15434
520.463	24405
520.534	16883
520.604	26221
520.674	18032
520.744	16005
520.814	29607
520.885	38857
520.955	31509
521.025	129784
521.095	83979
521.165	14592
521.235	14317
521.305	12935
521.375	11741
521.445	13171
521.515	21441
521.585	23517
521.655	29466
521.725	17203
521.795	16830
521.865	11223
521.935	14961
522.005	17052
522.075	11180
522.145	11185
522.215	12324
522.285	16236
522.355	20603
522.424	36017
522.494	39655
522.564	25531
522.634	40809
522.704	160929
522.774	93246
522.843	16050
522.913	14422
522.983	18938
523.053	17037
523.122	14530
523.192	19996
523.262	67476
523.331	109828
523.401	18307
523.471	10937
523.540	11584
523.610	9326
523.680	8076
523.749	8577
523.819	9872
523.888	11707
523.958	8687
524.027	9296
524.097	9732
524.166	9189
524.236	11188
524.305	12158
524.375	8921
524.444	8580
524.514	8878
524.583	9866
524.653	11358
524.722	13889
524.791	9889
524.861	8853
524.930	8727
524.999	10226
525.069	15496
525.138	11032
525.207	12927
525.277	10322
525.346	9790
525.415	8510
525.484	8932
525.554	10857
525.623	11243
525.692	8617
525.761	8012
525.830	7457
525.900	7648
525.969	9049
526.038	9984
526.107	8664
526.176	13404
526.245	15508
526.314	17441
526.383	22028
526.452	16224
526.522	21390
526.591	37799
526.660	71292
526.729	41211
526.797	32685
526.867	65534
526.935	323840
527.004	336722
527.073	109202
527.142	17301
527.211	12066
527.280	13197
527.349	17835
527.418	8813
527.487	7756
527.555	7473
527.624	7133
527.693	6889
527.762	6795
527.831	7305
527.899	7521
527.968	8212
528.037	8468
528.106	10219
528.174	22519
528.243	19511
528.312	19229
528.380	40862
528.449	13900
528.518	7125
528.586	6447
528.655	6019
528.723	6665
528.792	4913
528.861	6699
528.929	6775
528.998	6766
529.066	5258
529.135	5325
529.203	5849
529.272	4735
529.340	5874
529.409	6447
529.477	5947
529.545	7100
529.614	9394
529.682	8738
529.751	10779
529.819	9525
529.887	8283
529.956	5654
530.024	6368
530.092	6174
530.161	7541
530.229	15731
530.297	10174
530.365	5001
530.434	4384
530.502	4216
530.570	6661
530.638	4003
530.707	6451
530.775	8110
530.843	5405
530.911	4943
530.979	5150
531.047	5539
531.115	5913
531.183	5996
531.252	4697
531.320	5766
531.388	4687
531.456	5602
531.524	4719
531.592	5786
531.660	5649
531.728	5922
531.796	4950
531.864	5103
531.932	6341
532.000	7143
532.067	6802
532.135	6906
532.203	9565
532.271	11216
532.339	18514
532.407	57245
532.475	50516
532.542	17499
532.610	19714
532.678	28019
532.746	73236
532.814	330230
532.881	117283
532.949	14148
533.017	8349
533.084	6710
533.152	6173
533.220	6960
533.287	9094
533.355	7425
533.423	5913
533.490	5296
533.558	5391
533.625	6898
533.693	8166
533.761	8251
533.828	8998
533.896	9611
533.963	17612
534.031	28300
534.098	36031
534.166	21992
534.233	7333
534.300	8425
534.368	7012
534.435	6921
534.503	6817
534.570	6894
534.637	6125
534.705	5704
534.772	6550
534.840	5731
534.907	6669
534.974	9683
535.041	6318
535.109	8716
535.176	6094
535.243	5703
535.310	6014
535.378	6354
535.445	5291
535.512	4995
535.579	5574
535.646	5777
535.714	5779
535.781	9645
535.848	8780
535.915	9341
535.982	9762
536.049	8915
536.116	9448
536.183	8272
536.250	7684
536.317	8895
536.384	9677
536.451	15430
536.518	19419
536.585	12310
536.652	13707
536.719	21482
536.786	23098
536.853	15007
536.920	19032
536.987	36614
537.053	40436
537.120	113331
537.187	180664
537.254	17084
537.321	8857
537.388	9495
537.454	7223
537.521	6020
537.588	7017
537.654	8043
537.721	10221
537.788	9194
537.855	8065
537.921	8783
537.988	7812
538.055	7334
538.121	9229
538.188	9496
538.254	13988
538.321	33759
538.388	28352
538.454	9423
538.521	7839
538.587	6850
538.654	6586
538.720	6639
538.787	6580
538.853	7734
538.920	9601
538.986	11038
539.053	9156
539.119	8685
539.185	9983
539.252	9946
539.318	21078
539.385	16775
539.451	14758
539.517	14424
539.583	16440
539.650	28461
539.716	111598
539.782	48985
539.849	11564
539.915	10228
539.981	10058
540.047	13525
540.114	12729
540.180	10923
540.246	11490
540.312	15853
540.378	31850
540.444	44603
540.510	32904
540.576	118099
540.643	63931
540.709	10619
540.775	9085
540.841	9291
540.907	11546
540.973	18481
541.039	18145
541.105	23334
541.171	13184
541.237	9814
541.303	10711
541.369	11841
541.435	15115
541.500	28698
541.566	25113
541.632	9510
541.698	7989
541.764	6947
541.830	7499
541.896	7648
541.961	7609
542.027	8414
542.093	9248
542.159	10378
542.224	11704
542.290	16469
542.356	26465
542.421	40157
542.487	17816
542.553	10653
542.618	12151
542.684	12108
542.750	11983
542.815	14740
542.881	22333
542.947	82212
543.012	110178
543.078	13764
543.143	9823
543.209	10553
543.274	11449
543.340	14116
543.405	25888
543.471	75216
543.536	19958
543.602	8636
543.667	8688
543.732	8684
543.798	7561
543.863	8568
543.928	7269
543.994	7413
544.059	8160
544.124	7589
544.190	7838
544.255	8230
544.320	9577
544.386	10586
544.451	14234
544.516	19258
544.581	19329
544.646	43962
544.712	122437
544.777	29994
544.842	11005
544.907	11252
544.972	10146
545.037	8947
545.102	9832
545.168	10629
545.233	10727
545.298	11373
545.363	14935
545.428	17893
545.493	26138
545.558	77553
545.623	49101
545.688	12233
545.753	9192
545.818	9567
545.883	8760
545.947	9910
546.012	10071
546.077	10485
546.142	10013
546.207	10166
546.272	13541
546.337	17836
546.401	12272
546.466	10961
546.531	9310
546.596	10962
546.661	10340
546.725	10218
546.790	8496
546.855	7921
546.919	7251
546.984	8231
547.049	9122
547.113	10474
547.178	9145
547.243	8717
547.307	9827
547.372	11005
547.436	12900
547.501	9726
547.565	9035
547.630	12800
547.695	14472
547.759	12296
547.823	10988
547.888	8345
547.952	8596
548.017	8695
548.081	10541
548.146	13289
548.210	13012
548.274	8010
548.339	7783
548.403	7248
548.468	7869
548.532	7268
548.596	7188
548.660	7502
548.725	8683
548.789	10687
548.853	11881
548.917	8882
548.982	11028
549.046	13563
549.110	7942
549.174	7780
549.238	7484
549.303	6586
549.367	8026
549.431	8434
549.495	6966
549.559	7838
549.623	7433
549.687	9614
549.751	18672
549.815	14053
549.879	8523
549.943	7704
550.007	8070
550.071	9478
550.135	14273
550.199	14088
550.263	8629
550.327	9324
550.391	11771
550.455	10289
550.519	7904
550.582	9521
550.646	13575
550.710	21531
550.774	9358
550.838	8467
550.901	7244
550.965	8319
551.029	8027
551.093	9793
551.156	10302
551.220	20037
551.284	31939
551.347	14673
551.411	23399
551.475	43462
551.538	12795
551.602	7609
551.666	7479
551.729	7358
551.793	7883
551.856	7415
551.920	6940
551.983	7417
552.047	6474
552.110	6808
552.174	6927
552.237	7155
552.301	7315
552.364	7126
552.428	6944
552.491	7336
552.554	7541
552.618	7969
552.681	8212
552.745	9192
552.808	13670
552.871	22864
552.934	14410
552.998	8431
553.061	9067
553.124	9770
553.187	8452
553.251	8631
553.314	10090
553.377	10939
553.440	14851
553.503	32523
553.567	89042
553.630	27262
553.693	8347
553.756	7730
553.819	6607
553.882	6182
553.945	6957
554.008	6336
554.071	6138
554.134	6028
554.197	5955
554.260	6439
554.323	7120
554.386	7776
554.449	7251
554.512	6835
554.575	5795
554.638	6831
554.701	7034
554.764	6056
554.827	6356
554.889	5622
554.952	5595
555.015	5024
555.078	5256
555.141	5959
555.203	5205
555.266	5864
555.329	6927
555.391	5756
555.454	6410
555.517	8016
555.580	5879
555.642	5716
555.705	5532
555.768	6410
555.830	6392
555.893	5804
555.955	5131
556.018	6221
556.080	5883
556.143	6802
556.206	6263
556.268	7069
556.330	7445
556.393	7613
556.455	7988
556.518	9553
556.580	14361
556.643	8057
556.705	7166
556.767	6458
556.830	8336
556.892	9096
556.955	16933
557.017	17363
557.079	8420
557.142	8024
557.204	9892
557.266	21947
557.328	28449
557.391	8826
557.453	5663
557.515	6446
557.577	8460
557.639	12335
557.701	6097
557.764	4551
557.826	5277
557.888	6087
557.950	4524
558.012	5502
558.074	5351
558.136	7088
558.198	8569
558.260	7771
558.322	7421
558.384	6880
558.446	8104
558.508	9044
558.570	12009
558.632	20934
558.694	47343
558.756	22223
558.818	11804
558.880	24824
558.942	16644
559.003	9115
559.065	7411
559.127	6114
559.189	6130
559.251	6337
559.312	6435
559.374	8094
559.436	14932
559.498	15367
559.559	5883
559.621	6421
559.683	6699
559.744	8906
559.806	13861
559.868	17992
559.929	9701
559.991	8037
560.052	7777
560.114	9121
560.176	9006
560.237	8926
560.299	13755
560.360	10502
560.422	6823
560.483	7163
560.545	7095
560.606	5671
560.667	6415
560.729	6363
560.790	6253
560.852	6605
560.913	6639
560.974	7036
561.036	6546
561.097	7386
561.158	7050
561.220	8834
561.281	8023
561.342	8857
561.403	11003
561.465	13951
561.526	30737
561.587	66788
561.648	23188
561.709	8763
561.771	7601
561.832	7883
561.893	7167
561.954	7129
562.015	7184
562.076	7125
562.137	7664
562.198	7301
562.259	7316
562.320	7442
562.381	8739
562.442	13078
562.503	14748
562.564	7893
562.625	7239
562.686	6836
562.747	7273
562.808	7983
562.869	6766
562.930	8488
562.991	9005
563.051	8069
563.112	7355
563.173	7266
563.234	6922
563.294	7291
563.355	7495
563.416	7367
563.477	8017
563.537	7870
563.598	7867
563.659	8119
563.720	7392
563.780	8065
563.841	9138
563.901	8027
563.962	7647
564.023	7331
564.083	7660
564.144	8669
564.204	8904
564.265	7908
564.325	8590
564.386	13798
564.446	18145
564.507	8062
564.567	6789
564.628	7725
564.688	6847
564.749	7012
564.809	8786
564.869	9562
564.930	8190
564.990	8533
565.050	7842
565.111	7561
565.171	7325
565.231	7694
565.292	7858
565.352	7146
565.412	8095
565.472	8607
565.532	8775
565.593	9151
565.653	7851
565.713	8161
565.773	9179
565.833	10991
565.893	16009
565.953	11417
566.013	8505
566.074	9602
566.134	9693
566.194	14310
566.254	19666
566.314	14892
566.374	10196
566.434	9122
566.494	9312
566.554	9855
566.614	9499
566.673	9486
566.733	9909
566.793	9826
566.853	11687
566.913	11017
566.973	11340
567.033	11457
567.092	10868
567.152	10931
567.212	11380
567.272	11401
567.331	12352
567.391	12788
567.451	12698
567.511	15340
567.570	16826
567.630	13282
567.690	11552
567.749	12475
567.809	12720
567.868	13908
567.928	15649
567.988	18217
568.047	21030
568.107	25062
568.166	32127
568.226	49437
568.285	73400
568.345	71927
568.404	55321
568.464	46052
568.523	40399
568.582	40954
568.642	44505
568.701	55263
568.761	73781
568.820	115873
568.879	137516
568.939	104635
568.998	74682
569.057	54970
569.116	40892
569.176	33779
569.235	26692
569.294	23486
569.353	20378
569.413	17934
569.472	15898
569.531	14824
569.590	12940
569.649	12469
569.708	10514
569.767	10857
569.827	10616
569.886	10596
569.945	9207
570.004	10707
570.063	9581
570.122	10053
570.181	11341
570.240	10575
570.299	10011
570.358	9459
570.417	8733
570.475	7284
570.534	8140
570.593	9041
570.652	8977
570.711	8727
570.770	7912
570.829	9991
570.887	9272
570.946	10988
571.005	8874
571.064	7026
571.122	6765
571.181	8763
571.240	7962
571.299	6446
571.357	7505
571.416	7599
571.475	7042
571.533	9315
571.592	6512
571.650	7211
571.709	6452
571.768	6046
571.826	6069
571.885	5723
571.943	5835
572.002	6338
572.060	6331
572.119	5501
572.177	5703
572.236	5491
572.294	4343
572.352	5461
572.411	5117
572.469	5556
572.528	4952
572.586	6104
572.644	5358
572.703	6232
572.761	6768
572.819	5359
572.877	5497
572.936	5360
572.994	5423
573.052	4945
573.110	4694
573.169	6590
573.227	5823
573.285	5134
573.343	3928
573.401	5181
573.459	4605
573.517	4595
573.576	4386
573.634	5259
573.692	4660
573.750	4766
573.808	4071
573.866	5094
573.924	6348
573.982	6839
574.040	5184
574.098	5526
574.155	4775
574.213	5249
574.271	4638
574.329	5301
574.387	4450
574.445	5090
574.503	4440
574.560	3489
574.618	4250
574.676	5067
574.734	4361
574.792	4892
574.849	4607
574.907	4381
574.965	4191
575.022	3233
575.080	4172
575.138	4587
575.195	4906
575.253	5255
575.311	6548
575.368	5607
575.426	4018
575.483	4790
575.541	3916
575.598	4609
575.656	4013
575.713	4545
575.771	4535
575.828	4946
575.886	4274
575.943	4576
576.001	5360
576.058	4763
576.115	5090
576.173	6045
576.230	6975
576.287	8433
576.345	7645
576.402	4355
576.459	5497
576.517	4660
576.574	5659
576.631	5234
576.688	5093
576.746	4303
576.803	4915
576.860	4984
576.917	4313
576.974	5130
577.031	4720
577.089	4644
577.146	5401
577.203	5902
577.260	4494
577.317	5468
577.374	6208
577.431	6000
577.488	5630
577.545	5452
577.602	5522
577.659	4855
577.716	5228
577.773	5700
577.830	5190
577.886	5132
577.943	4765
578.000	5123
578.057	5189
578.114	5606
578.171	6038
578.227	6886
578.284	7246
578.341	7382
578.398	6691
578.454	5389
578.511	5624
578.568	6562
578.625	5706
578.681	5571
578.738	4734
578.794	4541
578.851	4208
578.908	4704
578.964	4888
579.021	5853
579.077	4731
579.134	5231
579.190	5527
579.247	5048
579.303	4375
579.360	5234
579.416	4481
579.473	4514
579.529	4124
579.586	4789
579.642	4763
579.698	4858
579.755	5274
579.811	5912
579.867	4961
579.924	5240
579.980	4994
580.036	5708
580.093	6255
580.149	8365
580.205	11683
580.261	9634
580.317	7047
580.374	6742
580.430	6696
580.486	7554
580.542	5958
580.598	5332
580.619	5526
580.654	5870
580.692	5509
580.710	5342
580.765	5008
580.767	5003
580.823	4816
580.838	4780
580.879	4713
580.911	4985
580.935	5193
580.984	5023
580.991	5009
581.047	4743
581.057	4807
581.103	5106
581.130	5459
581.159	5837
581.203	6137
581.215	6240
581.270	6403
581.276	6386
581.326	6203
581.349	5896
581.382	5474
581.422	5511
581.438	5527
581.494	5340
581.494	5336
581.550	5348
581.567	5336
581.606	5364
581.640	5462
581.661	5490
581.713	5701
581.717	5729
581.773	5827
581.786	5701
581.829	5209
581.859	5003
581.885	4886
581.932	5013
581.940	5038
581.996	5582
582.004	5516
582.052	5108
582.077	4808
582.107	4495
582.150	5098
582.163	5303
582.219	5032
582.223	5018
582.274	4766
582.296	4916
582.330	5154
582.368	5814
582.386	6155
582.441	5438
582.441	5439
582.497	5031
582.514	4956
582.552	4855
582.587	5380
582.608	5679
582.659	5829
582.663	5842
582.719	4884
582.732	4806
582.774	4601
582.805	4914
582.830	5174
582.877	5738
582.885	5818
582.941	5440
582.950	5400
582.996	5303
583.023	5649
583.052	6004
583.095	5837
583.107	5804
583.162	6689
583.168	6864
583.218	8519
583.240	8011
583.273	7165
583.313	6454
583.328	6217
583.384	5931
583.385	5899
583.439	4886
583.458	4980
583.494	5237
583.531	5419
583.549	5457
583.603	4965
583.605	4950
583.660	5298
583.676	5269
583.715	5173
583.748	5304
583.770	5446
583.820	5387
583.825	5370
583.881	5678
583.893	5513
583.936	5170
583.965	5209
583.991	5049
584.038	5058
584.046	5057
584.101	5086
584.110	4966
584.156	4705
584.183	4783
584.211	4648
584.255	4883
584.266	4965
584.321	4827
584.328	4863
584.376	5243
584.400	5353
584.431	5461
584.472	5318
584.486	5231
584.541	4882
584.545	4901
584.596	5214
584.617	5020
584.651	4824
584.689	5727
584.706	6069
584.761	5437
584.762	5440
584.816	5504
584.834	5785
584.871	6185
584.906	5726
584.926	5495
584.978	5680
584.980	5687
585.035	5498
585.051	5627
585.090	5860
585.123	6239
585.145	6695
585.195	6787
585.200	6732
585.254	6904
585.267	6834
585.309	7066
585.340	8002
585.364	8907
585.412	9287
585.419	9129
585.473	7158
585.484	6988
585.528	6735
585.556	6583
585.583	6646
585.628	7267
585.637	7373
585.692	8079
585.700	8207
585.747	8977
585.772	9162
585.801	9023
585.845	7522
585.856	7152
585.910	7532
585.917	7459
585.965	7171
585.989	7212
586.019	7118
586.061	7029
586.074	6992
586.128	7432
586.133	7433
586.183	7654
586.205	8112
586.237	8827
586.277	9080
586.292	8972
586.346	8599
586.349	8604
586.401	8522
586.421	8472
586.455	8425
586.493	8918
586.509	9173
586.564	9563
586.565	9636
586.618	12678
586.637	13783
586.672	15619
586.709	13039
586.727	11023
586.781	8665
586.781	8645
586.835	9255
586.853	9163
586.889	8632
586.925	8704
586.944	8842
586.996	9525
586.998	9517
587.052	9501
587.068	9610
587.106	9925
587.140	9892
587.161	9711
587.212	9786
587.215	9784
587.269	10435
587.284	10622
587.323	10871
587.356	10877
587.377	10843
587.427	11568
587.431	11568
587.485	11006
587.499	11208
587.539	12291
587.571	12962
587.593	13012
587.643	13010
587.648	13046
587.702	14663
587.715	14925
587.755	15014
587.786	15226
587.810	15389
587.858	16612
587.864	16716
587.917	18082
587.930	18569
587.971	20175
588.001	21026
588.025	21517
588.073	24222
588.079	24474
588.133	26656
588.145	27472
588.187	29764
588.217	32128
588.241	34468
588.288	39740
588.295	40253
588.348	47255
588.360	49383
588.402	56790
588.431	62888
588.456	67821
588.503	80731
588.510	82170
588.564	99792
588.575	105165
588.617	123995
588.646	140438
588.671	153721
588.718	189988
588.725	194917
588.778	255723
588.789	274780
588.832	356959
588.861	431473
588.886	531608
588.932	747835
588.939	792546
588.993	1038407
589.004	1089074
589.047	1013101
589.075	934558
589.100	768594
589.147	407713
589.154	380038
589.207	243609
589.218	225060
589.261	192663
589.290	182898
589.314	178722
589.361	187766
589.368	189124
589.421	230386
589.433	246050
589.475	330909
589.504	414159
589.528	536463
589.576	759802
589.582	778050
589.635	876104
589.647	883733
589.689	571546
589.718	344565
589.742	253099
589.790	125227
589.795	117586
589.849	78410
589.861	71909
589.902	57731
589.932	50864
589.955	46093
590.004	38187
590.009	37139
590.062	30656
590.075	29532
590.115	25969
590.146	24002
590.168	22740
590.218	20946
590.222	20612
590.275	18383
590.289	18070
590.328	16905
590.360	16073
590.381	15152
590.431	13596
590.435	13442
590.488	12872
590.503	12830
590.541	12296
590.574	12152
590.594	12013
590.645	11993
590.647	11884
590.700	10938
590.716	10785
590.753	10191
590.787	9781
590.806	9522
590.859	9211
590.859	9138
590.912	8575
590.930	8520
590.965	8546
591.001	8543
591.018	8519
591.071	8937
591.072	8994
591.124	7926
591.143	7688
591.177	7228
591.214	6865
591.230	7074
591.283	7960
591.285	8044
591.336	7891
591.356	7952
591.389	8622
591.427	9396
591.442	9058
591.495	7782
591.498	7746
591.547	7252
591.569	7077
591.600	6829
591.640	6578
591.653	6543
591.706	6624
591.711	6675
591.759	5957
591.782	5661
591.811	5843
591.853	6239
591.864	6299
591.917	6755
591.924	6848
591.969	6163
591.995	5916
592.022	5703
592.066	5405
592.075	5388
592.127	5504
592.137	5575
592.180	5791
592.208	6028
592.233	5973
592.279	5901
592.285	5772
592.338	5079
592.350	4953
592.390	4913
592.421	4996
592.443	4969
592.491	5012
592.495	4932
592.548	4361
592.562	4251
592.600	4539
592.633	4859
592.653	4690
592.704	4337
592.705	4369
592.775	4844
592.846	5602
592.916	5302
592.987	5672
593.058	6594
593.128	5581
593.199	4624
593.270	4470
593.341	4671
593.411	4226
593.482	4759
593.553	4786
593.623	4571
593.694	3992
593.764	3525
593.835	5201
593.906	3636
593.976	4071
594.047	4010
594.117	4722
594.188	4992
594.258	4498
594.329	3491
594.399	4244
594.470	3839
594.540	3801
594.611	3541
594.681	3992
594.751	4419
594.822	5399
594.892	7999
594.963	7125
595.033	5250
595.103	4768
595.174	4462
595.244	4932
595.314	7388
595.384	6131
595.455	4325
595.525	3745
595.595	3994
595.665	4245
595.736	3898
595.806	3601
595.876	3924
595.946	4267
596.016	3162
596.087	3169
596.157	3784
596.227	3540
596.297	3149
596.367	2695
596.437	3132
596.507	4323
596.577	5374
596.647	5752
596.717	3690
596.787	3327
596.857	3705
596.927	3852
596.997	3506
597.067	3300
597.137	3532
597.207	3777
597.277	3700
597.347	2684
597.417	3866
597.487	3836
597.557	3866
597.626	3932
597.696	3748
597.766	4803
597.836	5145
597.906	5838
597.975	4195
598.045	3295
598.115	3952
598.185	3159
598.254	3624
598.324	3898
598.394	4458
598.464	4333
598.533	4612
598.603	3252
598.672	3383
598.742	4130
598.812	2893
598.881	2881
598.951	3104
599.020	3771
599.090	3529
599.159	3135
599.229	3663
599.299	2614
599.368	2484
599.437	3051
599.507	3191
599.576	3583
599.646	2839
599.715	3245
599.785	3730
599.854	3279
599.924	3094
599.993	3340
600.062	3201
600.132	3411
600.201	3085
600.270	3357
600.340	3876
600.409	3045
600.478	3311
600.547	2271
600.617	3101
600.686	3482
600.755	3149
600.824	4362
600.894	4622
600.963	2877
601.032	2670
601.101	2578
601.170	2993
601.239	2311
601.308	2718
601.378	4535
601.447	3154
601.516	3063
601.585	3369
601.654	3258
601.723	3120
601.792	3367
601.861	2592
601.930	3821
601.999	4491
602.068	4730
602.137	3515
602.206	4966
602.275	3625
602.343	4044
602.412	6967
602.481	4409
602.550	3115
602.619	3007
602.688	3065
602.756	3144
602.825	2179
602.894	1851
602.963	2296
603.032	2692
603.100	2093
603.169	3051
603.238	1862
603.307	2103
603.375	2783
603.444	2008
603.513	2351
603.581	1547
603.650	1321
603.719	2808
603.787	2138
603.856	2252
603.924	2212
603.993	2767
604.061	1718
604.130	2879
604.198	2787
604.267	2316
604.335	1821
604.404	2487
604.472	1895
604.541	2276
604.609	2121
604.678	1692
604.746	2317
604.815	1577
604.883	3269
604.951	2249
605.020	1993
605.088	1963
605.156	2324
605.225	2158
605.293	1916
605.361	2130
605.429	2819
605.498	1926
605.566	2359
605.634	3618
605.702	2359
605.771	1861
605.839	2151
605.907	1891
605.975	2324
606.043	1658
606.111	2231
606.180	1740
606.248	2868
606.316	3271
606.384	2668
606.452	2709
606.520	4509
606.588	6615
606.656	2938
606.724	2136
606.792	1800
606.860	2089
606.928	2358
606.996	1885
607.064	2376
607.132	1682
607.200	2186
607.267	2041
607.335	1930
607.403	1743
607.471	2164
607.539	2118
607.607	1943
607.674	1853
607.742	2959
607.810	4035
607.878	4399
607.946	2078
608.013	2699
608.081	2068
608.149	2618
608.216	2056
608.284	2392
608.352	1828
608.419	1553
608.487	2284
608.555	3034
608.622	2641
608.690	1366
608.757	1150
608.825	1951
608.893	1520
608.960	2390
609.028	2521
609.095	3865
609.163	3212
609.230	2666
609.298	2045
609.365	2221
609.432	2248
609.500	1991
609.567	2132
609.635	2755
609.702	2806
609.769	2461
609.837	2467
609.904	2390
609.971	1917
610.039	2665
610.106	3555
610.173	4779
610.241	8909
610.308	17875
610.375	34007
610.442	17063
610.509	3465
610.577	2982
610.644	2619
610.711	2630
610.778	2237
610.845	2390
610.912	2269
610.980	1849
611.047	2822
611.114	4158
611.181	1794
611.248	1800
611.315	2113
611.382	1997
611.449	1657
611.516	1389
611.583	2410
611.650	1433
611.717	1601
611.784	3041
611.851	2795
611.918	1339
611.984	1737
612.051	1968
612.118	2411
612.185	4892
612.252	8736
612.319	3898
612.386	1784
612.452	2519
612.519	2025
612.586	2100
612.653	3530
612.719	1895
612.786	2288
612.853	2058
612.919	1672
612.986	2465
613.053	1520
613.120	2247
613.186	1947
613.253	2212
613.319	1841
613.386	1917
613.453	2353
613.519	2756
613.586	3861
613.652	7542
613.719	10505
613.785	7814
613.852	4617
613.918	2186
613.985	2858
614.051	4243
614.118	10932
614.184	32243
614.250	17813
614.317	2967
614.383	2690
614.449	1716
614.516	1729
614.582	2214
614.648	1855
614.715	1661
614.781	1913
614.847	2179
614.914	1166
614.980	2294
615.046	1989
615.112	1208
615.179	2076
615.245	2780
615.311	2174
615.377	2502
615.443	4657
615.509	3763
615.575	2999
615.642	1916
615.708	3059
615.774	3472
615.840	3802
615.906	3360
615.972	3343
616.038	5099
616.104	9178
616.170	9129
616.236	13522
616.302	7069
616.368	2734
616.434	1930
616.500	2339
616.565	2733
616.631	3131
616.697	2996
616.763	1759
616.829	2101
616.895	3020
616.961	3700
617.026	2726
617.092	3432
617.158	2639
617.224	1568
617.289	2253
617.355	1570
617.421	1882
617.487	1538
617.552	1941
617.618	1199
617.684	2110
617.749	2428
617.815	2556
617.880	1327
617.946	1831
618.012	2164
618.077	1600
618.143	1408
618.208	2025
618.274	1439
618.339	1519
618.405	1694
618.470	1800
618.536	2191
618.601	2158
618.667	2167
618.732	2516
618.798	1928
618.863	1557
618.928	2032
618.994	1926
619.059	2552
619.124	4959
619.190	7916
619.255	3202
619.320	1948
619.386	2066
619.451	1601
619.516	1042
619.581	1158
619.647	2190
619.712	1772
619.777	1502
619.842	1894
619.907	1650
619.972	1685
620.038	2305
620.103	1192
620.168	1424
620.233	2447
620.298	1717
620.363	1313
620.428	1477
620.493	1196
620.558	1276
620.623	1787
620.688	1311
620.753	1776
620.818	1707
620.883	708
620.948	1119
621.013	1323
621.078	1614
621.143	1531
621.207	1761
621.272	1451
621.337	1891
621.402	2926
621.467	2370
621.532	3531
621.596	2880
621.661	2501
621.726	2656
621.791	2530
621.855	2037
621.920	2888
621.985	3348
622.049	3065
622.114	2878
622.179	3407
622.243	2307
622.308	2210
622.373	2688
622.437	1663
622.502	2835
622.566	1787
622.631	2181
622.695	2688
622.760	1941
622.824	2746
622.889	2764
622.953	3265
623.018	4353
623.082	10894
623.147	5922
623.211	2317
623.276	3285
623.340	2159
623.404	2257
623.469	1975
623.533	2053
623.597	1066
623.662	2529
623.726	2257
623.790	2622
623.854	2371
623.919	1526
623.983	2240
624.047	2251
624.111	1918
624.176	1763
624.240	1898
624.304	2635
624.368	2713
624.432	2584
624.496	3305
624.560	3068
624.625	4719
624.689	4732
624.753	2888
624.817	2821
624.881	1771
624.945	1633
625.009	1922
625.073	2237
625.137	1633
625.201	3747
625.265	6261
625.329	4370
625.393	3035
625.456	3705
625.520	3475
625.584	3092
625.648	2916
625.712	4058
625.776	6187
625.839	13239
625.903	12559
625.967	3476
626.031	2858
626.095	4690
626.158	5911
626.222	2191
626.286	1716
626.349	1634
626.413	1936
626.477	1793
626.540	2159
626.604	1244
626.668	1451
626.731	1788
626.795	1289
626.858	1811
626.922	1306
626.986	1548
627.049	1018
627.113	1288
627.176	2260
627.240	660
627.303	1282
627.366	550
627.430	1114
627.493	1846
627.557	1016
627.620	1976
627.684	685
627.747	1192
627.810	1142
627.874	1626
627.937	612
628.000	677
628.064	1829
628.127	2084
628.190	1140
628.253	905
628.317	1575
628.380	114
628.443	990
628.506	1097
628.569	581
628.632	651
628.696	1031
628.759	1301
628.822	1229
628.885	573
628.948	933
629.011	1007
629.074	1518
629.137	1813
629.200	1483
629.263	1288
629.326	371
629.389	1302
629.452	778
629.515	1381
629.578	384
629.641	1093
629.704	750
629.767	1093
629.830	1700
629.892	1005
629.955	798
630.018	1380
630.081	2141
630.144	3125
630.207	3063
630.269	2477
630.332	1611
630.395	1905
630.458	1440
630.520	643
630.583	1647
630.646	345
630.708	725
630.771	1294
630.834	1115
630.896	229
630.959	461
631.021	332
631.084	842
631.146	1016
631.209	1204
631.272	1452
631.334	864
631.397	143
631.459	833
631.522	874
631.584	784
631.646	355
631.709	505
631.771	1453
631.834	1962
631.896	1015
631.958	607
632.021	862
632.083	-171
632.145	1088
632.208	707
632.270	935
632.332	316
632.395	362
632.457	984
632.519	574
632.581	877
632.643	265
632.706	339
632.768	-84
632.830	32
632.892	145
632.954	766
633.016	753
633.078	422
633.141	328
633.203	542
633.265	757
633.327	903
633.389	-181
633.451	525
633.513	1844
633.575	2122
633.637	1377
633.698	2363
633.760	1892
633.822	794
633.884	363
633.946	658
634.008	204
634.070	746
634.132	890
634.193	734
634.255	-49
634.317	411
634.379	690
634.441	328
634.502	671
634.564	662
634.626	2052
634.687	5438
634.749	6974
634.811	1953
634.873	776
634.934	664
634.996	329
635.057	354
635.119	-193
635.181	-454
635.242	151
635.304	-489
635.365	565
635.427	168
635.488	363
635.550	747
635.611	-110
635.673	-332
635.734	193
635.796	64
635.857	55
635.918	793
635.980	11
636.041	514
636.102	-291
636.164	-246
636.225	-377
636.286	253
636.348	609
636.409	-137
636.470	530
636.531	92
636.593	398
636.654	493
636.715	336
636.776	-62
636.838	249
636.899	417
636.960	-327
637.021	336
637.082	1191
637.143	3353
637.204	2062
637.265	-225
637.326	772
637.387	426
637.448	-113
637.509	412
637.570	66
637.631	87
637.692	-238
637.753	-205
637.814	-280
637.875	106
637.936	200
637.997	-738
638.058	45
638.119	479
638.179	-15
638.240	20
638.301	-368
638.362	86
638.423	593
638.483	-225
638.544	19
638.605	-279
638.666	-226
638.726	-261
638.787	139
638.848	241
638.908	147
638.969	33
639.030	89
639.090	134
639.151	-106
639.211	-131
639.272	462
639.332	1727
639.393	5210
639.453	796
639.514	-520
639.574	486
639.635	-520
639.695	358
639.756	354
639.816	396
639.877	424
639.937	1461
639.997	4802
640.058	6053
640.118	553
640.178	-628
640.239	765
640.299	-75
640.359	-479
640.420	-252
640.480	-1002
640.540	-497
640.600	-465
640.661	-212
640.721	-676
640.781	411
640.841	500
640.901	39
640.961	-247
641.021	747
641.082	-393
641.142	987
641.202	3313
641.262	336
641.322	267
641.382	-156
641.442	-563
641.502	309
641.562	-969
641.622	-333
641.682	190
641.742	-148
641.802	-76
641.861	477
641.921	-110
641.981	639
642.041	1468
642.101	587
642.161	2185
642.221	698
642.280	37
642.340	22
642.400	-563
642.460	-491
642.519	-437
642.579	-1116
642.639	223
642.698	-1084
642.758	440
642.818	-341
642.877	-74
642.937	123
642.997	80
643.056	1330
643.116	1770
643.175	16
643.235	-69
643.294	-766
643.354	-58
643.414	-374
643.473	-705
643.532	-607
643.592	-553
643.651	-72
643.711	596
643.770	451
643.830	588
643.889	2374
643.948	6549
644.008	554
644.067	-719
644.126	-517
644.186	-449
644.245	-776
644.304	-942
644.363	-195
644.423	-402
644.482	-675
644.541	-926
644.600	-1071
644.659	-415
644.719	-908
644.778	-204
644.837	-488
644.896	-254
644.955	-18
645.014	204
645.073	165
645.132	-29
645.191	-227
645.250	-973
645.309	-771
645.368	-782
645.427	-481
645.486	-468
645.545	-474
645.604	-950
645.663	-999
645.722	-133
645.781	-230
645.840	-562
645.898	-124
645.957	53
646.016	-851
646.075	-444
646.134	-92
646.192	929
646.251	2099
646.310	3253
646.369	-10
646.427	-516
646.486	-278
646.545	-303
646.603	-557
646.662	-450
646.721	-609
646.779	-1252
646.838	-1241
646.896	-1122
646.955	-918
647.014	-306
647.072	-881
647.131	-892
647.189	-48
647.248	-1612
647.306	-1020
647.365	-673
647.423	-318
647.481	-527
647.540	-1316
647.598	-162
647.657	80
647.715	-752
647.773	-1354
647.832	-1314
647.890	-872
647.948	-835
648.007	-915
648.065	-858
648.123	-1112
648.181	94
648.240	-165
648.298	448
648.356	462
648.414	-425
648.472	253
648.531	52
648.589	-925
648.647	46
648.705	-261
648.763	-768
648.821	-1028
648.879	-1049
648.937	-76
648.995	-45
649.053	-351
649.111	-915
649.169	-111
649.227	-396
649.285	-436
649.343	1009
649.401	2586
649.459	3718
649.516	8358
649.574	4739
649.632	2695
649.690	9357
649.748	10652
649.806	195
649.863	711
649.921	1750
649.979	-356
650.037	-198
650.094	-365
650.152	-1235
650.210	-237
650.268	-962
650.325	-699
650.383	-1164
650.440	-1087
650.498	-842
650.556	-488
650.613	-1355
650.671	-909
650.728	-1057
650.786	-1554
650.843	-738
650.901	-904
650.958	-1152
651.016	-1390
651.073	-1031
651.131	-1079
651.188	-1233
651.246	-1004
651.303	-1468
651.360	-588
651.418	-1260
651.475	-746
651.532	-574
651.590	-1081
651.647	-978
651.704	-1000
651.762	-608
651.819	-1027
651.876	-187
651.933	-1100
651.990	-1278
652.048	-1304
652.105	-1190
652.162	-992
652.219	-1159
652.276	-857
652.333	-816
652.390	-1120
652.448	-844
652.505	-1802
652.562	-634
652.619	-1154
652.676	-187
652.733	-677
652.790	-633
652.847	-1776
652.904	-815
652.961	-1465
653.017	-1040
653.074	-986
653.131	-838
653.188	-1257
653.245	-594
653.302	-1022
653.359	-1237
653.415	-899
653.472	-912
653.529	-964
653.586	-1115
653.642	-1666
653.699	-612
653.756	-495
653.813	-753
653.869	-1017
653.926	-848
653.983	-844
654.039	-1028
654.096	-926
654.152	-1341
654.209	-1209
654.266	-1077
654.322	-1384
654.379	-928
654.435	-832
654.492	-769
654.548	-1069
654.605	515
654.661	1194
654.717	-637
654.774	-906
654.830	-841
654.887	-777
654.943	-473
655.000	-697
655.056	-688
655.112	-546
655.168	-506
655.225	-606
655.281	-672
655.337	-1079
655.394	180
655.450	-138
655.506	356
655.562	-960
655.618	946
655.675	114
655.731	600
655.787	14
655.843	390
655.899	288
655.955	1327
656.011	1312
656.067	1200
656.123	2217
656.179	2646
656.235	3569
656.291	4100
656.347	4610
656.403	3244
656.459	1979
656.515	1365
656.571	1604
656.627	1359
656.683	89
656.739	1092
656.795	-685
656.850	-71
656.906	613
656.962	45
657.018	-711
657.074	127
657.129	-625
657.185	-680
657.241	-339
657.297	-1107
657.352	-697
657.408	-1821
657.464	-284
657.519	-1064
657.575	-1537
657.630	-812
657.686	-836
657.742	-1332
657.797	-1535
657.853	-449
657.908	-625
657.964	-971
658.019	-851
658.075	-555
658.130	-906
658.186	-1783
658.241	-1003
658.297	-805
658.352	-1603
658.407	-1078
658.463	-877
658.518	-1273
658.573	-1244
658.629	-1115
658.684	-904
658.739	-1172
658.795	-1371
658.850	-1541
658.905	-1299
658.960	-1090
659.016	-1228
659.071	-1830
659.126	-1226
659.181	-1543
659.236	-1155
659.291	771
659.346	1252
659.401	-903
659.457	-363
659.512	-1220
659.567	119
659.622	-626
659.677	-1749
659.732	-1193
659.787	-1171
659.842	-935
659.897	-1880
659.952	-1013
660.007	-1305
660.061	-1196
660.116	-1670
660.171	-1172
660.226	-1830
660.281	-1548
660.336	-1247
660.391	-1654
660.445	-904
660.500	-1186
660.555	-1280
660.610	-1329
660.664	-973
660.719	-1473
660.774	-1499
660.828	-1908
660.883	-1518
660.938	-961
660.992	-1682
661.047	-1467
661.101	-1570
661.156	-1007
661.211	-1583
661.265	-601
661.320	-1420
661.374	-1178
661.429	-801
661.483	-1401
661.538	-1630
661.592	-1501
661.647	-1351
661.701	-980
661.755	-1543
661.810	-1020
661.864	-1412
661.919	-1686
661.973	-579
662.027	-1532
662.081	-1602
662.136	-799
662.190	-1101
662.244	-1060
662.299	-1570
662.353	-1174
662.407	-1493
662.461	-1504
662.515	-1080
662.569	-930
662.624	-761
662.678	-1812
662.732	-1617
662.786	-1389
662.840	-1491
662.894	-701
662.948	-1339
663.002	-1746
663.056	-1443
663.110	-1550
663.164	-1892
663.218	-709
663.272	-993
663.326	-1879
663.380	-1148
663.434	-391
663.488	-1388
663.542	-1694
663.595	-858
663.649	-1961
663.703	-415
663.757	-924
663.811	-1476
663.864	-1113
663.918	-744
663.972	-1517
664.026	-1024
664.079	-1683
664.133	-1191
664.187	-412
664.240	-1361
664.294	-1154
664.348	-1801
664.401	-1755
664.455	-632
664.508	-1534
664.562	-1130
664.615	-1447
664.669	-1498
664.722	-1065
664.776	-1816
664.829	-1248
664.883	-1294
664.936	-1561
664.990	-1396
665.043	-1435
665.097	-1917
665.150	-1212
665.203	-1612
665.257	-1252
665.310	-1383
665.363	-1265
665.417	-877
665.470	-1192
665.523	-2082
665.576	-1039
665.630	-1453
665.683	-1340
665.736	-1322
665.789	-1584
665.842	-1109
665.895	-1244
665.949	-826
666.002	-939
666.055	-630
666.108	-980
666.161	-1427
666.214	-1160
666.267	-835
666.320	-1581
666.373	-238
666.426	-458
666.479	-2054
666.532	-852
666.585	-1712
666.638	-468
666.691	-1846
666.744	-601
666.796	-1840
666.849	-1157
666.902	-766
666.955	-1346
667.008	-1054
667.060	-1311
667.113	-1455
667.166	-1939
667.219	-1565
667.271	-1481
667.324	-1161
667.377	-1633
667.430	-608
667.482	-2039
667.535	-309
667.587	-668
667.640	-642
667.693	-569
667.745	-571
667.798	675
667.850	725
667.903	-594
667.955	-1031
668.008	-714
668.060	-618
668.113	-1023
668.165	-1298
668.218	-1350
668.270	-1426
668.322	-996
668.375	-819
668.427	-1359
668.479	-1715
668.532	-801
668.584	-1412
668.636	-1631
668.689	-1001
668.741	-1883
668.793	-1176
668.845	-1509
668.898	-788
668.950	-1464
669.002	-1179
669.054	-1260
669.106	-1735
669.158	-1040
669.211	-1295
669.263	-739
669.315	-1475
669.367	-803
669.419	-1032
669.471	-249
669.523	-452
669.575	-130
669.627	382
669.679	-69
669.731	-816
669.783	-783
669.835	-675
669.886	280
669.938	200
669.990	-877
670.042	-1192
670.094	-467
670.146	-525
670.197	-675
670.249	-322
670.301	718
670.353	1762
670.404	3849
670.456	5516
670.508	10471
670.560	16012
670.611	26481
670.663	46036
670.715	82639
670.766	190294
670.818	417326
670.869	208855
670.921	30702
670.972	11067
671.024	5685
671.075	3472
671.127	3321
671.178	1395
671.230	454
671.281	883
671.333	748
671.384	-608
671.436	-662
671.487	14
671.538	240
671.590	-967
671.641	-336
671.692	-958
671.744	-344
671.795	-56
671.846	-384
671.897	-588
671.949	-1087
672.000	59
672.051	-257
672.102	-1144
672.153	-1125
672.204	-693
672.256	-1073
672.307	-851
672.358	-1391
672.409	-669
672.460	-1244
672.511	-513
672.562	-1102
672.613	-1217
672.664	-859
672.715	-630
672.766	-757
672.817	-891
672.868	-1172
672.919	-399
672.970	-1529
673.021	-1103
673.071	-2052
673.122	-1096
673.173	-852
673.224	-486
673.275	-571
673.326	-1299
673.376	-828
673.427	-1611
673.478	-1181
673.528	-1173
673.579	-866
673.630	-1013
673.680	-1314
673.731	-1172
673.782	-1491
673.832	-1007
673.883	-869
673.934	-1295
673.984	-547
674.035	-1015
674.085	-1101
674.136	-758
674.186	-1286
674.237	-744
674.287	-964
674.338	-687
674.388	-540
674.438	-1488
674.489	-1279
674.539	-1691
674.589	-911
674.640	-1070
674.690	-1496
674.740	-1219
674.791	-1614
674.841	-1387
674.891	-405
674.942	-1026
674.992	-940
675.042	-1085
675.092	-1163
675.142	-1063
675.193	-1187
675.243	-1370
675.293	-1008
675.343	-1070
675.393	-2111
675.443	-746
675.493	-1571
675.543	-901
675.593	-953
675.643	-1052
675.693	-1238
675.743	-1156
675.793	-976
675.843	-1227
675.893	-1061
675.943	-838
675.993	-529
676.043	-1967
676.093	-1388
676.142	-1897
676.192	-1382
676.242	-1568
676.292	-1135
676.341	-1834
676.391	-1468
676.441	-828
676.491	-1688
676.540	-1195
676.590	-992
676.640	-1199
676.689	-836
676.739	-950
676.789	-1954
676.838	-1602
676.888	-1281
676.937	-1816
676.987	-852
677.037	-1095
677.086	-1355
677.136	-1411
677.185	-2003
677.235	-1673
677.284	-1238
677.333	-855
677.383	-611
677.432	-839
677.482	-1693
677.531	-1696
677.580	-1109
677.630	-1534
677.679	-1547
677.728	-1606
677.778	-1350
677.827	-1115
677.876	-1342
677.925	-1669
677.975	-1450
678.024	-1119
678.073	-1691
678.122	-1845
678.171	-1422
678.220	-922
678.269	-1657
678.319	-831
678.368	-698
678.417	-1535
678.466	-1397
678.515	-1150
678.564	-1567
678.613	-1072
678.662	-1249
678.711	-1600
678.760	-1614
678.809	-1304
678.857	-1903
678.906	-1863
678.955	-1455
679.004	-1366
679.053	-1382
679.102	-1802
679.151	-1407
679.199	-1182
679.248	-1098
679.297	-1524
679.346	-1481
679.394	-842
679.443	-1777
679.492	-1601
679.540	-1509
679.589	-1189
679.638	-1553
679.686	-1050
679.735	-1498
679.784	-1170
679.832	-1525
679.881	-1508
679.929	-642
679.978	-2114
680.026	-1404
680.075	-1590
680.123	-1590
680.172	-1610
680.220	-1966
680.268	-2315
680.317	-1361
680.365	-2452
680.414	-1762
680.462	-997
680.510	-1632
680.559	-1227
680.607	-1846
680.655	-1669
680.703	-1353
680.752	-1482
680.800	-1388
680.848	-1860
680.896	-690
680.945	-1745
680.993	-1801
681.041	-1268
681.089	-1253
681.137	-1399
681.185	-1453
681.233	-957
681.258	-1366
681.281	-1760
681.329	-1615
681.377	-1577
681.380	-1562
681.425	-1420
681.473	-1515
681.502	-1809
681.521	-2031
681.569	-1089
681.617	-1527
681.624	-1544
681.665	-1686
681.713	-1132
681.745	-931
681.761	-843
681.809	-1300
681.857	-1700
681.867	-1597
681.904	-1268
681.952	-1227
681.989	-1822
682.000	-2015
682.048	-824
682.096	-1548
682.111	-1432
682.143	-1192
682.191	-1717
682.233	-1369
682.239	-1334
682.286	-1766
682.334	-1518
682.354	-1478
682.382	-1416
682.430	-960
682.476	-712
682.477	-713
682.525	-526
682.572	-1016
682.598	-1277
682.620	-1508
682.667	-1216
682.715	-939
682.720	-938
682.763	-993
682.810	-1392
682.841	-1162
682.857	-1027
682.905	-1132
682.952	-685
682.963	-868
683.000	-1611
683.047	-1291
683.085	-1037
683.095	-971
683.142	-1006
683.190	-1345
683.206	-1354
683.237	-1386
683.284	-1086
683.328	-1161
683.332	-1169
683.379	-1384
683.426	-1182
683.449	-1051
683.473	-962
683.521	-1496
683.568	-1143
683.571	-1089
683.615	-404
683.662	-1131
683.693	-1269
683.709	-1335
683.757	-816
683.804	-968
683.814	-911
683.851	-754
683.898	-482
683.936	-131
683.945	-55
683.992	-621
684.039	-543
684.057	-505
684.086	-459
684.133	-749
684.179	-681
684.180	-682
684.227	-754
684.274	-375
684.300	-552
684.321	-727
684.368	-114
684.415	65
684.422	-14
684.462	-535
684.509	-692
684.543	-791
684.556	-836
684.603	-615
684.649	-239
684.665	-331
684.696	-514
684.743	-669
684.786	-457
684.790	-440
684.837	-250
684.883	-412
684.908	-427
684.930	-448
684.977	-391
685.023	-308
685.029	-374
685.070	-902
685.117	-318
685.150	-511
685.164	-614
685.210	-827
685.257	41
685.272	-41
685.303	-62
685.350	-434
685.393	-208
685.396	-203
685.443	128
685.490	111
685.514	171
685.536	249
685.583	188
685.629	176
685.636	56
685.675	-890
685.722	316
685.757	-361
685.768	-540
685.815	-87
685.861	-250
685.878	-311
685.908	-409
685.954	136
686.000	-3
686.000	-10
686.047	140
686.093	-61
686.121	-132
686.139	-79
686.185	310
686.232	130
686.242	229
686.278	439
686.324	-129
686.363	424
686.370	508
686.416	-7
686.463	-195
686.484	-181
686.509	-57
686.555	66
686.601	461
686.606	465
686.647	333
686.693	-290
686.727	69
686.739	233
686.785	94
686.831	-141
686.848	89
686.877	460
686.923	10
686.969	266
686.969	267
687.015	-629
687.061	-12
687.090	-98
687.107	-137
687.153	-108
687.199	280
687.211	189
687.245	-80
687.291	348
687.332	273
687.336	272
687.382	197
687.428	218
687.453	42
687.474	-68
687.520	132
687.565	-65
687.574	-15
687.611	4
687.657	-159
687.695	-378
687.702	-370
687.748	123
687.794	825
687.816	595
687.839	235
687.885	447
687.931	92
687.937	81
687.976	158
688.022	163
688.058	210
688.067	206
688.113	286
688.158	435
688.179	548
688.204	718
688.249	524
688.295	396
688.300	390
688.340	313
688.386	603
688.421	919
688.431	1011
688.477	525
688.522	398
688.542	496
688.567	561
688.613	150
688.658	494
688.663	491
688.703	617
688.749	268
688.784	62
688.794	-17
688.839	649
688.884	223
688.905	212
688.930	286
688.975	565
689.020	512
689.026	529
689.065	458
689.110	494
689.146	352
689.155	375
689.201	499
689.246	845
689.267	615
689.291	268
689.336	766
689.381	646
689.388	672
689.426	891
689.471	521
689.509	825
689.516	876
689.561	514
689.606	845
689.630	738
689.651	647
689.696	541
689.741	486
689.750	517
689.785	766
689.830	659
689.871	839
689.875	850
689.920	1061
689.965	782
689.992	894
690.010	966
690.054	600
690.099	939
690.112	816
690.144	470
690.189	318
690.233	125
690.233	130
690.278	842
690.323	969
690.354	1054
690.367	1024
690.412	1033
690.457	1315
690.474	1111
690.501	747
690.546	700
690.590	940
690.595	911
690.635	972
690.680	720
690.716	1190
690.724	1270
690.769	1295
690.813	1200
690.836	1112
690.857	1131
690.902	1364
690.946	1924
690.957	1879
690.991	1947
691.035	2574
691.077	3190
691.080	3256
691.124	4822
691.168	5836
691.198	5844
691.213	5471
691.257	5011
691.301	4903
691.318	4665
691.346	3998
691.390	3295
691.434	2425
691.439	2323
691.478	2032
691.522	1655
691.559	1748
691.567	1843
691.611	1618
691.655	1791
691.680	1949
691.699	2001
691.743	1889
691.787	1813
691.800	1718
691.831	1524
691.875	1694
691.919	1711
691.921	1701
691.964	1685
692.008	1501
692.041	1722
692.052	1814
692.096	2029
692.139	1759
692.162	1816
692.183	1822
692.227	2018
692.271	1675
692.282	1675
692.315	1661
692.359	1459
692.402	1782
692.403	1793
692.447	1637
692.490	1809
692.523	1680
692.534	1626
692.578	1682
692.622	1631
692.643	1551
692.666	1438
692.709	1486
692.753	1578
692.763	1488
692.797	1494
692.840	1680
692.884	1818
692.884	1825
692.928	1743
692.971	1593
693.004	1480
693.015	1486
693.059	1633
693.102	1653
693.124	1675
693.146	1784
693.189	1560
693.233	1870
693.245	1838
693.276	1795
693.320	2386
693.363	2508
693.365	2511
693.407	2482
693.450	2223
693.485	1915
693.493	1929
693.537	1941
693.580	2153
693.605	2370
693.624	2567
693.667	2940
693.710	3194
693.725	3321
693.753	3923
693.797	4616
693.840	5626
693.845	5833
693.883	9008
693.926	11569
693.966	13424
693.970	13347
694.013	12474
694.056	11892
694.086	11335
694.099	10383
694.142	7418
694.185	4699
694.206	3280
694.229	3087
694.272	2771
694.315	2416
694.326	2346
694.358	2371
694.401	2325
694.444	2194
694.446	2188
694.487	2523
694.530	2708
694.566	2931
694.573	2963
694.616	2835
694.659	3012
694.686	2858
694.702	2686
694.745	2663
694.787	2348
694.806	2161
694.830	2046
694.873	2212
694.916	2039
694.926	2006
694.959	2002
695.002	1874
695.044	1952
695.046	1941
695.087	2063
695.130	2164
695.166	2316
695.172	2364
695.215	2581
695.258	2762
695.286	2833
695.301	2722
695.343	2343
695.386	2036
695.406	1898
695.428	2033
695.471	2155
695.514	2410
695.526	2475
695.556	2391
695.599	2123
695.641	1988
695.646	1942
695.684	1936
695.726	2076
695.766	2201
695.769	2190
695.811	1780
695.854	1491
695.886	1103
695.896	1201
695.938	1738
695.981	2277
696.005	2532
696.023	2500
696.065	2450
696.108	2442
696.125	2334
696.150	2278
696.192	2420
696.235	2432
696.245	2453
696.277	2424
696.319	2151
696.361	2117
696.365	2094
696.404	2312
696.446	2379
696.485	2766
696.488	2784
696.530	2612
696.572	2423
696.604	2375
696.614	2405
696.656	2414
696.698	2367
696.724	2340
696.740	2279
696.783	2137
696.825	1979
696.844	1918
696.867	2034
696.909	2070
696.951	2170
696.964	2245
696.992	2336
697.034	2295
697.076	2249
697.083	2226
697.118	2425
697.160	2713
697.202	2942
697.203	2936
697.244	2820
697.286	2619
697.323	2435
697.327	2442
697.369	2427
697.411	2427
697.442	2381
697.453	2367
697.494	2252
697.536	2095
697.562	2056
697.578	2218
697.620	2521
697.661	2880
697.682	3022
697.703	3073
697.744	3143
697.786	3281
697.801	3276
697.828	3340
697.869	3577
697.911	3652
697.921	3670
697.952	3638
697.994	3582
698.035	3480
698.040	3455
698.077	3525
698.118	3593
698.160	3656
698.160	3641
698.201	3686
698.243	3680
698.279	3707
698.284	3704
698.325	3529
698.367	3314
698.399	3133
698.408	3115
698.449	2991
698.491	2839
698.518	2746
698.532	2802
698.573	2879
698.614	3013
698.638	3064
698.656	3021
698.697	2886
698.738	2739
698.757	2671
698.779	2757
698.820	2868
698.862	2999
698.877	3030
698.903	3100
698.944	3198
698.985	3295
698.996	3308
699.026	3272
699.067	3210
699.116	3122
699.235	2828
699.354	3904
699.474	2315
699.593	3127
699.713	3796
699.832	3359
699.951	3055
700.070	4750
700.190	3545
700.309	4354
700.428	3829
700.547	4282
700.667	3632
700.786	4452
700.905	3974
701.024	3114
701.143	4324
701.262	3930
701.381	3267
701.500	2593
701.619	3564
701.738	4037
701.857	3094
701.976	3740
702.095	3233
702.214	3827
702.333	3098
702.452	3994
702.571	3840
702.690	3776
702.809	3264
702.928	2775
703.047	2787
703.165	3399
703.284	2362
703.403	3195
703.522	3126
703.640	3560
703.759	3544
703.878	3866
703.997	4669
704.115	3005
704.234	2436
704.353	2838
704.471	3277
704.590	3284
704.708	2408
704.827	3237
704.946	2250
705.064	1949
705.183	2737
705.301	2680
705.420	2856
705.538	2799
705.656	3205
705.775	2905
705.893	2749
706.012	3688
706.130	5339
706.249	3274
706.367	2605
706.485	3372
706.604	2535
706.722	3171
706.840	2548
706.958	3981
707.077	2994
707.195	2642
707.313	2620
707.431	2468
707.549	2562
707.668	3201
707.786	2694
707.904	2984
708.022	1775
708.140	2522
708.258	3109
708.376	2029
708.494	2602
708.612	3033
708.730	2688
708.848	2835
708.966	3223
709.084	3671
709.202	3499
709.320	3152
709.438	2862
709.556	2700
709.674	2835
709.791	3046
709.909	2803
710.027	2684
710.145	3268
710.263	2655
710.380	2228
710.498	3506
710.616	2430
710.733	2748
710.851	2625
710.969	3268
711.086	2548
711.204	2632
711.322	1729
711.439	2523
711.557	2134
711.674	3147
711.792	2418
711.909	2557
712.027	2309
712.144	3047
712.262	1911
712.379	1966
712.497	2223
712.614	3603
712.732	2568
712.849	3468
712.966	2816
713.084	2890
713.201	4133
713.318	4126
713.436	2873
713.553	2836
713.670	2966
713.787	3381
713.905	3149
714.022	3205
714.139	2642
714.256	3216
714.373	3177
714.490	2585
714.608	2380
714.725	2453
714.842	3988
714.959	5903
715.076	2332
715.193	2224
715.310	2450
715.427	2945
715.544	2135
715.661	2406
715.778	2863
715.895	3198
716.011	2761
716.128	2571
716.245	2490
716.362	3368
716.479	4173
716.596	5035
716.713	3361
716.829	3013
716.946	3810
717.063	3437
717.180	2386
717.296	2388
717.413	2423
717.530	2841
717.646	2701
717.763	2234
717.880	2481
717.996	2461
718.113	3297
718.229	3446
718.346	2224
718.462	3139
718.579	2957
718.695	3620
718.812	7550
718.928	5997
719.045	2986
719.161	3217
719.277	2731
719.394	2578
719.510	2581
719.626	2068
719.743	2595
719.859	2986
719.975	2272
720.092	2161
720.208	2093
720.324	3303
720.440	2114
720.557	2092
720.673	1975
720.789	5335
720.905	6161
721.021	7190
721.137	4279
721.253	2784
721.369	1905
721.486	2794
721.602	1692
721.718	3275
721.834	2244
721.950	2406
722.066	2492
722.181	2153
722.297	2375
722.413	2753
722.529	1948
722.645	2308
722.761	2413
722.877	3285
722.993	1619
723.108	1989
723.224	956
723.340	1957
723.456	2769
723.571	2409
723.687	2174
723.803	1403
723.918	1589
724.034	1963
724.150	938
724.265	1638
724.381	1614
724.497	2410
724.612	4161
724.728	2655
724.843	889
724.959	2017
725.074	1689
725.190	3287
725.305	4594
725.421	1165
725.536	1467
725.651	1576
725.767	1989
725.882	1560
725.997	1410
726.113	1517
726.228	2005
726.343	1452
726.459	918
726.574	1989
726.689	1145
726.804	2455
726.920	1839
727.035	1840
727.150	2089
727.265	1411
727.380	1243
727.495	2660
727.610	2876
727.725	2560
727.841	1921
727.956	2548
728.071	2606
728.186	2552
728.301	1086
728.416	1657
728.531	1368
728.645	2088
728.760	1801
728.875	2176
728.990	3955
729.105	5022
729.220	2959
729.335	2449
729.449	2558
729.564	1973
729.679	1236
729.794	1526
729.908	797
730.023	1679
730.138	1493
730.253	1125
730.367	807
730.482	1936
730.596	1182
730.711	1261
730.826	1884
730.940	1387
731.055	1512
731.169	2208
731.284	1678
731.398	2272
731.513	1233
731.627	1081
731.742	1093
731.856	1178
731.970	1206
732.085	1646
732.199	1361
732.313	1166
732.428	938
732.542	1123
732.656	1405
732.771	1780
732.885	1430
732.999	1337
733.113	1359
733.227	482
733.342	1858
733.456	1973
733.570	571
733.684	1176
733.798	981
733.912	1106
734.026	829
734.140	1117
734.254	571
734.368	1477
734.482	1545
734.596	3027
734.710	1233
734.824	1644
734.938	1240
735.052	446
735.166	951
735.280	1724
735.393	1283
735.507	1454
735.621	333
735.735	1794
735.849	1773
735.962	1354
736.076	1075
736.190	1114
736.303	1232
736.417	1555
736.531	1753
736.644	974
736.758	1211
736.872	1166
736.985	1420
737.099	998
737.212	490
737.326	1297
737.439	401
737.553	1419
737.666	1411
737.780	1046
737.893	853
738.007	1435
738.120	845
738.233	535
738.347	567
738.460	1223
738.573	847
738.687	1525
738.800	1334
738.913	1370
739.026	1545
739.140	1870
739.253	976
739.366	683
739.479	1140
739.592	1029
739.705	1422
739.818	797
739.932	1005
740.045	899
740.158	350
740.271	807
740.384	1316
740.497	1836
740.610	2147
740.723	2848
740.836	2354
740.949	2874
741.062	3106
741.174	2668
741.287	1849
741.400	1035
741.513	1680
741.626	2436
741.739	3348
741.851	1978
741.964	2062
742.077	1667
742.189	1375
742.302	2557
742.415	4864
742.527	5695
742.640	2207
742.753	1758
742.865	923
742.978	1422
743.090	944
743.203	1046
743.316	1172
743.428	31
743.541	592
743.653	1372
743.766	1401
743.878	883
743.990	8
744.103	2237
744.215	1803
744.327	5028
744.440	2544
744.552	2003
744.664	2547
744.777	2323
744.889	1023
745.001	1132
745.113	698
745.226	608
745.338	822
745.450	741
745.562	628
745.674	851
745.786	266
745.898	951
746.010	638
746.122	546
746.234	-20
746.347	729
746.459	922
746.570	996
746.682	186
746.794	2080
746.906	6337
747.018	3428
747.130	1063
747.242	655
747.354	304
747.466	597
747.577	455
747.689	873
747.801	1254
747.913	1517
748.024	654
748.136	151
748.248	1159
748.359	683
748.471	745
748.583	214
748.694	675
748.806	313
748.918	726
749.029	1176
749.141	271
749.252	1210
749.364	83
749.475	1588
749.587	2975
749.698	2276
749.809	-336
749.921	414
750.032	642
750.144	723
750.255	179
750.366	608
750.478	-283
750.589	-7
750.700	176
750.811	1099
750.923	926
751.034	1211
751.145	3028
751.256	4456
751.367	756
751.479	873
751.590	362
751.701	-36
751.812	5
751.923	1053
752.034	219
752.145	117
752.256	-188
752.367	851
752.478	-12
752.589	899
752.700	-269
752.811	-112
752.922	-388
753.032	536
753.143	594
753.254	296
753.365	-321
753.476	235
753.586	387
753.697	514
753.808	897
753.919	419
754.029	-126
754.140	284
754.251	-54
754.361	401
754.472	85
754.582	696
754.693	325
754.804	746
754.914	167
755.025	1133
755.135	-960
755.246	902
755.356	109
755.466	599
755.577	344
755.687	710
755.798	99
755.908	423
756.018	-377
756.129	331
756.239	740
756.349	544
756.460	510
756.570	823
756.680	-255
756.790	397
756.900	633
757.011	1006
757.121	-44
757.231	535
757.341	309
757.451	494
757.561	-530
757.671	609
757.781	234
757.891	565
758.001	340
758.111	1377
758.221	36
758.331	771
758.441	681
758.551	256
758.661	1567
758.771	1917
758.880	-63
758.990	845
759.100	661
759.210	-201
759.320	306
759.429	1043
759.539	897
759.649	594
759.758	529
759.868	650
759.978	115
760.087	462
760.197	420
760.307	953
760.416	-191
760.526	1051
760.635	853
760.745	1161
760.854	-30
760.964	470
761.073	18
761.182	988
761.292	309
761.401	1362
761.511	370
761.620	124
761.729	631
761.839	468
761.948	700
762.057	936
762.166	408
762.276	751
762.385	583
762.494	1155
762.603	702
762.712	984
762.822	233
762.931	497
763.040	442
763.149	720
763.258	659
763.367	1189
763.476	1271
763.585	656
763.694	923
763.803	1650
763.912	1218
764.021	1229
764.130	1033
764.238	1602
764.347	1006
764.456	1391
764.565	1132
764.674	2091
764.783	1225
764.891	1995
765.000	1495
765.109	1765
765.217	2060
765.326	2985
765.435	3206
765.543	5223
765.652	4430
765.761	6457
765.869	8251
765.978	11737
766.086	18348
766.195	33397
766.303	63158
766.412	150970
766.520	389817
766.629	429674
766.737	162203
766.846	55962
766.954	28264
767.062	18983
767.171	13310
767.279	10617
767.387	7156
767.496	6600
767.604	4869
767.712	4892
767.820	3389
767.928	4253
768.037	4095
768.145	2975
768.253	3204
768.361	3107
768.469	2297
768.577	2570
768.685	2515
768.793	2216
768.901	2282
769.009	3602
769.117	3259
769.225	4487
769.333	5634
769.441	7834
769.549	12268
769.657	25079
769.765	55035
769.873	160232
769.981	374070
770.088	201774
770.196	47763
770.304	20152
770.412	12435
770.519	8670
770.627	5803
770.735	4756
770.842	3940
770.950	3970
771.058	2374
771.165	3461
771.273	1570
771.380	2633
771.488	1443
771.595	1295
771.703	1436
771.810	1989
771.918	1477
772.025	1811
772.133	1009
772.240	1758
772.348	833
772.455	1833
772.562	819
772.670	934
772.777	509
772.884	915
772.991	267
773.099	783
773.206	604
773.313	1059
773.420	518
773.528	761
773.635	608
773.742	1017
773.849	-22
773.956	857
774.063	403
774.170	476
774.277	268
774.384	981
774.491	342
774.598	547
774.705	160
774.812	204
774.919	1243
775.026	809
775.133	194
775.239	198
775.346	755
775.453	180
775.560	105
775.667	852
775.773	33
775.880	921
775.987	-41
776.093	1585
776.200	491
776.307	761
776.413	68
776.520	300
776.627	-251
776.733	438
776.840	348
776.946	1139
777.053	1547
777.159	3782
777.266	11548
777.372	10155
777.478	8866
777.585	10891
777.691	6212
777.798	1470
777.904	1673
778.010	721
778.117	1167
778.223	1570
778.329	395
778.435	146
778.542	-212
778.648	500
778.754	213
778.860	153
778.966	110
779.072	-84
779.178	330
779.284	212
779.391	-9
779.497	524
779.603	175
779.708	544
779.815	910
779.920	939
780.026	6195
780.132	18702
780.238	3740
780.344	-161
780.450	-13
780.556	303
780.661	-84
780.767	-35
780.873	448
780.979	169
781.085	21
781.190	-269
781.296	-192
781.402	223
781.507	-699
781.613	12
781.719	-517
781.824	468
781.930	-653
782.035	-171
782.141	-860
782.246	308
782.352	-131
782.457	674
782.563	-559
782.668	16
782.773	-653
782.879	347
782.984	-417
783.090	198
783.195	215
783.300	1045
783.405	632
783.511	855
783.616	423
783.721	194
783.826	306
783.932	6
784.037	-432
784.142	689
784.247	-475
784.352	464
784.457	-114
784.562	535
784.667	-632
784.772	-374
784.877	-831
784.982	205
785.087	-45
785.192	232
785.297	-271
785.402	303
785.507	-266
785.611	-24
785.716	-348
785.821	288
785.926	-734
786.031	-146
786.135	-979
786.240	-75
786.345	-680
786.450	-19
786.554	-257
786.659	-120
786.763	-741
786.868	-386
786.973	-20
787.077	-442
787.182	-558
787.286	207
787.391	-549
787.495	-919
787.600	182
787.704	-648
787.809	98
787.913	-699
788.017	-829
788.122	510
788.226	-74
788.330	-952
788.435	-721
788.539	-263
788.643	-932
788.747	214
788.852	-252
788.956	128
789.060	-610
789.164	-203
789.268	-254
789.372	-293
789.476	-1124
789.580	709
789.684	-725
789.788	-259
789.892	-551
789.996	-269
790.100	-735
790.204	-757
790.308	333
790.412	-760
790.516	-597
790.620	-407
790.724	-911
790.828	-225
790.931	-426
791.035	-251
791.139	-183
791.242	-214
791.346	-794
791.450	77
791.554	-580
791.657	-63
791.761	-99
791.864	585
791.968	378
792.072	441
792.175	468
792.279	-222
792.382	-870
792.486	-410
792.589	-272
792.693	-123
792.796	-512
792.899	-62
793.003	107
793.106	-62
793.209	-1195
793.313	694
793.416	-352
793.519	-388
793.623	-411
793.726	268
793.829	1288
793.932	395
794.035	190
794.138	715
794.242	201
794.345	602
794.448	645
794.551	1014
794.654	2209
794.757	4042
794.860	9076
794.963	2379
795.066	-506
795.169	-158
795.272	-734
795.375	-370
795.477	-193
795.580	215
795.683	-778
795.786	-415
795.889	-995
795.991	-380
796.094	-102
796.197	-310
796.300	-562
796.402	-877
796.505	-856
796.608	58
796.710	-988
796.813	-883
796.915	-139
797.018	-815
797.120	-816
797.223	-42
797.326	-936
797.428	-458
797.530	-823
797.633	-590
797.735	-191
797.838	-219
797.940	-166
798.042	90
798.145	-512
798.247	-778
798.349	-749
798.452	-1037
798.554	-878
798.656	-1021
798.758	-772
798.860	-636
798.962	-983
799.065	-1021
799.167	-843
799.269	-287
799.371	-265
799.473	-265
799.575	-667
799.677	-206
799.779	129
799.881	-366
799.983	659
800.085	-366
800.187	-370
800.289	-1199
800.390	-919
800.492	-816
800.594	-1155
800.696	-251
800.798	-758
800.899	258
801.001	-1463
801.103	-636
801.205	-1250
801.306	-1111
801.408	-763
801.509	-28
801.611	-838
801.713	-266
801.814	-578
801.916	-483
802.017	44
802.119	-467
802.220	-283
802.322	-397
802.423	-1372
802.525	-96
802.626	-513
802.727	-334
802.829	-626
802.930	-42
803.031	584
803.133	-889
803.234	-576
803.335	-964
803.436	-934
803.538	-818
803.639	-1065
803.740	-712
803.841	-1075
803.942	-609
804.043	-908
804.144	-1211
804.245	-1514
804.346	-461
804.447	-636
804.548	-95
804.649	59
804.750	93
804.851	-906
804.952	-630
805.053	-618
805.154	-543
805.255	-1282
805.355	-1253
805.456	-864
805.557	-602
805.658	-1273
805.758	-688
805.859	-1065
805.960	-508
806.061	-683
806.161	-414
806.262	-528
806.362	-974
806.463	-1155
806.564	-155
806.664	-799
806.765	-309
806.865	-902
806.966	179
807.066	-997
807.166	-863
807.267	-833
807.367	-419
807.468	-722
807.568	-361
807.668	-1059
807.769	-508
807.869	-1038
807.969	-702
808.069	-1271
808.170	-585
808.270	-1271
808.370	-413
808.470	-1176
808.570	-315
808.670	-223
808.770	235
808.870	-787
808.970	-870
809.070	-1547
809.170	-954
809.271	-1016
809.370	-315
809.470	-542
809.570	-144
809.670	-1745
809.770	-804
809.870	-858
809.970	-336
810.070	-821
810.169	-625
810.269	-825
810.369	-209
810.469	-1365
810.568	-416
810.668	-1345
810.768	-1092
810.867	-1468
810.967	-285
811.066	-1136
811.166	-685
811.265	-1082
811.365	-1187
811.464	-1512
811.564	-570
811.663	-796
811.763	-822
811.862	-1124
811.962	-478
812.061	-676
812.160	-1009
812.260	-1275
812.359	157
812.458	-653
812.557	-314
812.657	202
812.756	2269
812.855	-270
812.954	-1273
813.053	-1220
813.153	-558
813.252	-1364
813.351	-221
813.450	-1149
813.549	-2037
813.648	-813
813.747	-960
813.846	-473
813.945	-864
814.044	-960
814.143	-468
814.242	-716
814.341	-1307
814.439	-723
814.538	-127
814.637	-854
814.736	-663
814.835	-1035
814.933	-870
815.032	-1242
815.131	99
815.229	-913
815.328	-1398
815.427	-905
815.525	-219
815.624	-895
815.722	-1061
815.821	-416
815.919	-103
816.018	-1280
816.116	-167
816.215	-802
816.313	-569
816.412	-794
816.510	-543
816.609	-501
816.707	-337
816.805	-1113
816.904	-746
817.002	-938
817.100	28
817.198	-693
817.296	-824
817.395	-665
817.493	424
817.591	-816
817.689	-224
817.787	153
817.885	632
817.983	1021
818.081	3404
818.179	7425
818.277	21497
818.375	60925
818.473	68469
818.571	16323
818.669	4839
818.767	2434
818.865	3481
818.963	3006
819.061	2069
819.158	3525
819.256	7843
819.354	17575
819.452	46210
819.549	119565
819.647	100343
819.745	19330
819.842	6371
819.940	2567
820.038	1562
820.135	627
820.233	1441
820.330	-427
820.428	-4
820.525	-125
820.623	214
820.720	-680
820.818	-352
820.915	-1183
821.012	-410
821.110	13
821.207	-639
821.304	-1058
821.402	-821
821.499	-504
821.596	1313
821.693	3078
821.791	3150
821.888	-248
821.985	172
822.082	702
822.179	2388
822.276	126
822.373	874
822.470	715
822.567	-509
822.664	-1158
822.761	-365
822.858	-892
822.955	-1031
823.052	-703
823.149	-812
823.246	-835
823.343	-1090
823.440	-614
823.536	156
823.633	-867
823.730	-213
823.827	-1333
823.923	-624
824.020	491
824.117	-46
824.213	-908
824.310	880
824.407	-102
824.503	-736
824.600	-1199
824.696	-519
824.793	-1286
824.889	-1044
824.986	-1645
825.082	-583
825.179	-212
825.275	-1010
825.371	-1030
825.468	-1193
825.564	-1276
825.660	-741
825.757	-923
825.853	-583
825.949	-407
826.045	-233
826.142	-1404
826.238	-1433
826.334	-1270
826.430	-897
826.526	-882
826.622	-482
826.718	-1473
826.814	-961
826.910	-1222
827.006	-723
827.102	-904
827.198	21
827.294	-1060
827.390	-337
827.486	-1507
827.582	-551
827.678	-1888
827.774	-519
827.869	-1112
827.965	-233
828.061	-1072
828.157	-800
828.252	-1507
828.348	-1172
828.444	-983
828.539	-1069
828.635	-761
828.731	-1348
828.826	-1380
828.922	-239
829.017	-632
829.113	-644
829.208	-1223
829.304	-1053
829.399	-945
829.495	-1095
829.590	-1658
829.685	-665
829.781	-1363
829.876	-312
829.971	-1505
830.066	-1095
830.162	-1231
830.257	-1292
830.352	-1372
830.447	-602
830.543	-1031
830.638	-1022
830.733	-699
830.828	-837
830.923	-1487
831.018	-398
831.113	-1430
831.208	-362
831.303	-1614
831.398	-753
831.493	-1951
831.588	-868
831.683	-1713
831.778	-320
831.873	-1476
831.967	-1116
832.062	-1004
832.157	-1318
832.252	-353
832.346	-939
832.441	-1339
832.536	-185
832.631	-559
832.725	1076
832.820	1547
832.914	-536
833.009	-1019
833.104	-615
833.198	-707
833.293	-183
833.387	-930
833.482	-577
833.576	-1271
833.670	-418
833.765	-782
833.859	-481
833.954	-382
834.048	-3
834.142	-732
834.237	-924
834.331	-1669
834.425	-1571
834.519	-1419
834.613	-758
834.708	-1900
834.802	-881
834.896	-1294
834.990	-1163
835.084	-973
835.178	-580
835.272	-1489
835.366	-108
835.460	-827
835.554	-354
835.648	-1584
835.742	-1020
835.836	-927
835.930	-1202
836.024	-864
836.117	-459
836.211	-1567
836.305	-402
836.399	-368
836.493	-1371
836.586	-1109
836.680	-1035
836.774	-941
836.867	-1006
836.961	-1206
837.055	-689
837.148	-1274
837.242	-956
837.335	-890
837.429	-199
837.522	-777
837.616	-799
837.709	-1556
837.803	-1271
837.896	-31
837.989	-766
838.083	-1074
838.176	-400
838.269	153
838.363	-52
838.456	-1473
838.549	-1380
838.642	-1009
838.735	227
838.829	1550
838.922	259
839.015	-1161
839.108	-858
839.201	-1818
839.294	-784
839.387	-803
839.480	-563
839.573	-1299
839.666	-755
839.759	-1199
839.852	-614
839.945	-762
840.038	-1004
840.131	-1025
840.223	-1527
840.316	-1153
840.409	-434
840.502	-1109
840.594	-517
840.687	-1185
840.780	-664
840.873	-1526
840.965	-1200
841.058	-1012
841.150	-546
841.243	-789
841.336	-1081
841.428	-1781
841.521	-1539
841.613	-1575
841.706	-966
841.798	-650
841.890	-1195
841.983	-1565
842.075	-693
842.167	-1169
842.260	-201
842.352	-745
842.444	-905
842.537	-530
842.629	-422
842.721	271
842.813	-583
842.905	-1041
842.997	-1091
843.090	-852
843.182	-724
843.274	-1197
843.366	275
843.458	525
843.550	2692
843.642	1348
843.734	-803
843.826	-1435
843.918	-346
844.009	-1375
844.101	-209
844.193	-972
844.285	-1186
844.377	-714
844.469	1016
844.560	507
844.652	1671
844.744	2656
844.835	479
844.927	-1569
845.019	-1074
845.110	-887
845.202	-255
845.293	-1170
845.385	-621
845.476	-563
845.568	-495
845.659	-895
845.751	-752
845.842	-1019
845.934	-820
846.025	-1428
846.116	-204
846.208	-642
846.299	-1369
846.390	-873
846.482	-904
846.573	-1785
846.664	-511
846.755	-1406
846.846	-222
846.937	-692
847.029	-810
847.120	-754
847.211	-956
847.302	-508
847.393	-724
847.484	-1602
847.575	-765
847.666	-1448
847.757	-885
847.847	-1542
847.938	-1343
848.029	-1300
848.120	-1107
848.211	-1674
848.302	-895
848.392	-1009
848.483	-1096
848.574	-1258
848.664	-1208
848.755	-1188
848.846	-1309
848.936	-1585
849.027	-1242
849.118	-1358
849.208	-1242
849.299	-1190
849.389	-1504
849.480	-1266
849.570	-393
849.661	-578
849.751	-1391
849.841	-1019
849.932	-399
850.022	-1101
850.112	-675
850.203	-1165
850.293	-593
850.383	-1388
850.474	-1336
850.564	-1139
850.654	-915
850.744	-1210
850.834	-635
850.924	-629
851.014	-1234
851.104	-1007
851.194	-1191
851.284	-1216
851.374	-484
851.464	-878
851.554	-1153
851.644	-1368
851.734	-969
851.824	-1398
851.914	-1089
852.004	-626
852.094	-628
852.183	-1608
852.273	-650
852.363	-883
852.452	-1325
852.542	-1314
852.632	-727
852.721	-1252
852.811	-548
852.901	-1020
852.990	-846
853.080	-1044
853.169	-1308
853.259	-1516
853.348	-1205
853.438	-1159
853.527	-1029
853.617	-1182
853.706	-1231
853.795	-1221
853.885	-773
853.974	-649
854.063	548
854.152	459
854.242	2388
854.331	1287
854.420	-651
854.509	-1948
854.598	-1028
854.687	-849
854.777	-454
854.866	-465
854.955	-364
855.044	-1996
855.133	-634
855.222	-944
855.311	-1447
855.400	-621
855.488	-659
855.577	-1753
855.666	-380
855.755	-868
855.844	-279
855.933	-1080
856.021	-1073
856.110	-364
856.199	-1103
856.288	-903
856.376	-532
856.465	-1514
856.554	-847
856.642	-858
856.731	-578
856.819	-1329
856.908	-655
856.996	-1742
857.085	-1451
857.173	-1446
857.262	-1265
857.350	-1159
857.438	-1117
857.527	-1454
857.615	-1125
857.703	-1411
857.792	-846
857.880	-1634
857.968	-1243
858.056	-1311
858.145	-1203
858.233	-1616
858.321	-1102
858.409	-895
858.497	-1446
858.585	-1130
858.673	-8
858.761	-1838
858.849	-1405
858.937	-986
859.025	-800
859.113	-1213
859.201	-1417
859.289	-1132
859.377	-457
859.465	-1005
859.552	-684
859.640	-768
859.728	-882
859.816	-2179
859.903	-314
859.991	-1681
860.079	-1269
860.166	-681
860.254	-1341
860.342	-1190
860.429	-1602
860.517	-1582
860.604	-1015
860.692	-816
860.779	-1371
860.867	-1018
860.954	-1362
861.042	-754
861.129	-551
861.216	-1628
861.304	-1324
861.391	-1102
861.478	-1606
861.565	-1137
861.653	-829
861.740	-1403
861.827	-888
861.914	-1211
862.001	-1018
862.089	-827
862.176	-1056
862.263	-1329
862.350	-937
862.437	-1669
862.524	-1681
862.611	-964
862.698	-1045
862.785	-1237
862.871	-908
862.958	-225
863.045	-1091
863.132	-670
863.219	-1036
863.306	-1669
863.392	-788
863.479	-1167
863.566	-1045
863.652	-857
863.739	-1131
863.826	-1424
863.912	-989
863.999	-1619
864.086	-937
864.172	-1289
864.259	-898
864.345	-1455
864.432	-1488
864.518	-1385
864.604	-1474
864.691	-1636
864.777	-1200
864.863	-1798
864.950	-164
865.036	-1466
865.122	-1677
865.209	-1960
865.295	-908
865.381	-1573
865.467	-1300
865.553	-1113
865.639	-1048
865.726	-1185
865.812	-1018
865.898	-1274
865.984	189
866.070	-326
866.156	1133
866.242	1756
866.328	505
866.414	-643
866.499	-1215
866.585	-1164
866.671	-843
866.757	-1596
866.843	-556
866.928	-1442
867.014	-1625
867.100	-1484
867.186	-636
867.271	-960
867.357	-494
867.442	-1281
867.528	-971
867.614	-881
867.699	-799
867.785	-904
867.870	654
867.956	174
868.041	2719
868.127	575
868.212	159
868.297	-494
868.383	887
868.468	-363
868.553	-112
868.639	779
868.724	1050
868.809	2427
868.894	2727
868.979	-800
869.065	-422
869.150	-1039
869.235	-946
869.320	-1339
869.405	-1353
869.490	-1563
869.575	-1208
869.660	-955
869.745	-189
869.830	-2023
869.915	-1613
870.000	-1357
870.085	-1489
870.169	-1395
870.254	-866
870.339	-456
870.424	-844
870.509	-1330
870.593	-1549
870.678	-1385
870.763	-1568
870.847	-1224
870.932	-961
871.016	-1256
871.101	-1216
871.186	-1411
871.270	-504
871.355	-1277
871.439	-865
871.523	-1290
871.608	-1456
871.692	-1343
871.777	-948
871.861	-448
871.945	-738
872.030	-1280
872.114	-843
872.198	-1653
872.282	-881
872.367	-2062
872.451	-939
872.535	-1775
872.619	-1110
872.703	-1447
872.787	-1134
872.871	-850
872.955	-700
873.039	-1550
873.123	-1266
873.207	-1515
873.291	-1396
873.375	-1286
873.459	-1405
873.543	-1858
873.627	-1184
873.711	-1624
873.794	-895
873.878	-1374
873.962	-831
874.045	-1211
874.129	-1045
874.137	-1093
874.213	-1579
874.245	-1341
874.296	-955
874.352	-1293
874.380	-1464
874.460	-1513
874.464	-1515
874.547	-1409
874.568	-1437
874.631	-1515
874.676	-1518
874.714	-1512
874.784	-1103
874.798	-1029
874.881	-869
874.892	-891
874.965	-1054
874.999	-1015
875.048	-912
875.107	-755
875.131	-717
875.215	-807
875.215	-807
875.298	-1162
875.323	-1156
875.381	-1135
875.430	-1322
875.465	-1441
875.538	-1008
875.548	-953
875.631	-1490
875.646	-1493
875.714	-1518
875.753	-1052
875.798	-516
875.861	-438
875.881	-413
875.964	-1070
875.968	-1065
876.047	-873
876.076	-1025
876.130	-1374
876.183	-1397
876.213	-1415
876.291	-1298
876.296	-1291
876.379	-1239
876.398	-1130
876.462	-730
876.506	-936
876.545	-1144
876.613	-733
876.628	-629
876.711	-1547
876.721	-1446
876.794	-786
876.828	-1159
876.877	-1606
876.935	-695
876.960	-335
877.043	-680
877.043	-680
877.125	-345
877.150	-437
877.208	-808
877.258	-512
877.291	-151
877.365	-656
877.374	-750
877.456	299
877.472	206
877.539	-131
877.579	-201
877.622	-292
877.687	-326
877.704	-295
877.787	-417
877.794	-376
877.869	-33
877.901	-186
877.952	-448
878.008	-415
878.034	-356
878.115	-869
878.117	-879
878.199	-322
878.222	-426
878.282	-860
878.329	-734
878.364	-481
878.437	-761
878.447	-815
878.529	-549
878.544	-465
878.611	-176
878.651	-606
878.694	-963
878.758	-274
878.776	-110
878.858	-1116
878.865	-1069
878.941	-476
878.972	-719
879.023	-938
879.078	-263
879.105	-33
879.185	-272
879.187	-271
879.269	-171
879.292	-220
879.351	-436
879.399	-362
879.433	-372
879.506	-969
879.516	-1017
879.598	-453
879.613	-472
879.680	-612
879.720	-548
879.762	-426
879.827	-726
879.844	-822
879.926	-577
879.933	-547
880.007	-135
880.040	-347
880.089	-732
880.147	-448
880.171	-301
880.253	-145
880.254	-145
880.335	638
880.360	787
880.417	1180
880.467	1068
880.499	1298
880.574	3433
880.580	3583
880.662	4498
880.680	4371
880.744	2107
880.787	690
880.825	178
880.893	-214
880.907	-276
880.989	-684
881.000	-663
881.070	-60
881.106	-69
881.152	-313
881.213	-26
881.233	113
881.315	-312
881.319	-320
881.396	-361
881.426	-326
881.478	-262
881.532	-107
881.559	14
881.639	-288
881.641	-297
881.722	-297
881.745	-223
881.803	77
881.852	1
881.885	-4
881.958	-181
881.966	-217
882.047	-294
882.064	-310
882.129	57
882.171	376
882.210	710
882.277	1069
882.291	1243
882.372	2876
882.383	2834
882.454	797
882.489	453
882.535	470
882.596	-62
882.616	-163
882.697	-280
882.702	-320
882.778	-703
882.808	-471
882.859	66
882.914	131
882.940	141
883.020	596
883.021	600
883.102	107
883.127	41
883.183	120
883.233	-67
883.264	-97
883.339	190
883.345	209
883.426	3
883.445	-52
883.507	63
883.551	212
883.587	157
883.657	350
883.668	402
883.749	80
883.763	152
883.830	406
883.869	207
883.910	-17
883.975	123
883.991	211
884.072	-40
884.081	-25
884.152	184
884.187	208
884.233	-47
884.292	-236
884.314	-85
884.394	85
884.398	107
884.475	491
884.504	564
884.555	469
884.610	208
884.636	169
884.716	206
884.716	214
884.797	436
884.821	495
884.877	190
884.927	-43
884.958	125
885.033	78
885.038	65
885.118	157
885.139	133
885.199	151
885.244	271
885.279	374
885.350	260
885.359	232
885.439	347
885.456	260
885.520	90
885.561	206
885.600	283
885.667	209
885.680	219
885.760	324
885.773	295
885.840	160
885.878	243
885.920	517
885.984	814
886.000	834
886.080	797
886.089	801
886.160	927
886.195	889
886.240	931
886.300	1043
886.320	978
886.400	840
886.406	809
886.480	946
886.511	1100
886.560	1291
886.616	1230
886.640	1253
886.720	1461
886.722	1451
886.800	636
886.827	504
886.879	762
886.932	684
886.959	691
887.038	965
887.039	973
887.119	804
887.143	779
887.198	834
887.248	779
887.278	812
887.354	969
887.358	962
887.437	495
887.459	416
887.517	825
887.564	1016
887.596	799
887.669	509
887.676	544
887.755	716
887.774	761
887.835	667
887.880	593
887.914	955
887.985	1634
887.994	1597
888.073	1188
888.090	1085
888.153	1130
888.195	1178
888.232	1239
888.300	1287
888.311	1316
888.391	1422
888.405	1463
888.470	1198
888.510	877
888.549	796
888.615	828
888.628	841
888.708	719
888.720	709
888.787	1101
888.825	1257
888.866	1155
888.930	1081
888.945	1142
889.024	1385
889.035	1406
889.103	844
889.140	523
889.182	675
889.245	947
889.261	973
889.340	990
889.349	989
889.419	1278
889.454	1409
889.498	1404
889.559	1377
889.577	1516
889.656	2085
889.664	2131
889.735	1659
889.768	1422
889.814	1339
889.873	1214
889.978	1037
890.083	1671
890.187	1373
890.292	1066
890.397	1305
890.501	1306
890.606	963
890.710	1426
890.815	1488
890.919	821
891.024	1803
891.128	919
891.233	1567
891.337	1421
891.442	1210
891.546	1413
891.650	1509
891.755	823
891.859	2134
891.963	802
892.068	887
892.172	1405
892.276	990
892.380	984
892.484	781
892.589	1811
892.693	734
892.797	1249
892.901	1099
893.005	2221
893.109	592
893.213	1664
893.317	1489
893.421	1441
893.525	1516
893.629	1598
893.733	933
893.837	426
893.941	596
894.045	1045
894.148	1727
894.252	1825
894.356	1548
894.460	535
894.564	852
894.667	989
894.771	756
894.875	1011
894.978	1108
895.082	1130
895.186	714
895.289	1589
895.393	731
895.496	1407
895.600	804
895.703	1641
895.807	826
895.910	1389
896.014	1162
896.117	1114
896.221	770
896.324	272
896.427	1099
896.531	1175
896.634	1373
896.737	1018
896.840	511
896.944	723
897.047	417
897.150	1537
897.253	217
897.356	1010
897.460	679
897.563	1315
897.666	995
897.769	303
897.872	585
897.975	1248
898.078	1205
898.181	1493
898.284	1419
898.387	908
898.490	873
898.593	616
898.695	633
898.798	1091
898.901	533
899.004	1269
899.107	972
899.209	468
899.312	1205
899.415	602
899.518	524
899.620	895
899.723	1000
899.826	1586
899.928	3275
900.031	2946
900.133	550
900.236	1249
900.338	574
900.441	1392
900.543	991
900.646	639
900.748	750
900.851	597
900.953	447
901.055	1900
901.158	1483
901.260	708
901.362	1193
901.465	459
901.567	526
901.669	1222
901.771	510
901.873	976
901.976	734
902.078	1120
902.180	1462
902.282	656
902.384	674
902.486	1908
902.588	1040
902.690	1228
902.792	2352
902.894	1859
902.996	1268
903.098	1544
903.200	770
903.302	970
903.404	968
903.505	901
903.607	661
903.709	930
903.811	288
903.913	425
904.014	619
904.116	960
904.218	1186
904.319	694
904.421	636
904.523	1080
904.624	1166
904.726	1416
904.827	664
904.929	1190
905.030	890
905.132	957
905.233	472
905.335	604
905.436	1113
905.537	1268
905.639	118
905.740	735
905.841	631
905.943	864
906.044	453
906.145	1292
906.247	717
906.348	676
906.449	699
906.550	903
906.651	696
906.752	1252
906.854	806
906.955	1078
907.056	766
907.157	960
907.258	982
907.359	869
907.460	244
907.561	692
907.662	398
907.762	1304
907.863	172
907.964	884
908.065	1237
908.166	1252
908.267	-270
908.367	-457
908.468	1447
908.569	1009
908.670	1013
908.770	1528
908.871	1640
908.971	2009
909.072	1007
909.173	1814
909.273	888
909.374	288
909.474	806
909.575	1487
909.675	1300
909.776	238
909.876	1091
909.977	602
910.077	912
910.177	556
910.278	683
910.378	218
910.478	748
910.579	930
910.679	625
910.779	567
910.879	784
910.980	771
911.080	733
911.180	788
911.280	293
911.380	578
911.480	1127
911.580	841
911.680	-16
911.780	1227
911.880	1144
911.980	1682
912.080	418
912.180	1762
912.280	980
912.380	155
912.480	1131
912.580	554
912.679	-542
912.779	1165
912.879	399
912.979	-83
913.078	184
913.178	62
913.278	1124
913.377	760
913.477	194
913.577	465
913.676	695
913.776	1162
913.875	460
913.975	952
914.074	899
914.174	906
914.273	157
914.373	216
914.472	1060
914.572	573
914.671	771
914.770	862
914.870	-39
914.969	816
915.068	325
915.167	471
915.267	911
915.366	915
915.465	757
915.564	534
915.663	404
915.763	-311
915.862	845
915.961	-82
916.060	79
916.159	971
916.258	175
916.357	440
916.456	809
916.555	495
916.654	540
916.752	810
916.851	573
916.950	748
917.049	1556
917.148	331
917.247	961
917.345	878
917.444	613
917.543	380
917.642	706
917.740	1509
917.839	611
917.937	1096
918.036	381
918.135	802
918.233	248
918.332	812
918.430	1
918.529	455
918.627	916
918.726	1100
918.824	574
918.923	341
919.021	928
919.119	440
919.218	542
919.316	-304
919.414	-51
919.512	316
919.611	1050
919.709	281
919.807	1120
919.905	222
920.003	1065
920.102	-174
920.200	332
920.298	811
920.396	-146
920.494	663
920.592	433
920.690	789
920.788	724
920.886	951
920.984	943
921.082	5
921.180	1078
921.277	194
921.375	395
921.473	1116
921.571	-25
921.669	66
921.766	-312
921.864	932
921.962	854
922.060	620
922.157	228
922.255	418
922.352	294
922.450	1090
922.548	604
922.645	1109
922.743	334
922.840	341
922.938	71
923.035	130
923.133	1086
923.230	997
923.327	699
923.425	283
923.522	1140
923.619	678
923.717	923
923.814	325
923.911	752
924.008	1209
924.106	1150
924.203	396
924.300	732
924.397	746
924.494	1052
924.591	1522
924.688	1400
924.786	87
924.883	698
924.979	981
925.077	430
925.173	856
925.270	767
925.367	430
925.464	869
925.561	849
925.658	913
925.755	831
925.852	1322
925.948	887
926.045	1752
926.142	1218
926.239	839
926.335	1362
926.432	1533
926.529	644
926.625	1776
926.722	2232
926.818	1388
926.915	1121
927.011	54
927.108	267
927.204	673
927.301	476
927.397	542
927.494	560
927.590	679
927.687	624
927.783	641
927.879	978
927.976	171
928.072	1084
928.168	933
928.264	540
928.361	772
928.457	144
928.553	183
928.649	755
928.745	340
928.841	709
928.937	926
929.033	679
929.129	130
929.225	601
929.321	40
929.417	66
929.513	21
929.609	23
929.705	211
929.801	806
929.897	421
929.993	175
930.089	285
930.184	345
930.280	371
930.376	401
930.471	-92
930.567	413
930.663	343
930.758	123
930.854	146
930.950	560
931.045	167
931.141	839
931.236	539
931.332	405
931.427	-169
931.523	458
931.618	-400
931.714	215
931.809	711
931.905	197
932.000	0
932.095	240
932.191	-87
932.286	-434
932.381	538
932.476	416
932.572	685
932.667	104
932.762	54
932.857	387
932.952	641
933.047	551
933.142	194
933.237	557
933.332	319
933.427	564
933.522	274
933.617	139
933.712	541
933.807	110
933.902	15
933.997	133
934.092	195
934.187	359
934.282	822
934.376	566
934.471	390
934.566	185
934.661	95
934.755	250
934.850	520
934.945	688
935.039	-173
935.134	167
935.228	33
935.323	600
935.417	88
935.512	590
935.606	-503
935.701	-226
935.795	-113
935.890	88
935.984	976
936.079	580
936.173	17
936.267	-124
936.362	-57
936.456	-35
936.550	107
936.644	-265
936.738	833
936.833	-328
936.927	59
937.021	653
937.115	31
937.209	-89
937.303	1025
937.397	55
937.491	489
937.585	857
937.679	57
937.773	424
937.867	599
937.961	311
938.055	68
938.149	77
938.243	521
938.337	506
938.430	641
938.524	354
938.618	1083
938.712	2094
938.805	522
938.899	-295
938.993	1222
939.086	128
939.180	763
939.274	1564
939.367	1230
939.461	640
939.554	298
939.648	300
939.741	1062
939.835	23
939.928	354
940.022	542
940.115	268
940.208	258
940.302	-392
940.395	660
940.488	294
940.582	-315
940.675	5
940.768	-31
940.861	54
940.954	-286
941.048	-182
941.141	-138
941.234	658
941.327	812
941.420	1430
941.513	2019
941.606	624
941.699	500
941.792	-92
941.885	399
941.978	204
942.071	210
942.164	127
942.257	414
942.349	-256
942.442	-46
942.535	-72
942.628	1153
942.721	-419
942.813	853
942.906	783
942.999	901
943.091	-105
943.184	172
943.277	624
943.369	-306
943.462	-188
943.554	225
943.647	788
943.739	86
943.832	111
943.924	403
944.017	-436
944.109	416
944.201	330
944.294	700
944.386	272
944.478	117
944.571	-374
944.663	793
944.755	-429
944.847	593
944.940	292
945.032	644
945.124	902
945.216	497
945.308	33
945.400	47
945.492	-224
945.584	197
945.676	184
945.768	-538
945.860	144
945.952	1059
946.044	-114
946.136	-95
946.228	-1047
946.320	720
946.412	-298
946.503	45
946.595	-244
946.687	-641
946.779	-346
946.870	187
946.962	-523
947.054	365
947.145	777
947.237	107
947.329	125
947.420	1047
947.512	-333
947.603	-298
947.695	-43
947.786	296
947.878	141
947.969	595
948.061	-692
948.152	41
948.243	-124
948.335	160
948.426	295
948.517	48
948.609	-128
948.700	-119
948.791	-383
948.882	715
948.973	44
949.065	-179
949.156	56
949.247	-30
949.338	-26
949.429	-84
949.520	-60
949.611	-199
949.702	-320
949.793	211
949.884	639
949.975	-62
950.066	-74
950.157	-174
950.247	433
950.338	-254
950.429	-976
950.520	-446
950.611	-522
950.701	-78
950.792	241
950.883	977
950.973	-277
951.064	-420
951.155	-341
951.245	104
951.336	219
951.427	138
951.517	202
951.608	-433
951.698	548
951.788	295
951.879	368
951.969	458
952.060	-105
952.150	415
952.240	537
952.331	310
952.421	1076
952.511	-129
952.602	-164
952.692	-834
952.782	293
952.872	-149
952.962	-439
953.052	-475
953.143	-520
953.233	153
953.323	563
953.413	117
953.503	114
953.593	-280
953.683	-470
953.773	-187
953.863	455
953.953	-458
954.042	268
954.132	379
954.222	-173
954.312	-739
954.402	379
954.492	312
954.581	732
954.671	780
954.761	124
954.850	385
954.940	-303
955.030	576
955.119	-77
955.209	-78
955.298	166
955.388	859
955.477	97
955.567	277
955.656	445
955.746	485
955.835	195
955.925	430
956.014	211
956.103	-308
956.193	47
956.282	-155
956.371	612
956.461	707
956.550	-449
956.639	-341
956.728	-96
956.817	227
956.906	-129
956.995	750
957.085	-444
957.174	527
957.263	-28
957.352	340
957.441	267
957.530	-35
957.619	128
957.708	258
957.796	-280
957.885	753
957.974	-252
958.063	-641
958.152	561
958.241	408
958.329	-306
958.418	800
958.507	730
958.596	371
958.684	731
958.773	148
958.861	498
958.950	308
959.039	1069
959.127	910
959.216	452
959.304	958
959.393	-432
959.481	219
959.570	1116
959.658	909
959.746	263
959.835	1423
959.923	1278
960.011	2725
960.100	1134
960.188	1024
960.276	449
960.365	811
960.453	960
960.541	369
960.629	733
960.717	298
960.805	-55
960.893	-49
960.981	449
961.069	244
961.158	806
961.245	-163
961.333	474
961.421	883
961.509	98
961.597	551
961.685	-262
961.773	161
961.861	-355
961.949	1314
962.036	-107
962.124	-482
962.212	-464
962.299	-107
962.387	-408
962.475	24
962.562	-14
962.650	-390
962.738	298
962.825	-96
962.913	833
963.000	-153
963.088	-271
963.175	-244
963.263	252
963.350	-19
963.438	-47
963.525	1045
963.612	461
963.700	2163
963.787	3706
963.874	8218
963.962	3420
964.049	667
964.136	-174
964.223	152
964.310	312
964.398	-294
964.485	401
964.572	102
964.659	274
964.746	1342
964.833	1163
964.920	403
965.007	303
965.094	-75
965.181	-447
965.268	74
965.355	249
965.441	-261
965.528	-162
965.615	-488
965.702	-1
965.789	113
965.875	-211
965.962	-273
966.049	-740
966.136	168
966.222	213
966.309	222
966.395	-275
966.482	28
966.569	-182
966.655	1
966.742	-511
966.828	287
966.915	481
967.001	-324
967.087	214
967.174	-117
967.260	-282
967.347	-376
967.433	856
967.519	3049
967.605	5672
967.692	2039
967.778	-415
967.864	212
967.950	-55
968.036	-795
968.123	-448
968.209	-164
968.295	-497
968.381	139
968.467	-154
968.553	-348
968.639	-67
968.725	-467
968.811	118
968.897	723
968.983	-463
969.069	570
969.154	-494
969.240	130
969.326	-735
969.412	33
969.497	-1162
969.583	-635
969.669	-476
969.755	500
969.840	-174
969.926	-204
970.012	10
970.097	-397
970.183	350
970.268	-771
970.354	-94
970.439	301
970.525	1748
970.610	3211
970.696	1206
970.781	-108
970.866	212
970.952	-124
971.037	-307
971.122	-949
971.208	-321
971.293	-249
971.378	-226
971.463	-356
971.549	-253
971.634	354
971.719	-235
971.804	220
971.889	930
971.974	-209
972.059	-362
972.144	-1139
972.229	-425
972.314	-127
972.399	-197
972.484	-511
972.569	-327
972.654	-526
972.739	273
972.824	560
972.908	1183
972.993	21
973.078	-869
973.163	-534
973.247	121
973.332	-519
973.417	-862
973.501	-98
973.586	-449
973.671	-609
973.755	10
973.840	154
973.924	-92
974.009	-655
974.093	66
974.178	471
974.262	-376
974.346	1350
974.431	1140
974.515	-803
974.600	-782
974.684	-301
974.768	-607
974.852	-178
974.937	1
975.021	-439
975.105	-230
975.189	-606
975.273	-664
975.358	-165
975.442	-1340
975.526	-283
975.610	-486
975.694	-369
975.778	-779
975.862	-509
975.946	-1092
976.030	141
976.114	-561
976.198	-1026
976.281	-213
976.365	-293
976.449	-716
976.533	-579
976.617	-68
976.700	-584
976.784	-866
976.868	-916
976.951	-582
977.035	681
977.119	49
977.202	-531
977.286	-196
977.369	-871
977.453	-579
977.536	-1405
977.620	-380
977.703	-215
977.787	-1049
977.870	-506
977.953	-1160
978.037	-90
978.120	-1040
978.203	-512
978.287	-8
978.370	600
978.453	205
978.536	-1198
978.620	-885
978.703	-224
978.786	1068
978.869	279
978.952	-677
979.035	227
979.118	-713
979.201	-410
979.284	-770
979.367	-951
979.450	-871
979.533	98
979.616	-376
979.699	-1238
979.782	-335
979.865	-473
979.948	-344
980.030	-1118
980.113	-456
980.196	-1482
980.279	-1625
980.361	-736
980.444	19
980.526	-669
980.609	-776
980.692	-630
980.774	-629
980.857	-481
980.939	-1032
981.022	-1175
981.104	-275
981.187	-898
981.269	-1057
981.352	-916
981.434	-1075
981.516	-1129
981.599	-143
981.681	-789
981.763	-284
981.846	-399
981.928	-1173
982.010	-686
982.092	-793
982.174	-162
982.256	-1047
982.339	-948
982.421	-1202
982.503	-1285
982.585	-748
982.667	-1173
982.749	-1532
982.831	-310
982.913	-448
982.995	-916
983.077	-752
983.158	119
983.240	-625
983.322	-900
983.404	-651
983.486	-2234
983.568	-889
983.649	-1488
983.731	-768
983.813	-978
983.894	-326
983.976	-997
984.058	-425
984.139	-83
984.221	-800
984.302	-924
984.384	16
984.465	-495
984.547	-607
984.628	-1210
984.710	-1033
984.791	-604
984.872	-1108
984.954	-1285
985.035	-489
985.116	-6
985.198	-954
985.279	-233
985.360	-1359
985.441	-643
985.522	-522
985.604	-593
985.685	-1402
985.766	-627
985.847	-933
985.928	-501
986.009	-1727
986.090	-1479
986.171	-991
986.252	-305
986.333	-885
986.414	-1014
986.495	-1116
986.576	-61
986.656	-942
986.737	-656
986.818	-821
986.899	-410
986.980	-1413
987.060	-690
987.141	-1039
987.222	-517
987.302	-341
987.383	-834
987.464	-1413
987.544	-825
987.625	-566
987.705	-1063
987.786	-802
987.866	-858
987.947	-392
988.027	-268
988.108	-604
988.188	-1323
988.268	-539
988.349	-828
988.429	-1192
988.509	-766
988.589	-922
988.670	-1348
988.750	-1007
988.830	-1695
988.910	-1585
988.990	-1368
989.070	-929
989.151	-437
989.231	-376
989.311	-300
989.391	-1560
989.471	-344
989.551	-1247
989.631	-1024
989.711	-943
989.791	-536
989.870	-994
989.950	-253
990.030	-1847
990.110	-1172
990.190	-643
990.269	-161
990.349	-750
990.429	-1142
990.509	-1033
990.588	-1233
990.668	-553
990.747	-1323
990.827	-716
990.907	-834
990.986	-1812
991.066	-569
991.145	-791
991.225	-372
991.304	-511
991.383	-1182
991.463	-375
991.542	-137
991.622	-1490
991.701	-1022
991.780	-653
991.859	-1526
991.939	-1170
992.018	-716
992.097	-1132
992.176	-1047
992.256	-1058
992.335	-1145
992.414	-973
992.493	-904
992.572	-1337
992.651	-641
992.730	-515
992.809	-611
992.888	-929
992.967	-424
993.046	-862
993.125	-981
993.203	-221
993.282	-706
993.361	-674
993.440	-919
993.519	-560
993.597	-524
993.676	-242
993.755	-405
993.834	-566
993.912	-921
993.991	-942
994.069	-625
994.148	-798
994.226	-1824
994.305	-1496
994.384	-802
994.462	-1223
994.540	-432
994.619	-604
994.697	-839
994.776	-853
994.854	-702
994.932	-367
995.011	-554
995.089	-1001
995.167	-1360
995.245	-662
995.324	-1110
995.402	-717
995.480	-1277
995.558	-198
995.636	-1143
995.714	-1743
995.792	-673
995.870	-1263
995.948	-522
996.026	-99
996.104	-1180
996.182	-649
996.260	-1292
996.338	-2208
996.416	-1184
996.494	-1369
996.572	-1056
996.649	-1290
996.727	-1123
996.805	-547
996.883	-577
996.960	-1222
997.038	-1399
997.116	-1009
997.193	-909
997.271	-118
997.348	-1084
997.426	-1194
997.504	-1569
997.581	124
997.658	-97
997.736	-1076
997.813	-1329
997.891	-1013
997.968	-1029
998.046	-1554
998.123	-693
998.200	-689
998.277	-468
998.355	-1742
998.432	-2072
998.509	-687
998.586	-1727
998.663	-665
998.741	-784
998.818	-1084
998.895	-1025
998.972	-1037
999.049	-405
999.126	-833
999.203	-1117
999.280	-1424
999.357	-1321
999.434	-1329
999.511	-1065
999.587	-804
999.664	-1261
999.741	-1165
999.818	-938
999.895	-904
999.971	-502
1000.048	-1101
1000.125	-739
1000.202	-1393
1000.278	-997
1000.355	-1189
1000.431	-909
1000.508	-1167
1000.584	-590
1000.661	-481
1000.738	-779
1000.814	-1752
1000.890	-778
1000.967	-895
1001.043	-734
1001.120	-1032
1001.196	-575
1001.272	-1011
1001.349	-524
1001.425	-686
1001.501	-862
1001.577	-1537
1001.654	-891
1001.730	-447
1001.806	-1243
1001.882	-1161
1001.958	-686
1002.034	-1006
1002.110	-626
1002.186	-938
1002.262	-635
1002.338	-1394
1002.414	-1214
1002.490	-1936
1002.566	-847
1002.642	-1414
1002.718	-1402
1002.794	-914
1002.870	-1056
1002.945	-881
1003.021	-806
1003.097	-1247
1003.173	-1085
1003.248	-745
1003.324	-435
1003.400	-1249
1003.475	-734
1003.551	-1460
1003.626	-793
1003.702	-1639
1003.777	-1535
1003.853	-1212
1003.928	-305
1004.004	-1160
1004.079	-660
1004.155	-745
1004.230	-995
1004.305	-1102
1004.381	-880
1004.456	-949
1004.531	-1094
1004.607	-1005
1004.682	-910
1004.757	-1033
1004.832	-1672
1004.907	-971
1004.982	-1172
1005.057	-922
1005.133	-1499
1005.208	-989
1005.283	-1326
1005.358	-597
1005.433	-1927
1005.508	-1541
1005.583	-1184
1005.657	-1763
1005.732	-404
1005.807	-302
1005.882	-1423
1005.957	-970
1006.032	-971
1006.106	-1248
1006.181	-240
1006.256	-1815
1006.331	-701
1006.405	-1249
1006.480	-699
1006.554	-1411
1006.629	-987
1006.704	-878
1006.778	-222
1006.853	-847
1006.927	-1082
1007.002	-1872
1007.076	-1086
1007.150	-1309
1007.225	-721
1007.299	-2014
1007.373	-1179
1007.448	-1466
1007.522	-626
1007.596	-1150
1007.671	-583
1007.745	-1521
1007.819	-928
1007.893	-666
1007.967	-705
1008.041	-1337
1008.115	-1278
1008.190	-1712
1008.264	-1152
1008.338	-1507
1008.412	-943
1008.486	-1502
1008.560	-1392
1008.633	-866
1008.707	-1981
1008.781	-1255
1008.855	-1441
1008.929	-1370
1009.003	-1828
1009.076	-1949
1009.150	-1210
1009.224	-1827
1009.298	-1289
1009.371	-1173
1009.445	-670
1009.519	-1191
1009.592	-746
1009.666	-1687
1009.739	-534
1009.813	-1411
1009.886	-1129
1009.960	-1105
1010.033	-1261
1010.107	-886
1010.180	-837
1010.253	-815
1010.327	-1857
1010.400	-1459
1010.473	-1143
1010.547	-1095
1010.620	-1555
1010.693	-288
1010.766	-1202
1010.840	-1115
1010.913	-1262
1010.986	-845
1011.059	-353
1011.132	-1680
1011.205	-401
1011.278	-1085
1011.351	-1507
1011.424	-1281
1011.497	-1048
1011.570	-1523
1011.643	-1476
1011.716	-1259
1011.789	-766
1011.862	-896
1011.934	-739
1012.007	-1146
1012.080	-684
1012.153	-1308
1012.225	-1508
1012.298	-1069
1012.371	-491
1012.443	-1308
1012.516	-1184
1012.588	-1579
1012.661	-598
1012.733	-1596
1012.806	-1294
1012.879	-1262
1012.951	-883
1013.023	-712
1013.096	-1119
1013.168	-1578
1013.241	-1535
1013.313	-1403
1013.385	-1117
1013.458	-1108
1013.530	-1494
1013.602	-1092
1013.674	-1326
1013.746	-1705
1013.819	-848
1013.891	-1329
1013.963	-1085
1014.035	-888
1014.107	-1159
1014.179	-1392
1014.251	-1578
1014.323	-1796
1014.395	-719
1014.467	-562
1014.539	-1091
1014.611	-1906
1014.683	-1191
1014.754	-1225
1014.826	-1551
1014.898	-1132
1014.970	-731
1015.042	-825
1015.113	-859
1015.185	-1249
1015.257	-1088
1015.328	-1337
1015.400	-1406
1015.471	-1547
1015.543	-1804
1015.615	-1354
1015.686	-1684
1015.757	-1277
1015.829	-1638
1015.901	-1209
1015.972	-1587
1016.043	-1764
1016.115	-1669
1016.186	-1437
1016.257	-1027
1016.328	-1416
1016.400	-767
1016.471	-1199
1016.542	-1276
1016.613	-932
1016.685	-1111
1016.756	-722
1016.827	-305
1016.898	-1130
1016.969	-1543
1017.040	-1863
1017.111	-1037
1017.182	-1790
1017.253	-1123
1017.324	-2317
1017.395	-1390
1017.466	-1587
1017.537	-1562
1017.608	-916
1017.678	-1266
1017.749	-2026
1017.820	-1277
1017.891	-1431
1017.961	-1236
1018.032	-1164
1018.103	-1098
1018.173	-1665
1018.244	-1248
1018.315	-1358
1018.385	-845
1018.456	-1011
1018.526	-835
1018.597	-2064
1018.667	-843
1018.738	-1775
1018.808	-406
1018.878	-1838
1018.949	-1450
1019.019	-1214
1019.089	-1577
1019.160	-1094
1019.230	-715
1019.300	-1864
1019.371	-1315
1019.441	-481
1019.511	-1550
1019.581	-1887
1019.651	-331
1019.721	-1227
1019.791	-1160
1019.861	-1668
1019.931	-1224
1020.001	-1869
1020.071	-601
1020.141	-587
1020.211	-1282
1020.281	-1616
1020.351	-1048
1020.421	-1765
1020.491	-909
1020.560	-1686
1020.630	-1213
1020.700	-1822
1020.770	-1449
1020.839	-1797
1020.909	-1279
1020.979	-1164
1021.048	-2176
1021.118	-606
1021.187	-924
1021.257	-1529
1021.326	-1067
1021.396	-1291
1021.465	-1911
1021.535	-1469
1021.604	-1517
1021.674	-1871
1021.743	-1787
1021.812	-1497
1021.882	-1487
1021.951	-591
1022.020	-935
1022.089	-1928
1022.159	-1524
1022.228	-1301
1022.297	-1381
1022.366	-2054
1022.435	-1693
1022.504	-665
1022.573	-2627
1022.642	-1169
1022.711	-1072
1022.781	-1355
1022.849	-1189
1022.918	-1079
1022.987	-1818
1023.056	-1466
1023.125	-1118
1023.194	-1830
1023.263	-1730
1023.331	-1588
1023.400	-1164
1023.469	-2070
1023.538	-1516
1023.606	-1697
1023.675	-1455
1023.744	-1704
1023.812	-1773
1023.881	-1624
1023.949	-792
1024.018	-1464
1024.086	-1405
1024.155	-1540
1024.223	-989
1024.292	-1564
1024.360	-560
1024.429	-843
1024.497	-1941
1024.565	-1799
1024.634	-1397
1024.702	-2120
1024.770	-2058
1024.838	-1680
1024.907	-1390
1024.975	-1854
1025.043	-1462
1025.111	-1825
1025.179	-1243
1025.247	-1992
1025.315	-2242
1025.383	-1337
1025.451	-1010
1025.519	-1749
1025.587	-1515
1025.655	-684
1025.723	-1903
1025.791	-1405
1025.859	-1250
1025.927	-1584
1025.995	-837
1026.062	-1413
1026.130	-1466
1026.198	-1487
1026.266	-1455
1026.333	-1521
1026.401	-1484
1026.469	-1954
1026.536	-1368
1026.604	-1385
1026.671	-2121
1026.739	-554
1026.806	-1705
1026.874	-1990
1026.941	-1576
1027.009	-1491
1027.076	-1310
1027.144	-1578
1027.211	-1588
1027.278	-1754
1027.345	-820
1027.413	-1541
1027.480	-1908
1027.547	-2199
1027.614	-1092
1027.682	-1188
1027.749	-1974
1027.816	-1857
1027.883	-1901
1027.950	-1177
1028.017	-1775
1028.084	-1669
1028.151	-1231
1028.218	-1360
1028.285	-854
1028.352	-1805
1028.419	-1290
1028.486	-862
1028.553	-1648
1028.619	-1350
1028.686	-1591
1028.753	-2352
1028.820	-2122
1028.886	-1129
1028.953	-1630
1029.020	-1587
1029.086	-1577
1029.153	-1674
1029.220	-1225
1029.286	-1059
1029.353	-1149
1029.419	-1555
1029.486	-1972
1029.552	-2012
1029.619	-2022
1029.685	-1363
1029.751	-1685
1029.818	-1266
1029.884	-1570
1029.951	-1762
1030.017	-2047
1030.083	-1676
1030.149	-1377
1030.216	-1924
1030.282	-848
1030.348	-1980
1030.414	-1866
1030.480	-1751
1030.546	-1956
1030.612	-906
1030.678	-1028
1030.744	-1624
1030.810	-1463
1030.876	-1350
1030.942	-2055
1031.008	-1429
1031.074	-1663
1031.140	-1949
1031.206	-2191
1031.272	-1660
1031.337	-1749
1031.403	-1607
1031.469	-291
1031.534	-1234
1031.600	-1497
1031.666	-2141
1031.731	-1822
1031.797	-1077
1031.863	-1974
1031.928	-1513
1031.994	-2484
1032.059	-1540
1032.125	-1049
1032.190	-1834
1032.256	-2447
1032.321	-1658
1032.386	-1539
1032.452	-1426
1032.517	-899
1032.582	-1478
1032.647	-1934
1032.713	-1055
1032.778	-1542
1032.843	-1870
1032.908	-1835
1032.974	-1847
1033.039	-2474
1033.104	-1808
1033.169	-1588
1033.234	-1616
1033.299	-1255
1033.364	-1867
1033.429	-1843
1033.494	-1018
1033.559	-1412
1033.624	-1200
1033.688	-1011
1033.753	-1791
1033.818	-1205
1033.883	-1189
1033.948	-879
1034.013	-855
1034.077	-1794
1034.142	-1774
1034.207	-964
1034.271	-1460
1034.336	-1508
1034.400	-1041
1034.465	-1288
1034.530	-1821
1034.594	-739
1034.658	-956
1034.723	-2073
1034.787	-1205
1034.852	-1857
1034.916	-2117
1034.981	-1605
1035.045	-1845
1035.109	-1683
1035.173	-1915
1035.238	-1625
1035.302	-1950
1035.366	-1854
1035.430	-2020
1035.495	-1691
1035.559	-1311
1035.623	-1417
1035.687	-2340
1035.751	-1764
1035.815	-2045
1035.879	-1234
1035.943	-1927
1036.007	-1670
1036.071	-2126
1036.135	-1538
1036.198	-1728
1036.262	-1795
1036.326	-1888
1036.390	-664
1036.454	-1700
1036.517	-1506
1036.581	-1418
1036.645	-1334
1036.709	-941
1036.772	-1673
1036.836	-1067
1036.900	-1255
1036.963	-1299
1037.026	-1527
1037.090	-2185
1037.154	-891
1037.217	-1934
1037.280	-1682
1037.344	-1739
1037.407	-1939
1037.471	-1542
1037.534	-1777
1037.597	-2010
1037.661	-2413
1037.724	-2078
1037.787	-2032
1037.850	-2079
1037.913	-1778
1037.977	-1114
1038.040	-1870
1038.103	-1459
1038.166	-1289
1038.229	-2323
1038.292	-2004
1038.355	-1748
1038.418	-1598
1038.481	-1998
1038.544	-878
1038.607	-2215
1038.670	-1357
1038.732	-1654
1038.795	-2221
1038.858	-2436
1038.921	-1072
1038.984	-1545
1039.046	-2175
1039.109	-1699
1039.172	-1760
1039.234	-1298
1039.297	-1134
1039.360	-1598
1039.422	-1595
1039.485	-1487
1039.547	-1995
1039.610	-1747
1039.672	-1999
1039.734	-2027
1039.797	-1019
1039.859	-1368
1039.922	-1158
1039.984	-2037
1040.046	-901
1040.109	-1724
1040.171	-2102
1040.233	-2033
1040.295	-1744
1040.358	-1628
1040.420	-1775
1040.482	-2111
1040.544	-2075
1040.606	-1603
1040.668	-2325
1040.730	-1686
1040.792	-1193
1040.854	-1899
1040.916	-1453
1040.978	-2098
1041.040	-1542
1041.102	-2408
1041.164	-1550
1041.225	-1885
1041.287	-1979
1041.349	-1716
1041.411	-1801
1041.472	-2056
1041.534	-1003
1041.596	-1988
1041.657	-1486
1041.719	-1246
1041.781	-1350
1041.842	-2095
1041.904	-1463
1041.965	-1416
1042.027	-2220
1042.088	-1799
1042.150	-1998
1042.211	-1434
1042.272	-2539
1042.334	-2851
1042.395	-1179
1042.456	-2019
1042.518	-1304
1042.579	-1303
1042.640	-2395
1042.701	-1988
1042.763	-2116
1042.824	-2135
1042.885	-2125
1042.946	-2707
1043.007	-1082
1043.068	-2169
1043.129	-2044
1043.190	-1677
1043.251	-1195
1043.312	-1766
1043.373	-1431
1043.434	-2308
1043.495	-1524
1043.556	-1868
1043.616	-1308
1043.677	-2241
1043.738	-1527
1043.799	-2500
1043.859	-1681
1043.920	-1618
1043.981	-2510
1044.041	-1320
1044.102	-1971
1044.162	-2432
1044.223	-1563
1044.284	-1465
1044.344	-1697
1044.405	-1718
1044.465	-1997
1044.525	-2169
1044.586	-1676
1044.646	-1696
1044.707	-1374
1044.767	-1517
1044.827	-1974
1044.887	-1871
1044.948	-1528
1045.008	-1621
1045.068	-2015
1045.128	-1932
1045.188	-804
1045.249	-475
1045.309	-1508
1045.369	-2345
1045.429	-1285
1045.489	-1492
1045.549	-1513
1045.609	-1740
1045.669	-1697
1045.729	-1881
1045.789	-1940
1045.848	-1610
1045.908	-1540
1045.968	-1869
1046.028	-1677
1046.088	-1753
1046.147	-1810
1046.207	-1655
1046.267	-1573
1046.326	-1347
1046.386	-1930
1046.446	-1330
1046.505	-1179
1046.565	-1432
1046.624	-1336
1046.684	-1159
1046.743	-626
1046.803	-1038
1046.862	-526
1046.922	0
