'Start Wavelength	183.907
'End Wavelength	1046.922
'Gate Delay	5.000
'Gate Width (ms)	1.050
'Laser Output Level	0.000
'X Position	0.000
'Y Position	0.000
'Z Position	0.000
'Grid Point Number	1.000
'Shot Number	100.000
183.907	-113.000
183.977	-20.000
184.047	-801
184.116	375
184.186	320
184.256	178
184.325	-504
184.395	-799
184.465	259
184.534	-308
184.604	-540
184.674	289
184.743	-998
184.813	604
184.883	260
184.952	198
185.022	63
185.092	117
185.161	-374
185.231	-398
185.301	-112
185.370	56
185.440	-567
185.509	-684
185.579	59
185.649	-163
185.718	140
185.788	602
185.857	-807
185.927	274
185.996	-637
186.066	-185
186.136	97
186.205	267
186.275	-468
186.344	425
186.414	347
186.483	-1129
186.553	765
186.622	478
186.692	-636
186.761	120
186.831	39
186.900	-1077
186.970	283
187.039	-327
187.109	553
187.178	-471
187.248	-90
187.317	276
187.387	-106
187.456	-671
187.526	17
187.595	-683
187.664	-649
187.734	-287
187.803	-31
187.873	269
187.942	-106
188.012	-106
188.081	-136
188.150	-456
188.220	-229
188.289	-442
188.358	481
188.428	328
188.497	-815
188.567	343
188.636	-984
188.705	-417
188.775	-33
188.844	-798
188.913	511
188.983	-724
189.052	159
189.121	-486
189.191	-574
189.260	-213
189.329	658
189.399	-303
189.468	345
189.537	-1368
189.606	-71
189.676	-563
189.745	-493
189.814	45
189.883	-147
189.953	-924
190.022	-53
190.091	93
190.161	830
190.230	-787
190.299	156
190.368	-5
190.437	-74
190.507	352
190.576	-951
190.645	-110
190.714	-858
190.783	-473
190.853	236
190.922	-346
190.991	-10
191.060	-367
191.129	-904
191.198	-237
191.268	-787
191.337	105
191.406	754
191.475	-642
191.544	-536
191.613	251
191.682	-66
191.752	-37
191.821	181
191.890	-686
191.959	-187
192.028	-353
192.097	-826
192.166	-817
192.235	-318
192.304	-261
192.373	-126
192.442	-455
192.511	-197
192.580	-224
192.650	-50
192.719	-430
192.788	44
192.857	-98
192.926	205
192.995	156
193.064	49
193.133	466
193.202	470
193.271	392
193.340	-740
193.409	501
193.478	268
193.547	397
193.615	72
193.684	657
193.753	-445
193.822	492
193.891	-797
193.960	428
194.029	-818
194.098	-759
194.167	-767
194.236	568
194.305	-26
194.374	-109
194.443	-157
194.512	-443
194.580	-237
194.649	-62
194.718	314
194.787	-128
194.856	-624
194.925	246
194.994	-704
195.062	-140
195.131	837
195.200	-338
195.269	-64
195.338	87
195.407	-546
195.475	-92
195.544	-128
195.613	-141
195.682	-95
195.751	441
195.819	71
195.888	-47
195.957	629
196.026	176
196.094	-288
196.163	-34
196.232	-131
196.301	-288
196.369	12
196.438	55
196.507	524
196.576	-461
196.644	383
196.713	21
196.782	-288
196.850	397
196.919	174
196.988	-83
197.056	-497
197.125	228
197.194	-443
197.262	282
197.331	-870
197.400	-835
197.468	-184
197.537	-306
197.606	169
197.674	112
197.743	159
197.812	145
197.880	82
197.949	541
198.017	250
198.086	396
198.155	520
198.223	-300
198.292	575
198.360	305
198.429	-321
198.497	70
198.566	-162
198.635	469
198.703	176
198.772	528
198.840	-310
198.909	-329
198.977	-578
199.046	-403
199.114	-148
199.183	-639
199.251	295
199.320	-745
199.388	-918
199.457	-445
199.525	7
199.594	499
199.662	-219
199.731	-913
199.799	-261
199.867	-412
199.936	-271
200.004	152
200.073	-589
200.141	-155
200.210	-612
200.278	-429
200.346	51
200.415	92
200.483	68
200.552	-452
200.620	519
200.688	324
200.757	270
200.825	22
200.893	-769
200.962	121
201.030	506
201.098	6
201.167	82
201.235	-623
201.303	-582
201.372	300
201.440	-746
201.508	-186
201.577	-567
201.645	61
201.713	360
201.781	-375
201.850	434
201.918	203
201.986	-875
202.055	72
202.123	-207
202.191	-485
202.259	-314
202.327	74
202.396	-383
202.464	-270
202.532	-662
202.600	848
202.669	681
202.737	-20
202.805	-104
202.873	113
202.941	473
203.009	529
203.078	-121
203.146	518
203.214	-72
203.282	-981
203.350	-135
203.418	-1210
203.487	-20
203.555	-177
203.623	-1080
203.691	-1051
203.759	-836
203.827	266
203.895	-296
203.963	-1711
204.031	418
204.099	-240
204.168	-675
204.236	431
204.304	-176
204.372	-787
204.440	-361
204.508	-600
204.576	-332
204.644	-396
204.712	-933
204.780	-829
204.848	-543
204.916	-721
204.984	-687
205.052	-61
205.120	-192
205.188	166
205.256	-729
205.324	-67
205.392	-797
205.460	-404
205.528	-504
205.596	527
205.664	-748
205.732	-410
205.799	-68
205.867	751
205.935	-614
206.003	835
206.071	-669
206.139	-670
206.207	-545
206.275	234
206.343	-335
206.411	307
206.478	54
206.546	79
206.614	75
206.682	-468
206.750	-432
206.818	-308
206.885	-33
206.953	-738
207.021	511
207.089	-31
207.157	-810
207.225	265
207.292	89
207.360	-24
207.428	-430
207.496	-740
207.563	-300
207.631	-269
207.699	-972
207.767	-262
207.834	-213
207.902	-13
207.970	-624
208.038	-67
208.105	-298
208.173	431
208.241	109
208.309	234
208.376	133
208.444	151
208.512	609
208.579	-903
208.647	-530
208.715	363
208.782	-502
208.850	-445
208.918	545
208.985	180
209.053	-154
209.120	454
209.188	-386
209.256	155
209.323	-464
209.391	-212
209.459	418
209.526	-163
209.594	-1047
209.661	-688
209.729	-346
209.796	285
209.864	-70
209.932	-945
209.999	879
210.067	93
210.134	3
210.202	-247
210.269	457
210.337	736
210.404	-228
210.472	-349
210.539	-141
210.607	-114
210.674	-664
210.742	162
210.809	-372
210.877	405
210.944	-5
211.012	-832
211.079	751
211.146	-193
211.214	-135
211.281	21
211.349	208
211.416	8
211.484	216
211.551	-24
211.618	-114
211.686	175
211.753	-424
211.821	96
211.888	-821
211.955	275
212.023	-317
212.090	-5
212.157	-323
212.225	-48
212.292	378
212.359	1242
212.427	2945
212.494	747
212.561	284
212.629	529
212.696	-435
212.763	127
212.831	-725
212.898	576
212.965	-973
213.032	-25
213.100	-138
213.167	414
213.234	520
213.301	185
213.369	220
213.436	-462
213.503	-609
213.570	575
213.638	-218
213.705	-428
213.772	-817
213.839	352
213.906	247
213.973	8
214.041	-118
214.108	479
214.175	318
214.242	-208
214.309	404
214.376	80
214.444	-318
214.511	831
214.578	-28
214.645	162
214.712	325
214.779	-4
214.846	24
214.913	263
214.980	542
215.048	230
215.115	916
215.182	726
215.249	-444
215.316	-41
215.383	389
215.450	288
215.517	-90
215.584	151
215.651	574
215.718	411
215.785	643
215.852	-27
215.919	192
215.986	-158
216.053	-210
216.120	-447
216.187	-38
216.254	307
216.321	430
216.388	187
216.455	98
216.522	-595
216.589	107
216.656	953
216.722	610
216.789	994
216.856	1071
216.923	61
216.990	297
217.057	259
217.124	-190
217.191	280
217.258	710
217.324	1578
217.391	1493
217.458	1718
217.525	433
217.592	374
217.659	-1068
217.725	680
217.792	165
217.859	338
217.926	-1253
217.993	-252
218.059	590
218.126	-420
218.193	-365
218.260	216
218.327	-790
218.393	-36
218.460	-99
218.527	-355
218.594	-323
218.660	1212
218.727	1313
218.794	-107
218.860	815
218.927	-593
218.994	107
219.061	108
219.127	-640
219.194	510
219.261	-87
219.327	-1013
219.394	683
219.461	-1012
219.527	-552
219.594	198
219.661	-69
219.727	-849
219.794	412
219.860	-318
219.927	-455
219.994	506
220.060	751
220.127	534
220.193	120
220.260	-457
220.326	775
220.393	1453
220.460	1618
220.526	1190
220.593	993
220.659	1558
220.726	-589
220.792	1992
220.859	1435
220.925	2806
220.992	4469
221.058	3842
221.125	2719
221.191	1122
221.258	-290
221.324	1174
221.391	-300
221.457	401
221.524	505
221.590	394
221.657	2140
221.723	1195
221.789	273
221.856	1426
221.922	-269
221.989	500
222.055	172
222.121	-873
222.188	1313
222.254	696
222.321	489
222.387	38
222.453	49
222.520	-306
222.586	-277
222.652	318
222.719	-448
222.785	290
222.851	-452
222.918	-332
222.984	-343
223.050	-323
223.116	-1627
223.183	1051
223.249	-1063
223.315	-503
223.382	248
223.448	-916
223.514	-970
223.580	-1225
223.647	-527
223.713	-257
223.779	-670
223.845	20
223.911	-237
223.978	-1138
224.044	-109
224.110	-236
224.176	128
224.242	-768
224.309	-290
224.375	11
224.441	-371
224.507	-932
224.573	-725
224.639	291
224.705	-380
224.772	503
224.838	-1209
224.904	62
224.970	-333
225.036	-162
225.102	-763
225.168	222
225.234	711
225.300	178
225.366	18
225.432	337
225.499	-289
225.565	-476
225.631	-1042
225.697	142
225.763	124
225.829	1114
225.895	443
225.961	205
226.027	638
226.093	-835
226.159	1234
226.225	1179
226.291	2920
226.357	6227
226.423	3680
226.489	1142
226.554	319
226.620	810
226.686	1137
226.752	1672
226.818	3190
226.884	7327
226.950	6629
227.016	2875
227.082	749
227.148	414
227.214	1170
227.279	681
227.345	47
227.411	130
227.477	478
227.543	1303
227.609	1511
227.674	1282
227.740	373
227.806	106
227.872	-155
227.938	-213
228.003	1460
228.069	-409
228.135	-301
228.201	-26
228.267	104
228.332	167
228.398	-5
228.464	836
228.530	-796
228.595	-664
228.661	-967
228.727	-21
228.792	1683
228.858	143
228.924	-1725
228.990	1561
229.055	-691
229.121	1429
229.187	894
229.252	-314
229.318	-101
229.384	491
229.449	-572
229.515	-1111
229.581	-1022
229.646	1103
229.712	67
229.777	-391
229.843	597
229.909	-13
229.974	1169
230.040	774
230.105	-445
230.171	-450
230.236	981
230.302	663
230.368	884
230.433	-165
230.499	2
230.564	1623
230.630	-615
230.695	-36
230.761	596
230.826	-1768
230.892	1054
230.957	-519
231.023	-193
231.088	-268
231.154	-156
231.219	716
231.284	-670
231.350	759
231.415	-1196
231.481	432
231.546	-1108
231.612	-100
231.677	-235
231.742	-1165
231.808	826
231.873	-679
231.939	-1323
232.004	638
232.069	958
232.135	-97
232.200	371
232.265	1352
232.331	-514
232.396	150
232.461	-267
232.527	-743
232.592	-759
232.657	18
232.723	-608
232.788	-878
232.853	210
232.918	33
232.984	-1079
233.049	-347
233.114	-581
233.179	420
233.245	520
233.310	1313
233.375	-712
233.440	331
233.506	-751
233.571	639
233.636	311
233.701	-513
233.766	-217
233.832	846
233.897	-427
233.962	-1054
234.027	349
234.092	436
234.157	-135
234.222	-598
234.288	106
234.353	2118
234.418	2045
234.483	2022
234.548	244
234.613	490
234.678	529
234.743	111
234.808	3574
234.873	560
234.938	1000
235.004	876
235.069	-180
235.134	-1047
235.199	456
235.264	-126
235.329	-1400
235.394	386
235.459	1547
235.524	-764
235.589	805
235.654	344
235.719	-1508
235.784	1272
235.849	255
235.913	1657
235.978	1440
236.043	954
236.108	309
236.173	-396
236.238	852
236.303	-998
236.368	-1161
236.433	169
236.498	274
236.563	1272
236.627	2120
236.692	9235
236.757	8231
236.822	3285
236.887	1531
236.952	1957
237.017	69
237.081	2384
237.146	1202
237.211	4800
237.276	8593
237.341	15176
237.405	6776
237.470	3198
237.535	2070
237.600	1567
237.664	1190
237.729	-14
237.794	135
237.859	2828
237.923	990
237.988	-156
238.053	1431
238.118	538
238.182	2919
238.247	4116
238.312	104
238.376	1217
238.441	-946
238.506	1430
238.570	-1137
238.635	452
238.700	-319
238.764	-51
238.829	1364
238.893	634
238.958	1124
239.023	588
239.087	-574
239.152	359
239.216	-226
239.281	229
239.346	192
239.410	-48
239.475	123
239.539	3537
239.604	2009
239.668	1514
239.733	-418
239.797	547
239.862	2780
239.926	2809
239.991	1986
240.055	-121
240.120	-255
240.184	237
240.249	-554
240.313	638
240.378	-289
240.442	2059
240.507	3934
240.571	550
240.635	716
240.700	2260
240.764	427
240.829	795
240.893	-1734
240.957	60
241.022	1553
241.086	3240
241.151	251
241.215	-489
241.279	1350
241.344	1812
241.408	673
241.472	-228
241.537	622
241.601	804
241.665	-905
241.730	-674
241.794	390
241.858	166
241.922	562
241.987	792
242.051	-81
242.115	-1005
242.179	43
242.244	350
242.308	-70
242.372	462
242.436	384
242.501	263
242.565	-1049
242.629	-51
242.693	956
242.757	-1472
242.822	360
242.886	1301
242.950	950
243.014	-766
243.078	617
243.142	651
243.206	204
243.271	692
243.335	-6
243.399	565
243.463	3383
243.527	11594
243.591	3431
243.655	1526
243.719	229
243.783	718
243.847	1178
243.911	2592
243.975	1705
244.040	1386
244.104	2031
244.168	518
244.232	707
244.296	2144
244.360	1250
244.424	-109
244.488	836
244.552	682
244.615	-1410
244.679	612
244.743	-223
244.807	-388
244.871	959
244.935	687
244.999	-820
245.063	64
245.127	1325
245.191	1004
245.255	952
245.319	892
245.383	-1121
245.446	1771
245.510	-501
245.574	748
245.638	711
245.702	-960
245.766	1774
245.829	1775
245.893	-1180
245.957	-301
246.021	1841
246.085	-85
246.149	693
246.212	2885
246.276	4465
246.340	1931
246.404	1278
246.467	1908
246.531	958
246.595	1977
246.659	1300
246.722	-44
246.786	1651
246.850	1818
246.913	2225
246.977	-158
247.041	560
247.104	750
247.168	1162
247.232	2683
247.295	6386
247.359	3248
247.423	196
247.486	2500
247.550	2034
247.614	1039
247.677	1352
247.741	1049
247.804	297
247.868	958
247.932	1661
247.995	6566
248.059	2060
248.122	-367
248.186	2652
248.249	2515
248.313	9655
248.376	12174
248.440	7014
248.503	1948
248.567	2386
248.630	2690
248.694	4874
248.757	6463
248.821	11547
248.884	7541
248.948	5834
249.011	9614
249.075	13612
249.138	12596
249.202	4992
249.265	1923
249.328	3188
249.392	1974
249.455	2272
249.519	1481
249.582	2042
249.645	3144
249.709	2148
249.772	915
249.835	1415
249.899	762
249.962	1226
250.025	1389
250.089	3266
250.152	7292
250.215	3249
250.279	1418
250.342	2027
250.405	2120
250.468	841
250.532	2169
250.595	3138
250.658	9884
250.721	19260
250.785	6025
250.848	5135
250.911	1702
250.974	2124
251.038	2577
251.101	6847
251.164	3334
251.227	3427
251.290	2715
251.354	3947
251.417	14061
251.480	16006
251.543	10017
251.606	27732
251.669	22555
251.732	9581
251.795	9648
251.859	9735
251.922	17563
251.985	11432
252.048	5660
252.111	3999
252.174	3232
252.237	5985
252.300	14349
252.363	12849
252.426	25811
252.489	11239
252.552	6323
252.615	2820
252.678	4225
252.741	10443
252.804	11313
252.867	24891
252.930	17075
252.993	8659
253.056	6748
253.119	4164
253.182	2885
253.245	3492
253.308	4519
253.371	3234
253.434	3674
253.497	3728
253.559	6787
253.622	4681
253.685	6045
253.748	6849
253.811	2833
253.874	3792
253.937	2773
254.000	2759
254.062	4519
254.125	7394
254.188	7622
254.251	5238
254.314	3223
254.376	3834
254.439	6218
254.502	4511
254.565	3901
254.628	8774
254.690	6118
254.753	2555
254.816	2333
254.878	2711
254.941	4634
255.004	4561
255.067	1722
255.129	1864
255.192	1193
255.255	-167
255.317	1669
255.380	944
255.443	0
255.505	951
255.568	-462
255.631	339
255.693	1564
255.756	-644
255.819	677
255.881	194
255.944	1050
256.006	-6
256.069	-10
256.132	110
256.194	390
256.257	2729
256.319	1880
256.382	1240
256.444	1318
256.507	416
256.569	401
256.632	305
256.694	940
256.757	4807
256.819	15822
256.882	5310
256.944	1869
257.007	2859
257.069	1518
257.132	986
257.194	1773
257.257	536
257.319	367
257.381	623
257.444	3531
257.506	17682
257.569	21217
257.631	9631
257.693	5541
257.756	2020
257.818	1260
257.880	640
257.943	1168
258.005	-403
258.067	229
258.130	206
258.192	308
258.254	2920
258.317	1565
258.379	607
258.441	2667
258.503	3979
258.566	3353
258.628	6310
258.690	336
258.753	1362
258.815	3136
258.877	1257
258.939	899
259.001	1312
259.064	260
259.126	-99
259.188	1412
259.250	939
259.312	947
259.375	3767
259.437	2528
259.499	1414
259.561	734
259.623	445
259.685	240
259.747	527
259.809	3076
259.872	6606
259.934	10031
259.996	12205
260.058	3598
260.120	911
260.182	797
260.244	223
260.306	-626
260.368	660
260.430	-422
260.492	2524
260.554	5453
260.616	2797
260.678	5895
260.740	7383
260.802	574
260.864	1997
260.926	746
260.988	2177
261.050	1237
261.112	3483
261.174	10180
261.236	6090
261.298	1197
261.359	3407
261.421	5181
261.483	636
261.545	1525
261.607	-1081
261.669	1030
261.731	1833
261.793	5312
261.854	1654
261.916	1240
261.978	719
262.040	1016
262.102	88
262.164	1200
262.225	1150
262.287	1120
262.349	2585
262.411	1821
262.472	409
262.534	602
262.596	3809
262.658	985
262.719	-321
262.781	1284
262.843	2997
262.904	847
262.966	1052
263.028	1255
263.090	7236
263.151	20352
263.213	8154
263.275	4444
263.336	1091
263.398	1199
263.459	-370
263.521	1026
263.583	2948
263.644	2437
263.706	-111
263.767	-276
263.829	271
263.891	-244
263.952	-1114
264.014	211
264.075	923
264.137	4998
264.198	2116
264.260	261
264.321	-272
264.383	1819
264.444	8965
264.506	2377
264.567	1001
264.629	2011
264.690	6083
264.752	2532
264.813	738
264.875	202
264.936	197
264.998	-508
265.059	183
265.120	3
265.182	842
265.243	8036
265.305	9200
265.366	2175
265.427	557
265.489	775
265.550	-1495
265.611	175
265.673	238
265.734	356
265.795	-160
265.857	-454
265.918	-352
265.979	1747
266.040	12392
266.102	11840
266.163	3153
266.224	2398
266.286	971
266.347	217
266.408	31
266.469	589
266.530	-294
266.592	-200
266.653	993
266.714	3230
266.775	633
266.836	-26
266.898	-548
266.959	1043
267.020	557
267.081	634
267.142	-25
267.203	-403
267.264	-840
267.326	674
267.387	-650
267.448	-1117
267.509	-426
267.570	265
267.631	-183
267.692	-589
267.753	-333
267.814	-363
267.875	501
267.936	4176
267.997	1886
268.058	1267
268.119	-13
268.180	642
268.241	128
268.302	-175
268.363	-289
268.424	39
268.485	568
268.546	-1155
268.607	-158
268.668	-388
268.729	-853
268.790	-220
268.851	-658
268.912	1746
268.972	4164
269.033	636
269.094	-746
269.155	299
269.216	-28
269.277	-632
269.338	-195
269.398	-421
269.459	-631
269.520	1063
269.581	1467
269.642	2845
269.702	1237
269.763	676
269.824	-483
269.885	241
269.945	1525
270.006	55
270.067	-310
270.128	-471
270.188	-196
270.249	-66
270.310	-1000
270.370	215
270.431	-962
270.492	-924
270.553	-740
270.613	1527
270.674	5000
270.734	1684
270.795	155
270.856	1305
270.916	226
270.977	-149
271.038	568
271.098	1064
271.159	1994
271.219	1763
271.280	-569
271.340	3
271.401	-437
271.462	1761
271.522	323
271.583	-329
271.643	283
271.704	558
271.764	616
271.825	2361
271.885	11987
271.946	15052
272.006	4606
272.066	5643
272.127	11648
272.187	3714
272.248	1760
272.308	1377
272.369	6935
272.429	4547
272.489	2459
272.550	4240
272.610	3039
272.671	1552
272.731	1142
272.791	3127
272.852	2078
272.912	1711
272.972	1000
273.033	288
273.093	629
273.153	2587
273.214	1379
273.274	1489
273.334	5125
273.394	11703
273.455	4746
273.515	4373
273.575	10977
273.635	4494
273.696	4839
273.756	9946
273.816	4048
273.876	1866
273.936	4178
273.997	7966
274.057	1718
274.117	1551
274.177	3146
274.237	13686
274.297	12131
274.358	7171
274.418	8602
274.478	7384
274.538	1809
274.598	939
274.658	5936
274.718	8343
274.778	3307
274.838	1567
274.898	2574
274.958	10785
275.018	10182
275.078	7392
275.138	3076
275.198	1120
275.258	36
275.318	541
275.378	2750
275.438	3742
275.498	2246
275.558	3493
275.618	11178
275.678	8684
275.738	4594
275.798	3658
275.858	1398
275.918	524
275.978	1498
276.038	901
276.098	-72
276.157	1900
276.217	8865
276.277	4123
276.337	2363
276.397	1585
276.457	1757
276.517	895
276.576	706
276.636	200
276.696	938
276.756	4293
276.815	3711
276.875	1504
276.935	1248
276.995	1119
277.055	291
277.114	933
277.174	714
277.234	6567
277.293	2544
277.353	1662
277.413	1322
277.472	487
277.532	598
277.592	1124
277.651	5427
277.711	11351
277.771	3488
277.830	13667
277.890	12523
277.950	5912
278.009	20421
278.069	9048
278.128	7739
278.188	12967
278.248	5185
278.307	11631
278.367	8247
278.426	1518
278.486	1449
278.545	335
278.605	1105
278.664	35
278.724	355
278.783	3492
278.843	11112
278.902	2797
278.962	1474
279.021	1562
279.081	2116
279.140	1137
279.199	1646
279.259	1385
279.318	1732
279.378	2984
279.437	5763
279.496	17231
279.556	48003
279.615	44363
279.675	12118
279.734	6204
279.793	9596
279.853	14011
279.912	5689
279.971	3237
280.031	2616
280.090	4964
280.149	10555
280.208	7995
280.268	32586
280.327	39427
280.386	9275
280.445	7062
280.505	7302
280.564	3730
280.623	2317
280.682	3953
280.742	7090
280.801	1558
280.860	837
280.919	701
280.978	1261
281.037	660
281.097	-255
281.156	758
281.215	195
281.274	1198
281.333	6077
281.392	5734
281.451	1354
281.510	664
281.569	672
281.628	607
281.688	598
281.747	275
281.806	321
281.865	1304
281.924	133
281.983	206
282.042	-550
282.101	168
282.160	908
282.219	-14
282.278	437
282.337	3728
282.396	2798
282.454	-80
282.513	1349
282.572	6966
282.631	3845
282.690	194
282.749	186
282.808	1024
282.867	524
282.926	616
282.985	264
283.043	58
283.102	370
283.161	581
283.220	2852
283.279	8100
283.338	2380
283.396	980
283.455	870
283.514	1675
283.573	2965
283.631	1119
283.690	234
283.749	1056
283.808	2399
283.866	3627
283.925	83
283.984	1076
284.043	920
284.101	2240
284.160	528
284.219	1213
284.277	1452
284.336	1671
284.395	8960
284.453	8396
284.512	2368
284.570	4127
284.629	3345
284.688	2997
284.746	3018
284.805	3392
284.863	5299
284.922	7516
284.981	8605
285.039	12458
285.098	21206
285.156	44368
285.215	64241
285.273	63242
285.332	49761
285.390	29334
285.449	17502
285.507	11478
285.566	8212
285.624	6328
285.683	4941
285.741	3271
285.799	2547
285.858	2212
285.916	1229
285.975	1250
286.033	481
286.091	1052
286.150	504
286.208	1611
286.267	1429
286.325	1596
286.383	2414
286.442	2568
286.500	323
286.558	-147
286.616	-75
286.675	1334
286.733	1360
286.791	978
286.850	782
286.908	2091
286.966	3789
287.024	820
287.083	329
287.141	-216
287.199	574
287.257	1240
287.315	807
287.374	1056
287.432	2694
287.490	2335
287.548	329
287.606	565
287.664	305
287.723	1132
287.781	1841
287.839	958
287.897	537
287.955	402
288.013	2167
288.071	6164
288.129	20796
288.187	66396
288.245	31669
288.303	8535
288.361	4458
288.419	2962
288.477	2064
288.535	1838
288.593	501
288.651	1119
288.709	-20
288.767	321
288.825	243
288.883	-228
288.941	-150
288.999	-110
289.057	-666
289.115	36
289.173	265
289.231	-244
289.289	329
289.346	-274
289.404	1092
289.462	2084
289.520	2259
289.578	1192
289.636	18
289.694	-442
289.751	141
289.809	-63
289.867	423
289.925	790
289.983	1232
290.040	599
290.098	-126
290.156	89
290.214	283
290.271	-454
290.329	-72
290.387	-97
290.444	-59
290.502	-667
290.560	-231
290.617	-346
290.675	-596
290.733	-66
290.790	7
290.848	-285
290.906	-772
290.963	370
291.021	741
291.078	960
291.136	129
291.194	3166
291.251	9281
291.309	1937
291.366	-34
291.424	-262
291.481	660
291.539	-35
291.596	-207
291.654	-303
291.711	-745
291.769	-342
291.826	2244
291.884	1172
291.941	-491
291.999	252
292.056	51
292.114	52
292.171	12
292.228	102
292.286	938
292.343	1321
292.401	2115
292.458	1554
292.515	-201
292.573	613
292.630	392
292.687	910
292.745	399
292.802	356
292.859	4235
292.917	9326
292.974	5660
293.031	1830
293.089	33
293.146	34
293.203	-257
293.260	-813
293.318	253
293.375	2250
293.432	-76
293.489	132
293.546	778
293.604	536
293.661	3907
293.718	13675
293.775	8036
293.832	2911
293.889	2096
293.947	1870
294.004	988
294.061	963
294.118	3087
294.175	9336
294.232	13390
294.289	5334
294.346	1815
294.403	1015
294.460	1043
294.517	1043
294.574	1159
294.631	336
294.688	823
294.745	3490
294.802	14636
294.859	20637
294.916	8241
294.973	3684
295.030	2790
295.087	2783
295.144	709
295.201	957
295.258	93
295.315	890
295.372	4603
295.429	11317
295.486	5233
295.542	3048
295.599	6401
295.656	15718
295.713	9697
295.770	11245
295.827	4348
295.883	1604
295.940	2398
295.997	3834
296.054	2820
296.111	1037
296.167	995
296.224	833
296.281	389
296.338	-83
296.394	85
296.451	1328
296.508	3686
296.564	9506
296.621	7262
296.678	11279
296.734	18589
296.791	7218
296.848	3014
296.904	3000
296.961	8935
297.018	13839
297.074	9918
297.131	3816
297.187	2593
297.244	3445
297.301	9714
297.357	21302
297.414	8635
297.470	2908
297.527	1264
297.583	1563
297.640	962
297.696	1086
297.753	835
297.809	326
297.866	-498
297.922	422
297.979	773
298.035	607
298.092	1355
298.148	6420
298.204	7453
298.261	3448
298.317	5378
298.374	15194
298.430	9734
298.486	3544
298.543	2092
298.599	2138
298.656	2160
298.712	4293
298.768	10232
298.824	7659
298.881	2464
298.937	1287
298.993	826
299.050	2445
299.106	1718
299.162	422
299.218	1653
299.275	672
299.331	1109
299.387	3058
299.443	12028
299.500	16136
299.556	6044
299.612	2332
299.668	2250
299.724	2737
299.780	3418
299.837	2157
299.893	2428
299.949	11264
300.005	15624
300.061	12104
300.117	19577
300.173	10802
300.229	4713
300.285	4850
300.341	7075
300.397	3129
300.453	1308
300.510	837
300.566	911
300.622	2072
300.678	5102
300.734	13786
300.790	11922
300.845	13589
300.901	9376
300.957	12710
301.013	11476
301.069	3692
301.125	2497
301.181	2795
301.237	2421
301.293	1635
301.349	1191
301.405	981
301.461	1039
301.516	1772
301.572	989
301.628	3781
301.684	3788
301.740	4375
301.796	8480
301.851	6337
301.907	9769
301.963	10736
302.019	13140
302.074	36052
302.130	39882
302.186	19729
302.242	6877
302.297	4621
302.353	4971
302.409	8458
302.464	8601
302.520	6405
302.576	12314
302.631	18703
302.687	10456
302.743	4192
302.798	2096
302.854	1839
302.910	1900
302.965	2203
303.021	5889
303.076	4814
303.132	5872
303.187	8339
303.243	4319
303.299	1992
303.354	1040
303.410	1074
303.465	785
303.521	948
303.576	572
303.632	2144
303.687	3730
303.743	11223
303.798	10820
303.853	4719
303.909	2263
303.964	1915
304.020	3297
304.075	5624
304.130	5036
304.186	9694
304.241	10726
304.297	8055
304.352	3975
304.358	3724
304.407	1683
304.449	2284
304.463	2488
304.518	2001
304.539	2058
304.573	2141
304.629	1316
304.630	1359
304.684	3437
304.720	6401
304.739	7830
304.794	15026
304.811	13148
304.850	8524
304.902	3710
304.905	3410
304.960	1153
304.992	1333
305.015	1477
305.071	2679
305.083	2518
305.126	1839
305.173	1426
305.181	1367
305.236	667
305.264	962
305.292	1337
305.347	1629
305.354	1852
305.402	3199
305.445	2816
305.457	2695
305.512	2604
305.535	3041
305.567	3644
305.622	3714
305.626	3765
305.678	5994
305.716	12146
305.733	14148
305.788	18662
305.807	16346
305.843	12509
305.897	12854
305.898	12838
305.953	14631
305.988	10286
306.008	8021
306.063	4343
306.078	4146
306.118	3851
306.168	3248
306.173	3196
306.228	1849
306.259	1940
306.283	2105
306.338	1489
306.349	1571
306.393	1934
306.440	1604
306.448	1548
306.503	2406
306.530	2830
306.558	4462
306.613	9831
306.620	10722
306.668	15435
306.711	17993
306.723	17807
306.778	15143
306.801	11500
306.833	7537
306.888	3653
306.892	3481
306.943	2608
306.982	2740
306.997	2789
307.052	2632
307.072	2566
307.107	2847
307.162	3745
307.163	3762
307.217	6524
307.253	7949
307.272	8151
307.327	9728
307.343	8993
307.381	6955
307.434	6109
307.436	6333
307.491	12105
307.524	17741
307.546	18523
307.600	18003
307.614	16113
307.655	10450
307.704	5312
307.710	5187
307.765	6158
307.795	7634
307.819	9136
307.874	15242
307.885	15478
307.929	12445
307.975	8377
307.984	8355
308.038	10450
308.065	12328
308.093	21088
308.148	42412
308.156	46850
308.202	69243
308.246	88317
308.257	86424
308.312	51073
308.336	36345
308.366	27980
308.421	19312
308.426	18380
308.475	11833
308.517	7872
308.530	7286
308.585	5321
308.607	5148
308.639	5651
308.694	6916
308.697	6994
308.748	13602
308.787	20442
308.803	20062
308.857	16028
308.877	13133
308.912	10756
308.967	9697
308.967	9681
309.021	13571
309.058	16863
309.076	21072
309.130	35725
309.148	41269
309.185	67825
309.238	110441
309.239	110811
309.293	122095
309.328	116604
309.348	102159
309.402	52760
309.418	40019
309.457	28864
309.508	17942
309.511	17787
309.566	17825
309.598	18411
309.620	22617
309.674	35239
309.688	38681
309.729	35830
309.778	28243
309.783	27580
309.837	18985
309.868	14655
309.892	17489
309.946	25459
309.959	27882
310.001	34587
310.049	41221
310.055	39857
310.109	24131
310.139	14677
310.163	11936
310.218	7834
310.229	7188
310.272	6200
310.319	5101
310.326	5004
310.381	4373
310.409	4242
310.435	4187
310.489	3865
310.499	3835
310.543	4383
310.589	4916
310.598	4934
310.652	4997
310.679	4873
310.706	4350
310.760	3391
310.769	3253
310.814	3508
310.859	3707
310.868	3649
310.923	3238
310.948	2991
310.977	3459
311.031	4606
311.038	4737
311.085	4128
311.128	3420
311.139	3526
311.193	4107
311.218	4336
311.247	4100
311.301	3651
311.308	3577
311.356	4000
311.398	4445
311.410	4345
311.464	3750
311.488	3503
311.518	3447
311.572	3224
311.578	3195
311.626	5062
311.668	6728
311.680	6719
311.734	6498
311.758	6399
311.788	6151
311.842	5599
311.847	5533
311.896	7907
311.937	9927
311.950	9783
312.004	9034
312.027	8643
312.058	7314
312.112	4940
312.117	4691
312.165	4612
312.207	4524
312.297	6986
312.386	5519
312.476	5378
312.566	10988
312.656	4909
312.745	3840
312.835	4096
312.925	5696
313.015	4687
313.104	5070
313.194	3704
313.284	4851
313.374	6226
313.463	5031
313.553	4185
313.643	3629
313.732	3499
313.822	3597
313.912	4424
314.001	5763
314.091	6449
314.180	8226
314.270	6639
314.360	7278
314.449	6921
314.539	3531
314.628	3945
314.718	5383
314.808	5761
314.897	4384
314.987	3884
315.076	5703
315.166	7365
315.255	7691
315.345	6309
315.434	6428
315.524	5633
315.613	6894
315.703	8073
315.792	8893
315.881	19652
315.971	8967
316.060	11109
316.150	16655
316.239	16601
316.328	7094
316.418	4238
316.507	4489
316.597	5792
316.686	5331
316.775	8757
316.865	18464
316.954	4718
317.043	3549
317.133	4206
317.222	4188
317.311	4017
317.400	2522
317.490	5379
317.579	6048
317.668	5038
317.757	6685
317.847	11839
317.936	33443
318.025	18071
318.114	10696
318.203	7607
318.293	10982
318.382	21986
318.471	17047
318.560	21627
318.649	39932
318.738	8865
318.828	6547
318.917	7462
319.006	9327
319.095	19733
319.184	48209
319.273	28925
319.362	15595
319.451	6292
319.540	5418
319.629	12153
319.718	19971
319.807	10564
319.896	16330
319.985	59265
320.074	20854
320.163	7273
320.252	11774
320.341	10005
320.430	8685
320.519	11388
320.608	7151
320.697	6677
320.786	6011
320.875	7073
320.964	9293
321.053	14677
321.142	20302
321.230	20625
321.319	16221
321.408	37018
321.497	15904
321.586	14435
321.675	17528
321.764	16961
321.852	11272
321.941	21827
322.030	14001
322.119	15742
322.207	37504
322.296	27020
322.385	13683
322.474	16361
322.562	42705
322.651	22311
322.740	16248
322.829	22049
322.917	24481
323.006	14647
323.095	12436
323.183	9877
323.272	13509
323.361	22023
323.449	58772
323.538	20045
323.626	43705
323.715	26666
323.804	11868
323.892	40768
323.981	22023
324.069	8317
324.158	22282
324.246	21056
324.335	8632
324.424	15204
324.512	6636
324.601	8849
324.689	19186
324.778	34333
324.866	18097
324.954	6146
325.043	5546
325.131	10333
325.220	19185
325.308	21178
325.397	15944
325.485	9947
325.574	4459
325.662	3577
325.750	4728
325.839	4622
325.927	3726
326.015	5114
326.104	7923
326.192	11810
326.280	4434
326.369	4231
326.457	6711
326.545	11576
326.634	5327
326.722	3268
326.810	3733
326.898	4003
326.987	4708
327.075	9877
327.163	11314
327.251	6759
327.340	16484
327.428	21353
327.516	4560
327.604	4666
327.692	4372
327.781	4794
327.869	8704
327.957	5525
328.045	4848
328.133	3199
328.221	5083
328.309	3899
328.397	3510
328.485	4943
328.574	6741
328.662	22108
328.750	12394
328.838	5413
328.926	3995
329.014	4119
329.102	5678
329.190	15820
329.278	9844
329.366	3158
329.454	3404
329.542	3607
329.630	2652
329.718	3571
329.806	3733
329.893	4816
329.981	4805
330.069	6458
330.157	19657
330.245	52506
330.333	29354
330.421	6749
330.509	8305
330.597	27321
330.684	18054
330.772	7413
330.860	10770
330.948	14878
331.036	5910
331.123	2926
331.211	3858
331.299	4907
331.387	11895
331.475	20048
331.562	5793
331.650	3618
331.738	4761
331.825	5617
331.913	2955
332.001	3612
332.089	4494
332.176	10152
332.264	23197
332.352	17853
332.439	6304
332.527	4980
332.614	3296
332.702	5669
332.790	4652
332.877	10565
332.965	21596
333.052	6729
333.140	6875
333.228	16712
333.315	4898
333.403	5101
333.490	14039
333.578	11876
333.665	18450
333.753	9155
333.840	3502
333.928	5308
334.015	14974
334.103	19504
334.190	58752
334.278	15598
334.365	7565
334.452	6810
334.540	4292
334.627	4936
334.715	8651
334.802	15394
334.889	69082
334.977	65382
335.064	12029
335.151	5267
335.239	5978
335.326	8611
335.413	29666
335.501	37759
335.588	6894
335.675	5507
335.762	6953
335.850	12499
335.937	8704
336.024	20507
336.111	78477
336.199	35039
336.286	8004
336.373	4887
336.460	3149
336.547	3106
336.635	5700
336.722	5287
336.809	3475
336.896	7362
336.983	21062
337.070	48032
337.157	59933
337.245	46009
337.332	31250
337.419	5130
337.506	3380
337.593	5948
337.680	17939
337.767	49452
337.854	14528
337.941	16489
338.028	18739
338.115	6138
338.202	8640
338.289	14497
338.376	47707
338.463	16197
338.550	29096
338.637	28849
338.724	11088
338.811	16637
338.898	3960
338.984	3596
339.071	4978
339.158	5410
339.245	14425
339.332	9600
339.419	11958
339.506	10737
339.593	1740
339.679	3115
339.766	2621
339.853	5357
339.940	9608
340.027	4181
340.113	4470
340.200	5803
340.287	4148
340.374	5394
340.460	8866
340.547	4309
340.634	7964
340.720	25834
340.807	13442
340.894	3525
340.980	3050
341.067	2877
341.154	4002
341.240	5995
341.327	12725
341.414	5489
341.500	5631
341.587	4912
341.674	3825
341.760	8846
341.847	11208
341.933	3653
342.020	1504
342.106	1764
342.193	3600
342.279	7117
342.366	5114
342.452	8664
342.539	5309
342.625	11493
342.712	27080
342.798	11440
342.885	4599
342.971	1644
343.058	1496
343.144	2528
343.230	3301
343.317	3186
343.403	2085
343.490	2052
343.576	2997
343.662	2256
343.749	3109
343.835	4629
343.921	8249
344.008	36619
344.094	78484
344.180	19102
344.267	9485
344.353	24905
344.439	28177
344.525	13820
344.612	5645
344.698	4644
344.784	3485
344.870	3119
344.957	2527
345.043	5042
345.129	3208
345.215	9229
345.301	5132
345.387	3964
345.474	2410
345.560	2166
345.646	3020
345.732	3519
345.818	4150
345.904	3799
345.990	3304
346.076	4872
346.162	8119
346.249	3872
346.335	2608
346.421	3710
346.507	10055
346.593	33260
346.679	7864
346.765	3743
346.851	3572
346.937	2916
347.023	3036
347.108	3669
347.194	2939
347.280	3099
347.366	4592
347.452	11239
347.538	39855
347.624	32050
347.710	27283
347.796	5478
347.882	3414
347.967	3041
348.053	5105
348.139	3087
348.225	1881
348.311	2336
348.397	2072
348.482	4285
348.568	4481
348.654	1869
348.740	4055
348.825	3533
348.911	6074
348.997	19638
349.083	35904
349.168	6950
349.254	4326
349.340	4181
349.425	2949
349.511	4601
349.597	5339
349.682	9830
349.768	27037
349.854	12421
349.939	4058
350.025	2356
350.110	2679
350.196	2662
350.282	1804
350.367	2407
350.453	5460
350.538	5670
350.624	4615
350.709	4633
350.795	2580
350.880	3264
350.966	3592
351.051	5225
351.137	4203
351.222	3234
351.308	10208
351.393	26236
351.479	7095
351.564	3150
351.649	3117
351.735	2743
351.820	2309
351.906	3052
351.991	4591
352.076	16975
352.162	24133
352.247	6157
352.332	4635
352.418	7751
352.503	10319
352.588	39646
352.673	30691
352.759	7960
352.844	4194
352.929	4508
353.014	6116
353.100	3573
353.185	6948
353.270	10480
353.355	10350
353.441	3665
353.526	3730
353.611	9647
353.696	10382
353.781	6310
353.866	2717
353.952	4531
354.037	9946
354.122	21867
354.207	19101
354.292	7145
354.377	2485
354.462	3262
354.547	3459
354.632	4582
354.717	6755
354.802	8470
354.887	3679
354.972	2826
355.057	1831
355.142	2683
355.227	4140
355.312	6246
355.397	13973
355.482	32146
355.567	14756
355.652	11961
355.737	11773
355.822	31386
355.907	24515
355.991	5181
356.076	2617
356.161	3298
356.246	2677
356.331	3652
356.416	7053
356.501	43792
356.585	43606
356.670	7784
356.755	7316
356.840	8600
356.924	33690
357.009	108287
357.094	42985
357.179	11402
357.263	8157
357.348	8085
357.433	7951
357.517	7913
357.602	5444
357.687	4919
357.771	5937
357.856	10897
357.941	8682
358.025	25418
358.110	98539
358.195	46458
358.279	9378
358.364	8374
358.448	24475
358.533	62380
358.617	45265
358.702	43677
358.787	16927
358.871	10706
358.956	8576
359.040	2955
359.125	1663
359.209	2565
359.294	5288
359.378	8361
359.462	8330
359.547	5947
359.631	2967
359.716	2090
359.800	3776
359.885	6622
359.969	2765
360.053	3585
360.138	4169
360.222	5164
360.306	8960
360.391	7069
360.475	9572
360.559	20561
360.644	23930
360.728	16600
360.812	25054
360.896	64801
360.981	32112
361.065	19828
361.149	6438
361.233	5303
361.318	3996
361.402	5096
361.486	4803
361.570	3755
361.654	4640
361.739	11934
361.823	44272
361.907	62952
361.991	12414
362.075	9416
362.159	19602
362.243	14233
362.327	13325
362.411	18240
362.495	8666
362.580	4535
362.664	3840
362.748	2984
362.832	4613
362.916	6959
363.000	26230
363.084	69380
363.168	76961
363.252	20651
363.336	9065
363.420	12452
363.503	42863
363.587	46076
363.671	8696
363.755	7221
363.839	10645
363.923	4537
364.007	10323
364.091	12024
364.175	15918
364.258	66507
364.342	46960
364.426	59193
364.510	31731
364.594	15989
364.677	16279
364.761	56282
364.845	38561
364.929	17512
365.013	13815
365.096	12604
365.180	13294
365.264	17088
365.347	62939
365.431	28648
365.515	9023
365.598	4829
365.682	5022
365.766	8656
365.849	10613
365.933	6358
366.017	8208
366.100	5709
366.184	2373
366.267	3730
366.351	3661
366.435	2412
366.518	2911
366.602	2970
366.685	3211
366.769	4334
366.852	8410
366.936	14162
367.019	6321
367.103	7022
367.186	12904
367.270	4363
367.353	1634
367.436	3775
367.520	2513
367.603	4506
367.687	6165
367.770	11347
367.853	7495
367.937	19551
368.020	29268
368.104	7107
368.187	9457
368.270	13850
368.353	11634
368.437	14942
368.520	33652
368.603	20430
368.687	23721
368.770	42346
368.853	11096
368.936	13073
369.020	13221
369.103	4927
369.186	3157
369.269	3916
369.352	8571
369.436	12347
369.519	7623
369.602	2755
369.685	4604
369.768	4563
369.851	3586
369.934	2931
370.018	4613
370.101	9657
370.184	8656
370.267	6512
370.350	11081
370.433	15233
370.516	32002
370.599	38471
370.682	13425
370.765	29287
370.848	29990
370.931	50368
371.014	22049
371.097	4870
371.180	4677
371.263	3175
371.346	1288
371.429	3535
371.511	2956
371.594	7539
371.677	12876
371.760	15514
371.843	10799
371.926	39400
372.009	84586
372.091	31702
372.174	21411
372.257	43710
372.340	17943
372.423	19773
372.505	23275
372.588	9728
372.671	18916
372.754	50072
372.836	25169
372.919	24015
373.002	44460
373.085	13309
373.167	10823
373.250	23929
373.332	44814
373.415	57170
373.498	110514
373.580	43709
373.663	55787
373.746	71619
373.828	17835
373.911	10386
373.993	10302
374.076	41055
374.159	37478
374.241	15915
374.324	46092
374.406	28560
374.489	33984
374.571	90992
374.654	37786
374.736	20528
374.819	57251
374.901	81193
374.983	79123
375.066	15886
375.148	8038
375.231	30848
375.313	61236
375.395	24272
375.478	6070
375.560	3696
375.643	6133
375.725	19338
375.807	70276
375.890	59869
375.972	30301
376.054	17728
376.136	27456
376.219	12101
376.301	21600
376.383	59973
376.465	24061
376.548	17801
376.630	19696
376.712	54332
376.794	23492
376.877	4758
376.959	2242
377.041	4610
377.123	10897
377.205	12483
377.287	2743
377.369	2637
377.452	2556
377.534	2917
377.616	2895
377.698	2993
377.780	1738
377.862	3239
377.944	3506
378.026	1351
378.108	3077
378.190	2270
378.272	3029
378.354	1528
378.436	2230
378.518	4790
378.600	21394
378.682	16849
378.764	32801
378.846	24637
378.928	8626
379.010	11064
379.091	6234
379.173	3217
379.255	2282
379.337	4849
379.419	15257
379.501	44454
379.583	16930
379.664	5813
379.746	12688
379.828	34048
379.910	43237
379.991	35659
380.073	5861
380.155	4598
380.237	3349
380.318	2346
380.400	3469
380.482	7568
380.564	11830
380.645	11380
380.727	10570
380.809	7040
380.890	4554
380.972	2970
381.053	2799
381.135	5046
381.217	11419
381.298	34643
381.380	16750
381.461	13947
381.543	54457
381.624	63069
381.706	13317
381.787	8046
381.869	8522
381.951	24234
382.032	84879
382.113	55488
382.195	13858
382.276	11040
382.358	18675
382.439	49838
382.521	52693
382.602	78141
382.684	38159
382.765	73603
382.846	86890
382.928	134635
383.009	70710
383.090	48729
383.172	173303
383.253	249125
383.334	86313
383.416	78356
383.497	40341
383.578	22120
383.659	42440
383.741	142592
383.822	334044
383.903	171979
383.984	64135
384.066	99776
384.147	59594
384.228	14713
384.309	12458
384.390	9061
384.471	7300
384.553	7139
384.634	10872
384.715	10691
384.796	5756
384.877	6528
384.958	30179
385.039	35706
385.120	13049
385.201	6674
385.282	9317
385.363	10122
385.444	7211
385.525	13014
385.606	39119
385.687	30594
385.768	9530
385.849	12447
385.930	42710
386.011	69005
386.092	18493
386.173	6196
386.254	5776
386.335	5818
386.416	6566
386.496	21464
386.577	33966
386.658	13159
386.739	8101
386.820	8341
386.901	6306
386.981	5804
387.062	4294
387.143	7284
387.224	30978
387.304	30422
387.385	11164
387.466	7674
387.547	10885
387.627	6275
387.708	12505
387.789	52638
387.869	59171
387.950	16287
388.031	3722
388.111	3644
388.192	13903
388.273	20109
388.353	10311
388.434	5400
388.514	10630
388.595	43786
388.676	58676
388.756	32382
388.837	31692
388.917	18957
388.998	2707
389.078	4811
389.159	4197
389.239	2995
389.320	7202
389.400	4372
389.480	12760
389.561	31964
389.641	14925
389.722	6797
389.802	9863
389.883	14430
389.963	35743
390.043	23304
390.124	9780
390.204	12678
390.284	36474
390.365	23086
390.445	28935
390.525	55649
390.605	43849
390.686	18320
390.766	7808
390.846	4584
390.927	2401
391.007	3197
391.087	4982
391.167	4788
391.247	2920
391.328	7473
391.408	12350
391.488	8640
391.568	1622
391.648	5444
391.728	8059
391.808	7038
391.888	7433
391.969	17446
392.049	27925
392.129	14741
392.209	14318
392.289	34632
392.369	19918
392.449	22000
392.529	12742
392.609	9424
392.689	10960
392.769	33362
392.849	28113
392.929	23626
393.009	52448
393.089	35298
393.169	29453
393.248	86371
393.328	299726
393.408	311719
393.488	90722
393.568	27821
393.648	14110
393.728	9440
393.807	7152
393.887	6951
393.967	5613
394.047	7328
394.127	8552
394.206	13007
394.286	43657
394.366	178847
394.446	184693
394.525	45057
394.605	12266
394.685	12549
394.764	28953
394.844	49138
394.924	31856
395.003	8834
395.083	6005
395.163	5613
395.242	5284
395.322	5422
395.402	2372
395.481	7233
395.561	18694
395.640	54206
395.720	39320
395.799	53955
395.879	39226
395.958	20173
396.038	63860
396.117	231742
396.197	247397
396.276	81759
396.356	30312
396.435	23727
396.515	14569
396.594	15913
396.673	28304
396.753	94260
396.832	277120
396.912	213528
396.991	55765
397.070	16536
397.150	7910
397.229	7952
397.308	11089
397.388	17399
397.467	8928
397.546	4274
397.625	1469
397.705	6304
397.784	5220
397.863	2851
397.942	2781
398.022	2462
398.101	15155
398.180	48089
398.259	24809
398.338	7734
398.417	4438
398.497	3344
398.576	4408
398.655	2015
398.734	2518
398.813	2835
398.892	14297
398.971	49240
399.050	22988
399.129	1998
399.208	1263
399.287	2380
399.366	665
399.445	2037
399.524	1899
399.603	1645
399.682	4506
399.761	15391
399.840	49275
399.919	37785
399.998	4960
400.077	518
400.156	1076
400.235	4798
400.313	1869
400.392	3368
400.471	18083
400.550	29054
400.629	6739
400.708	3557
400.786	3560
400.865	13822
400.944	13876
401.023	7533
401.102	1084
401.180	1933
401.259	1654
401.338	3003
401.416	4004
401.495	2441
401.574	3191
401.652	1474
401.731	4054
401.810	2638
401.888	1420
401.967	1009
402.046	1846
402.124	4477
402.203	4870
402.281	2722
402.360	4382
402.438	16763
402.517	10413
402.596	3398
402.674	2950
402.753	2574
402.831	1731
402.910	2796
402.988	10646
403.066	38876
403.145	22350
403.223	12894
403.302	32355
403.380	24895
403.459	24984
403.537	9414
403.615	3677
403.694	104
403.772	1759
403.850	-140
403.929	792
404.007	1115
404.085	5602
404.164	4266
404.242	972
404.320	2889
404.398	5962
404.477	14058
404.555	66472
404.633	55287
404.711	8303
404.789	3124
404.868	2153
404.946	657
405.024	828
405.102	244
405.180	-7
405.258	-250
405.336	1711
405.415	1137
405.493	4900
405.571	5304
405.649	771
405.727	761
405.805	3577
405.883	2593
405.961	2922
406.039	4292
406.117	1077
406.195	3535
406.273	16382
406.351	60834
406.429	35146
406.507	7569
406.585	1999
406.663	2131
406.740	3545
406.818	2526
406.896	339
406.974	2191
407.052	3618
407.130	35801
407.208	48439
407.285	9316
407.363	1339
407.441	2180
407.519	938
407.596	2207
407.674	6592
407.752	18198
407.830	21417
407.907	9658
407.985	2421
408.063	1924
408.141	518
408.218	5202
408.296	3768
408.373	2478
408.451	1999
408.529	1756
408.606	919
408.684	465
408.762	55
408.839	33
408.917	1199
408.994	743
409.072	-177
409.149	1238
409.227	3197
409.304	3773
409.382	2931
409.459	3051
409.537	4877
409.614	5153
409.692	2276
409.769	2530
409.846	5381
409.924	7562
410.001	3661
410.079	3147
410.156	2792
410.233	2005
410.311	1236
410.388	1431
410.465	2190
410.543	2175
410.620	1459
410.697	1695
410.775	2045
410.852	-84
410.929	2811
411.006	4551
411.083	1380
411.161	6887
411.238	7099
411.315	3723
411.392	1156
411.469	4132
411.547	3759
411.624	1029
411.701	444
411.778	2005
411.855	5197
411.932	2459
412.009	720
412.086	1104
412.163	1294
412.240	2172
412.317	3821
412.394	2752
412.471	1575
412.548	1158
412.625	1527
412.702	1747
412.779	5637
412.856	2873
412.933	1099
413.010	576
413.087	3516
413.164	16798
413.241	24739
413.318	5080
413.395	3701
413.471	5817
413.548	1733
413.625	1952
413.702	1666
413.779	2134
413.855	700
413.932	269
414.009	-308
414.086	697
414.162	824
414.239	2888
414.316	17254
414.393	36475
414.469	10818
414.546	1557
414.623	227
414.699	792
414.776	1970
414.853	832
414.929	1944
415.006	1101
415.082	2264
415.159	1617
415.236	1862
415.312	1708
415.389	3922
415.465	4748
415.542	2135
415.618	802
415.695	4105
415.771	1438
415.848	1948
415.924	1653
416.000	1160
416.077	1078
416.153	-499
416.230	-156
416.306	-241
416.383	-63
416.459	26
416.535	-206
416.612	-323
416.688	878
416.764	317
416.841	354
416.917	1416
416.993	1377
417.069	1802
417.146	3041
417.222	2424
417.298	2387
417.374	214
417.451	1700
417.527	2077
417.603	1785
417.679	1049
417.755	1763
417.831	-51
417.908	513
417.984	304
418.060	-75
418.136	4099
418.212	6186
418.288	1583
418.364	1533
418.440	728
418.516	3734
418.592	5565
418.668	8357
418.744	12059
418.820	8308
418.896	1512
418.972	50
419.048	1638
419.124	6645
419.200	2949
419.276	1492
419.352	-456
419.428	1171
419.504	369
419.579	1829
419.655	1096
419.731	1743
419.807	8077
419.883	13539
419.959	7919
420.034	2327
420.110	5527
420.186	22578
420.262	16903
420.337	2692
420.413	2064
420.489	1434
420.565	1002
420.640	746
420.716	1515
420.792	-20
420.867	1530
420.943	821
421.019	4542
421.094	2363
421.170	1418
421.245	790
421.321	996
421.397	1633
421.472	4379
421.548	9680
421.623	7051
421.699	4027
421.774	3201
421.850	2602
421.925	5883
422.001	5012
422.076	5113
422.152	4904
422.227	8537
422.302	10749
422.378	15050
422.453	27755
422.529	64515
422.604	161379
422.679	225037
422.755	171428
422.830	73228
422.905	30353
422.981	15574
423.056	10200
423.131	7788
423.207	6223
423.282	5877
423.357	10073
423.432	5564
423.508	6608
423.583	13295
423.658	9858
423.733	3374
423.808	3938
423.883	5204
423.959	4509
424.034	3113
424.109	2665
424.184	795
424.259	1220
424.334	725
424.409	1250
424.484	1270
424.559	1339
424.634	1067
424.709	1833
424.784	2588
424.859	1456
424.934	3324
425.009	17016
425.084	27646
425.159	9378
425.234	1591
425.309	63
425.384	2421
425.459	2646
425.534	2503
425.609	1422
425.683	1096
425.758	1012
425.833	777
425.908	2274
425.983	10295
426.058	28768
426.132	12589
426.207	2511
426.282	5056
426.357	4474
426.431	1482
426.506	996
426.581	1898
426.655	1973
426.730	1177
426.805	1163
426.879	1080
426.954	1718
427.029	4292
427.103	24736
427.178	56515
427.253	24030
427.327	3151
427.402	3136
427.476	7864
427.551	3163
427.625	2502
427.700	2716
427.774	652
427.849	1565
427.923	793
427.998	1156
428.072	1900
428.147	5721
428.221	21003
428.296	55134
428.370	26286
428.444	3872
428.519	6368
428.593	13272
428.667	10678
428.742	13573
428.816	12644
428.890	39417
428.965	53882
429.039	18338
429.113	15975
429.188	5489
429.262	1803
429.336	4699
429.410	14690
429.485	9628
429.559	11294
429.633	8299
429.707	2794
429.781	8743
429.855	46210
429.930	65211
430.004	37352
430.078	56930
430.152	45245
430.226	65453
430.300	61659
430.374	10446
430.448	5709
430.522	16956
430.596	49222
430.670	29209
430.744	60057
430.818	82630
430.892	17208
430.966	2749
431.040	2322
431.114	398
431.188	-264
431.262	606
431.336	1135
431.410	5934
431.484	16306
431.557	10848
431.631	1438
431.705	1663
431.779	9973
431.853	46070
431.927	30108
432.000	4068
432.074	877
432.148	1768
432.222	2167
432.295	1451
432.369	846
432.443	3025
432.516	22936
432.590	55475
432.664	20397
432.737	2837
432.811	910
432.885	-351
432.958	744
433.032	265
433.106	-25
433.179	-228
433.253	775
433.326	-178
433.400	-356
433.473	963
433.547	-868
433.620	892
433.694	1840
433.767	2327
433.841	1372
433.914	461
433.988	379
434.061	555
434.134	230
434.208	394
434.281	-121
434.355	642
434.428	234
434.501	-123
434.575	-98
434.648	440
434.721	-129
434.795	-21
434.868	245
434.941	-216
435.014	-355
435.088	-65
435.161	1243
435.234	2915
435.307	4238
435.381	2086
435.454	1475
435.527	2742
435.600	2467
435.673	1612
435.746	760
435.819	338
435.892	351
435.966	357
436.039	387
436.112	809
436.185	-121
436.258	-487
436.331	-75
436.404	-334
436.477	-688
436.550	-222
436.623	-101
436.696	67
436.769	854
436.842	611
436.915	1362
436.987	2344
437.060	669
437.133	757
437.206	-578
437.279	544
437.352	451
437.425	524
437.498	1260
437.570	4650
437.643	4436
437.716	557
437.789	21
437.861	3043
437.934	10269
438.007	4274
438.080	592
438.152	1264
438.225	4066
438.298	27400
438.370	73287
438.443	32385
438.516	9766
438.588	1647
438.661	259
438.734	446
438.806	679
438.879	1884
438.951	2983
439.024	4709
439.096	2187
439.169	416
439.241	-185
439.314	234
439.386	1884
439.459	3538
439.531	5837
439.604	2506
439.676	408
439.749	-178
439.821	731
439.893	1183
439.966	784
440.038	1354
440.110	1639
440.183	1019
440.255	293
440.327	2497
440.400	13567
440.472	53264
440.544	35052
440.617	4537
440.689	4694
440.761	5470
440.833	8919
440.905	5884
440.978	647
441.050	220
441.122	1178
441.194	71
441.266	491
441.338	-120
441.411	2788
441.483	19598
441.555	28303
441.627	6416
441.699	4065
441.771	3222
441.843	1322
441.915	269
441.987	559
442.059	1074
442.131	1592
442.203	3463
442.275	4189
442.347	3859
442.419	4391
442.491	25807
442.563	62954
442.635	28722
442.706	18899
442.778	13957
442.850	2684
442.922	1623
442.994	2504
443.066	3734
443.137	1774
443.209	1961
443.281	3026
443.353	7884
443.425	31331
443.496	108969
443.568	107400
443.640	40209
443.711	8622
443.783	3389
443.855	2268
443.926	978
443.998	2055
444.070	2671
444.141	1974
444.213	3404
444.285	5097
444.356	4422
444.428	2485
444.499	1757
444.571	718
444.642	677
444.714	952
444.785	3476
444.857	5285
444.928	12471
445.000	7697
445.071	7824
445.143	10297
445.214	5809
445.285	9758
445.357	27914
445.428	72808
445.500	158237
445.571	108167
445.642	57424
445.714	23951
445.785	21982
445.856	6411
445.928	4947
445.999	4492
446.070	4035
446.141	4567
446.213	5051
446.284	1958
446.355	2545
446.426	1561
446.497	1438
446.569	3942
446.640	5864
446.711	4349
446.782	857
446.853	2405
446.924	2752
446.995	1264
447.066	2040
447.138	4546
447.209	3113
447.280	341
447.351	572
447.422	70
447.493	1405
447.564	2447
447.635	2739
447.706	1265
447.777	372
447.847	284
447.918	867
447.989	1739
448.060	3491
448.131	8420
448.202	8378
448.273	4954
448.344	2278
448.414	1116
448.485	594
448.556	1278
448.627	458
448.698	1017
448.768	-734
448.839	1050
448.910	3817
448.981	4442
449.051	1845
449.122	360
449.193	358
449.263	-175
449.334	-274
449.405	1650
449.475	5789
449.546	4716
449.616	5778
449.687	4104
449.758	2258
449.828	1170
449.899	493
449.969	1315
450.040	95
450.110	1747
450.181	2119
450.251	6
450.322	1137
450.392	1355
450.463	1069
450.533	289
450.604	610
450.674	1038
450.744	1157
450.815	-109
450.885	569
450.955	1247
451.026	-209
451.096	331
451.166	1683
451.237	6210
451.307	14091
451.377	6069
451.447	1056
451.518	916
451.588	726
451.658	1279
451.728	2853
451.799	15210
451.869	18323
451.939	4251
452.009	1438
452.079	533
452.149	1238
452.219	3862
452.289	18273
452.360	13074
452.430	1986
452.500	1237
452.570	2699
452.640	4011
452.710	14095
452.780	20884
452.850	13809
452.920	11151
452.990	4285
453.060	1764
453.129	3492
453.199	5618
453.269	18122
453.339	38972
453.409	59869
453.479	59635
453.549	89217
453.619	97145
453.688	41250
453.758	6485
453.828	2451
453.898	2405
453.968	1743
454.037	1011
454.087	937
454.107	901
454.168	1410
454.177	1479
454.247	1027
454.249	1008
454.316	441
454.330	604
454.386	1172
454.411	4173
454.456	9095
454.492	11614
454.525	13941
454.574	7400
454.595	4548
454.655	2442
454.665	2133
454.734	2864
454.736	2934
454.804	4947
454.817	7048
454.873	15430
454.898	16712
454.943	18990
454.979	12777
455.013	7197
455.060	3470
455.082	1922
455.141	3026
455.152	3139
455.221	11014
455.222	11165
455.291	20975
455.303	18776
455.360	9114
455.384	8438
455.430	7482
455.465	8035
455.499	8228
455.546	12822
455.569	14808
455.627	10998
455.638	10348
455.707	1686
455.708	1685
455.777	545
455.789	664
455.846	1204
455.869	1167
455.916	1207
455.950	1520
455.985	1651
456.031	1633
456.054	1695
456.112	1029
456.124	871
456.193	913
456.193	906
456.262	1318
456.274	1513
456.332	2281
456.355	2434
456.401	2400
456.436	2109
456.470	1987
456.516	1213
456.540	745
456.597	444
456.609	467
456.678	1022
456.678	1015
456.747	370
456.759	358
456.817	551
456.840	545
456.886	486
456.920	583
456.955	842
457.001	1102
457.024	1127
457.082	1411
457.093	1502
457.162	2578
457.163	2592
457.232	3294
457.243	3092
457.301	1908
457.324	1392
457.370	774
457.405	1100
457.439	1509
457.485	1664
457.508	1641
457.566	1703
457.577	1717
457.646	1264
457.647	1285
457.715	3824
457.727	4061
457.784	5302
457.808	6753
457.853	8817
457.889	10589
457.922	11347
457.969	7480
457.991	6838
458.050	8313
458.060	8516
458.129	14932
458.130	15076
458.198	16824
458.211	15274
458.267	8906
458.292	6104
458.336	2963
458.372	2678
458.405	3430
458.453	5301
458.474	6418
458.533	12417
458.543	13049
458.611	25054
458.614	25127
458.680	18288
458.694	14989
458.749	6926
458.775	5175
458.818	2822
458.855	2616
458.887	2410
458.936	2246
458.955	2283
459.016	2302
459.024	2271
459.093	2410
459.097	2385
459.162	1867
459.177	1918
459.230	2096
459.257	2334
459.299	2958
459.338	3133
459.368	3045
459.418	3520
459.437	3667
459.499	3071
459.505	2975
459.574	1934
459.579	1910
459.643	2057
459.659	2048
459.711	2120
459.740	2268
459.780	2416
459.820	2488
459.849	2529
459.900	2606
459.917	2609
459.981	2770
459.986	2758
460.054	2385
460.061	2304
460.123	1870
460.141	2049
460.191	3125
460.222	3767
460.260	4111
460.302	4809
460.328	4903
460.382	4004
460.397	3849
460.462	2570
460.465	2572
460.534	3618
460.543	3778
460.602	8937
460.623	11078
460.671	16601
460.703	23493
460.739	24514
460.783	21506
460.808	19178
460.864	5735
460.876	4206
460.944	2845
460.945	2823
461.013	2429
461.024	2369
461.081	2691
461.104	2951
461.150	2639
461.184	2243
461.218	2145
461.264	1910
461.286	1953
461.345	2316
461.355	2324
461.423	2505
461.425	2505
461.491	2617
461.505	2691
461.559	4882
461.585	5778
461.628	9095
461.665	13332
461.696	15078
461.745	19912
461.764	18728
461.825	7447
461.832	7170
461.901	3951
461.905	3996
461.969	2819
461.985	2534
462.037	2715
462.065	2664
462.105	2771
462.145	3045
462.173	4340
462.225	6911
462.241	7539
462.305	11437
462.310	11242
462.378	8237
462.385	7402
462.446	3461
462.465	2890
462.514	2937
462.545	3038
462.582	2912
462.625	2686
462.650	2483
462.705	2243
462.718	2278
462.785	3079
462.786	3116
462.854	4431
462.865	4780
462.922	6023
462.945	6632
462.990	5734
463.025	4054
463.058	3113
463.104	2317
463.126	2218
463.184	2345
463.194	2496
463.262	2806
463.264	2844
463.330	2939
463.344	2943
463.398	3780
463.424	4037
463.466	3574
463.504	3487
463.533	3770
463.583	3545
463.601	3399
463.663	3312
463.669	3381
463.737	4223
463.743	4332
463.805	8130
463.823	9205
463.873	13007
463.903	15602
463.940	16718
463.982	18634
464.008	15840
464.062	7327
464.076	6785
464.142	3437
464.144	3382
464.211	2852
464.221	2840
464.279	3265
464.301	3428
464.347	3528
464.381	3658
464.414	4154
464.461	4732
464.482	4890
464.540	5635
464.550	5458
464.617	3738
464.620	3668
464.685	4355
464.699	4601
464.753	4974
464.779	5175
464.820	5860
464.859	6367
464.888	6162
464.938	5931
464.956	6085
465.018	6467
465.023	6394
465.091	5363
465.098	5238
465.158	4408
465.177	4162
465.226	4261
465.257	4434
465.293	5091
465.336	5733
465.361	5936
465.416	6355
465.428	6803
465.495	9490
465.496	9539
465.563	15539
465.575	16646
465.631	20463
465.654	22325
465.698	14942
465.734	7696
465.765	6597
465.813	4920
465.833	4598
465.893	4422
465.900	4440
465.968	4655
465.972	4660
466.035	3948
466.052	3771
466.102	3939
466.131	3980
466.170	3441
466.210	2981
466.237	3717
466.290	5091
466.304	5010
466.369	4576
466.372	4590
466.439	4973
466.449	5020
466.506	5987
466.528	6360
466.573	9281
466.607	11430
466.641	16152
466.687	22811
466.708	25330
466.766	32516
466.775	30175
466.842	12070
466.845	11193
466.909	7461
466.925	6681
466.977	6872
467.004	7030
467.044	6593
467.083	6187
467.111	6721
467.163	7690
467.178	7809
467.242	8292
467.245	8294
467.312	8207
467.321	8189
467.379	7009
467.400	6566
467.446	7829
467.480	8730
467.559	7490
467.638	6469
467.717	6011
467.796	7523
467.875	7341
467.955	6934
468.034	10968
468.113	26635
468.192	38675
468.271	10954
468.350	7101
468.429	8252
468.508	8751
468.588	6501
468.667	6072
468.746	6884
468.825	6463
468.904	5674
468.983	7862
469.062	10747
469.141	12750
469.220	5395
469.299	5682
469.378	6014
469.456	7437
469.535	6816
469.614	5942
469.693	5818
469.772	8871
469.851	12183
469.930	8865
470.009	4869
470.088	6976
470.166	7404
470.245	9307
470.324	11349
470.403	7440
470.482	6416
470.560	5918
470.639	6761
470.718	7224
470.797	5819
470.875	6414
470.954	8526
471.033	10973
471.111	5359
471.190	5040
471.269	4735
471.347	4718
471.426	5148
471.505	7209
471.583	6072
471.662	5445
471.740	5433
471.819	5943
471.898	5466
471.976	5416
472.055	5224
472.133	6566
472.212	8290
472.290	8465
472.369	5142
472.447	4554
472.526	3912
472.604	6271
472.683	5617
472.761	5400
472.839	5094
472.918	5178
472.996	4981
473.075	6967
473.153	6321
473.231	5266
473.310	6003
473.388	6189
473.466	5149
473.545	5777
473.623	7230
473.701	6861
473.780	6306
473.858	4632
473.936	6825
474.014	5471
474.093	6545
474.171	8790
474.249	11318
474.327	7773
474.405	5514
474.484	4630
474.562	4246
474.640	4287
474.718	5560
474.796	5801
474.874	5440
474.952	3769
475.030	4851
475.108	4708
475.187	5298
475.265	5970
475.343	7070
475.421	7566
475.499	5634
475.577	5014
475.655	7537
475.733	13325
475.811	23452
475.889	20949
475.966	13808
476.044	5314
476.122	6923
476.200	7066
476.278	7070
476.356	4865
476.434	5685
476.512	6281
476.590	7708
476.667	7167
476.745	4021
476.823	4770
476.901	4678
476.979	4857
477.056	4921
477.134	5026
477.212	5747
477.290	4356
477.367	4168
477.445	4679
477.523	4993
477.601	5186
477.678	4872
477.756	5516
477.834	7479
477.911	4458
477.989	4177
478.066	5392
478.144	5052
478.222	5239
478.299	8458
478.377	7654
478.454	3705
478.532	3908
478.609	4448
478.687	5496
478.764	4020
478.842	4374
478.919	4261
478.997	4799
479.074	4315
479.152	4884
479.229	7114
479.307	4486
479.384	3288
479.461	3887
479.539	4626
479.616	5120
479.694	4454
479.771	4465
479.848	5393
479.926	6272
480.003	8113
480.080	3432
480.157	4527
480.235	3812
480.312	3725
480.389	4961
480.467	7985
480.544	9694
480.621	4726
480.698	4719
480.775	5718
480.853	4999
480.930	5674
481.007	4517
481.084	5727
481.161	5783
481.238	6025
481.315	3812
481.392	3460
481.470	4207
481.547	4404
481.624	4158
481.701	3633
481.778	4847
481.855	5134
481.932	8475
482.009	13722
482.086	8778
482.163	4632
482.240	7047
482.317	10632
482.393	8182
482.470	4995
482.547	5767
482.624	4112
482.701	4669
482.778	3929
482.855	3951
482.932	3579
483.009	3637
483.085	4594
483.162	5646
483.239	5797
483.316	3026
483.393	4693
483.469	4495
483.546	5433
483.623	4752
483.699	4850
483.776	4920
483.853	4666
483.930	7093
484.006	20229
484.083	36814
484.160	17061
484.236	20587
484.313	15995
484.389	12638
484.466	11435
484.543	10769
484.619	9963
484.696	12550
484.772	11586
484.849	13299
484.925	10709
485.002	9658
485.078	10766
485.155	11414
485.231	9612
485.308	9321
485.384	9506
485.461	12065
485.537	19707
485.614	24753
485.690	10544
485.766	9442
485.843	9237
485.919	13604
485.995	14736
486.072	9273
486.148	9055
486.224	9172
486.301	8682
486.377	10953
486.453	10834
486.530	10850
486.606	12852
486.682	14788
486.758	17560
486.835	20775
486.911	15671
486.987	26247
487.063	26665
487.139	31307
487.215	21249
487.292	12213
487.368	10386
487.444	10551
487.520	14711
487.596	12572
487.672	18155
487.748	43496
487.824	61024
487.900	22206
487.976	11024
488.052	10042
488.128	14393
488.204	10560
488.280	10808
488.356	11944
488.432	23915
488.508	36657
488.584	12040
488.660	8563
488.736	8549
488.812	9156
488.888	11831
488.964	14232
489.039	29212
489.115	44190
489.191	25327
489.267	8440
489.343	8695
489.418	7417
489.494	7245
489.570	6147
489.646	8639
489.722	7668
489.797	8070
489.873	12214
489.949	27577
490.024	21565
490.100	7348
490.176	7367
490.251	8525
490.327	11432
490.403	6671
490.478	7432
490.554	6259
490.629	5133
490.705	6517
490.781	6675
490.856	6286
490.932	8682
491.007	7812
491.083	6718
491.158	6164
491.234	8662
491.309	21037
491.385	21367
491.460	6792
491.536	7555
491.611	6930
491.686	8499
491.762	9475
491.837	19154
491.913	29947
491.988	43522
492.063	52473
492.139	16813
492.214	10934
492.289	6506
492.365	5234
492.440	6604
492.515	6854
492.590	6403
492.666	5630
492.741	7340
492.816	12339
492.891	6122
492.967	4896
493.042	4441
493.117	3927
493.192	4308
493.267	6370
493.342	10243
493.418	12639
493.493	5516
493.568	4473
493.643	4393
493.718	6718
493.793	9874
493.868	11347
493.943	6881
494.018	5198
494.093	4954
494.168	5361
494.243	3779
494.318	4437
494.393	4498
494.468	4537
494.543	3746
494.618	5445
494.693	4280
494.768	3360
494.842	4446
494.917	4016
494.992	4138
495.067	4806
495.142	4312
495.217	4321
495.292	4684
495.366	4827
495.441	6975
495.516	9903
495.591	11615
495.665	38309
495.740	89741
495.815	36163
495.890	7731
495.964	5800
496.039	8349
496.114	6433
496.188	6827
496.263	7488
496.338	6423
496.412	6501
496.487	8261
496.561	7807
496.636	8628
496.710	6677
496.785	8064
496.860	9246
496.934	6928
497.009	7958
497.083	6380
497.158	7386
497.232	8600
497.307	10991
497.381	7712
497.455	10317
497.530	12450
497.604	9518
497.679	10048
497.753	15629
497.827	19585
497.902	18028
497.976	20840
498.050	44543
498.125	173971
498.199	173023
498.273	29317
498.348	20375
498.422	15213
498.496	14175
498.570	13413
498.645	10159
498.719	9520
498.793	13087
498.867	18934
498.941	23604
499.016	68314
499.090	191146
499.164	65303
499.238	8965
499.312	7361
499.386	10184
499.460	9047
499.534	8171
499.609	11511
499.683	15931
499.757	14247
499.831	30968
499.905	127866
499.979	117395
500.053	19640
500.127	16893
500.201	12206
500.275	9227
500.349	8085
500.422	10007
500.496	14215
500.570	26773
500.644	71553
500.718	132243
500.792	29759
500.866	9106
500.940	11367
501.013	9740
501.087	8878
501.161	15409
501.235	19245
501.309	42517
501.382	121240
501.456	103150
501.530	22881
501.603	38421
501.677	14878
501.751	6126
501.825	8989
501.898	16964
501.972	48238
502.046	29168
502.119	7292
502.193	20333
502.266	52918
502.340	24327
502.413	22380
502.487	45266
502.561	23806
502.634	7824
502.708	5608
502.781	5615
502.855	4655
502.928	3730
503.002	4311
503.075	4430
503.149	5592
503.222	5354
503.295	6524
503.369	7468
503.442	10276
503.516	34699
503.589	88598
503.662	56920
503.736	18210
503.809	41790
503.882	31332
503.956	49358
504.029	44483
504.102	26935
504.175	34679
504.249	10431
504.322	8184
504.395	7056
504.468	4685
504.542	4759
504.615	2490
504.688	3556
504.761	2342
504.834	4686
504.907	5288
504.980	9699
505.053	5178
505.127	4602
505.200	8384
505.273	8037
505.346	4747
505.419	3125
505.492	3874
505.565	3037
505.638	2761
505.711	2224
505.784	3087
505.857	2625
505.930	4361
506.003	2990
506.076	4938
506.149	5830
506.221	6384
506.294	7674
506.367	16905
506.440	65433
506.513	33606
506.586	7762
506.659	4036
506.731	3031
506.804	3635
506.877	5562
506.950	4675
507.022	4426
507.095	4013
507.168	5759
507.241	4678
507.313	1995
507.386	2758
507.459	4909
507.531	3475
507.604	2832
507.677	3185
507.749	490
507.822	5326
507.894	7701
507.967	10399
508.040	4658
508.112	6112
508.185	4520
508.257	4025
508.330	7568
508.402	4675
508.475	4207
508.547	4882
508.620	4052
508.692	8033
508.765	4917
508.837	2994
508.909	3539
508.982	3479
509.054	4062
509.127	2982
509.199	3305
509.271	2182
509.344	3224
509.416	3228
509.488	2307
509.560	3325
509.633	2549
509.705	4557
509.777	4058
509.849	6297
509.922	2507
509.994	3011
510.066	4237
510.138	2524
510.210	8908
510.283	6922
510.355	6464
510.427	6178
510.499	4575
510.571	5158
510.643	3991
510.715	8223
510.787	5367
510.859	5666
510.931	4995
511.003	8501
511.076	7380
511.148	3463
511.219	3308
511.291	7828
511.363	9656
511.435	3624
511.507	2621
511.579	3557
511.651	4333
511.723	3585
511.795	3402
511.867	3443
511.939	4433
512.010	10070
512.082	8820
512.154	2532
512.226	4004
512.298	6488
512.369	9060
512.441	7667
512.513	7619
512.585	4950
512.656	5719
512.728	6056
512.800	4496
512.871	4958
512.943	4618
513.015	4152
513.086	4578
513.158	4915
513.230	4384
513.301	6906
513.373	9454
513.444	4528
513.516	4719
513.588	4474
513.659	4636
513.731	5693
513.802	3827
513.874	11434
513.945	18449
514.016	6531
514.088	4682
514.159	4892
514.231	6753
514.302	8521
514.374	7059
514.445	4787
514.516	14241
514.588	9056
514.659	6247
514.730	11279
514.802	10045
514.873	4714
514.944	7676
515.016	5380
515.087	5998
515.158	8534
515.229	12193
515.301	6056
515.372	7930
515.443	4682
515.514	4597
515.585	3404
515.656	4131
515.728	4027
515.799	3233
515.870	3905
515.941	5282
516.012	3472
516.083	6161
516.154	6311
516.225	9539
516.296	8280
516.367	6826
516.438	8001
516.509	10804
516.580	15409
516.651	48113
516.722	168924
516.793	72710
516.864	16908
516.935	17191
517.006	18215
517.077	23164
517.148	50280
517.219	181612
517.289	268106
517.360	89254
517.431	29080
517.502	8312
517.573	8373
517.643	7247
517.714	9035
517.785	9676
517.856	8799
517.926	12026
517.997	14110
518.068	16101
518.138	22297
518.209	29387
518.280	112362
518.350	414076
518.421	144915
518.492	20640
518.562	11259
518.633	11561
518.703	9157
518.774	16810
518.845	39162
518.915	38787
518.986	13172
519.056	12169
519.127	18605
519.197	27936
519.268	69845
519.338	45152
519.408	11832
519.479	12264
519.549	8626
519.620	7381
519.690	3791
519.760	4804
519.831	5119
519.901	5132
519.971	4480
520.042	4987
520.112	7027
520.182	6267
520.253	6915
520.323	4630
520.393	4299
520.463	8437
520.534	3220
520.604	10568
520.674	6700
520.744	6903
520.814	9482
520.885	11452
520.955	20884
521.025	82970
521.095	30438
521.165	6538
521.235	5473
521.305	3171
521.375	4170
521.445	5588
521.515	5684
521.585	8181
521.655	5155
521.725	5904
521.795	5542
521.865	2004
521.935	8858
522.005	5899
522.075	3158
522.145	5616
522.215	5013
522.285	8084
522.355	10276
522.424	22237
522.494	16209
522.564	8301
522.634	15090
522.704	45631
522.774	15827
522.843	5714
522.913	5834
522.983	5734
523.053	3021
523.122	5402
523.192	5997
523.262	22857
523.331	21439
523.401	5062
523.471	3156
523.540	3962
523.610	2384
523.680	2575
523.749	3052
523.819	4953
523.888	4502
523.958	2863
524.027	2827
524.097	4002
524.166	3947
524.236	2781
524.305	6070
524.375	2667
524.444	2649
524.514	5248
524.583	3013
524.653	4801
524.722	5655
524.791	2779
524.861	4971
524.930	2684
524.999	4035
525.069	6890
525.138	5040
525.207	5270
525.277	3948
525.346	3518
525.415	4635
525.484	4184
525.554	4336
525.623	5427
525.692	4548
525.761	4839
525.830	6340
525.900	6267
525.969	9326
526.038	13813
526.107	25054
526.176	75029
526.245	57801
526.314	21829
526.383	40442
526.452	48164
526.522	89226
526.591	88958
526.660	28078
526.729	15372
526.797	16232
526.867	30133
526.935	135105
527.004	213139
527.073	106894
527.142	11343
527.211	5580
527.280	5776
527.349	6137
527.418	2204
527.487	3671
527.555	2524
527.624	2409
527.693	1758
527.762	3810
527.831	1596
527.899	3937
527.968	3038
528.037	2273
528.106	4883
528.174	8120
528.243	6405
528.312	9380
528.380	11486
528.449	1879
528.518	3630
528.586	1321
528.655	2931
528.723	2221
528.792	2633
528.861	2714
528.929	1809
528.998	2233
529.066	1560
529.135	2659
529.203	1176
529.272	984
529.340	2856
529.409	3011
529.477	1441
529.545	3247
529.614	6463
529.682	3026
529.751	4645
529.819	7301
529.887	3397
529.956	3102
530.024	3575
530.092	2111
530.161	4611
530.229	5781
530.297	2929
530.365	3283
530.434	2071
530.502	1936
530.570	2565
530.638	1092
530.707	2618
530.775	4054
530.843	2656
530.911	1775
530.979	2300
531.047	1525
531.115	3313
531.183	2245
531.252	2821
531.320	2594
531.388	1644
531.456	3051
531.524	1221
531.592	2808
531.660	3732
531.728	1724
531.796	2221
531.864	2128
531.932	2103
532.000	2471
532.067	2857
532.135	4031
532.203	4627
532.271	3615
532.339	7207
532.407	18903
532.475	10619
532.542	6251
532.610	7157
532.678	6749
532.746	35247
532.814	89177
532.881	21606
532.949	4772
533.017	4092
533.084	3104
533.152	2830
533.220	3261
533.287	3128
533.355	2708
533.423	2854
533.490	2048
533.558	2796
533.625	3542
533.693	3111
533.761	4546
533.828	4135
533.896	2234
533.963	6939
534.031	7608
534.098	11887
534.166	5394
534.233	3511
534.300	4312
534.368	4164
534.435	2169
534.503	3710
534.570	4664
534.637	2697
534.705	4331
534.772	4783
534.840	6572
534.907	34416
534.974	41354
535.041	6461
535.109	5408
535.176	2376
535.243	3194
535.310	3168
535.378	2943
535.445	3018
535.512	2747
535.579	3424
535.646	3199
535.714	3300
535.781	3787
535.848	3847
535.915	5148
535.982	2393
536.049	3134
536.116	5025
536.183	2487
536.250	3738
536.317	3145
536.384	4578
536.451	6423
536.518	7502
536.585	2512
536.652	6773
536.719	8757
536.786	6009
536.853	5151
536.920	8285
536.987	12153
537.053	10900
537.120	45533
537.187	38334
537.254	4761
537.321	3829
537.388	3930
537.454	2741
537.521	3407
537.588	3916
537.654	5264
537.721	3851
537.788	4478
537.855	4120
537.921	4587
537.988	4022
538.055	3422
538.121	3861
538.188	3329
538.254	6548
538.321	12244
538.388	7573
538.454	3466
538.521	4500
538.587	3556
538.654	3288
538.720	2903
538.787	3845
538.853	4154
538.920	5787
538.986	5344
539.053	4465
539.119	5033
539.185	4157
539.252	5716
539.318	7777
539.385	6298
539.451	4967
539.517	5770
539.583	6829
539.650	13415
539.716	35763
539.782	10337
539.849	4081
539.915	4696
539.981	4595
540.047	4261
540.114	4359
540.180	5871
540.246	4056
540.312	6244
540.378	11621
540.444	13383
540.510	13968
540.576	38968
540.643	12512
540.709	4065
540.775	4151
540.841	4113
540.907	5916
540.973	8119
541.039	6212
541.105	7910
541.171	5012
541.237	3628
541.303	4761
541.369	6071
541.435	6651
541.500	11068
541.566	6434
541.632	4158
541.698	4488
541.764	4995
541.830	4151
541.896	2925
541.961	4793
542.027	3659
542.093	5118
542.159	4379
542.224	3686
542.290	7891
542.356	10496
542.421	13484
542.487	6064
542.553	4048
542.618	5042
542.684	4384
542.750	3980
542.815	6665
542.881	9402
542.947	35425
543.012	25760
543.078	4897
543.143	3635
543.209	6069
543.274	4080
543.340	6697
543.405	13555
543.471	20758
543.536	5960
543.602	4990
543.667	3468
543.732	5133
543.798	3778
543.863	4750
543.928	3406
543.994	3654
544.059	4315
544.124	4080
544.190	4347
544.255	4363
544.320	4421
544.386	4089
544.451	7190
544.516	8187
544.581	7503
544.646	21475
544.712	34382
544.777	7984
544.842	6573
544.907	6026
544.972	5004
545.037	5983
545.102	6405
545.168	6397
545.233	6845
545.298	7762
545.363	7346
545.428	8550
545.493	14498
545.558	28752
545.623	11658
545.688	6358
545.753	6276
545.818	6778
545.883	7102
545.947	5934
546.012	7893
546.077	7155
546.142	7338
546.207	6653
546.272	8637
546.337	9696
546.401	7947
546.466	7446
546.531	6592
546.596	8317
546.661	7817
546.725	8937
546.790	7210
546.855	8109
546.919	7741
546.984	9454
547.049	10049
547.113	11834
547.178	10127
547.243	13786
547.307	14469
547.372	16396
547.436	16244
547.501	14655
547.565	16801
547.630	16186
547.695	16347
547.759	17898
547.823	16819
547.888	14199
547.952	15479
548.017	14938
548.081	16378
548.146	18229
548.210	17436
548.274	16858
548.339	16303
548.403	15654
548.468	14515
548.532	14541
548.596	14118
548.660	14249
548.725	16930
548.789	18189
548.853	19393
548.917	16740
548.982	19416
549.046	18288
549.110	14003
549.174	13419
549.238	14678
549.303	15636
549.367	17560
549.431	16261
549.495	15470
549.559	14920
549.623	18723
549.687	19412
549.751	23277
549.815	22838
549.879	23496
549.943	21336
550.007	22781
550.071	22156
550.135	22896
550.199	20615
550.263	19687
550.327	20306
550.391	22756
550.455	21417
550.519	22086
550.582	23927
550.646	28309
550.710	28143
550.774	25144
550.838	24347
550.901	26457
550.965	27420
551.029	28689
551.093	31294
551.156	34632
551.220	48279
551.284	53421
551.347	35103
551.411	46640
551.475	47144
551.538	29745
551.602	25686
551.666	24372
551.729	22444
551.793	23436
551.856	22400
551.920	21847
551.983	23001
552.047	22367
552.110	22123
552.174	22342
552.237	22818
552.301	22523
552.364	20722
552.428	21311
552.491	21973
552.554	22135
552.618	21494
552.681	23346
552.745	22295
552.808	29324
552.871	33209
552.934	25729
552.998	22022
553.061	22571
553.124	21305
553.187	20235
553.251	21844
553.314	22370
553.377	20741
553.440	23322
553.503	28072
553.567	29504
553.630	23419
553.693	23111
553.756	23532
553.819	22772
553.882	21840
553.945	21658
554.008	21861
554.071	21956
554.134	22944
554.197	21061
554.260	20613
554.323	22493
554.386	22170
554.449	21467
554.512	22992
554.575	21688
554.638	21199
554.701	20694
554.764	20834
554.827	21185
554.889	20468
554.952	19438
555.015	18679
555.078	19152
555.141	19462
555.203	18884
555.266	18489
555.329	19357
555.391	18315
555.454	17959
555.517	18140
555.580	16433
555.642	16259
555.705	15136
555.768	16299
555.830	16315
555.893	14805
555.955	15657
556.018	15236
556.080	15057
556.143	15794
556.206	13693
556.268	14944
556.330	15021
556.393	15036
556.455	14901
556.518	17404
556.580	18052
556.643	13687
556.705	13444
556.767	12521
556.830	13993
556.892	13535
556.955	17595
557.017	14794
557.079	13191
557.142	12880
557.204	13117
557.266	20701
557.328	18853
557.391	12335
557.453	11345
557.515	11381
557.577	13780
557.639	13637
557.701	10942
557.764	10927
557.826	11556
557.888	12437
557.950	12115
558.012	13660
558.074	15621
558.136	31003
558.198	64885
558.260	27407
558.322	13871
558.384	14225
558.446	17221
558.508	19077
558.570	21842
558.632	30948
558.694	41538
558.756	44098
558.818	124379
558.880	287910
558.942	89498
559.003	70688
559.065	37262
559.127	18271
559.189	18182
559.251	20761
559.312	27321
559.374	60190
559.436	190475
559.498	89888
559.559	20658
559.621	18954
559.683	20927
559.744	33398
559.806	94269
559.868	131260
559.929	29122
559.991	20403
560.052	26848
560.114	66254
560.176	42768
560.237	40566
560.299	62033
560.360	17417
560.422	10209
560.483	10077
560.545	10201
560.606	9297
560.667	9139
560.729	8292
560.790	8051
560.852	9083
560.913	8051
560.974	9081
561.036	8412
561.097	9912
561.158	9626
561.220	9161
561.281	9471
561.342	9512
561.403	11001
561.465	12476
561.526	24568
561.587	28992
561.648	10744
561.709	8887
561.771	10272
561.832	8202
561.893	9005
561.954	9088
562.015	9075
562.076	8577
562.137	8405
562.198	7946
562.259	9708
562.320	9214
562.381	10596
562.442	12177
562.503	10014
562.564	9029
562.625	8926
562.686	8418
562.747	9411
562.808	9625
562.869	8001
562.930	10159
562.991	9449
563.051	9783
563.112	9257
563.173	8358
563.234	8077
563.294	8024
563.355	9294
563.416	8546
563.477	8898
563.537	8485
563.598	9644
563.659	8871
563.720	8247
563.780	9065
563.841	9789
563.901	9463
563.962	9000
564.023	9448
564.083	9229
564.144	9035
564.204	9476
564.265	9896
564.325	10875
564.386	17452
564.446	16029
564.507	8701
564.567	8861
564.628	8339
564.688	9049
564.749	8635
564.809	10515
564.869	12121
564.930	9901
564.990	8587
565.050	8905
565.111	9499
565.171	8743
565.231	8524
565.292	9192
565.352	9273
565.412	10115
565.472	8115
565.532	9799
565.593	9513
565.653	9185
565.713	9810
565.773	10852
565.833	11124
565.893	13490
565.953	9832
566.013	9359
566.074	10474
566.134	12873
566.194	17826
566.254	18147
566.314	13276
566.374	10763
566.434	11086
566.494	11249
566.554	9489
566.614	11752
566.673	11174
566.733	12006
566.793	13031
566.853	11867
566.913	12366
566.973	13347
567.033	13697
567.092	13128
567.152	13347
567.212	12375
567.272	12964
567.331	14640
567.391	13838
567.451	14942
567.511	18309
567.570	17794
567.630	13681
567.690	13694
567.749	13959
567.809	14352
567.868	15844
567.928	17149
567.988	19521
568.047	22672
568.107	25395
568.166	33068
568.226	49150
568.285	66853
568.345	55004
568.404	44615
568.464	39034
568.523	37025
568.582	38280
568.642	41350
568.701	50925
568.761	71165
568.820	109907
568.879	103445
568.939	77367
568.998	56782
569.057	42695
569.116	35560
569.176	29866
569.235	24283
569.294	21987
569.353	19973
569.413	18880
569.472	17958
569.531	15960
569.590	15025
569.649	14614
569.708	13232
569.767	13889
569.827	15988
569.886	13891
569.945	11977
570.004	12762
570.063	11420
570.122	11729
570.181	13187
570.240	12974
570.299	13864
570.358	12916
570.417	12132
570.475	10786
570.534	12039
570.593	11435
570.652	11810
570.711	12303
570.770	11040
570.829	11605
570.887	11352
570.946	12378
571.005	10305
571.064	11224
571.122	11931
571.181	10851
571.240	10485
571.299	10506
571.357	10606
571.416	11046
571.475	12256
571.533	11742
571.592	10834
571.650	10431
571.709	9931
571.768	10122
571.826	10804
571.885	9583
571.943	10235
572.002	9574
572.060	9558
572.119	9383
572.177	8990
572.236	8740
572.294	9419
572.352	10016
572.411	10056
572.469	8656
572.528	8428
572.586	10687
572.644	12044
572.703	12995
572.761	10741
572.819	9288
572.877	8791
572.936	8287
572.994	9386
573.052	8858
573.110	9062
573.169	9288
573.227	8898
573.285	7870
573.343	8492
573.401	8988
573.459	9791
573.517	8990
573.576	9051
573.634	8842
573.692	9899
573.750	9635
573.808	8151
573.866	9827
573.924	11079
573.982	11351
574.040	10091
574.098	8428
574.155	8569
574.213	8664
574.271	8693
574.329	8743
574.387	8122
574.445	8728
574.503	8575
574.560	7560
574.618	8111
574.676	7772
574.734	8262
574.792	8548
574.849	8496
574.907	6809
574.965	6188
575.022	7772
575.080	8058
575.138	8458
575.195	8837
575.253	9212
575.311	8673
575.368	8333
575.426	7135
575.483	8945
575.541	8030
575.598	8310
575.656	8579
575.713	8101
575.771	8365
575.828	8430
575.886	7560
575.943	9605
576.001	8903
576.058	9537
576.115	9359
576.173	10581
576.230	11903
576.287	12760
576.345	11134
576.402	9516
576.459	8392
576.517	10064
576.574	9552
576.631	11394
576.688	9806
576.746	9342
576.803	8982
576.860	8769
576.917	9549
576.974	9839
577.031	8718
577.089	9349
577.146	9872
577.203	9256
577.260	9690
577.317	9959
577.374	11657
577.431	9986
577.488	10269
577.545	8275
577.602	8532
577.659	9597
577.716	9067
577.773	8920
577.830	7789
577.886	9454
577.943	7757
578.000	8824
578.057	10289
578.114	8969
578.171	9784
578.227	9343
578.284	8872
578.341	9210
578.398	10152
578.454	10292
578.511	11194
578.568	12205
578.625	10404
578.681	9730
578.738	9903
578.794	8740
578.851	9539
578.908	9066
578.964	9713
579.021	10132
579.077	10039
579.134	9051
579.190	9206
579.247	8777
579.303	8906
579.360	8648
579.416	9757
579.473	9786
579.529	8844
579.586	9626
579.642	10066
579.698	8936
579.755	9999
579.811	9935
579.867	9375
579.924	8602
579.980	9377
580.036	9948
580.093	9968
580.149	9655
580.205	10254
580.261	9917
580.317	10404
580.374	10794
580.430	12169
580.486	11730
580.542	10300
580.598	10496
580.619	10537
580.654	10606
580.692	9990
580.710	9673
580.765	10376
580.767	10389
580.823	11168
580.838	10809
580.879	9815
580.911	10021
580.935	10162
580.984	10067
580.991	10047
581.047	10967
581.057	11017
581.103	11177
581.130	11212
581.159	11233
581.203	11679
581.215	11792
581.270	11042
581.276	11076
581.326	11260
581.349	11364
581.382	11528
581.422	12408
581.438	12736
581.494	11839
581.494	11851
581.550	11919
581.567	12373
581.606	13238
581.640	12898
581.661	12721
581.713	12557
581.717	12534
581.773	11753
581.786	11894
581.829	12272
581.859	13125
581.885	13879
581.932	13239
581.940	13087
581.996	13953
582.004	13906
582.052	13512
582.077	13491
582.107	13520
582.150	13879
582.163	13975
582.219	15120
582.223	15011
582.274	13557
582.296	14332
582.330	15524
582.368	15449
582.386	15388
582.441	14981
582.441	14970
582.497	14882
582.514	14984
582.552	15325
582.587	15395
582.608	15427
582.659	16201
582.663	16243
582.719	15991
582.732	16005
582.774	16200
582.805	16321
582.830	16350
582.877	16738
582.885	16782
582.941	16704
582.950	16831
582.996	17566
583.023	17901
583.052	18360
583.095	18642
583.107	18654
583.162	19453
583.168	19457
583.218	19357
583.240	18988
583.273	18468
583.313	18630
583.328	18721
583.384	18774
583.385	18773
583.439	18634
583.458	18882
583.494	19525
583.531	19398
583.549	19303
583.603	19969
583.605	19991
583.660	19658
583.676	19756
583.715	20162
583.748	20700
583.770	21121
583.820	22053
583.825	22113
583.881	22040
583.893	22000
583.936	22217
583.965	22089
583.991	21799
584.038	22075
584.046	22197
584.101	22242
584.110	22341
584.156	22866
584.183	22959
584.211	22976
584.255	23242
584.266	23418
584.321	23917
584.328	24018
584.376	24982
584.400	25101
584.431	25224
584.472	25342
584.486	25340
584.541	26094
584.545	26052
584.596	26176
584.617	26450
584.651	27384
584.689	28180
584.706	28405
584.761	28891
584.762	28866
584.816	29536
584.834	29709
584.871	30536
584.906	30756
584.926	30717
584.978	30656
584.980	30733
585.035	33344
585.051	33572
585.090	34278
585.123	35489
585.145	36097
585.195	36702
585.200	36924
585.254	38860
585.267	39508
585.309	41635
585.340	43396
585.364	45022
585.412	47173
585.419	47613
585.473	50240
585.484	51285
585.528	59049
585.556	64858
585.583	80039
585.628	111852
585.637	126268
585.692	231243
585.700	248869
585.747	298681
585.772	279531
585.801	192888
585.845	82591
585.856	73922
585.910	55666
585.917	53586
585.965	50997
585.989	49597
586.019	48843
586.061	48840
586.074	49170
586.128	49990
586.133	49991
586.183	51374
586.205	51789
586.237	52811
586.277	53566
586.292	53763
586.346	54078
586.349	53979
586.401	55364
586.421	55768
586.455	56841
586.493	58849
586.509	61994
586.564	72524
586.565	72699
586.618	93494
586.637	97540
586.672	86259
586.709	72910
586.727	70960
586.781	69250
586.781	69402
586.835	66881
586.853	66321
586.889	67000
586.925	67276
586.944	67913
586.996	69652
586.998	69902
587.052	73165
587.068	73676
587.106	75353
587.140	76803
587.161	77879
587.212	80378
587.215	80806
587.269	85165
587.284	86236
587.323	88187
587.356	89049
587.377	90757
587.427	94853
587.431	95396
587.485	99509
587.499	100284
587.539	103771
587.571	106240
587.593	109020
587.643	114604
587.648	115536
587.702	122911
587.715	124375
587.755	130845
587.786	135255
587.810	138458
587.858	144527
587.864	146135
587.917	159247
587.930	161755
587.971	173709
588.001	181960
588.025	188723
588.073	201013
588.079	203825
588.133	224914
588.145	229381
588.187	251204
588.217	265949
588.241	281582
588.288	310470
588.295	316500
588.348	362520
588.360	371727
588.402	417600
588.431	448440
588.456	484534
588.503	553089
588.510	568086
588.564	680918
588.575	703478
588.617	840051
588.646	932597
588.671	1060824
588.718	1303864
588.725	1360236
588.778	1781384
588.789	1862873
588.832	2150836
588.861	2329634
588.886	2243230
588.932	2013561
588.939	1992522
588.993	1760475
589.004	1727460
589.047	2184660
589.075	2453132
589.100	2342133
589.147	2072497
589.154	2028063
589.207	1634156
589.218	1550288
589.261	1430976
589.290	1350523
589.314	1392313
589.361	1470547
589.368	1513642
589.421	1845285
589.433	1911468
589.475	2149042
589.504	2295538
589.528	2194444
589.576	1927247
589.582	1957491
589.635	2213657
589.647	2254077
589.689	1980218
589.718	1758635
589.742	1536969
589.790	1087017
589.795	1063765
589.849	819275
589.861	761390
589.902	662911
589.932	586503
589.955	544044
590.004	450573
590.009	446406
590.062	387692
590.075	372153
590.115	343626
590.146	319603
590.168	309141
590.218	282861
590.222	282182
590.275	261125
590.289	254753
590.328	243212
590.360	232351
590.381	227409
590.431	213065
590.435	213194
590.488	202652
590.503	199062
590.541	194613
590.574	189222
590.594	186124
590.645	175889
590.647	176299
590.700	170114
590.716	167580
590.753	165641
590.787	162682
590.806	161395
590.859	155579
590.859	156108
590.912	151852
590.930	149901
590.965	149344
591.001	147609
591.018	147249
591.071	144503
591.072	143909
591.124	141258
591.143	139552
591.177	139137
591.214	137647
591.230	138825
591.283	140956
591.285	140465
591.336	138167
591.356	136598
591.389	134528
591.427	130619
591.442	130338
591.495	127489
591.498	126760
591.547	125624
591.569	124371
591.600	124146
591.640	122728
591.653	123252
591.706	123247
591.711	122753
591.759	124743
591.782	124927
591.811	127962
591.853	131195
591.864	130382
591.917	123357
591.924	121823
591.969	121792
591.995	120965
592.022	121939
592.066	122266
592.075	123569
592.127	128327
592.137	128690
592.180	132606
592.208	134098
592.233	130292
592.279	121490
592.285	121677
592.338	118923
592.350	117788
592.390	118009
592.421	117296
592.443	117516
592.491	116377
592.495	117012
592.548	118813
592.562	118797
592.600	118308
592.633	116923
592.653	116665
592.704	114035
592.705	114723
592.775	116059
592.846	115373
592.916	118733
592.987	119396
593.058	114869
593.128	111731
593.199	111896
593.270	112012
593.341	110689
593.411	112103
593.482	113015
593.553	112775
593.623	109881
593.694	113640
593.764	115427
593.835	111827
593.906	111035
593.976	109591
594.047	114821
594.117	123007
594.188	123044
594.258	112549
594.329	110470
594.399	110349
594.470	111475
594.540	112451
594.611	113667
594.681	112448
594.751	111639
594.822	118457
594.892	119713
594.963	120805
595.033	122038
595.103	122364
595.174	126141
595.244	147223
595.314	161209
595.384	125700
595.455	124802
595.525	129106
595.595	133061
595.665	131948
595.736	127280
595.806	129664
595.876	129228
595.946	128659
596.016	129723
596.087	132331
596.157	134769
596.227	134747
596.297	139269
596.367	145636
596.437	153608
596.507	167054
596.577	179464
596.647	153473
596.717	152723
596.787	154553
596.857	154608
596.927	152493
596.997	153896
597.067	156143
597.137	159398
597.207	161394
597.277	160989
597.347	157745
597.417	154355
597.487	156385
597.557	159554
597.626	160303
597.696	164893
597.766	174930
597.836	183697
597.906	153177
597.975	146776
598.045	145203
598.115	151107
598.185	157077
598.254	171382
598.324	181843
598.394	183146
598.464	178422
598.533	173846
598.603	165477
598.672	165008
598.742	168526
598.812	166231
598.881	169953
598.951	168658
599.020	166858
599.090	173494
599.159	174510
599.229	167881
599.299	165310
599.368	171233
599.437	168336
599.507	158709
599.576	157908
599.646	156001
599.715	152491
599.785	153858
599.854	153446
599.924	156342
599.993	152536
600.062	151484
600.132	154873
600.201	162439
600.270	182470
600.340	186891
600.409	182361
600.478	183063
600.547	185435
600.617	174580
600.686	152832
600.755	143460
600.824	140810
600.894	138370
600.963	136767
601.032	134040
601.101	133677
601.170	130384
601.239	129742
601.308	132529
601.378	130797
601.447	129996
601.516	131906
601.585	134037
601.654	140827
601.723	136494
601.792	138464
601.861	141263
601.930	149596
601.999	151954
602.068	146702
602.137	150900
602.206	151917
602.275	150084
602.343	159414
602.412	159197
602.481	152413
602.550	152995
602.619	153859
602.688	156492
602.756	158260
602.825	154889
602.894	160501
602.963	159477
603.032	162691
603.100	160459
603.169	159511
603.238	163177
603.307	160839
603.375	161977
603.444	167574
603.513	166209
603.581	168451
603.650	172887
603.719	161249
603.787	161301
603.856	166894
603.924	169955
603.993	173415
604.061	176366
604.130	182212
604.198	187208
604.267	188885
604.335	189793
604.404	191675
604.472	194734
604.541	197506
604.609	200631
604.678	200348
604.746	202091
604.815	209564
604.883	207145
604.951	206251
605.020	210459
605.088	207982
605.156	210620
605.225	210568
605.293	211981
605.361	213677
605.429	212423
605.498	218210
605.566	221085
605.634	229077
605.702	237718
605.771	241089
605.839	242752
605.907	234115
605.975	230692
606.043	226355
606.111	223225
606.180	228444
606.248	223614
606.316	219603
606.384	228010
606.452	226682
606.520	229680
606.588	223693
606.656	218706
606.724	215023
606.792	203442
606.860	186411
606.928	169366
606.996	164127
607.064	161699
607.132	167256
607.200	175943
607.267	181176
607.335	185474
607.403	187439
607.471	182292
607.539	178069
607.607	178043
607.674	158626
607.742	160304
607.810	159542
607.878	158371
607.946	160902
608.013	170078
608.081	173147
608.149	173261
608.216	176633
608.284	182602
608.352	181885
608.419	183036
608.487	192611
608.555	178667
608.622	178606
608.690	188943
608.757	204473
608.825	209127
608.893	206622
608.960	201863
609.028	202105
609.095	205011
609.163	188910
609.230	170648
609.298	159107
609.365	164056
609.432	176726
609.500	191037
609.567	217418
609.635	242048
609.702	255029
609.769	245862
609.837	197074
609.904	172990
609.971	174281
610.039	189377
610.106	240876
610.173	422637
610.241	918390
610.308	692580
610.375	360591
610.442	206003
610.509	180076
610.577	175502
610.644	177927
610.711	181436
610.778	185506
610.845	193883
610.912	203468
610.980	209485
611.047	210614
611.114	206451
611.181	198324
611.248	197805
611.315	208600
611.382	211924
611.449	218829
611.516	221770
611.583	218936
611.650	218821
611.717	223677
611.784	225143
611.851	233766
611.918	247656
611.984	278518
612.051	375426
612.118	704408
612.185	1607583
612.252	988794
612.319	324317
612.386	282344
612.452	259788
612.519	253873
612.586	264168
612.653	255077
612.719	257024
612.786	247271
612.853	230503
612.919	224898
612.986	228877
613.053	215336
613.120	203307
613.186	198275
613.253	200668
613.319	198433
613.386	201836
613.453	206385
613.519	212025
613.586	216278
613.652	239648
613.719	224602
613.785	217372
613.852	207671
613.918	204055
613.985	205608
614.051	214943
614.118	219077
614.184	210694
614.250	201999
614.317	205399
614.383	204912
614.449	205763
614.516	207995
614.582	212646
614.648	203920
614.715	203227
614.781	200898
614.847	204140
614.914	204005
614.980	198887
615.046	196876
615.112	199962
615.179	203511
615.245	211411
615.311	222849
615.377	261220
615.443	264958
615.509	222589
615.575	218910
615.642	215319
615.708	222356
615.774	232291
615.840	247910
615.906	270511
615.972	338132
616.038	537161
616.104	930083
616.170	1898803
616.236	1532646
616.302	434723
616.368	335368
616.434	264512
616.500	250490
616.565	265604
616.631	309606
616.697	268716
616.763	272347
616.829	370380
616.895	602573
616.961	561995
617.026	286278
617.092	222988
617.158	217861
617.224	212482
617.289	201445
617.355	193830
617.421	196479
617.487	193146
617.552	182252
617.618	180442
617.684	182331
617.749	182939
617.815	176179
617.880	171655
617.946	173283
618.012	178867
618.077	182340
618.143	175573
618.208	175987
618.274	188085
618.339	192451
618.405	162157
618.470	162792
618.536	167176
618.601	169822
618.667	158003
618.732	148601
618.798	146676
618.863	146943
618.928	145760
618.994	152384
619.059	155182
619.124	173317
619.190	153474
619.255	145353
619.320	145791
619.386	145734
619.451	142515
619.516	139791
619.581	143737
619.647	146768
619.712	146588
619.777	141032
619.842	144131
619.907	147787
619.972	147312
620.038	147239
620.103	140038
620.168	141013
620.233	143659
620.298	142168
620.363	143566
620.428	148064
620.493	149554
620.558	150603
620.623	152303
620.688	149275
620.753	149299
620.818	151464
620.883	154767
620.948	152680
621.013	152182
621.078	151229
621.143	153262
621.207	157565
621.272	155592
621.337	155149
621.402	156675
621.467	172080
621.532	171614
621.596	161097
621.661	152549
621.726	149250
621.791	152926
621.855	154609
621.920	156411
621.985	158667
622.049	165344
622.114	162367
622.179	159245
622.243	167405
622.308	167021
622.373	172823
622.437	170961
622.502	162866
622.566	161897
622.631	160875
622.695	163502
622.760	163077
622.824	160933
622.889	164408
622.953	170780
623.018	198392
623.082	193262
623.147	171416
623.211	166640
623.276	168792
623.340	158702
623.404	154413
623.469	156322
623.533	157090
623.597	152443
623.662	153959
623.726	143541
623.790	138098
623.854	137791
623.919	139389
623.983	139859
624.047	142280
624.111	142037
624.176	144238
624.240	150443
624.304	155686
624.368	142840
624.432	145077
624.496	147733
624.560	156194
624.625	159053
624.689	150746
624.753	156515
624.817	149617
624.881	146279
624.945	135036
625.009	134181
625.073	135055
625.137	143072
625.201	157013
625.265	155517
625.329	138114
625.393	143522
625.456	142163
625.520	145225
625.584	151579
625.648	164208
625.712	196533
625.776	300421
625.839	311116
625.903	167186
625.967	133104
626.031	169717
626.095	224107
626.158	143780
626.222	112828
626.286	106958
626.349	106447
626.413	101477
626.477	105636
626.540	101171
626.604	100058
626.668	99609
626.731	98936
626.795	102964
626.858	101344
626.922	98342
626.986	99529
627.049	96988
627.113	100224
627.176	96989
627.240	95514
627.303	95852
627.366	94847
627.430	97518
627.493	96835
627.557	96669
627.620	96397
627.684	98564
627.747	98857
627.810	93832
627.874	88322
627.937	84549
628.000	90957
628.064	87750
628.127	79469
628.190	80795
628.253	79969
628.317	76987
628.380	75923
628.443	74425
628.506	75806
628.569	72449
628.632	70092
628.696	70405
628.759	70134
628.822	67989
628.885	68211
628.948	67417
629.011	68207
629.074	67618
629.137	64012
629.200	65850
629.263	68510
629.326	62585
629.389	62913
629.452	65121
629.515	66260
629.578	63473
629.641	65513
629.704	65489
629.767	65576
629.830	61673
629.892	61191
629.955	60265
630.018	64657
630.081	65354
630.144	72525
630.207	63780
630.269	67584
630.332	66228
630.395	60908
630.458	58380
630.520	58249
630.583	58168
630.646	57552
630.708	56738
630.771	57981
630.834	57888
630.896	56985
630.959	56777
631.021	55600
631.084	57244
631.146	59595
631.209	63439
631.272	55846
631.334	56710
631.397	56892
631.459	55258
631.522	57912
631.584	58190
631.646	59326
631.709	61864
631.771	69400
631.834	60999
631.896	57591
631.958	54857
632.021	55630
632.083	55930
632.145	56585
632.208	54169
632.270	55875
632.332	53133
632.395	52708
632.457	56012
632.519	53650
632.581	52552
632.643	52092
632.706	54106
632.768	50579
632.830	52309
632.892	52158
632.954	52027
633.016	54382
633.078	52557
633.141	50834
633.203	51324
633.265	52695
633.327	51146
633.389	51207
633.451	57058
633.513	59880
633.575	57518
633.637	57501
633.698	56043
633.760	53061
633.822	53012
633.884	53197
633.946	53163
634.008	53868
634.070	53011
634.132	55447
634.193	56430
634.255	57988
634.317	58113
634.379	59763
634.441	55220
634.502	53795
634.564	50621
634.626	49734
634.687	49065
634.749	49105
634.811	48334
634.873	46658
634.934	46886
634.996	49485
635.057	46754
635.119	47429
635.181	48620
635.242	48736
635.304	45763
635.365	49732
635.427	47343
635.488	47908
635.550	46223
635.611	46517
635.673	46131
635.734	49679
635.796	50517
635.857	53796
635.918	51777
635.980	55104
636.041	55379
636.102	57836
636.164	56197
636.225	56225
636.286	51650
636.348	50303
636.409	46893
636.470	46223
636.531	46530
636.593	49692
636.654	46449
636.715	42650
636.776	42606
636.838	41635
636.899	43736
636.960	42838
637.021	41172
637.082	41396
637.143	40857
637.204	39893
637.265	39079
637.326	40411
637.387	40574
637.448	39485
637.509	39858
637.570	41438
637.631	40933
637.692	39110
637.753	37535
637.814	39093
637.875	39782
637.936	40369
637.997	38123
638.058	39274
638.119	40521
638.179	38132
638.240	38615
638.301	38392
638.362	37666
638.423	38024
638.483	37848
638.544	34931
638.605	37310
638.666	36742
638.726	38010
638.787	37246
638.848	36180
638.908	35994
638.969	35755
639.030	36790
639.090	35004
639.151	36192
639.211	38203
639.272	43422
639.332	58183
639.393	40916
639.453	34739
639.514	36777
639.574	35278
639.635	33215
639.695	34371
639.756	33305
639.816	36045
639.877	38239
639.937	51825
639.997	58394
640.058	35606
640.118	33882
640.178	34069
640.239	32572
640.299	32320
640.359	32024
640.420	33089
640.480	34743
640.540	35710
640.600	35582
640.661	35700
640.721	35423
640.781	41090
640.841	35004
640.901	33837
640.961	33884
641.021	35581
641.082	37175
641.142	43217
641.202	36324
641.262	30759
641.322	32193
641.382	30708
641.442	32123
641.502	31898
641.562	32386
641.622	30217
641.682	32483
641.742	33506
641.802	34515
641.861	32571
641.921	33285
641.981	34692
642.041	34793
642.101	39795
642.161	30616
642.221	29659
642.280	29272
642.340	29306
642.400	28224
642.460	31142
642.519	30657
642.579	29979
642.639	32244
642.698	29227
642.758	32428
642.818	31084
642.877	30616
642.937	32593
642.997	35363
643.056	44309
643.116	32228
643.175	31211
643.235	30243
643.294	31410
643.354	32488
643.414	32979
643.473	36372
643.532	40851
643.592	48969
643.651	68933
643.711	113533
643.770	218073
643.830	526833
643.889	1043476
643.948	231506
644.008	57225
644.067	41665
644.126	34923
644.186	32169
644.245	30332
644.304	29211
644.363	30658
644.423	28895
644.482	29301
644.541	29524
644.600	28967
644.659	33211
644.719	37807
644.778	50170
644.837	76240
644.896	145890
644.955	310548
645.014	98614
645.073	36927
645.132	30806
645.191	31648
645.250	29433
645.309	31399
645.368	31537
645.427	35722
645.486	49460
645.545	73778
645.604	32506
645.663	28690
645.722	27661
645.781	29837
645.840	32154
645.898	34859
645.957	45648
646.016	62164
646.075	109295
646.134	206360
646.192	555955
646.251	752805
646.310	110836
646.369	44196
646.427	39052
646.486	32003
646.545	29824
646.603	27560
646.662	27415
646.721	26724
646.779	24867
646.838	26318
646.896	30852
646.955	35787
647.014	49887
647.072	83700
647.131	205422
647.189	91949
647.248	27789
647.306	25981
647.365	25828
647.423	22361
647.481	25177
647.540	21789
647.598	23604
647.657	22612
647.715	23263
647.773	21256
647.832	24386
647.890	22335
647.948	22746
648.007	23567
648.065	20331
648.123	22156
648.181	23116
648.240	21905
648.298	21213
648.356	21743
648.414	23121
648.472	22519
648.531	22975
648.589	20924
648.647	20855
648.705	21033
648.763	21410
648.821	20702
648.879	21937
648.937	24228
648.995	25058
649.053	27707
649.111	37978
649.169	54493
649.227	90718
649.285	184648
649.343	512998
649.401	219107
649.459	71711
649.516	44573
649.574	26857
649.632	30294
649.690	31234
649.748	31265
649.806	38236
649.863	61374
649.921	145580
649.979	90125
650.037	25416
650.094	19702
650.152	20680
650.210	18943
650.268	20204
650.325	19697
650.383	20274
650.440	17172
650.498	19391
650.556	18761
650.613	17995
650.671	18598
650.728	19199
650.786	19290
650.843	20956
650.901	17782
650.958	17833
651.016	16893
651.073	17634
651.131	16887
651.188	16631
651.246	17436
651.303	16352
651.360	16363
651.418	16661
651.475	16728
651.532	16324
651.590	16598
651.647	15809
651.704	16721
651.762	17794
651.819	16318
651.876	15643
651.933	16314
651.990	16164
652.048	14966
652.105	15780
652.162	15162
652.219	15247
652.276	16148
652.333	16538
652.390	14041
652.448	16232
652.505	15173
652.562	15401
652.619	14743
652.676	16333
652.733	16801
652.790	15249
652.847	14040
652.904	15319
652.961	14158
653.017	13912
653.074	15830
653.131	15914
653.188	14153
653.245	14592
653.302	15504
653.359	14070
653.415	14955
653.472	14985
653.529	14775
653.586	13956
653.642	14213
653.699	14554
653.756	14034
653.813	15278
653.869	15498
653.926	14074
653.983	13589
654.039	14240
654.096	13624
654.152	15566
654.209	13654
654.266	15190
654.322	14702
654.379	17378
654.435	17006
654.492	17304
654.548	21611
654.605	29749
654.661	17616
654.717	15049
654.774	16612
654.830	15568
654.887	14571
654.943	16485
655.000	16083
655.056	15177
655.112	15279
655.168	15398
655.225	15774
655.281	17270
655.337	19179
655.394	28039
655.450	21065
655.506	19310
655.562	28183
655.618	22966
655.675	13551
655.731	15630
655.787	13134
655.843	15591
655.899	13055
655.955	14696
656.011	14864
656.067	13453
656.123	14161
656.179	15661
656.235	15967
656.291	14100
656.347	15891
656.403	13855
656.459	15014
656.515	16017
656.571	16294
656.627	16405
656.683	14814
656.739	16115
656.795	14231
656.850	14845
656.906	17188
656.962	16047
657.018	13415
657.074	15148
657.129	17784
657.185	20464
657.241	30956
657.297	20970
657.352	14788
657.408	14029
657.464	16431
657.519	14917
657.575	12299
657.630	13632
657.686	14089
657.742	14300
657.797	13746
657.853	13959
657.908	15654
657.964	12787
658.019	13551
658.075	15565
658.130	14126
658.186	11594
658.241	14051
658.297	13020
658.352	13224
658.407	13437
658.463	13189
658.518	13948
658.573	14135
658.629	12075
658.684	13346
658.739	14487
658.795	12125
658.850	13447
658.905	13341
658.960	14061
659.016	12897
659.071	14016
659.126	15215
659.181	15475
659.236	19887
659.291	21093
659.346	16116
659.401	15373
659.457	14655
659.512	13944
659.567	15199
659.622	14152
659.677	13840
659.732	13714
659.787	14353
659.842	14400
659.897	18169
659.952	13612
660.007	13593
660.061	14057
660.116	12913
660.171	12534
660.226	12879
660.281	13253
660.336	13369
660.391	12856
660.445	12462
660.500	13610
660.555	13430
660.610	13154
660.664	12683
660.719	12326
660.774	13167
660.828	13275
660.883	13347
660.938	14017
660.992	13028
661.047	13948
661.101	12396
661.156	13203
661.211	12234
661.265	12956
661.320	12838
661.374	12193
661.429	12735
661.483	13538
661.538	12610
661.592	13151
661.647	13302
661.701	14421
661.755	12523
661.810	13532
661.864	12742
661.919	12478
661.973	13268
662.027	12834
662.081	12214
662.136	13162
662.190	13544
662.244	15265
662.299	13960
662.353	13111
662.407	12777
662.461	13902
662.515	13778
662.569	14429
662.624	13558
662.678	13344
662.732	13884
662.786	13658
662.840	13301
662.894	13827
662.948	13111
663.002	12140
663.056	13252
663.110	11635
663.164	13571
663.218	13092
663.272	13357
663.326	14120
663.380	14247
663.434	14111
663.488	13129
663.542	13445
663.595	12759
663.649	13970
663.703	12796
663.757	13192
663.811	12959
663.864	12782
663.918	13168
663.972	12554
664.026	12326
664.079	12247
664.133	13368
664.187	12307
664.240	12460
664.294	12186
664.348	13152
664.401	12480
664.455	12807
664.508	12279
664.562	12576
664.615	12974
664.669	12058
664.722	12646
664.776	13121
664.829	12419
664.883	12680
664.936	13419
664.990	13596
665.043	14256
665.097	15823
665.150	15453
665.203	14099
665.257	13789
665.310	14187
665.363	14241
665.417	14026
665.470	13680
665.523	13068
665.576	13544
665.630	12980
665.683	13795
665.736	13527
665.789	14659
665.842	13682
665.895	13792
665.949	13798
666.002	14003
666.055	13539
666.108	14806
666.161	13044
666.214	15066
666.267	14151
666.320	15541
666.373	14104
666.426	14316
666.479	14051
666.532	15426
666.585	15368
666.638	16387
666.691	15242
666.744	16664
666.796	15513
666.849	15199
666.902	13444
666.955	13611
667.008	13202
667.060	12781
667.113	11724
667.166	13273
667.219	13528
667.271	13620
667.324	13466
667.377	13671
667.430	12658
667.482	14083
667.535	13111
667.587	13907
667.640	13935
667.693	16288
667.745	20715
667.798	22288
667.850	13695
667.903	14738
667.955	13355
668.008	13955
668.060	15643
668.113	15806
668.165	14710
668.218	15067
668.270	14614
668.322	14525
668.375	14788
668.427	14242
668.479	13168
668.532	14525
668.584	14919
668.636	13411
668.689	15095
668.741	14041
668.793	14061
668.845	14359
668.898	12903
668.950	13027
669.002	14156
669.054	13887
669.106	14104
669.158	14864
669.211	14262
669.263	13983
669.315	15190
669.367	14054
669.419	14869
669.471	15697
669.523	14914
669.575	17594
669.627	16088
669.679	14999
669.731	14418
669.783	14665
669.835	15467
669.886	15106
669.938	15429
669.990	14764
670.042	15411
670.094	15320
670.146	16504
670.197	18786
670.249	19682
670.301	21928
670.353	26964
670.404	34819
670.456	46781
670.508	72342
670.560	116749
670.611	201437
670.663	354307
670.715	776781
670.766	982836
670.818	346629
670.869	89397
670.921	48331
670.972	36543
671.024	29184
671.075	23029
671.127	20973
671.178	19980
671.230	19677
671.281	17635
671.333	16579
671.384	18647
671.436	18928
671.487	20731
671.538	22239
671.590	26800
671.641	36780
671.692	57175
671.744	93670
671.795	59740
671.846	27060
671.897	20494
671.949	18082
672.000	16551
672.051	16033
672.102	16631
672.153	15103
672.204	15145
672.256	14890
672.307	14275
672.358	15188
672.409	13349
672.460	13277
672.511	13741
672.562	13523
672.613	13363
672.664	12678
672.715	12981
672.766	12579
672.817	12509
672.868	12926
672.919	13005
672.970	13263
673.021	12707
673.071	12836
673.122	12006
673.173	13031
673.224	12146
673.275	12352
673.326	12339
673.376	12303
673.427	11663
673.478	12431
673.528	12458
673.579	12032
673.630	12018
673.680	13418
673.731	10971
673.782	11881
673.832	12553
673.883	12410
673.934	11728
673.984	12023
674.035	11817
674.085	12486
674.136	12248
674.186	13731
674.237	13938
674.287	18478
674.338	12921
674.388	12152
674.438	12059
674.489	12993
674.539	13030
674.589	12354
674.640	13100
674.690	12469
674.740	12624
674.791	14250
674.841	12602
674.891	13287
674.942	12114
674.992	12103
675.042	10744
675.092	10934
675.142	10542
675.193	10870
675.243	10224
675.293	11776
675.343	11551
675.393	11254
675.443	10981
675.493	10246
675.543	10742
675.593	11284
675.643	11149
675.693	11139
675.743	11740
675.793	10541
675.843	10745
675.893	11988
675.943	10948
675.993	10689
676.043	11817
676.093	11237
676.142	9996
676.192	11630
676.242	10308
676.292	9772
676.341	10481
676.391	11204
676.441	10314
676.491	11186
676.540	9514
676.590	9805
676.640	10175
676.689	10359
676.739	9594
676.789	9441
676.838	10251
676.888	9318
676.937	10017
676.987	9602
677.037	9286
677.086	8940
677.136	9004
677.185	9903
677.235	8548
677.284	10187
677.333	9224
677.383	9724
677.432	8262
677.482	9496
677.531	9867
677.580	9121
677.630	9499
677.679	8385
677.728	9508
677.778	8277
677.827	8670
677.876	8694
677.925	8519
677.975	9496
678.024	9507
678.073	9451
678.122	10013
678.171	10323
678.220	9575
678.269	11303
678.319	11363
678.368	11329
678.417	10396
678.466	10616
678.515	11200
678.564	10776
678.613	9742
678.662	9991
678.711	10576
678.760	9396
678.809	8756
678.857	8930
678.906	9320
678.955	9934
679.004	10567
679.053	9732
679.102	9470
679.151	9984
679.199	9340
679.248	8898
679.297	9527
679.346	9604
679.394	10021
679.443	8614
679.492	9002
679.540	9693
679.589	10282
679.638	8496
679.686	8011
679.735	9263
679.784	9793
679.832	9972
679.881	8254
679.929	8582
679.978	9005
680.026	9670
680.075	8890
680.123	9174
680.172	8363
680.220	7833
680.268	8755
680.317	8580
680.365	7794
680.414	8002
680.462	8622
680.510	8109
680.559	8543
680.607	8594
680.655	8887
680.703	7674
680.752	7435
680.800	8239
680.848	7570
680.896	7067
680.945	7546
680.993	7873
681.041	7852
681.089	7102
681.137	7559
681.185	7525
681.233	7704
681.258	7829
681.281	7857
681.329	7927
681.377	6906
681.380	7072
681.425	8321
681.473	9470
681.502	9193
681.521	8820
681.569	10079
681.617	9259
681.624	9367
681.665	9394
681.713	10552
681.745	9929
681.761	9499
681.809	9768
681.857	10599
681.867	10560
681.904	10066
681.952	10106
681.989	10968
682.000	11093
682.048	11300
682.096	10605
682.111	10821
682.143	11041
682.191	10437
682.233	11705
682.239	11794
682.286	11423
682.334	10931
682.354	11190
682.382	11387
682.430	13079
682.476	12511
682.477	12415
682.525	12724
682.572	11182
682.598	11825
682.620	12270
682.667	12686
682.715	13782
682.720	13807
682.763	13270
682.810	13673
682.841	13669
682.857	13526
682.905	13696
682.952	14093
682.963	14257
683.000	14508
683.047	13311
683.085	14264
683.095	14438
683.142	14146
683.190	15031
683.206	14725
683.237	13997
683.284	14865
683.328	15106
683.332	15050
683.379	15535
683.426	15513
683.449	15634
683.473	15633
683.521	14922
683.568	15414
683.571	15481
683.615	15442
683.662	16748
683.693	16486
683.709	16264
683.757	15964
683.804	16257
683.814	16510
683.851	17142
683.898	17448
683.936	17480
683.945	17430
683.992	17812
684.039	17573
684.057	17583
684.086	17437
684.133	18753
684.179	18223
684.180	18145
684.227	18976
684.274	18917
684.300	19018
684.321	19014
684.368	18431
684.415	18961
684.422	18982
684.462	18665
684.509	18620
684.543	18892
684.556	18974
684.603	19000
684.649	19472
684.665	19558
684.696	19681
684.743	19938
684.786	21210
684.790	21285
684.837	20898
684.883	21393
684.908	21890
684.930	22284
684.977	23524
685.023	22273
685.029	22393
685.070	22456
685.117	22458
685.150	23157
685.164	23515
685.210	23175
685.257	24935
685.272	24872
685.303	24280
685.350	24424
685.393	24030
685.396	24000
685.443	25235
685.490	25192
685.514	25713
685.536	25840
685.583	25407
685.629	24916
685.636	24870
685.675	24616
685.722	25117
685.757	25457
685.768	25543
685.815	26004
685.861	25304
685.878	25606
685.908	26230
685.954	26105
686.000	27600
686.000	27604
686.047	28533
686.093	29915
686.121	29660
686.139	28958
686.185	28140
686.232	27729
686.242	27598
686.278	27363
686.324	27370
686.363	26522
686.370	26379
686.416	26472
686.463	26679
686.484	26471
686.509	26338
686.555	26548
686.601	26756
686.606	26832
686.647	27181
686.693	27554
686.727	27067
686.739	26922
686.785	26581
686.831	27544
686.848	27556
686.877	27480
686.923	27096
686.969	27201
686.969	27200
687.015	27935
687.061	28524
687.090	28882
687.107	28786
687.153	28989
687.199	27745
687.211	27675
687.245	27868
687.291	28523
687.332	29315
687.336	29420
687.382	29890
687.428	29486
687.453	29570
687.474	29183
687.520	29405
687.565	28655
687.574	28546
687.611	28702
687.657	29051
687.695	29359
687.702	29519
687.748	31236
687.794	31930
687.816	32210
687.839	31768
687.885	30683
687.931	30236
687.937	29997
687.976	29450
688.022	30304
688.058	30478
688.067	30508
688.113	30541
688.158	29951
688.179	30279
688.204	30890
688.249	31039
688.295	32516
688.300	32550
688.340	32715
688.386	32773
688.421	32416
688.431	32231
688.477	32079
688.522	31974
688.542	31857
688.567	32063
688.613	31902
688.658	32132
688.663	32150
688.703	32490
688.749	32851
688.784	32741
688.794	32693
688.839	32649
688.884	32978
688.905	32656
688.930	32273
688.975	32639
689.020	32337
689.026	32367
689.065	33147
689.110	32475
689.146	33254
689.155	33340
689.201	32552
689.246	32013
689.267	31962
689.291	32292
689.336	32557
689.381	33053
689.388	33058
689.426	33203
689.471	33332
689.509	32804
689.516	32687
689.561	33114
689.606	32553
689.630	32171
689.651	32219
689.696	33076
689.741	33456
689.750	33604
689.785	34031
689.830	33680
689.871	33485
689.875	33475
689.920	33363
689.965	33166
689.992	32864
690.010	32935
690.054	33152
690.099	33619
690.112	33600
690.144	33464
690.189	33292
690.233	32692
690.233	32732
690.278	33348
690.323	33050
690.354	33095
690.367	33146
690.412	33295
690.457	33699
690.474	33586
690.501	33542
690.546	33484
690.590	33259
690.595	33215
690.635	33407
690.680	33552
690.716	33658
690.724	33762
690.769	33989
690.813	34830
690.836	34709
690.857	34962
690.902	36081
690.946	36475
690.957	36767
690.991	38519
691.035	39878
691.077	41535
691.080	41621
691.124	41701
691.168	42224
691.198	42212
691.213	41738
691.257	40162
691.301	38944
691.318	38262
691.346	37843
691.390	37250
691.434	36407
691.439	36269
691.478	36451
691.522	37390
691.559	37310
691.567	37386
691.611	37711
691.655	37946
691.680	38017
691.699	37939
691.743	38120
691.787	38021
691.800	37796
691.831	38104
691.875	38919
691.919	39729
691.921	39685
691.964	40090
692.008	40287
692.041	40338
692.052	40352
692.096	40585
692.139	40626
692.162	40319
692.183	40037
692.227	39870
692.271	39704
692.282	39569
692.315	39867
692.359	39862
692.402	39850
692.403	39920
692.447	39702
692.490	39773
692.523	39810
692.534	40120
692.578	40554
692.622	40907
692.643	41144
692.666	40909
692.709	40494
692.753	39770
692.763	39528
692.797	39523
692.840	39552
692.884	39316
692.884	39393
692.928	40031
692.971	39995
693.004	40371
693.015	40438
693.059	40217
693.102	39953
693.124	39759
693.146	39947
693.189	40032
693.233	40612
693.245	40612
693.276	41357
693.320	42073
693.363	42893
693.365	42842
693.407	43059
693.450	43142
693.485	43021
693.493	43117
693.537	43188
693.580	43427
693.605	43498
693.624	43997
693.667	44668
693.710	45593
693.725	45877
693.753	48992
693.797	53829
693.840	58282
693.845	58707
693.883	57079
693.926	54960
693.966	53108
693.970	52887
694.013	49317
694.056	45803
694.086	43423
694.099	43555
694.142	43896
694.185	43909
694.206	43705
694.229	43498
694.272	43453
694.315	42921
694.326	42774
694.358	43542
694.401	44404
694.444	45230
694.446	45175
694.487	45155
694.530	44921
694.566	44789
694.573	44652
694.616	42832
694.659	41431
694.686	40205
694.702	40178
694.745	40141
694.787	39996
694.806	39909
694.830	40394
694.873	40856
694.916	41612
694.926	41644
694.959	41693
695.002	41592
695.044	41588
695.046	41504
695.087	42518
695.130	43095
695.166	43639
695.172	43691
695.215	43281
695.258	43059
695.286	42632
695.301	42667
695.343	42761
695.386	42620
695.406	42494
695.428	42504
695.471	42198
695.514	42334
695.526	42173
695.556	42833
695.599	43987
695.641	44425
695.646	44429
695.684	44084
695.726	43553
695.766	42741
695.769	42852
695.811	43300
695.854	43560
695.886	43599
695.896	43556
695.938	42978
695.981	42473
696.005	42182
696.023	42670
696.065	43515
696.108	44220
696.125	44403
696.150	44522
696.192	44788
696.235	44726
696.245	44657
696.277	44378
696.319	43691
696.361	43181
696.365	43027
696.404	43257
696.446	43419
696.485	43445
696.488	43587
696.530	44045
696.572	44567
696.604	44897
696.614	44873
696.656	44102
696.698	43560
696.724	42956
696.740	42979
696.783	42896
696.825	42917
696.844	42796
696.867	43191
696.909	43626
696.951	44102
696.964	44174
696.992	43931
697.034	43257
697.076	42674
697.083	42475
697.118	43372
697.160	44316
697.202	45222
697.203	45134
697.244	44484
697.286	43772
697.323	42944
697.327	43092
697.369	43441
697.411	43856
697.442	44015
697.453	44288
697.494	45021
697.536	45742
697.562	46065
697.578	46147
697.620	46073
697.661	45928
697.682	45822
697.703	46431
697.744	47197
697.786	48142
697.801	48324
697.828	48616
697.869	48870
697.911	49195
697.921	49139
697.952	47978
697.994	46315
698.035	44601
698.040	44282
698.077	44674
698.118	44955
698.160	45290
698.160	45174
698.201	44751
698.243	44155
698.279	43546
698.284	43773
698.325	44851
698.367	45936
698.399	46597
698.408	46509
698.449	45608
698.491	44688
698.518	43946
698.532	44222
698.573	44757
698.614	45263
698.638	45430
698.656	45788
698.697	46361
698.738	46928
698.757	47068
698.779	47408
698.820	47829
698.862	48235
698.877	48265
698.903	48651
698.944	49063
698.985	49466
698.996	49451
699.026	48927
699.067	48022
699.116	46820
699.235	46423
699.354	45376
699.474	45866
699.593	49930
699.713	46769
699.832	45941
699.951	48158
700.070	46328
700.190	43803
700.309	44368
700.428	46006
700.547	43900
700.667	43771
700.786	45102
700.905	42002
701.024	45017
701.143	43541
701.262	40138
701.381	41328
701.500	43366
701.619	43510
701.738	41215
701.857	40870
701.976	39197
702.095	39956
702.214	43055
702.333	42995
702.452	41237
702.571	40750
702.690	40207
702.809	39948
702.928	38548
703.047	39348
703.165	39577
703.284	38437
703.403	38152
703.522	41868
703.640	39574
703.759	43701
703.878	50228
703.997	38291
704.115	38057
704.234	38586
704.353	37103
704.471	36892
704.590	35717
704.708	34939
704.827	34607
704.946	37002
705.064	38267
705.183	36729
705.301	44334
705.420	60895
705.538	53676
705.656	46011
705.775	44795
705.893	51645
706.012	54740
706.130	48905
706.249	47919
706.367	46651
706.485	48712
706.604	47007
706.722	47478
706.840	53376
706.958	52674
707.077	46529
707.195	44227
707.313	43138
707.431	42285
707.549	42621
707.668	43230
707.786	44356
707.904	41924
708.022	42732
708.140	42211
708.258	40895
708.376	42742
708.494	41241
708.612	46401
708.730	63936
708.848	59926
708.966	54353
709.084	51469
709.202	50634
709.320	52507
709.438	52178
709.556	52649
709.674	51303
709.791	51797
709.909	50088
710.027	50132
710.145	49354
710.263	49490
710.380	47741
710.498	47665
710.616	48100
710.733	48515
710.851	46899
710.969	48400
711.086	46662
711.204	45142
711.322	46128
711.439	45799
711.557	46460
711.674	43953
711.792	44386
711.909	44968
712.027	44339
712.144	43595
712.262	44584
712.379	48845
712.497	66851
712.614	66781
712.732	57563
712.849	54510
712.966	56049
713.084	62963
713.201	58214
713.318	57268
713.436	54618
713.553	56264
713.670	56345
713.787	58383
713.905	58852
714.022	55141
714.139	53950
714.256	57849
714.373	64559
714.490	81158
714.608	150288
714.725	521023
714.842	473976
714.959	71196
715.076	55622
715.193	52177
715.310	48964
715.427	48623
715.544	45494
715.661	48200
715.778	47912
715.895	52537
716.011	50491
716.128	47760
716.245	47425
716.362	49879
716.479	50986
716.596	45884
716.713	46977
716.829	44701
716.946	45118
717.063	43692
717.180	42623
717.296	42360
717.413	42944
717.530	42048
717.646	41721
717.763	43273
717.880	40164
717.996	40899
718.113	41569
718.229	41758
718.346	38719
718.462	40567
718.579	44253
718.695	59068
718.812	50344
718.928	47774
719.045	39298
719.161	38617
719.277	37330
719.394	37109
719.510	38568
719.626	40081
719.743	47178
719.859	48274
719.975	63432
720.092	168911
720.208	329681
720.324	61809
720.440	40860
720.557	44390
720.673	52054
720.789	65212
720.905	110118
721.021	49258
721.137	36835
721.253	37843
721.369	38099
721.486	39317
721.602	46264
721.718	35869
721.834	32128
721.950	35163
722.066	32541
722.181	32289
722.297	34461
722.413	31570
722.529	32841
722.645	31327
722.761	30895
722.877	32381
722.993	30801
723.108	33151
723.224	30849
723.340	32704
723.456	30154
723.571	31452
723.687	29249
723.803	30869
723.918	29017
724.034	30450
724.150	29633
724.265	32642
724.381	50983
724.497	55975
724.612	28986
724.728	27139
724.843	27798
724.959	31633
725.074	48482
725.190	49930
725.305	28959
725.421	28812
725.536	25002
725.651	25988
725.767	26414
725.882	25983
725.997	26113
726.113	26981
726.228	25941
726.343	25351
726.459	24521
726.574	26289
726.689	24876
726.804	24465
726.920	25979
727.035	25084
727.150	24900
727.265	24602
727.380	24025
727.495	24519
727.610	22517
727.725	24576
727.841	25186
727.956	27098
728.071	28214
728.186	23541
728.301	22268
728.416	24473
728.531	22205
728.645	21661
728.760	23100
728.875	23392
728.990	22266
729.105	22800
729.220	22265
729.335	23144
729.449	20828
729.564	20796
729.679	21009
729.794	20553
729.908	22747
730.023	21687
730.138	19673
730.253	20827
730.367	20501
730.482	20367
730.596	20986
730.711	21857
730.826	21960
730.940	21475
731.055	23264
731.169	19737
731.284	19201
731.398	20647
731.513	21875
731.627	20922
731.742	23511
731.856	25796
731.970	20968
732.085	24149
732.199	27171
732.313	35253
732.428	70237
732.542	180574
732.656	99622
732.771	29226
732.885	23450
732.999	22594
733.113	23193
733.227	21838
733.342	20175
733.456	21531
733.570	19123
733.684	19853
733.798	19862
733.912	20493
734.026	19388
734.140	20491
734.254	20940
734.368	30179
734.482	33022
734.596	18606
734.710	18541
734.824	18117
734.938	18688
735.052	19069
735.166	21177
735.280	19691
735.393	18552
735.507	17642
735.621	23217
735.735	34406
735.849	20291
735.962	18210
736.076	19573
736.190	18212
736.303	23607
736.417	26608
736.531	18107
736.644	18995
736.758	16549
736.872	17205
736.985	17909
737.099	17466
737.212	15544
737.326	17015
737.439	17410
737.553	16730
737.666	16480
737.780	16439
737.893	16485
738.007	15195
738.120	16374
738.233	16096
738.347	16085
738.460	15817
738.573	16417
738.687	17079
738.800	17229
738.913	19555
739.026	16683
739.140	16280
739.253	14995
739.366	15942
739.479	15286
739.592	14857
739.705	14931
739.818	15516
739.932	15114
740.045	15190
740.158	15567
740.271	15295
740.384	14715
740.497	14163
740.610	14903
740.723	15269
740.836	14562
740.949	14973
741.062	18177
741.174	17530
741.287	15198
741.400	14072
741.513	14522
741.626	15013
741.739	14774
741.851	13827
741.964	12858
742.077	14262
742.189	14255
742.302	14582
742.415	14393
742.527	14487
742.640	13461
742.753	13391
742.865	13071
742.978	14506
743.090	13816
743.203	13670
743.316	13977
743.428	13010
743.541	13422
743.653	13130
743.766	12961
743.878	13721
743.990	16978
744.103	15105
744.215	13300
744.327	14099
744.440	15805
744.552	20390
744.664	13870
744.777	12870
744.889	12197
745.001	13444
745.113	12191
745.226	12858
745.338	12204
745.450	13353
745.562	12971
745.674	12225
745.786	11999
745.898	12122
746.010	12082
746.122	12619
746.234	12611
746.347	11229
746.459	12376
746.570	11388
746.682	11667
746.794	13291
746.906	11166
747.018	12214
747.130	12995
747.242	11495
747.354	12469
747.466	12506
747.577	12073
747.689	12519
747.801	11296
747.913	11466
748.024	11437
748.136	11303
748.248	11102
748.359	11335
748.471	10285
748.583	11284
748.694	11307
748.806	13547
748.918	14449
749.029	13191
749.141	13044
749.252	13003
749.364	13156
749.475	21549
749.587	15808
749.698	10881
749.809	11619
749.921	10919
750.032	11068
750.144	10612
750.255	11218
750.366	10747
750.478	10340
750.589	11355
750.700	12064
750.811	12244
750.923	13288
751.034	23828
751.145	21584
751.256	12216
751.367	10713
751.479	10398
751.590	11369
751.701	11718
751.812	10277
751.923	10875
752.034	9705
752.145	10889
752.256	10254
752.367	10415
752.478	10187
752.589	10675
752.700	10707
752.811	9343
752.922	10214
753.032	11009
753.143	11965
753.254	10110
753.365	10483
753.476	9960
753.586	9188
753.697	9904
753.808	9399
753.919	9808
754.029	10289
754.140	9577
754.251	9661
754.361	10294
754.472	9847
754.582	10204
754.693	9531
754.804	10150
754.914	9344
755.025	9305
755.135	10016
755.246	9860
755.356	9075
755.466	9690
755.577	9634
755.687	8864
755.798	7886
755.908	9543
756.018	9332
756.129	9457
756.239	9541
756.349	10030
756.460	8859
756.570	10324
756.680	9763
756.790	10079
756.900	10508
757.011	9169
757.121	9845
757.231	8599
757.341	8792
757.451	8232
757.561	9150
757.671	9178
757.781	8062
757.891	9922
758.001	9014
758.111	9469
758.221	10098
758.331	10779
758.441	9940
758.551	13393
758.661	11810
758.771	9890
758.880	9216
758.990	10741
759.100	9929
759.210	9826
759.320	10830
759.429	10498
759.539	9998
759.649	9933
759.758	10625
759.868	11261
759.978	10007
760.087	10882
760.197	10192
760.307	10414
760.416	10468
760.526	9809
760.635	10798
760.745	10699
760.854	10743
760.964	11949
761.073	10839
761.182	11134
761.292	11225
761.401	11313
761.511	9599
761.620	9972
761.729	10505
761.839	10157
761.948	10484
762.057	10079
762.166	9851
762.276	8763
762.385	9786
762.494	10161
762.603	9945
762.712	10701
762.822	10670
762.931	10887
763.040	9890
763.149	9403
763.258	9166
763.367	11015
763.476	10696
763.585	10331
763.694	10236
763.803	10378
763.912	11021
764.021	10243
764.130	10290
764.238	10562
764.347	10568
764.456	11316
764.565	11246
764.674	12631
764.783	12383
764.891	11256
765.000	12782
765.109	12229
765.217	14741
765.326	15950
765.435	17621
765.543	17675
765.652	18427
765.761	22117
765.869	29871
765.978	42331
766.086	70083
766.195	134012
766.303	326574
766.412	808389
766.520	703300
766.629	223725
766.737	86823
766.846	50826
766.954	36062
767.062	29415
767.171	24657
767.279	20178
767.387	17703
767.496	17072
767.604	15227
767.712	15252
767.820	14200
767.928	13886
768.037	13275
768.145	13738
768.253	13628
768.361	12684
768.469	12878
768.577	12929
768.685	13935
768.793	14180
768.901	13538
769.009	15347
769.117	15170
769.225	18362
769.333	24079
769.441	32318
769.549	54265
769.657	117876
769.765	362086
769.873	699539
769.981	269773
770.088	70307
770.196	36846
770.304	26743
770.412	21993
770.519	18792
770.627	17132
770.735	14741
770.842	14128
770.950	13637
771.058	13409
771.165	13344
771.273	12837
771.380	12678
771.488	12822
771.595	13708
771.703	11390
771.810	11942
771.918	11137
772.025	13439
772.133	12424
772.240	12470
772.348	12189
772.455	12205
772.562	11839
772.670	11758
772.777	12082
772.884	10686
772.991	10869
773.099	11492
773.206	10344
773.313	11495
773.420	10670
773.528	10672
773.635	10624
773.742	10801
773.849	10548
773.956	10789
774.063	9882
774.170	11320
774.277	12179
774.384	10025
774.491	10812
774.598	11175
774.705	11656
774.812	14165
774.919	11183
775.026	11971
775.133	11017
775.239	10359
775.346	10989
775.453	11154
775.560	10282
775.667	10596
775.773	10494
775.880	11638
775.987	9647
776.093	10393
776.200	10434
776.307	9131
776.413	10701
776.520	11342
776.627	10818
776.733	10449
776.840	8934
776.946	11712
777.053	9999
777.159	10453
777.266	8914
777.372	10589
777.478	10120
777.585	11052
777.691	9124
777.798	10495
777.904	10639
778.010	12333
778.117	12324
778.223	10366
778.329	9891
778.435	9393
778.542	10456
778.648	10026
778.754	7734
778.860	9996
778.966	9707
779.072	9442
779.178	8938
779.284	8948
779.391	8912
779.497	8579
779.603	10262
779.708	8718
779.815	11747
779.920	18380
780.026	29157
780.132	10909
780.238	9413
780.344	9243
780.450	9761
780.556	8079
780.661	9526
780.767	9755
780.873	7224
780.979	8533
781.085	8395
781.190	9200
781.296	8241
781.402	8926
781.507	7270
781.613	7157
781.719	7678
781.824	8571
781.930	8202
782.035	8534
782.141	8826
782.246	8280
782.352	8519
782.457	8178
782.563	8275
782.668	8604
782.773	8810
782.879	8664
782.984	8875
783.090	10006
783.195	11987
783.300	10573
783.405	8732
783.511	7876
783.616	8888
783.721	8801
783.826	7968
783.932	9202
784.037	9146
784.142	8751
784.247	7727
784.352	8482
784.457	8049
784.562	7930
784.667	8471
784.772	7858
784.877	8629
784.982	7885
785.087	6770
785.192	9061
785.297	7507
785.402	7840
785.507	8435
785.611	8260
785.716	7944
785.821	8387
785.926	7717
786.031	8001
786.135	7156
786.240	8152
786.345	6955
786.450	7745
786.554	6925
786.659	6658
786.763	6550
786.868	8359
786.973	8389
787.077	7401
787.182	7187
787.286	8110
787.391	6376
787.495	7224
787.600	7086
787.704	6416
787.809	7762
787.913	7031
788.017	7054
788.122	8310
788.226	6457
788.330	6465
788.435	7273
788.539	6715
788.643	6212
788.747	6777
788.852	6425
788.956	5889
789.060	6973
789.164	7340
789.268	6245
789.372	7373
789.476	6676
789.580	6557
789.684	5539
789.788	6833
789.892	5378
789.996	7652
790.100	6410
790.204	6011
790.308	6826
790.412	6088
790.516	6840
790.620	6365
790.724	7329
790.828	6506
790.931	6995
791.035	8538
791.139	6168
791.242	5623
791.346	7370
791.450	6483
791.554	6560
791.657	5820
791.761	7562
791.864	6950
791.968	6468
792.072	6779
792.175	6879
792.279	5755
792.382	7037
792.486	7259
792.589	6410
792.693	6930
792.796	5185
792.899	6853
793.003	7163
793.106	4546
793.209	6244
793.313	7573
793.416	5188
793.519	7472
793.623	9744
793.726	12053
793.829	6949
793.932	6504
794.035	5561
794.138	6780
794.242	7216
794.345	7719
794.448	7679
794.551	10363
794.654	12226
794.757	16172
794.860	8771
794.963	7439
795.066	5082
795.169	6851
795.272	5069
795.375	6349
795.477	4937
795.580	6118
795.683	5314
795.786	5914
795.889	4825
795.991	6357
796.094	7035
796.197	4558
796.300	7218
796.402	5287
796.505	5252
796.608	5398
796.710	6163
796.813	5435
796.915	6013
797.018	6051
797.120	5858
797.223	5245
797.326	6856
797.428	5218
797.530	5930
797.633	5485
797.735	7012
797.838	9991
797.940	8531
798.042	4585
798.145	4673
798.247	5761
798.349	4145
798.452	5475
798.554	5133
798.656	4706
798.758	6214
798.860	5232
798.962	5244
799.065	4993
799.167	4693
799.269	6024
799.371	6257
799.473	6704
799.575	6245
799.677	7172
799.779	7885
799.881	7293
799.983	6372
800.085	5871
800.187	5234
800.289	4607
800.390	5788
800.492	6580
800.594	6166
800.696	5004
800.798	4034
800.899	5015
801.001	4179
801.103	4815
801.205	4710
801.306	4459
801.408	4303
801.509	5164
801.611	5240
801.713	4355
801.814	4301
801.916	4779
802.017	4565
802.119	4472
802.220	5036
802.322	4328
802.423	7011
802.525	4407
802.626	4833
802.727	5686
802.829	6171
802.930	2902
803.031	5420
803.133	3527
803.234	4711
803.335	4263
803.436	3699
803.538	4488
803.639	3846
803.740	4992
803.841	4681
803.942	4746
804.043	4933
804.144	4259
804.245	3982
804.346	4263
804.447	5271
804.548	5931
804.649	7099
804.750	5025
804.851	3903
804.952	4233
805.053	5044
805.154	3391
805.255	6164
805.355	4212
805.456	3077
805.557	3871
805.658	3920
805.758	5279
805.859	4317
805.960	3895
806.061	3983
806.161	3722
806.262	3617
806.362	4274
806.463	3974
806.564	5056
806.664	4536
806.765	5321
806.865	5322
806.966	4412
807.066	3638
807.166	5444
807.267	4827
807.367	3836
807.468	4659
807.568	3672
807.668	4080
807.769	4299
807.869	3402
807.969	5184
808.069	4476
808.170	3987
808.270	3666
808.370	4975
808.470	6112
808.570	4487
808.670	4012
808.770	3991
808.870	3870
808.970	4291
809.070	3486
809.170	4418
809.271	5061
809.370	3580
809.470	3907
809.570	4314
809.670	3117
809.770	4715
809.870	4890
809.970	3660
810.070	3700
810.169	5100
810.269	2847
810.369	5317
810.469	3122
810.568	3997
810.668	3485
810.768	3593
810.867	4723
810.967	3529
811.066	3235
811.166	3867
811.265	4511
811.365	3766
811.464	3656
811.564	4026
811.663	4295
811.763	2981
811.862	4177
811.962	4662
812.061	3828
812.160	4115
812.260	4865
812.359	5938
812.458	8411
812.557	19327
812.657	26496
812.756	10688
812.855	4184
812.954	4593
813.053	4658
813.153	4600
813.252	3434
813.351	5576
813.450	4554
813.549	3949
813.648	4147
813.747	3961
813.846	4641
813.945	4291
814.044	4469
814.143	4677
814.242	5263
814.341	3740
814.439	4561
814.538	4808
814.637	4346
814.736	4066
814.835	5344
814.933	4317
815.032	5459
815.131	5039
815.229	5900
815.328	7120
815.427	6653
815.525	6622
815.624	6476
815.722	4997
815.821	6663
815.919	6893
816.018	6606
816.116	7628
816.215	6200
816.313	6828
816.412	6776
816.510	7817
816.609	9044
816.707	8855
816.805	8656
816.904	8935
817.002	10468
817.100	11969
817.198	12303
817.296	13329
817.395	14757
817.493	16759
817.591	19354
817.689	25918
817.787	33600
817.885	50758
817.983	81667
818.081	155981
818.179	325397
818.277	635821
818.375	553907
818.473	237546
818.571	112136
818.669	74811
818.767	63310
818.865	61251
818.963	70951
819.061	96665
819.158	150123
819.256	273571
819.354	514680
819.452	776325
819.549	599322
819.647	303864
819.745	155563
819.842	94449
819.940	64465
820.038	47896
820.135	36941
820.233	31023
820.330	25779
820.428	21154
820.525	20424
820.623	17173
820.720	14897
820.818	13628
820.915	13076
821.012	11395
821.110	10130
821.207	11807
821.304	9248
821.402	9074
821.499	9723
821.596	9788
821.693	8521
821.791	8992
821.888	9360
821.985	13979
822.082	11477
822.179	8327
822.276	6518
822.373	6650
822.470	6035
822.567	6341
822.664	5911
822.761	6980
822.858	5215
822.955	5324
823.052	4935
823.149	5830
823.246	5686
823.343	4815
823.440	4989
823.536	5280
823.633	4860
823.730	4554
823.827	5139
823.923	4477
824.020	5856
824.117	5580
824.213	4147
824.310	4469
824.407	4511
824.503	4995
824.600	4864
824.696	4559
824.793	5495
824.889	3859
824.986	4740
825.082	4015
825.179	4567
825.275	5065
825.371	3740
825.468	4420
825.564	2465
825.660	4636
825.757	4237
825.853	5251
825.949	3577
826.045	3745
826.142	4296
826.238	4183
826.334	4758
826.430	3663
826.526	3145
826.622	3232
826.718	3517
826.814	3898
826.910	4766
827.006	3299
827.102	3107
827.198	4914
827.294	4128
827.390	3441
827.486	3721
827.582	2707
827.678	2588
827.774	4006
827.869	2663
827.965	4070
828.061	2935
828.157	4026
828.252	3597
828.348	3496
828.444	3887
828.539	2957
828.635	3144
828.731	4746
828.826	2710
828.922	4253
829.017	3622
829.113	3568
829.208	3449
829.304	3530
829.399	3895
829.495	3254
829.590	3767
829.685	2977
829.781	3479
829.876	3829
829.971	3022
830.066	3616
830.162	3447
830.257	3185
830.352	3487
830.447	5011
830.543	3579
830.638	2784
830.733	3954
830.828	2439
830.923	4435
831.018	3371
831.113	3808
831.208	3052
831.303	2884
831.398	2750
831.493	3197
831.588	4387
831.683	2633
831.778	3374
831.873	2301
831.967	4028
832.062	2353
832.157	2567
832.252	3368
832.346	3963
832.441	4155
832.536	6618
832.631	12390
832.725	10065
832.820	2785
832.914	2988
833.009	3527
833.104	4181
833.198	5189
833.293	3619
833.387	3057
833.482	4238
833.576	3127
833.670	3577
833.765	2937
833.859	2885
833.954	3900
834.048	3029
834.142	3157
834.237	2770
834.331	3344
834.425	4022
834.519	2860
834.613	3756
834.708	2481
834.802	3284
834.896	2383
834.990	3132
835.084	3792
835.178	2520
835.272	3149
835.366	3246
835.460	4056
835.554	2529
835.648	2980
835.742	2912
835.836	3117
835.930	1808
836.024	3393
836.117	4630
836.211	2576
836.305	5736
836.399	5503
836.493	3281
836.586	3948
836.680	1856
836.774	1477
836.867	4632
836.961	1475
837.055	1633
837.148	2426
837.242	2943
837.335	2297
837.429	3172
837.522	1930
837.616	3228
837.709	6400
837.803	4720
837.896	3218
837.989	3708
838.083	5139
838.176	8545
838.269	7350
838.363	3821
838.456	3067
838.549	5345
838.642	7346
838.735	14163
838.829	6242
838.922	2728
839.015	2533
839.108	2898
839.201	2846
839.294	3488
839.387	3302
839.480	3118
839.573	4597
839.666	5885
839.759	2794
839.852	2106
839.945	2766
840.038	2584
840.131	2403
840.223	2463
840.316	3302
840.409	2292
840.502	2364
840.594	3963
840.687	2291
840.780	2966
840.873	2435
840.965	2656
841.058	4178
841.150	8674
841.243	4878
841.336	3493
841.428	2654
841.521	1762
841.613	2835
841.706	3127
841.798	2444
841.890	2881
841.983	2479
842.075	2432
842.167	2793
842.260	3573
842.352	3858
842.444	5023
842.537	8813
842.629	11883
842.721	3917
842.813	3384
842.905	2738
842.997	3025
843.090	3810
843.182	5819
843.274	7624
843.366	16909
843.458	31558
843.550	20264
843.642	4786
843.734	4213
843.826	3742
843.918	5162
844.009	2842
844.101	2334
844.193	2588
844.285	2164
844.377	2372
844.469	3192
844.560	2602
844.652	2591
844.744	2588
844.835	2283
844.927	3299
845.019	3566
845.110	2874
845.202	2073
845.293	2745
845.385	2573
845.476	2665
845.568	2946
845.659	2353
845.751	2341
845.842	2270
845.934	2756
846.025	1867
846.116	3598
846.208	1174
846.299	2176
846.390	3358
846.482	2316
846.573	4022
846.664	4239
846.755	5866
846.846	5045
846.937	2070
847.029	2624
847.120	2431
847.211	2570
847.302	3447
847.393	1663
847.484	3246
847.575	1451
847.666	1894
847.757	2336
847.847	2904
847.938	3145
848.029	2274
848.120	1768
848.211	2140
848.302	2083
848.392	2218
848.483	2866
848.574	1068
848.664	3047
848.755	1974
848.846	2715
848.936	1407
849.027	1928
849.118	2362
849.208	2536
849.299	2535
849.389	4172
849.480	5822
849.570	9226
849.661	15687
849.751	25606
849.841	9977
849.932	3231
850.022	2070
850.112	2988
850.203	1815
850.293	1961
850.383	2318
850.474	1886
850.564	2719
850.654	1913
850.744	2520
850.834	2651
850.924	2322
851.014	1666
851.104	2209
851.194	2005
851.284	3673
851.374	4652
851.464	3190
851.554	3391
851.644	3011
851.734	4566
851.824	3299
851.914	3300
852.004	3516
852.094	2347
852.183	2400
852.273	2961
852.363	2248
852.452	2751
852.542	2302
852.632	1675
852.721	2348
852.811	1644
852.901	2817
852.990	2914
853.080	3378
853.169	3821
853.259	1839
853.348	2673
853.438	3217
853.527	4546
853.617	4389
853.706	7288
853.795	11956
853.885	25235
853.974	47068
854.063	85474
854.152	133692
854.242	47901
854.331	9739
854.420	4753
854.509	3573
854.598	4783
854.687	4239
854.777	4144
854.866	2524
854.955	3406
855.044	1434
855.133	2518
855.222	2053
855.311	1845
855.400	2872
855.488	2029
855.577	2134
855.666	1635
855.755	2940
855.844	2294
855.933	2246
856.021	3050
856.110	2181
856.199	1297
856.288	971
856.376	1971
856.465	1752
856.554	2400
856.642	2228
856.731	2887
856.819	2663
856.908	1823
856.996	2118
857.085	1820
857.173	2289
857.262	2127
857.350	1836
857.438	1432
857.527	2223
857.615	1475
857.703	2141
857.792	1776
857.880	1701
857.968	1554
858.056	2513
858.145	1941
858.233	2463
858.321	1962
858.409	2529
858.497	1981
858.585	2369
858.673	2131
858.761	2243
858.849	1807
858.937	1875
859.025	3171
859.113	2252
859.201	2355
859.289	2362
859.377	1931
859.465	1620
859.552	1991
859.640	1899
859.728	2517
859.816	1988
859.903	3265
859.991	2293
860.079	1394
860.166	1989
860.254	1997
860.342	1616
860.429	1666
860.517	1089
860.604	2242
860.692	1806
860.779	1626
860.867	2078
860.954	2064
861.042	2893
861.129	3602
861.216	2477
861.304	1649
861.391	2137
861.478	2953
861.565	2056
861.653	2731
861.740	1329
861.827	1822
861.914	2940
862.001	1922
862.089	2402
862.176	1614
862.263	1178
862.350	2669
862.437	1444
862.524	2032
862.611	2086
862.698	2417
862.785	1612
862.871	2326
862.958	2067
863.045	1978
863.132	2325
863.219	2788
863.306	1665
863.392	2768
863.479	2077
863.566	2432
863.652	2438
863.739	2324
863.826	1757
863.912	2441
863.999	1438
864.086	1760
864.172	1724
864.259	2529
864.345	2082
864.432	2280
864.518	1475
864.604	2167
864.691	1930
864.777	3018
864.863	2482
864.950	3364
865.036	2881
865.122	4743
865.209	4431
865.295	3777
865.381	4571
865.467	3519
865.553	4920
865.639	5375
865.726	7505
865.812	14125
865.898	25208
865.984	37137
866.070	69187
866.156	71889
866.242	18002
866.328	6404
866.414	3794
866.499	4195
866.585	4244
866.671	3275
866.757	3641
866.843	3942
866.928	2883
867.014	2433
867.100	3725
867.186	3720
867.271	3802
867.357	5616
867.442	5463
867.528	4410
867.614	2544
867.699	3097
867.785	3167
867.870	2934
867.956	2954
868.041	3423
868.127	4437
868.212	4405
868.297	4059
868.383	3463
868.468	4362
868.553	7471
868.639	8834
868.724	16248
868.809	14670
868.894	3866
868.979	2361
869.065	3443
869.150	2511
869.235	2501
869.320	2339
869.405	2642
869.490	2654
869.575	2730
869.660	1609
869.745	2942
869.830	2281
869.915	2432
870.000	1757
870.085	2995
870.169	2516
870.254	3230
870.339	1903
870.424	2384
870.509	2735
870.593	2438
870.678	2607
870.763	2466
870.847	2241
870.932	2593
871.016	2013
871.101	2836
871.186	2184
871.270	3011
871.355	1973
871.439	2205
871.523	2719
871.608	1870
871.692	1711
871.777	3151
871.861	2491
871.945	1904
872.030	1876
872.114	2391
872.198	2640
872.282	2560
872.367	1755
872.451	2621
872.535	1793
872.619	2093
872.703	1323
872.787	1838
872.871	1471
872.955	2833
873.039	1665
873.123	3116
873.207	2687
873.291	2281
873.375	1728
873.459	1973
873.543	1934
873.627	2608
873.711	2099
873.794	3267
873.878	1379
873.962	1918
874.045	2336
874.129	2506
874.137	2452
874.213	1915
874.245	2021
874.296	2194
874.352	1085
874.380	548
874.460	2488
874.464	2566
874.547	2006
874.568	2142
874.631	2548
874.676	2423
874.714	2308
874.784	2416
874.798	2444
874.881	3001
874.892	2812
874.965	1497
874.999	1694
875.048	1966
875.107	1344
875.131	1084
875.215	1750
875.215	1750
875.298	1931
875.323	2033
875.381	2279
875.430	2098
875.465	2007
875.538	2048
875.548	2032
875.631	1797
875.646	1745
875.714	1582
875.753	1641
875.798	1722
875.861	1722
875.881	1726
875.964	2010
875.968	2045
876.047	2606
876.076	2378
876.130	1949
876.183	1764
876.213	1661
876.291	2130
876.296	2171
876.379	1243
876.398	1448
876.462	1901
876.506	1419
876.545	1092
876.613	1600
876.628	1715
876.711	1286
876.721	1307
876.794	1460
876.828	1421
876.877	1225
876.935	1775
876.960	2103
877.043	1253
877.043	1258
877.125	2190
877.150	2118
877.208	1992
877.258	2363
877.291	2517
877.365	1040
877.374	907
877.456	2239
877.472	2135
877.539	1336
877.579	1714
877.622	2247
877.687	1916
877.704	1793
877.787	1526
877.794	1547
877.869	2108
877.901	2235
877.952	2037
878.008	1145
878.034	940
878.115	1981
878.117	1991
878.199	1238
878.222	1279
878.282	1694
878.329	1798
878.364	1743
878.437	1698
878.447	1692
878.529	862
878.544	983
878.611	1607
878.651	1720
878.694	1875
878.758	1991
878.776	1966
878.858	1226
878.865	1229
878.941	1402
878.972	1126
879.023	688
879.078	1090
879.105	1327
879.185	2484
879.187	2498
879.269	1527
879.292	1358
879.351	1144
879.399	1111
879.433	1049
879.506	1439
879.516	1494
879.598	864
879.613	893
879.680	941
879.720	1193
879.762	1374
879.827	623
879.844	486
879.926	1025
879.933	1111
880.007	1992
880.040	1929
880.089	1635
880.147	1905
880.171	2158
880.253	4074
880.254	4085
880.335	4477
880.360	4827
880.417	6439
880.467	9321
880.499	10844
880.574	11462
880.580	11413
880.662	3572
880.680	2871
880.744	818
880.787	593
880.825	522
880.893	786
880.907	877
880.989	909
881.000	924
881.070	1049
881.106	1029
881.152	747
881.213	694
881.233	723
881.315	478
881.319	506
881.396	1195
881.426	1315
881.478	1343
881.532	1343
881.559	1362
881.639	943
881.641	931
881.722	849
881.745	932
881.803	916
881.852	669
881.885	661
881.958	957
881.966	1012
882.047	1790
882.064	1880
882.129	1758
882.171	1913
882.210	2241
882.277	3119
882.291	3259
882.372	1432
882.383	1387
882.454	1141
882.489	1160
882.535	1126
882.596	1120
882.616	1053
882.697	438
882.702	419
882.778	882
882.808	1141
882.859	1047
882.914	589
882.940	475
883.020	723
883.021	727
883.102	1196
883.127	1353
883.183	1322
883.233	1235
883.264	1124
883.339	728
883.345	737
883.426	983
883.445	1107
883.507	1263
883.551	1023
883.587	715
883.657	509
883.668	510
883.749	745
883.763	766
883.830	1023
883.869	763
883.910	221
883.975	450
883.991	604
884.072	577
884.081	618
884.152	494
884.187	373
884.233	590
884.292	866
884.314	831
884.394	378
884.398	375
884.475	412
884.504	445
884.555	663
884.610	639
884.636	550
884.716	764
884.716	764
884.797	703
884.821	604
884.877	947
884.927	1152
884.958	856
885.033	565
885.038	585
885.118	687
885.139	714
885.199	565
885.244	611
885.279	870
885.350	1058
885.359	1003
885.439	632
885.456	537
885.520	812
885.561	1250
885.600	1098
885.667	266
885.680	284
885.760	889
885.773	941
885.840	187
885.878	-86
885.920	451
885.984	989
886.000	898
886.080	605
886.089	553
886.160	615
886.195	963
886.240	1250
886.300	1018
886.320	857
886.400	576
886.406	564
886.480	680
886.511	669
886.560	712
886.616	633
886.640	558
886.720	729
886.722	729
886.800	1009
886.827	1182
886.879	568
886.932	-183
886.959	123
887.038	1218
887.039	1208
887.119	314
887.143	105
887.198	581
887.248	937
887.278	552
887.354	-331
887.358	-276
887.437	932
887.459	1250
887.517	755
887.564	336
887.596	306
887.669	271
887.676	301
887.755	692
887.774	804
887.835	944
887.880	1068
887.914	849
887.985	242
887.994	266
888.073	677
888.090	734
888.153	102
888.195	-291
888.232	-168
888.300	190
888.311	252
888.391	551
888.405	623
888.470	606
888.510	581
888.549	289
888.615	-112
888.628	-21
888.708	472
888.720	559
888.787	53
888.825	-243
888.866	62
888.930	576
888.945	490
889.024	32
889.035	-24
889.103	-1
889.140	26
889.182	-15
889.245	-48
889.261	102
889.340	806
889.349	896
889.419	348
889.454	66
889.498	66
889.559	100
889.577	92
889.656	82
889.664	89
889.735	326
889.768	441
889.814	362
889.873	267
889.978	267
890.083	20
890.187	964
890.292	452
890.397	55
890.501	602
890.606	356
890.710	515
890.815	210
890.919	1418
891.024	699
891.128	54
891.233	653
891.337	274
891.442	585
891.546	5
891.650	958
891.755	155
891.859	1200
891.963	236
892.068	1372
892.172	-556
892.276	70
892.380	154
892.484	834
892.589	805
892.693	942
892.797	538
892.901	681
893.005	272
893.109	705
893.213	120
893.317	581
893.421	324
893.525	-18
893.629	859
893.733	604
893.837	484
893.941	635
894.045	852
894.148	720
894.252	-140
894.356	1006
894.460	-12
894.564	-155
894.667	318
894.771	319
894.875	3
894.978	705
895.082	254
895.186	323
895.289	-218
895.393	938
895.496	765
895.600	310
895.703	321
895.807	585
895.910	392
896.014	615
896.117	38
896.221	415
896.324	354
896.427	147
896.531	33
896.634	747
896.737	606
896.840	118
896.944	6
897.047	584
897.150	208
897.253	-282
897.356	1055
897.460	-217
897.563	573
897.666	967
897.769	178
897.872	603
897.975	261
898.078	189
898.181	694
898.284	139
898.387	41
898.490	636
898.593	-75
898.695	348
898.798	-342
898.901	156
899.004	159
899.107	644
899.209	181
899.312	421
899.415	-394
899.518	1185
899.620	-507
899.723	738
899.826	507
899.928	737
900.031	353
900.133	-345
900.236	-296
900.338	108
900.441	453
900.543	-295
900.646	-306
900.748	535
900.851	-158
900.953	704
901.055	-250
901.158	218
901.260	55
901.362	917
901.465	-65
901.567	-91
901.669	438
901.771	695
901.873	-172
901.976	713
902.078	712
902.180	-409
902.282	-603
902.384	173
902.486	-211
902.588	394
902.690	-94
902.792	-560
902.894	-124
902.996	1393
903.098	29
903.200	527
903.302	565
903.404	663
903.505	-589
903.607	332
903.709	261
903.811	59
903.913	-285
904.014	963
904.116	-151
904.218	-94
904.319	719
904.421	878
904.523	-280
904.624	146
904.726	-298
904.827	922
904.929	173
905.030	400
905.132	154
905.233	1176
905.335	571
905.436	646
905.537	-184
905.639	243
905.740	98
905.841	630
905.943	580
906.044	41
906.145	-55
906.247	591
906.348	676
906.449	1004
906.550	66
906.651	-132
906.752	790
906.854	282
906.955	240
907.056	133
907.157	613
907.258	475
907.359	-152
907.460	366
907.561	309
907.662	447
907.762	124
907.863	517
907.964	-380
908.065	863
908.166	367
908.267	-542
908.367	-31
908.468	-74
908.569	1
908.670	412
908.770	1043
908.871	217
908.971	372
909.072	381
909.173	730
909.273	672
909.374	-45
909.474	976
909.575	-265
909.675	60
909.776	76
909.876	-270
909.977	-78
910.077	1031
910.177	-37
910.278	836
910.378	-114
910.478	-153
910.579	522
910.679	228
910.779	367
910.879	356
910.980	915
911.080	1015
911.180	-886
911.280	955
911.380	-29
911.480	903
911.580	278
911.680	-139
911.780	81
911.880	894
911.980	-26
912.080	484
912.180	-36
912.280	426
912.380	-255
912.480	-73
912.580	297
912.679	-349
912.779	-38
912.879	273
912.979	-156
913.078	813
913.178	61
913.278	-125
913.377	-244
913.477	863
913.577	-114
913.676	546
913.776	-745
913.875	751
913.975	370
914.074	613
914.174	-269
914.273	164
914.373	1180
914.472	23
914.572	-145
914.671	172
914.770	85
914.870	29
914.969	-227
915.068	673
915.167	63
915.267	-196
915.366	-322
915.465	768
915.564	149
915.663	579
915.763	-369
915.862	139
915.961	364
916.060	582
916.159	-232
916.258	807
916.357	-174
916.456	377
916.555	549
916.654	1053
916.752	-195
916.851	721
916.950	1148
917.049	991
917.148	-137
917.247	1505
917.345	-400
917.444	516
917.543	121
917.642	-24
917.740	-323
917.839	-264
917.937	411
918.036	549
918.135	-393
918.233	308
918.332	-41
918.430	204
918.529	-820
918.627	-216
918.726	-224
918.824	-218
918.923	-340
919.021	-103
919.119	147
919.218	-45
919.316	-440
919.414	894
919.512	135
919.611	-28
919.709	-740
919.807	-65
919.905	507
920.003	-410
920.102	119
920.200	263
920.298	-213
920.396	568
920.494	382
920.592	380
920.690	-460
920.788	430
920.886	144
920.984	719
921.082	-456
921.180	230
921.277	245
921.375	-46
921.473	-303
921.571	376
921.669	36
921.766	551
921.864	108
921.962	599
922.060	55
922.157	263
922.255	862
922.352	617
922.450	877
922.548	10
922.645	723
922.743	754
922.840	-88
922.938	855
923.035	1166
923.133	794
923.230	674
923.327	1069
923.425	1422
923.522	1679
923.619	103
923.717	906
923.814	1524
923.911	373
924.008	1032
924.106	1052
924.203	640
924.300	8
924.397	-121
924.494	1219
924.591	430
924.688	891
924.786	824
924.883	724
924.979	602
925.077	1319
925.173	1492
925.270	327
925.367	557
925.464	924
925.561	778
925.658	1048
925.755	-238
925.852	497
925.948	765
926.045	1141
926.142	358
926.239	1205
926.335	777
926.432	1465
926.529	1463
926.625	406
926.722	716
926.818	831
926.915	655
927.011	1061
927.108	463
927.204	1116
927.301	-212
927.397	362
927.494	90
927.590	519
927.687	165
927.783	942
927.879	620
927.976	576
928.072	583
928.168	828
928.264	151
928.361	613
928.457	614
928.553	710
928.649	438
928.745	670
928.841	279
928.937	731
929.033	231
929.129	1146
929.225	744
929.321	496
929.417	303
929.513	500
929.609	794
929.705	488
929.801	847
929.897	683
929.993	841
930.089	402
930.184	713
930.280	939
930.376	559
930.471	583
930.567	596
930.663	1144
930.758	415
930.854	493
930.950	177
931.045	844
931.141	-533
931.236	886
931.332	335
931.427	960
931.523	689
931.618	741
931.714	-370
931.809	420
931.905	1043
932.000	-132
932.095	647
932.191	1458
932.286	378
932.381	481
932.476	167
932.572	759
932.667	845
932.762	1232
932.857	1032
932.952	888
933.047	143
933.142	546
933.237	434
933.332	1152
933.427	611
933.522	878
933.617	247
933.712	1157
933.807	150
933.902	-774
933.997	486
934.092	1047
934.187	435
934.282	1002
934.376	600
934.471	213
934.566	313
934.661	396
934.755	236
934.850	422
934.945	161
935.039	166
935.134	359
935.228	-1
935.323	714
935.417	-42
935.512	-357
935.606	327
935.701	435
935.795	1199
935.890	50
935.984	138
936.079	569
936.173	630
936.267	277
936.362	317
936.456	521
936.550	391
936.644	449
936.738	589
936.833	-457
936.927	506
937.021	587
937.115	379
937.209	-745
937.303	1305
937.397	252
937.491	288
937.585	1142
937.679	300
937.773	813
937.867	977
937.961	235
938.055	590
938.149	650
938.243	709
938.337	29
938.430	-47
938.524	509
938.618	119
938.712	94
938.805	1197
938.899	-420
938.993	492
939.086	484
939.180	-107
939.274	471
939.367	557
939.461	-181
939.554	742
939.648	-99
939.741	-283
939.835	-171
939.928	192
940.022	341
940.115	-452
940.208	85
940.302	1315
940.395	101
940.488	-834
940.582	206
940.675	-93
940.768	-149
940.861	443
940.954	877
941.048	295
941.141	-295
941.234	-314
941.327	-59
941.420	1490
941.513	-394
941.606	-204
941.699	966
941.792	-85
941.885	-303
941.978	496
942.071	228
942.164	686
942.257	107
942.349	643
942.442	169
942.535	304
942.628	-237
942.721	457
942.813	-393
942.906	1128
942.999	-116
943.091	-117
943.184	242
943.277	234
943.369	184
943.462	432
943.554	106
943.647	-16
943.739	-134
943.832	952
943.924	-451
944.017	601
944.109	-49
944.201	92
944.294	33
944.386	-94
944.478	-493
944.571	140
944.663	688
944.755	-533
944.847	-459
944.940	654
945.032	-17
945.124	-129
945.216	574
945.308	783
945.400	-241
945.492	807
945.584	-30
945.676	489
945.768	306
945.860	-165
945.952	317
946.044	382
946.136	-117
946.228	592
946.320	-176
946.412	-336
946.503	-605
946.595	1356
946.687	-686
946.779	-79
946.870	-37
946.962	-727
947.054	90
947.145	1155
947.237	-128
947.329	825
947.420	-446
947.512	-76
947.603	-125
947.695	-441
947.786	-257
947.878	-310
947.969	754
948.061	25
948.152	-744
948.243	616
948.335	-116
948.426	-84
948.517	-239
948.609	-401
948.700	92
948.791	-155
948.882	-419
948.973	356
949.065	-93
949.156	563
949.247	-195
949.338	412
949.429	-829
949.520	-423
949.611	-1200
949.702	948
949.793	-301
949.884	-60
949.975	97
950.066	-177
950.157	-406
950.247	-495
950.338	-561
950.429	339
950.520	-229
950.611	-378
950.701	-700
950.792	347
950.883	10
950.973	193
951.064	-236
951.155	-235
951.245	-909
951.336	-42
951.427	-714
951.517	447
951.608	352
951.698	-494
951.788	-198
951.879	-147
951.969	-265
952.060	207
952.150	-358
952.240	-293
952.331	-1648
952.421	270
952.511	-630
952.602	262
952.692	-1061
952.782	515
952.872	-280
952.962	16
953.052	-759
953.143	-336
953.233	162
953.323	115
953.413	-247
953.503	303
953.593	-190
953.683	539
953.773	-67
953.863	268
953.953	-435
954.042	-104
954.132	-909
954.222	-361
954.312	-455
954.402	-557
954.492	-685
954.581	-351
954.671	-761
954.761	-968
954.850	-120
954.940	-74
955.030	-414
955.119	69
955.209	214
955.298	-981
955.388	-465
955.477	522
955.567	-1185
955.656	-379
955.746	32
955.835	-331
955.925	-1300
956.014	-166
956.103	-1559
956.193	145
956.282	37
956.371	-525
956.461	-624
956.550	-1155
956.639	-322
956.728	-1010
956.817	-567
956.906	-1304
956.995	52
957.085	-886
957.174	-902
957.263	-712
957.352	-446
957.441	-1093
957.530	-698
957.619	-743
957.708	-386
957.796	-561
957.885	-215
957.974	-191
958.063	-506
958.152	-528
958.241	-685
958.329	-625
958.418	-1371
958.507	-741
958.596	553
958.684	-909
958.773	540
958.861	-175
958.950	56
959.039	146
959.127	-1194
959.216	321
959.304	-798
959.393	-100
959.481	-636
959.570	280
959.658	397
959.746	-398
959.835	-504
959.923	184
960.011	-581
960.100	-160
960.188	-756
960.276	-662
960.365	-1415
960.453	-75
960.541	-1104
960.629	-243
960.717	-1155
960.805	-657
960.893	-1111
960.981	-569
961.069	297
961.158	-412
961.245	54
961.333	-439
961.421	-1001
961.509	-225
961.597	-613
961.685	-897
961.773	-772
961.861	-634
961.949	-329
962.036	-1187
962.124	-430
962.212	-304
962.299	-455
962.387	-856
962.475	-610
962.562	-1231
962.650	52
962.738	-758
962.825	-1134
962.913	-769
963.000	-1304
963.088	-1764
963.175	-287
963.263	91
963.350	-973
963.438	-326
963.525	-334
963.612	855
963.700	-623
963.787	3612
963.874	-390
963.962	-670
964.049	-882
964.136	-1084
964.223	-960
964.310	-251
964.398	-1050
964.485	-651
964.572	-514
964.659	-261
964.746	-5
964.833	700
964.920	-1572
965.007	-993
965.094	-438
965.181	-1054
965.268	-435
965.355	-456
965.441	-455
965.528	-1261
965.615	-199
965.702	-789
965.789	-1323
965.875	-634
965.962	-1786
966.049	-1693
966.136	-1292
966.222	-1054
966.309	-326
966.395	-1108
966.482	-1117
966.569	-1270
966.655	-1260
966.742	-1173
966.828	-767
966.915	-795
967.001	-792
967.087	-1085
967.174	-1364
967.260	-437
967.347	-581
967.433	-29
967.519	921
967.605	89
967.692	-734
967.778	-1018
967.864	-995
967.950	-443
968.036	-1686
968.123	-987
968.209	-813
968.295	-907
968.381	-87
968.467	-557
968.553	-2010
968.639	1381
968.725	-1789
968.811	736
968.897	-433
968.983	255
969.069	-963
969.154	-54
969.240	-828
969.326	-1556
969.412	-1880
969.497	-1009
969.583	-1075
969.669	32
969.755	-202
969.840	-646
969.926	-632
970.012	-1457
970.097	24
970.183	-1358
970.268	-648
970.354	-505
970.439	-1451
970.525	1453
970.610	-736
970.696	339
970.781	-1060
970.866	-743
970.952	-631
971.037	-1176
971.122	-621
971.208	50
971.293	-876
971.378	-1522
971.463	-1071
971.549	-1009
971.634	-1285
971.719	-214
971.804	-728
971.889	-108
971.974	-1104
972.059	-877
972.144	-531
972.229	-806
972.314	-1053
972.399	-1118
972.484	-1391
972.569	-1029
972.654	-1249
972.739	506
972.824	-134
972.908	-657
972.993	-878
973.078	-232
973.163	-1328
973.247	-106
973.332	-1507
973.417	188
973.501	-1403
973.586	-746
973.671	-257
973.755	-820
973.840	-540
973.924	-520
974.009	-1299
974.093	-575
974.178	98
974.262	-246
974.346	-1071
974.431	-437
974.515	-1467
974.600	-754
974.684	-767
974.768	-831
974.852	-204
974.937	-1807
975.021	-169
975.105	-821
975.189	-1169
975.273	13
975.358	-1245
975.442	-876
975.526	331
975.610	-1602
975.694	-1168
975.778	246
975.862	-897
975.946	-2504
976.030	-136
976.114	74
976.198	-1276
976.281	-714
976.365	-493
976.449	-446
976.533	310
976.617	-1407
976.700	-1592
976.784	-517
976.868	-1088
976.951	-756
977.035	-846
977.119	-267
977.202	-1404
977.286	-736
977.369	-1420
977.453	-244
977.536	-1578
977.620	-1264
977.703	-321
977.787	-453
977.870	-444
977.953	638
978.037	-2112
978.120	507
978.203	-957
978.287	163
978.370	-662
978.453	-813
978.536	-1562
978.620	198
978.703	-631
978.786	-617
978.869	-1625
978.952	-1744
979.035	280
979.118	-497
979.201	-1067
979.284	195
979.367	-1082
979.450	-695
979.533	-1739
979.616	-740
979.699	-992
979.782	-862
979.865	-337
979.948	-1056
980.030	-707
980.113	-124
980.196	-1905
980.279	-773
980.361	-1033
980.444	-1045
980.526	-724
980.609	-252
980.692	-1463
980.774	-714
980.857	-1799
980.939	269
981.022	-1141
981.104	-850
981.187	-1469
981.269	-757
981.352	-874
981.434	-1041
981.516	-2293
981.599	296
981.681	-757
981.763	-575
981.846	-581
981.928	-918
982.010	-717
982.092	-1499
982.174	-925
982.256	-1391
982.339	-1501
982.421	-230
982.503	-1492
982.585	-1297
982.667	-743
982.749	-1197
982.831	-1187
982.913	-738
982.995	-340
983.077	-1259
983.158	18
983.240	-1669
983.322	-288
983.404	-587
983.486	-1318
983.568	-291
983.649	-1077
983.731	30
983.813	-1226
983.894	-745
983.976	-1501
984.058	-1935
984.139	-378
984.221	-1516
984.302	-1
984.384	-271
984.465	-1127
984.547	-382
984.628	-1840
984.710	-196
984.791	-1115
984.872	-773
984.954	-942
985.035	-472
985.116	-1633
985.198	-1882
985.279	-127
985.360	-1076
985.441	-1452
985.522	-877
985.604	-833
985.685	-2505
985.766	-447
985.847	926
985.928	-1841
986.009	-1072
986.090	-346
986.171	454
986.252	-899
986.333	-1112
986.414	-891
986.495	-652
986.576	-1015
986.656	-1036
986.737	-1830
986.818	-1410
986.899	-1552
986.980	-1287
987.060	-909
987.141	-1652
987.222	-1520
987.302	-1125
987.383	-659
987.464	-1074
987.544	-474
987.625	-1116
987.705	-688
987.786	-820
987.866	-1222
987.947	-782
988.027	-423
988.108	-1543
988.188	-1499
988.268	-818
988.349	-1753
988.429	-1798
988.509	-750
988.589	-652
988.670	-2436
988.750	334
988.830	-1181
988.910	-1009
988.990	-1101
989.070	-787
989.151	-439
989.231	-1747
989.311	-753
989.391	-960
989.471	-1474
989.551	-795
989.631	-884
989.711	-1051
989.791	-1767
989.870	-1070
989.950	-403
990.030	-1208
990.110	-814
990.190	-1416
990.269	-1964
990.349	-1244
990.429	-1330
990.509	-367
990.588	-2299
990.668	-460
990.747	-637
990.827	-605
990.907	-810
990.986	-1695
991.066	-938
991.145	-1968
991.225	-723
991.304	-1251
991.383	-614
991.463	-836
991.542	-1182
991.622	-699
991.701	-1828
991.780	-552
991.859	-922
991.939	-580
992.018	-1038
992.097	-989
992.176	-1502
992.256	-940
992.335	-1871
992.414	-177
992.493	-1514
992.572	-1237
992.651	-172
992.730	-483
992.809	-1103
992.888	-1755
992.967	-1688
993.046	-438
993.125	-2534
993.203	-946
993.282	-1049
993.361	-1370
993.440	-1264
993.519	-1287
993.597	-1459
993.676	-1805
993.755	-694
993.834	-720
993.912	-1874
993.991	-105
994.069	-1644
994.148	-1546
994.226	-2186
994.305	-343
994.384	-1981
994.462	-370
994.540	-1824
994.619	-1380
994.697	-955
994.776	-1806
994.854	-849
994.932	-1519
995.011	-1237
995.089	-1565
995.167	-686
995.245	-791
995.324	-1825
995.402	-858
995.480	-1655
995.558	-648
995.636	-2245
995.714	-696
995.792	-736
995.870	-1921
995.948	-1753
996.026	-1146
996.104	-1801
996.182	-891
996.260	-1461
996.338	-618
996.416	-2655
996.494	-1361
996.572	-613
996.649	-1603
996.727	-2215
996.805	-605
996.883	-1231
996.960	-1123
997.038	-690
997.116	-1591
997.193	-2244
997.271	-492
997.348	-1261
997.426	-810
997.504	-1710
997.581	-377
997.658	-1343
997.736	-1227
997.813	-2126
997.891	-1071
997.968	-2349
998.046	-948
998.123	-1116
998.200	-625
998.277	-2027
998.355	-1029
998.432	-2584
998.509	-499
998.586	-1438
998.663	-1459
998.741	-1479
998.818	-1337
998.895	-1053
998.972	-735
999.049	-1790
999.126	-1541
999.203	-1066
999.280	-1411
999.357	-1371
999.434	-1402
999.511	-1301
999.587	-1255
999.664	-2434
999.741	-1159
999.818	-519
999.895	-1525
999.971	-2155
1000.048	-1598
1000.125	-357
1000.202	-1963
1000.278	-1799
1000.355	-906
1000.431	-1600
1000.508	-1702
1000.584	-986
1000.661	-1273
1000.738	-1843
1000.814	-1581
1000.890	-1613
1000.967	-1074
1001.043	-1170
1001.120	-2017
1001.196	-1158
1001.272	-1837
1001.349	-1172
1001.425	-909
1001.501	-628
1001.577	-1178
1001.654	-1506
1001.730	-1216
1001.806	-1680
1001.882	-1439
1001.958	-831
1002.034	-780
1002.110	-1005
1002.186	-1986
1002.262	-1994
1002.338	-1592
1002.414	-1209
1002.490	-1346
1002.566	-1704
1002.642	-1732
1002.718	-1399
1002.794	-893
1002.870	-2100
1002.945	-1358
1003.021	-1089
1003.097	-1398
1003.173	-475
1003.248	-2395
1003.324	-1701
1003.400	-1005
1003.475	-2312
1003.551	-1320
1003.626	-1541
1003.702	-1355
1003.777	-1200
1003.853	-1850
1003.928	-2000
1004.004	-1018
1004.079	-847
1004.155	-1487
1004.230	-1858
1004.305	-618
1004.381	-1647
1004.456	-680
1004.531	-1330
1004.607	-1198
1004.682	-1920
1004.757	-1559
1004.832	-1299
1004.907	-1555
1004.982	-2017
1005.057	-879
1005.133	-1585
1005.208	-1080
1005.283	-998
1005.358	-1064
1005.433	-1950
1005.508	-1804
1005.583	-2269
1005.657	-1465
1005.732	-789
1005.807	-1274
1005.882	-1102
1005.957	-1700
1006.032	-988
1006.106	-869
1006.181	-1172
1006.256	-1404
1006.331	-1714
1006.405	-2508
1006.480	-1403
1006.554	-1410
1006.629	-1984
1006.704	-1275
1006.778	-1664
1006.853	-670
1006.927	-2393
1007.002	-1642
1007.076	-2084
1007.150	-1041
1007.225	-1805
1007.299	-1104
1007.373	-2607
1007.448	88
1007.522	-685
1007.596	-890
1007.671	-1920
1007.745	-926
1007.819	-2448
1007.893	-1757
1007.967	-1307
1008.041	-2839
1008.115	-1895
1008.190	-1689
1008.264	-892
1008.338	-2235
1008.412	-1254
1008.486	-889
1008.560	-1090
1008.633	-1649
1008.707	-2026
1008.781	-1877
1008.855	-2731
1008.929	-1071
1009.003	-1814
1009.076	-1842
1009.150	-1427
1009.224	-500
1009.298	-2260
1009.371	-2368
1009.445	-1332
1009.519	-1726
1009.592	-3011
1009.666	-520
1009.739	-1396
1009.813	-1969
1009.886	-1209
1009.960	-1619
1010.033	-2003
1010.107	-1506
1010.180	-2117
1010.253	-1322
1010.327	-2197
1010.400	-1568
1010.473	-2446
1010.547	-422
1010.620	-2071
1010.693	-1136
1010.766	-2666
1010.840	-1373
1010.913	-1784
1010.986	-2424
1011.059	-1692
1011.132	-1743
1011.205	-735
1011.278	-1449
1011.351	-1056
1011.424	-997
1011.497	-2081
1011.570	-1766
1011.643	-1318
1011.716	-1744
1011.789	-2222
1011.862	-812
1011.934	-1291
1012.007	-1716
1012.080	-1916
1012.153	-940
1012.225	-1715
1012.298	-1877
1012.371	-1956
1012.443	-1547
1012.516	-2626
1012.588	-1391
1012.661	-1687
1012.733	-2076
1012.806	-1039
1012.879	-1812
1012.951	-1267
1013.023	-1391
1013.096	-1426
1013.168	-2369
1013.241	-1241
1013.313	-1622
1013.385	-1724
1013.458	-1623
1013.530	-879
1013.602	-1877
1013.674	-1914
1013.746	-1968
1013.819	-2219
1013.891	-790
1013.963	-2006
1014.035	-1437
1014.107	-1797
1014.179	-1282
1014.251	-1230
1014.323	-1235
1014.395	-1862
1014.467	-1540
1014.539	-2255
1014.611	-2069
1014.683	-1520
1014.754	-991
1014.826	-1976
1014.898	-2175
1014.970	-3045
1015.042	-911
1015.113	-2477
1015.185	-1614
1015.257	-1857
1015.328	-2026
1015.400	-2330
1015.471	-1891
1015.543	-2956
1015.615	-1895
1015.686	-2765
1015.757	-1473
1015.829	-1877
1015.901	-2139
1015.972	-1838
1016.043	-1891
1016.115	-1364
1016.186	-1966
1016.257	-1814
1016.328	-1245
1016.400	-917
1016.471	-2120
1016.542	-1282
1016.613	-1674
1016.685	-2322
1016.756	-2074
1016.827	-1896
1016.898	-2464
1016.969	-1558
1017.040	-2287
1017.111	-2018
1017.182	-1922
1017.253	-2310
1017.324	-1972
1017.395	-1994
1017.466	-841
1017.537	-1671
1017.608	-1339
1017.678	-1049
1017.749	-1951
1017.820	-1295
1017.891	-1772
1017.961	-2505
1018.032	-1253
1018.103	-1761
1018.173	-1422
1018.244	-2442
1018.315	-1663
1018.385	-1416
1018.456	-1347
1018.526	-2098
1018.597	-1500
1018.667	-2304
1018.738	-1957
1018.808	-1705
1018.878	-1773
1018.949	-2548
1019.019	-1806
1019.089	-2157
1019.160	-2016
1019.230	-2990
1019.300	-1613
1019.371	-2022
1019.441	-1542
1019.511	-2100
1019.581	-2291
1019.651	-2299
1019.721	-2070
1019.791	-1865
1019.861	-1617
1019.931	-2104
1020.001	-1564
1020.071	-1853
1020.141	-2661
1020.211	-3023
1020.281	-1618
1020.351	-2369
1020.421	-1798
1020.491	-2261
1020.560	-2582
1020.630	-1980
1020.700	-1817
1020.770	-3074
1020.839	-2527
1020.909	-1828
1020.979	-2259
1021.048	-1889
1021.118	-1930
1021.187	-1633
1021.257	-1967
1021.326	-1648
1021.396	-1785
1021.465	-2330
1021.535	-1880
1021.604	-2636
1021.674	-1874
1021.743	-2197
1021.812	-1576
1021.882	-2682
1021.951	-1920
1022.020	-2125
1022.089	-1698
1022.159	-2748
1022.228	-2445
1022.297	-2476
1022.366	-1186
1022.435	-2367
1022.504	-1336
1022.573	-2374
1022.642	-1973
1022.711	-2326
1022.781	-1841
1022.849	-2964
1022.918	-2119
1022.987	-1627
1023.056	-2131
1023.125	-2743
1023.194	-2369
1023.263	-2679
1023.331	-759
1023.400	-2292
1023.469	-2472
1023.538	-1589
1023.606	-1923
1023.675	-2062
1023.744	-2343
1023.812	-2606
1023.881	-1889
1023.949	-2262
1024.018	-1929
1024.086	-2052
1024.155	-2473
1024.223	-2416
1024.292	-1056
1024.360	-2345
1024.429	-1974
1024.497	-2118
1024.565	-1976
1024.634	-1284
1024.702	-2213
1024.770	-2522
1024.838	-2569
1024.907	-2225
1024.975	-1938
1025.043	-2306
1025.111	-1936
1025.179	-2510
1025.247	-1529
1025.315	-3257
1025.383	-1818
1025.451	-1855
1025.519	-1512
1025.587	-2757
1025.655	-1460
1025.723	-3041
1025.791	-1741
1025.859	-2628
1025.927	-1825
1025.995	-1782
1026.062	-1176
1026.130	-2344
1026.198	-2038
1026.266	-2948
1026.333	-1180
1026.401	-1364
1026.469	-2387
1026.536	-2099
1026.604	-1264
1026.671	-2146
1026.739	-1698
1026.806	-2355
1026.874	-1891
1026.941	-1956
1027.009	-1808
1027.076	-2219
1027.144	-1464
1027.211	-2355
1027.278	-1715
1027.345	-2132
1027.413	-2041
1027.480	-2851
1027.547	-1797
1027.614	-1961
1027.682	-1369
1027.749	-2592
1027.816	-1313
1027.883	-2356
1027.950	-1226
1028.017	-2243
1028.084	-1361
1028.151	-2191
1028.218	-2164
1028.285	-1945
1028.352	-2538
1028.419	-2446
1028.486	-2002
1028.553	-2062
1028.619	-1871
1028.686	-1765
1028.753	-1345
1028.820	-2924
1028.886	-2241
1028.953	-2508
1029.020	-1844
1029.086	-2768
1029.153	-2405
1029.220	-2327
1029.286	-1905
1029.353	-2203
1029.419	-2311
1029.486	-2456
1029.552	-2246
1029.619	-2301
1029.685	-2012
1029.751	-1848
1029.818	-952
1029.884	-2236
1029.951	-740
1030.017	-1892
1030.083	-2374
1030.149	-2283
1030.216	-2012
1030.282	-2329
1030.348	-2611
1030.414	-2605
1030.480	-1961
1030.546	-1681
1030.612	-1254
1030.678	-2619
1030.744	-1888
1030.810	-2758
1030.876	-2661
1030.942	-2031
1031.008	-1480
1031.074	-2350
1031.140	-1963
1031.206	-1578
1031.272	-2406
1031.337	-2552
1031.403	-1229
1031.469	-1814
1031.534	-1815
1031.600	-2359
1031.666	-1479
1031.731	-2117
1031.797	-2241
1031.863	-1927
1031.928	-1347
1031.994	-2064
1032.059	-1466
1032.125	-2692
1032.190	-2290
1032.256	-2684
1032.321	-1965
1032.386	-2383
1032.452	-1253
1032.517	-2587
1032.582	-2711
1032.647	-2594
1032.713	-2563
1032.778	-2243
1032.843	-1698
1032.908	-2234
1032.974	-2564
1033.039	-2564
1033.104	-2296
1033.169	-2268
1033.234	-1951
1033.299	-2008
1033.364	-1827
1033.429	-2137
1033.494	-2098
1033.559	-1981
1033.624	-1633
1033.688	-1904
1033.753	-2730
1033.818	-2409
1033.883	-2240
1033.948	-2218
1034.013	-2063
1034.077	-2423
1034.142	-1417
1034.207	-2146
1034.271	-1515
1034.336	-1713
1034.400	-1748
1034.465	-1906
1034.530	-1193
1034.594	-1594
1034.658	-1546
1034.723	-2034
1034.787	-1922
1034.852	-2712
1034.916	-1563
1034.981	-2154
1035.045	-2025
1035.109	-2112
1035.173	-1244
1035.238	-2586
1035.302	-1309
1035.366	-2118
1035.430	-2057
1035.495	-2283
1035.559	-1586
1035.623	-2523
1035.687	-1849
1035.751	-1994
1035.815	-1933
1035.879	-2135
1035.943	-1919
1036.007	-2856
1036.071	-1269
1036.135	-1701
1036.198	-1395
1036.262	-2700
1036.326	-1446
1036.390	-1738
1036.454	-1108
1036.517	-1787
1036.581	-1537
1036.645	-1967
1036.709	-1378
1036.772	-2064
1036.836	-1782
1036.900	-2130
1036.963	-1821
1037.026	-1784
1037.090	-1887
1037.154	-2442
1037.217	-1855
1037.280	-2144
1037.344	-1938
1037.407	-2461
1037.471	-1797
1037.534	-1866
1037.597	-1274
1037.661	-1817
1037.724	-2406
1037.787	-2469
1037.850	-1965
1037.913	-2099
1037.977	-1412
1038.040	-2213
1038.103	-2196
1038.166	-2107
1038.229	-1926
1038.292	-2166
1038.355	-1578
1038.418	-1858
1038.481	-1700
1038.544	-2407
1038.607	-1844
1038.670	-1987
1038.732	-1789
1038.795	-2586
1038.858	-2274
1038.921	-1744
1038.984	-1166
1039.046	-2122
1039.109	-1453
1039.172	-2213
1039.234	-1071
1039.297	-2079
1039.360	-2434
1039.422	-2370
1039.485	-2250
1039.547	-2903
1039.610	-2170
1039.672	-1656
1039.734	-1544
1039.797	-1296
1039.859	-1841
1039.922	-1563
1039.984	-1829
1040.046	-2153
1040.109	-1783
1040.171	-2140
1040.233	-1458
1040.295	-1739
1040.358	-1969
1040.420	-2330
1040.482	-2212
1040.544	-2235
1040.606	-2444
1040.668	-1818
1040.730	-2066
1040.792	-2605
1040.854	-1144
1040.916	-2895
1040.978	-2119
1041.040	-1306
1041.102	-1640
1041.164	-2302
1041.225	-1554
1041.287	-2305
1041.349	-2684
1041.411	-2306
1041.472	-1463
1041.534	-1917
1041.596	-1870
1041.657	-2392
1041.719	-2026
1041.781	-2366
1041.842	-2448
1041.904	-1426
1041.965	-1675
1042.027	-1468
1042.088	-1592
1042.150	-2795
1042.211	-2001
1042.272	-1745
1042.334	-2371
1042.395	-2354
1042.456	-2370
1042.518	-1509
1042.579	-1913
1042.640	-2365
1042.701	-1821
1042.763	-3000
1042.824	-2445
1042.885	-2599
1042.946	-1561
1043.007	-2095
1043.068	-1882
1043.129	-2140
1043.190	-2125
1043.251	-1532
1043.312	-1782
1043.373	-1904
1043.434	-2371
1043.495	-2672
1043.556	-1392
1043.616	-1739
1043.677	-1397
1043.738	-1211
1043.799	-2046
1043.859	-1664
1043.920	-1288
1043.981	-1913
1044.041	-1609
1044.102	-2309
1044.162	-967
1044.223	-1908
1044.284	-1316
1044.344	-2636
1044.405	-1818
1044.465	-1873
1044.525	-1613
1044.586	-1962
1044.646	-2487
1044.707	-1507
1044.767	-1858
1044.827	-1974
1044.887	-1357
1044.948	-1710
1045.008	-1776
1045.068	-1603
1045.128	-1506
1045.188	-2619
1045.249	-1862
1045.309	-1819
1045.369	-1844
1045.429	-1797
1045.489	-1593
1045.549	-1589
1045.609	-2120
1045.669	-1705
1045.729	-2429
1045.789	-2355
1045.848	-750
1045.908	-2288
1045.968	-513
1046.028	-1210
1046.088	-2009
1046.147	-1599
1046.207	-1815
1046.267	-1904
1046.326	-1841
1046.386	-1732
1046.446	-1369
1046.505	-2179
1046.565	-838
1046.624	-2021
1046.684	-996
1046.743	-1337
1046.803	-719
1046.862	-907
1046.922	0
