'Start Wavelength	183.907
'End Wavelength	1046.922
'Gate Delay	5.000
'Gate Width (ms)	1.050
'Laser Output Level	0.000
'X Position	0.000
'Y Position	0.000
'Z Position	0.000
'Grid Point Number	1.000
'Shot Number	100.000
183.907	-74.000
183.977	-441.000
184.047	-693
184.116	476
184.186	898
184.256	-420
184.325	479
184.395	-627
184.465	608
184.534	174
184.604	-106
184.674	501
184.743	-404
184.813	688
184.883	-496
184.952	691
185.022	77
185.092	684
185.161	-122
185.231	-303
185.301	406
185.370	337
185.440	-188
185.509	624
185.579	656
185.649	604
185.718	48
185.788	449
185.857	530
185.927	-181
185.996	705
186.066	129
186.136	-38
186.205	-91
186.275	159
186.344	424
186.414	644
186.483	-761
186.553	1454
186.622	2174
186.692	416
186.761	718
186.831	313
186.900	57
186.970	486
187.039	264
187.109	870
187.178	792
187.248	-93
187.317	513
187.387	-191
187.456	923
187.526	1281
187.595	1615
187.664	536
187.734	-20
187.803	481
187.873	498
187.942	472
188.012	366
188.081	575
188.150	-32
188.220	1534
188.289	1404
188.358	734
188.428	607
188.497	-277
188.567	1021
188.636	192
188.705	564
188.775	526
188.844	-301
188.913	994
188.983	814
189.052	651
189.121	654
189.191	354
189.260	1495
189.329	1275
189.399	424
189.468	703
189.537	501
189.606	1106
189.676	604
189.745	981
189.814	1355
189.883	861
189.953	845
190.022	936
190.091	3197
190.161	5600
190.230	1637
190.299	732
190.368	401
190.437	281
190.507	906
190.576	853
190.645	534
190.714	275
190.783	754
190.853	780
190.922	-28
190.991	661
191.060	306
191.129	191
191.198	673
191.268	83
191.337	551
191.406	636
191.475	660
191.544	850
191.613	1208
191.682	94
191.752	987
191.821	-78
191.890	703
191.959	843
192.028	144
192.097	1431
192.166	349
192.235	-350
192.304	627
192.373	387
192.442	-153
192.511	-8
192.580	646
192.650	368
192.719	636
192.788	546
192.857	484
192.926	970
192.995	603
193.064	1394
193.133	1674
193.202	2369
193.271	2047
193.340	1867
193.409	1885
193.478	1577
193.547	1784
193.615	3071
193.684	3004
193.753	2021
193.822	1402
193.891	453
193.960	1599
194.029	714
194.098	1789
194.167	-32
194.236	1574
194.305	331
194.374	518
194.443	529
194.512	825
194.580	737
194.649	1418
194.718	1839
194.787	1185
194.856	204
194.925	1860
194.994	1179
195.062	1123
195.131	1003
195.200	1469
195.269	1634
195.338	1609
195.407	922
195.475	766
195.544	1453
195.613	1268
195.682	1694
195.751	1320
195.819	1039
195.888	1022
195.957	1958
196.026	1802
196.094	1360
196.163	1093
196.232	1451
196.301	606
196.369	1735
196.438	727
196.507	535
196.576	639
196.644	928
196.713	448
196.782	402
196.850	828
196.919	840
196.988	1348
197.056	17
197.125	1188
197.194	283
197.262	543
197.331	1524
197.400	868
197.468	575
197.537	1029
197.606	1073
197.674	2245
197.743	5278
197.812	1794
197.880	3885
197.949	3304
198.017	4678
198.086	2276
198.155	1518
198.223	1501
198.292	5068
198.360	2788
198.429	2351
198.497	1558
198.566	2538
198.635	6288
198.703	2748
198.772	1898
198.840	5151
198.909	6071
198.977	1551
199.046	1869
199.114	1338
199.183	1934
199.251	892
199.320	1319
199.388	721
199.457	718
199.525	1215
199.594	905
199.662	945
199.731	1571
199.799	1181
199.867	1922
199.936	1161
200.004	1422
200.073	811
200.141	1177
200.210	625
200.278	1544
200.346	1392
200.415	1755
200.483	1600
200.552	1266
200.620	1690
200.688	1359
200.757	1590
200.825	797
200.893	1320
200.962	1350
201.030	781
201.098	818
201.167	1546
201.235	1366
201.303	657
201.372	1475
201.440	1633
201.508	2087
201.577	2182
201.645	858
201.713	1804
201.781	695
201.850	2842
201.918	774
201.986	1115
202.055	2348
202.123	1040
202.191	2055
202.259	1349
202.327	1113
202.396	1386
202.464	2034
202.532	1477
202.600	7214
202.669	5431
202.737	1833
202.805	1912
202.873	1917
202.941	858
203.009	940
203.078	996
203.146	255
203.214	1530
203.282	939
203.350	1339
203.418	666
203.487	1717
203.555	630
203.623	1457
203.691	1220
203.759	892
203.827	1485
203.895	1638
203.963	1967
204.031	1497
204.099	1998
204.168	1676
204.236	2314
204.304	1919
204.372	1372
204.440	792
204.508	1416
204.576	1116
204.644	1289
204.712	865
204.780	583
204.848	771
204.916	356
204.984	1247
205.052	2025
205.120	1854
205.188	1149
205.256	1221
205.324	1848
205.392	1385
205.460	1927
205.528	2071
205.596	2838
205.664	2238
205.732	1631
205.799	5248
205.867	11394
205.935	2123
206.003	1583
206.071	1815
206.139	1829
206.207	2332
206.275	1041
206.343	1453
206.411	1869
206.478	1273
206.546	2422
206.614	1531
206.682	1038
206.750	1091
206.818	2900
206.885	2835
206.953	1454
207.021	1994
207.089	2021
207.157	256
207.225	1452
207.292	1803
207.360	676
207.428	2193
207.496	1443
207.563	716
207.631	1028
207.699	1006
207.767	1012
207.834	1267
207.902	1457
207.970	1109
208.038	1637
208.105	1339
208.173	1451
208.241	2566
208.309	2541
208.376	2116
208.444	5163
208.512	2901
208.579	1476
208.647	2505
208.715	3640
208.782	1615
208.850	1868
208.918	1598
208.985	1632
209.053	2257
209.120	1667
209.188	1564
209.256	1544
209.323	1960
209.391	2453
209.459	2688
209.526	1764
209.594	1095
209.661	1986
209.729	1666
209.796	1754
209.864	2122
209.932	1353
209.999	2519
210.067	1182
210.134	1589
210.202	717
210.269	2840
210.337	4297
210.404	2725
210.472	1549
210.539	1786
210.607	1703
210.674	2407
210.742	2739
210.809	2256
210.877	2433
210.944	2753
211.012	1206
211.079	2923
211.146	1612
211.214	2037
211.281	4335
211.349	4631
211.416	2821
211.484	2272
211.551	2002
211.618	2107
211.686	2404
211.753	1653
211.821	2868
211.888	2101
211.955	2815
212.023	2338
212.090	2824
212.157	2055
212.225	3173
212.292	5188
212.359	10396
212.427	29575
212.494	14142
212.561	5247
212.629	3709
212.696	2416
212.763	3320
212.831	2074
212.898	3638
212.965	2190
213.032	2955
213.100	2535
213.167	2616
213.234	3258
213.301	2181
213.369	2334
213.436	2980
213.503	1503
213.570	2711
213.638	2469
213.705	1925
213.772	1477
213.839	1855
213.906	3769
213.973	2398
214.041	1566
214.108	2678
214.175	1675
214.242	1985
214.309	2010
214.376	3078
214.444	2559
214.511	2395
214.578	2684
214.645	2850
214.712	3250
214.779	2870
214.846	2247
214.913	2850
214.980	3597
215.048	3731
215.115	5240
215.182	4206
215.249	2727
215.316	1884
215.383	3199
215.450	2435
215.517	1222
215.584	2389
215.651	1520
215.718	1663
215.785	2849
215.852	1939
215.919	2885
215.986	2775
216.053	2037
216.120	1375
216.187	2868
216.254	3164
216.321	2220
216.388	1938
216.455	3126
216.522	2774
216.589	2355
216.656	5927
216.722	6651
216.789	4326
216.856	4790
216.923	3176
216.990	3331
217.057	2878
217.124	4278
217.191	3471
217.258	4835
217.324	5395
217.391	7075
217.458	6026
217.525	4863
217.592	3492
217.659	2650
217.725	3455
217.792	4528
217.859	6290
217.926	3169
217.993	2556
218.059	2428
218.126	2899
218.193	1930
218.260	2509
218.327	2170
218.393	2251
218.460	1634
218.527	1592
218.594	2097
218.660	5044
218.727	6304
218.794	2645
218.860	2865
218.927	1871
218.994	1883
219.061	1939
219.127	3023
219.194	4448
219.261	3497
219.327	1730
219.394	2345
219.461	894
219.527	2097
219.594	3668
219.661	2421
219.727	1105
219.794	2686
219.860	1539
219.927	3096
219.994	4180
220.060	7699
220.127	5940
220.193	3877
220.260	2978
220.326	5580
220.393	6789
220.460	10249
220.526	7308
220.593	3767
220.659	4847
220.726	4719
220.792	13637
220.859	11456
220.925	12071
220.992	19258
221.058	18411
221.125	20400
221.191	15384
221.258	5271
221.324	4378
221.391	4366
221.457	2224
221.524	2933
221.590	4274
221.657	17014
221.723	13097
221.789	11599
221.856	10716
221.922	6256
221.989	3766
222.055	2909
222.121	2082
222.188	3584
222.254	3794
222.321	2392
222.387	1664
222.453	2764
222.520	1811
222.586	1434
222.652	1888
222.719	937
222.785	2852
222.851	1873
222.918	1653
222.984	1630
223.050	1782
223.116	415
223.183	2388
223.249	1196
223.315	1512
223.382	2070
223.448	2005
223.514	1166
223.580	1582
223.647	1367
223.713	633
223.779	1241
223.845	1090
223.911	2109
223.978	783
224.044	1785
224.110	1822
224.176	1835
224.242	2084
224.309	1238
224.375	2588
224.441	1283
224.507	965
224.573	657
224.639	2802
224.705	963
224.772	1399
224.838	1721
224.904	2011
224.970	1765
225.036	1608
225.102	1089
225.168	2011
225.234	2546
225.300	1761
225.366	1511
225.432	1592
225.499	1654
225.565	1117
225.631	1803
225.697	2229
225.763	2903
225.829	3761
225.895	3600
225.961	6249
226.027	5142
226.093	3441
226.159	4917
226.225	6026
226.291	15114
226.357	28196
226.423	14361
226.489	7585
226.554	5369
226.620	4350
226.686	5181
226.752	8450
226.818	13543
226.884	35622
226.950	34944
227.016	12640
227.082	6928
227.148	4721
227.214	5445
227.279	4728
227.345	3450
227.411	3354
227.477	4496
227.543	10809
227.609	11525
227.674	5836
227.740	3232
227.806	3481
227.872	3320
227.938	2295
228.003	4038
228.069	2483
228.135	2079
228.201	2743
228.267	2242
228.332	2227
228.398	3301
228.464	4057
228.530	1051
228.595	2279
228.661	1646
228.727	3530
228.792	3648
228.858	2409
228.924	1085
228.990	5343
229.055	3032
229.121	5106
229.187	2702
229.252	2658
229.318	1889
229.384	2191
229.449	3650
229.515	851
229.581	485
229.646	3409
229.712	2726
229.777	6330
229.843	7675
229.909	4487
229.974	4141
230.040	4346
230.105	3322
230.171	3595
230.236	5230
230.302	9357
230.368	7480
230.433	3497
230.499	3950
230.564	3815
230.630	2434
230.695	3554
230.761	3278
230.826	1229
230.892	5413
230.957	1628
231.023	2241
231.088	3447
231.154	2344
231.219	3633
231.284	3801
231.350	4743
231.415	2002
231.481	2423
231.546	2032
231.612	2100
231.677	1809
231.742	1187
231.808	3298
231.873	1043
231.939	1378
232.004	5907
232.069	6532
232.135	3070
232.200	2444
232.265	2579
232.331	2392
232.396	1908
232.461	1617
232.527	2014
232.592	1461
232.657	2940
232.723	6479
232.788	5527
232.853	2534
232.918	1976
232.984	1098
233.049	1992
233.114	5715
233.179	5453
233.245	7407
233.310	12428
233.375	3124
233.440	2645
233.506	2350
233.571	2028
233.636	2622
233.701	2215
233.766	6219
233.832	10402
233.897	2985
233.962	1892
234.027	4156
234.092	3317
234.157	2576
234.222	3836
234.288	5355
234.353	22041
234.418	19638
234.483	10384
234.548	5926
234.613	4547
234.678	5064
234.743	5523
234.808	21462
234.873	14582
234.938	5597
235.004	3734
235.069	3220
235.134	3473
235.199	3192
235.264	3728
235.329	2555
235.394	3051
235.459	4641
235.524	3566
235.589	4245
235.654	2578
235.719	1681
235.784	4121
235.849	3851
235.913	10825
235.978	12112
236.043	15213
236.108	6043
236.173	4251
236.238	6132
236.303	3182
236.368	3787
236.433	6860
236.498	14997
236.563	8408
236.627	11735
236.692	45754
236.757	40949
236.822	15703
236.887	12148
236.952	9291
237.017	6939
237.081	8191
237.146	9108
237.211	18196
237.276	42546
237.341	84176
237.405	41108
237.470	14570
237.535	13005
237.600	8773
237.664	6206
237.729	4841
237.794	5731
237.859	11710
237.923	11040
237.988	6805
238.053	9448
238.118	10913
238.182	26584
238.247	28644
238.312	12201
238.376	8400
238.441	6653
238.506	5903
238.570	2518
238.635	4939
238.700	3848
238.764	3548
238.829	11141
238.893	17972
238.958	6836
239.023	5953
239.087	3959
239.152	4892
239.216	3295
239.281	3592
239.346	3468
239.410	3822
239.475	4307
239.539	26349
239.604	26064
239.668	7332
239.733	4497
239.797	7242
239.862	18698
239.926	28022
239.991	12153
240.055	5280
240.120	3898
240.184	4252
240.249	3241
240.313	3366
240.378	4255
240.442	14768
240.507	30202
240.571	9408
240.635	11917
240.700	18259
240.764	6053
240.829	4587
240.893	2794
240.957	4797
241.022	14315
241.086	29483
241.151	14667
241.215	4502
241.279	7635
241.344	14591
241.408	8036
241.472	4504
241.537	5581
241.601	5123
241.665	3236
241.730	3250
241.794	4360
241.858	3131
241.922	4271
241.987	4415
242.051	3380
242.115	2293
242.179	3660
242.244	2974
242.308	4128
242.372	4784
242.436	5461
242.501	4293
242.565	3109
242.629	3013
242.693	3965
242.757	2438
242.822	2857
242.886	3927
242.950	4923
243.014	3795
243.078	5067
243.142	5267
243.206	4886
243.271	5443
243.335	4112
243.399	7905
243.463	28066
243.527	94382
243.591	31334
243.655	11674
243.719	6440
243.783	7314
243.847	10814
243.911	15023
243.975	14730
244.040	9932
244.104	6399
244.168	4427
244.232	6407
244.296	10404
244.360	13082
244.424	6830
244.488	5679
244.552	5438
244.615	3762
244.679	3946
244.743	4018
244.807	5221
244.871	2736
244.935	3318
244.999	1676
245.063	2960
245.127	5097
245.191	8850
245.255	8931
245.319	5867
245.383	5059
245.446	5476
245.510	3387
245.574	3477
245.638	4276
245.702	2525
245.766	13118
245.829	8895
245.893	5398
245.957	3938
246.021	4911
246.085	4795
246.149	6591
246.212	14915
246.276	24377
246.340	11436
246.404	7618
246.467	7688
246.531	11716
246.595	6976
246.659	6748
246.722	5346
246.786	6688
246.850	7505
246.913	10501
246.977	4654
247.041	5457
247.104	6118
247.168	5308
247.232	12929
247.295	31490
247.359	16162
247.423	6499
247.486	12741
247.550	8550
247.614	6394
247.677	8373
247.741	6209
247.804	4856
247.868	6969
247.932	11307
247.995	29204
248.059	11703
248.122	5698
248.186	8437
248.249	10959
248.313	43732
248.376	49908
248.440	32319
248.503	12095
248.567	10177
248.630	12882
248.694	17699
248.757	20712
248.821	51053
248.884	30075
248.948	25067
249.011	38733
249.075	58343
249.138	52543
249.202	19287
249.265	12968
249.328	20311
249.392	12210
249.455	9539
249.519	7671
249.582	9504
249.645	15094
249.709	12067
249.772	9143
249.835	7815
249.899	10783
249.962	8658
250.025	7569
250.089	18603
250.152	27255
250.215	13482
250.279	9982
250.342	10572
250.405	10518
250.468	9033
250.532	11738
250.595	20389
250.658	74295
250.721	143037
250.785	46281
250.848	22852
250.911	14224
250.974	12363
251.038	15347
251.101	33245
251.164	18319
251.227	17576
251.290	16506
251.354	24706
251.417	106630
251.480	118553
251.543	69783
251.606	203668
251.669	166013
251.732	56682
251.795	49238
251.859	52426
251.922	130952
251.985	81326
252.048	26630
252.111	19360
252.174	17710
252.237	26416
252.300	63279
252.363	69073
252.426	169085
252.489	72272
252.552	33848
252.615	22478
252.678	22769
252.741	46858
252.804	67390
252.867	171870
252.930	97445
252.993	46669
253.056	26352
253.119	19108
253.182	15824
253.245	29520
253.308	22162
253.371	17409
253.434	16806
253.497	15263
253.559	29100
253.622	20197
253.685	22425
253.748	24704
253.811	12517
253.874	17382
253.937	17135
254.000	11064
254.062	17659
254.125	32545
254.188	23022
254.251	22626
254.314	11421
254.376	18744
254.439	21594
254.502	17720
254.565	19265
254.628	35467
254.690	19092
254.753	10978
254.816	9714
254.878	11060
254.941	22085
255.004	25490
255.067	11390
255.129	10091
255.192	6812
255.255	5604
255.317	6729
255.380	5256
255.443	4093
255.505	4047
255.568	3970
255.631	4582
255.693	4600
255.756	4377
255.819	4690
255.881	3996
255.944	4457
256.006	4832
256.069	4064
256.132	4674
256.194	6449
256.257	23549
256.319	17587
256.382	15747
256.444	8290
256.507	6499
256.569	4802
256.632	6187
256.694	10244
256.757	22283
256.819	69319
256.882	29703
256.944	12086
257.007	9872
257.069	9823
257.132	7432
257.194	6840
257.257	6413
257.319	5726
257.381	7179
257.444	17060
257.506	78436
257.569	94067
257.631	58044
257.693	27357
257.756	14363
257.818	13079
257.880	7717
257.943	6409
258.005	5284
258.067	4465
258.130	5686
258.192	7130
258.254	15214
258.317	11137
258.379	7154
258.441	17670
258.503	20679
258.566	26840
258.628	43819
258.690	10492
258.753	8094
258.815	13077
258.877	7761
258.939	6004
259.001	5401
259.064	4541
259.126	7111
259.188	12549
259.250	7895
259.312	10194
259.375	30280
259.437	20030
259.499	7408
259.561	6342
259.623	6690
259.685	5433
259.747	6821
259.809	25322
259.872	57623
259.934	72750
259.996	65758
260.058	16147
260.120	8055
260.182	7306
260.244	6380
260.306	5440
260.368	5821
260.430	4888
260.492	8444
260.554	22418
260.616	24041
260.678	32147
260.740	58754
260.802	15191
260.864	9555
260.926	6566
260.988	7575
261.050	6313
261.112	11108
261.174	42502
261.236	47827
261.298	12941
261.359	22429
261.421	38286
261.483	9556
261.545	7218
261.607	5076
261.669	6239
261.731	13472
261.793	34050
261.854	13999
261.916	8489
261.978	6092
262.040	7185
262.102	7381
262.164	13628
262.225	12367
262.287	5570
262.349	12687
262.411	12660
262.472	7409
262.534	14219
262.596	37899
262.658	11593
262.719	6364
262.781	9071
262.843	33402
262.904	16037
262.966	9379
263.028	13323
263.090	55111
263.151	163774
263.213	49367
263.275	19295
263.336	11635
263.398	7560
263.459	6189
263.521	6540
263.583	13063
263.644	9527
263.706	4644
263.767	3685
263.829	4000
263.891	3232
263.952	2788
264.014	2852
264.075	3696
264.137	7522
264.198	5890
264.260	2615
264.321	3027
264.383	6939
264.444	14773
264.506	4913
264.567	3699
264.629	5806
264.690	8284
264.752	5319
264.813	4047
264.875	2973
264.936	3774
264.998	2634
265.059	4135
265.120	3212
265.182	6098
265.243	29594
265.305	34522
265.366	8084
265.427	5855
265.489	5136
265.550	3067
265.611	4829
265.673	3370
265.734	3873
265.795	3037
265.857	2910
265.918	4089
265.979	8633
266.040	53204
266.102	49210
266.163	12368
266.224	9391
266.286	6614
266.347	5655
266.408	5299
266.469	5504
266.530	4897
266.592	5077
266.653	9625
266.714	14142
266.775	5790
266.836	4058
266.898	4884
266.959	5860
267.020	3367
267.081	4694
267.142	4529
267.203	4720
267.264	4721
267.326	5976
267.387	4271
267.448	3363
267.509	3648
267.570	3441
267.631	3189
267.692	5105
267.753	10845
267.814	5182
267.875	8805
267.936	19146
267.997	7610
268.058	6031
268.119	3468
268.180	3695
268.241	3283
268.302	3582
268.363	2620
268.424	3456
268.485	4062
268.546	2417
268.607	2630
268.668	1869
268.729	2196
268.790	3040
268.851	4011
268.912	8954
268.972	11945
269.033	6509
269.094	4047
269.155	3583
269.216	2011
269.277	3629
269.338	2509
269.398	2924
269.459	3913
269.520	4761
269.581	6639
269.642	7800
269.702	4452
269.763	4555
269.824	4269
269.885	5655
269.945	8097
270.006	4035
270.067	2488
270.128	2708
270.188	2881
270.249	3882
270.310	2480
270.370	3970
270.431	3972
270.492	2970
270.553	3531
270.613	7622
270.674	16943
270.734	7627
270.795	3857
270.856	5984
270.916	5378
270.977	3885
271.038	5236
271.098	4782
271.159	6188
271.219	9031
271.280	4953
271.340	3676
271.401	4472
271.462	17425
271.522	8589
271.583	5054
271.643	5407
271.704	4373
271.764	5511
271.825	11548
271.885	38354
271.946	59784
272.006	18662
272.066	23800
272.127	48638
272.187	16549
272.248	9272
272.308	9682
272.369	33681
272.429	22518
272.489	12874
272.550	13131
272.610	12410
272.671	12558
272.731	11090
272.791	21238
272.852	10564
272.912	9238
272.972	5677
273.033	5044
273.093	10190
273.153	9407
273.214	7722
273.274	8783
273.334	20517
273.394	53134
273.455	22669
273.515	17709
273.575	43069
273.635	20584
273.696	26785
273.756	54212
273.816	23321
273.876	15062
273.936	29899
273.997	62576
274.057	16402
274.117	11490
274.177	13295
274.237	52598
274.297	55448
274.358	43932
274.418	40669
274.478	30202
274.538	12921
274.598	13019
274.658	45075
274.718	64246
274.778	24185
274.838	12596
274.898	26072
274.958	88183
275.018	60945
275.078	38355
275.138	16290
275.198	10957
275.258	7818
275.318	10101
275.378	14395
275.438	14547
275.498	11640
275.558	33504
275.618	77199
275.678	40971
275.738	21168
275.798	16528
275.858	8406
275.918	6240
275.978	6492
276.038	7255
276.098	5999
276.157	10787
276.217	29143
276.277	19020
276.337	11820
276.397	6999
276.457	8364
276.517	7038
276.576	6428
276.636	7623
276.696	14027
276.756	19443
276.815	17398
276.875	8363
276.935	9441
276.995	9907
277.055	7223
277.114	6635
277.174	8252
277.234	24440
277.293	13563
277.353	6945
277.413	6144
277.472	6669
277.532	8357
277.592	9877
277.651	36734
277.711	84960
277.771	28989
277.830	77222
277.890	76278
277.950	45473
278.009	139852
278.069	61207
278.128	53164
278.188	88354
278.248	35197
278.307	84713
278.367	62595
278.426	19000
278.486	12828
278.545	11207
278.605	9887
278.664	8889
278.724	10137
278.783	19768
278.843	57829
278.902	21421
278.962	13074
279.021	15653
279.081	35855
279.140	37850
279.199	18491
279.259	17360
279.318	19057
279.378	27337
279.437	49522
279.496	148470
279.556	442529
279.615	427955
279.675	130518
279.734	70301
279.793	89812
279.853	134082
279.912	49472
279.971	29577
280.031	26497
280.090	38575
280.149	71575
280.208	75412
280.268	291115
280.327	362630
280.386	100713
280.445	53214
280.505	43461
280.564	24985
280.623	20058
280.682	21124
280.742	28735
280.801	13541
280.860	10757
280.919	8991
280.978	9039
281.037	9518
281.097	8334
281.156	9014
281.215	9168
281.274	9699
281.333	32392
281.392	31651
281.451	10125
281.510	7501
281.569	7385
281.628	7345
281.688	6196
281.747	7279
281.806	6508
281.865	6452
281.924	4907
281.983	5133
282.042	4571
282.101	5527
282.160	5042
282.219	4792
282.278	6771
282.337	15147
282.396	13536
282.454	6975
282.513	6951
282.572	22581
282.631	17111
282.690	6213
282.749	5453
282.808	6369
282.867	6467
282.926	6458
282.985	4616
283.043	5684
283.102	5444
283.161	7096
283.220	13013
283.279	31239
283.338	12562
283.396	7218
283.455	7132
283.514	7919
283.573	19583
283.631	16197
283.690	9279
283.749	7562
283.808	11159
283.866	14557
283.925	7769
283.984	7176
284.043	9167
284.101	10504
284.160	7405
284.219	9467
284.277	10836
284.336	19589
284.395	39431
284.453	35502
284.512	15608
284.570	16379
284.629	18279
284.688	18309
284.746	21192
284.805	24021
284.863	32024
284.922	39823
284.981	46887
285.039	65525
285.098	106057
285.156	232074
285.215	410276
285.273	404209
285.332	278957
285.390	145847
285.449	89112
285.507	60894
285.566	46511
285.624	36478
285.683	26321
285.741	20480
285.799	17612
285.858	16292
285.916	15952
285.975	12415
286.033	10892
286.091	10824
286.150	10908
286.208	9313
286.267	11511
286.325	10735
286.383	12725
286.442	11141
286.500	8488
286.558	10548
286.616	7736
286.675	9925
286.733	10588
286.791	8911
286.850	8559
286.908	9292
286.966	14080
287.024	8473
287.083	7249
287.141	5707
287.199	7263
287.257	7053
287.315	6725
287.374	7874
287.432	13854
287.490	11083
287.548	8100
287.606	7321
287.664	7285
287.723	8542
287.781	10330
287.839	8075
287.897	9338
287.955	11535
288.013	19247
288.071	42929
288.129	148039
288.187	449882
288.245	221574
288.303	64860
288.361	37058
288.419	26611
288.477	19455
288.535	14652
288.593	10977
288.651	8731
288.709	7782
288.767	6770
288.825	5911
288.883	5287
288.941	6445
288.999	6234
289.057	4444
289.115	4306
289.173	4891
289.231	5465
289.289	6051
289.346	6965
289.404	6729
289.462	8505
289.520	8232
289.578	4751
289.636	3573
289.694	3927
289.751	3780
289.809	3172
289.867	3931
289.925	4840
289.983	5129
290.040	3679
290.098	2747
290.156	4193
290.214	5278
290.271	3017
290.329	3370
290.387	3155
290.444	2456
290.502	1903
290.560	2642
290.617	2776
290.675	3681
290.733	2812
290.790	4150
290.848	3848
290.906	4829
290.963	4209
291.021	5454
291.078	4981
291.136	5655
291.194	9416
291.251	23326
291.309	8692
291.366	4166
291.424	3266
291.481	3414
291.539	5572
291.596	6128
291.654	3039
291.711	2844
291.769	3307
291.826	8172
291.884	6366
291.941	3437
291.999	3350
292.056	3031
292.114	4499
292.171	3312
292.228	3719
292.286	4829
292.343	7912
292.401	11443
292.458	8556
292.515	5326
292.573	5473
292.630	6093
292.687	7106
292.745	5711
292.802	5436
292.859	13571
292.917	32271
292.974	20611
293.031	6893
293.089	5078
293.146	4206
293.203	3965
293.260	3864
293.318	6344
293.375	6688
293.432	3697
293.489	3756
293.546	4833
293.604	8834
293.661	27063
293.718	62661
293.775	30727
293.832	14340
293.889	13886
293.947	14434
294.004	10621
294.061	8725
294.118	12100
294.175	25096
294.232	24020
294.289	12670
294.346	7494
294.403	6771
294.460	6803
294.517	5842
294.574	4583
294.631	4495
294.688	7058
294.745	13568
294.802	51848
294.859	50125
294.916	23060
294.973	16848
295.030	10736
295.087	9263
295.144	5732
295.201	5937
295.258	5176
295.315	7651
295.372	19719
295.429	48437
295.486	22094
295.542	9492
295.599	13171
295.656	23307
295.713	20480
295.770	40178
295.827	16705
295.883	7828
295.940	6349
295.997	10125
296.054	11078
296.111	6019
296.167	4547
296.224	2826
296.281	3700
296.338	2959
296.394	3497
296.451	5557
296.508	14972
296.564	33749
296.621	21369
296.678	38637
296.734	67172
296.791	26387
296.848	12567
296.904	12151
296.961	23965
297.018	44933
297.074	39117
297.131	16264
297.187	11748
297.244	16068
297.301	44689
297.357	98248
297.414	36757
297.470	14228
297.527	9710
297.583	10088
297.640	8666
297.696	6273
297.753	4592
297.809	4074
297.866	2575
297.922	3587
297.979	3770
298.035	5586
298.092	8967
298.148	25695
298.204	28979
298.261	14452
298.317	18053
298.374	55771
298.430	39326
298.486	17803
298.543	16266
298.599	17736
298.656	25740
298.712	26367
298.768	52767
298.824	47173
298.881	17829
298.937	10585
298.993	8189
299.050	8416
299.106	7035
299.162	6489
299.218	7619
299.275	6043
299.331	8559
299.387	14763
299.443	47326
299.500	64861
299.556	30557
299.612	14790
299.668	14471
299.724	19112
299.780	22644
299.837	12952
299.893	15846
299.949	42075
300.005	62236
300.061	45501
300.117	81403
300.173	45256
300.229	19845
300.285	19771
300.341	21271
300.397	12814
300.453	7934
300.510	9460
300.566	11411
300.622	12140
300.678	33792
300.734	60820
300.790	47681
300.845	61256
300.901	40489
300.957	48489
301.013	40237
301.069	17295
301.125	11355
301.181	11373
301.237	9881
301.293	7679
301.349	7055
301.405	9998
301.461	11813
301.516	24148
301.572	17496
301.628	13961
301.684	14138
301.740	22295
301.796	42064
301.851	27390
301.907	32929
301.963	36663
302.019	51454
302.074	142198
302.130	156288
302.186	87350
302.242	34170
302.297	21050
302.353	17307
302.409	31508
302.464	34943
302.520	26012
302.576	48135
302.631	64921
302.687	35919
302.743	15587
302.798	9433
302.854	7796
302.910	8507
302.965	9325
303.021	16764
303.076	18702
303.132	17183
303.187	20801
303.243	12857
303.299	6817
303.354	5182
303.410	5978
303.465	6003
303.521	5762
303.576	6148
303.632	8062
303.687	15386
303.743	46249
303.798	47480
303.853	19788
303.909	9012
303.964	7670
304.020	10139
304.075	16769
304.130	15665
304.186	23994
304.241	24801
304.297	20619
304.352	12173
304.358	11684
304.407	7716
304.449	7136
304.463	6946
304.518	7430
304.539	7380
304.573	7304
304.629	7544
304.630	7629
304.684	12125
304.720	24793
304.739	30993
304.794	58306
304.811	50266
304.850	30759
304.902	14075
304.905	13033
304.960	8651
304.992	8685
305.015	8723
305.071	8388
305.083	8341
305.126	8050
305.173	5728
305.181	5360
305.236	4503
305.264	4725
305.292	5104
305.347	6976
305.354	7558
305.402	11063
305.445	11164
305.457	11146
305.512	10510
305.535	10414
305.567	10467
305.622	11028
305.626	11439
305.678	22455
305.716	42731
305.733	49213
305.788	64300
305.807	55281
305.843	41067
305.897	49006
305.898	49022
305.953	53432
305.988	35884
306.008	26868
306.063	14697
306.078	13459
306.118	10865
306.168	7216
306.173	6930
306.228	5938
306.259	5642
306.283	5522
306.338	5035
306.349	5214
306.393	6007
306.440	6935
306.448	7044
306.503	7747
306.530	7842
306.558	9871
306.613	18561
306.620	20278
306.668	33027
306.711	47328
306.723	48495
306.778	42494
306.801	32196
306.833	20776
306.888	10009
306.892	9585
306.943	6876
306.982	6362
306.997	6226
307.052	6121
307.072	6101
307.107	6567
307.162	7150
307.163	7175
307.217	10712
307.253	12731
307.272	13067
307.327	15014
307.343	14272
307.381	12685
307.434	11796
307.436	12169
307.491	23299
307.524	34024
307.546	36311
307.600	40891
307.614	37385
307.655	25039
307.704	12787
307.710	12253
307.765	12923
307.795	15068
307.819	17315
307.874	26916
307.885	27291
307.929	23322
307.975	17903
307.984	18294
308.038	25684
308.065	32215
308.093	61506
308.148	131986
308.156	148026
308.202	224131
308.246	287552
308.257	282606
308.312	149317
308.336	98726
308.366	71067
308.421	46029
308.426	43758
308.475	28957
308.517	20462
308.530	18939
308.585	16429
308.607	15727
308.639	15949
308.694	17214
308.697	17328
308.748	27095
308.787	38154
308.803	37762
308.857	31016
308.877	26719
308.912	24061
308.967	24577
308.967	24608
309.021	38137
309.058	50125
309.076	62607
309.130	107676
309.148	124651
309.185	227630
309.238	394851
309.239	395958
309.293	443307
309.328	415123
309.348	360892
309.402	169809
309.418	122445
309.457	84651
309.508	54051
309.511	53662
309.566	58189
309.598	63988
309.620	83538
309.674	141706
309.688	157461
309.729	144010
309.778	106879
309.783	103882
309.837	64925
309.868	45852
309.892	47927
309.946	59050
309.959	63336
310.001	76573
310.049	89828
310.055	86955
310.109	53032
310.139	33265
310.163	27410
310.218	18675
310.229	17366
310.272	14242
310.319	10823
310.326	10476
310.381	8782
310.409	8043
310.435	7609
310.489	6840
310.499	6763
310.543	7165
310.589	7481
310.598	7374
310.652	7005
310.679	6643
310.706	6190
310.760	5128
310.769	5019
310.814	5269
310.859	5556
310.868	5568
310.923	5583
310.948	5564
310.977	6725
311.031	9242
311.038	9579
311.085	8338
311.128	6740
311.139	6643
311.193	6327
311.218	6194
311.247	5850
311.301	5101
311.308	5023
311.356	5150
311.398	5294
311.410	5210
311.464	4623
311.488	4401
311.518	4668
311.572	5183
311.578	5236
311.626	7414
311.668	9405
311.680	9189
311.734	7939
311.758	7379
311.788	7997
311.842	9201
311.847	9314
311.896	9992
311.937	10496
311.950	10434
312.004	10163
312.027	10009
312.058	8875
312.112	6838
312.117	6630
312.165	6018
312.207	5494
312.297	6365
312.386	6281
312.476	9497
312.566	16188
312.656	7139
312.745	5061
312.835	5693
312.925	6073
313.015	6018
313.104	6112
313.194	7756
313.284	6696
313.374	9439
313.463	7982
313.553	5928
313.643	6006
313.732	5298
313.822	5240
313.912	5750
314.001	7022
314.091	8002
314.180	8386
314.270	9227
314.360	10662
314.449	8879
314.539	7094
314.628	5610
314.718	6733
314.808	8985
314.897	6191
314.987	7207
315.076	9796
315.166	11693
315.255	10283
315.345	10577
315.434	9463
315.524	10090
315.613	11758
315.703	18202
315.792	43669
315.881	176248
315.971	46151
316.060	19696
316.150	21359
316.239	20711
316.328	9805
316.418	6687
316.507	6894
316.597	9850
316.686	8443
316.775	11963
316.865	22308
316.954	7574
317.043	6314
317.133	7082
317.222	6141
317.311	6473
317.400	6657
317.490	12177
317.579	13324
317.668	15091
317.757	26812
317.847	79632
317.936	288872
318.025	77005
318.114	56146
318.203	24308
318.293	20454
318.382	39786
318.471	28170
318.560	32431
318.649	41961
318.738	12065
318.828	10679
318.917	10039
319.006	11724
319.095	24658
319.184	56782
319.273	37799
319.362	22642
319.451	9076
319.540	7682
319.629	20054
319.718	31196
319.807	13522
319.896	21960
319.985	77411
320.074	27769
320.163	8734
320.252	14004
320.341	10012
320.430	8711
320.519	14905
320.608	9178
320.697	8185
320.786	9409
320.875	12394
320.964	15710
321.053	23823
321.142	32478
321.230	33719
321.319	24469
321.408	53292
321.497	24772
321.586	24622
321.675	23763
321.764	22884
321.852	15461
321.941	31071
322.030	21386
322.119	21808
322.207	55736
322.296	33491
322.385	20532
322.474	27901
322.562	75611
322.651	34844
322.740	29077
322.829	36198
322.917	29598
323.006	19832
323.095	18615
323.183	12539
323.272	19761
323.361	35170
323.449	99410
323.538	31509
323.626	66728
323.715	38346
323.804	16730
323.892	57354
323.981	31027
324.069	12103
324.158	30572
324.246	27015
324.335	13569
324.424	20983
324.512	7779
324.601	11908
324.689	23231
324.778	41335
324.866	24141
324.954	8241
325.043	8440
325.131	14625
325.220	21702
325.308	25355
325.397	19540
325.485	12346
325.574	5789
325.662	6692
325.750	7198
325.839	6210
325.927	6146
326.015	7583
326.104	10639
326.192	14114
326.280	5345
326.369	5809
326.457	9943
326.545	16041
326.634	7121
326.722	5876
326.810	6298
326.898	6222
326.987	7630
327.075	15826
327.163	15780
327.251	7937
327.340	15726
327.428	21060
327.516	7257
327.604	7570
327.692	6117
327.781	7063
327.869	11239
327.957	7807
328.045	7788
328.133	4646
328.221	5911
328.309	5466
328.397	5802
328.485	7644
328.574	12697
328.662	38347
328.750	17424
328.838	8235
328.926	5091
329.014	4562
329.102	6215
329.190	15091
329.278	10695
329.366	4340
329.454	4389
329.542	4780
329.630	2758
329.718	4056
329.806	6158
329.893	5698
329.981	4044
330.069	6155
330.157	17815
330.245	49934
330.333	23965
330.421	7817
330.509	11112
330.597	43169
330.684	25191
330.772	8944
330.860	8149
330.948	9586
331.036	5897
331.123	3832
331.211	4272
331.299	5425
331.387	9275
331.475	16351
331.562	7233
331.650	4379
331.738	5337
331.825	7122
331.913	4723
332.001	4333
332.089	5830
332.176	11308
332.264	27551
332.352	19368
332.439	7263
332.527	5788
332.614	5189
332.702	6712
332.790	6415
332.877	15973
332.965	32350
333.052	14833
333.140	16931
333.228	45656
333.315	10796
333.403	8273
333.490	18945
333.578	24002
333.665	64581
333.753	22633
333.840	6719
333.928	9146
334.015	18601
334.103	28001
334.190	79187
334.278	22000
334.365	16426
334.452	14539
334.540	9574
334.627	10699
334.715	13780
334.802	27544
334.889	122797
334.977	129362
335.064	29111
335.151	11104
335.239	9740
335.326	11850
335.413	39352
335.501	46712
335.588	10071
335.675	8406
335.762	9268
335.850	14527
335.937	18047
336.024	39690
336.111	138486
336.199	72883
336.286	20504
336.373	10356
336.460	6897
336.547	6531
336.635	7424
336.722	7188
336.809	7441
336.896	11146
336.983	24324
337.070	51079
337.157	80361
337.245	72167
337.332	46935
337.419	7894
337.506	4550
337.593	6918
337.680	14977
337.767	38902
337.854	13250
337.941	15952
338.028	23700
338.115	9458
338.202	9585
338.289	19856
338.376	69283
338.463	20207
338.550	24049
338.637	23401
338.724	12627
338.811	19520
338.898	5335
338.984	4606
339.071	5086
339.158	8369
339.245	19793
339.332	12605
339.419	15300
339.506	13473
339.593	3216
339.679	4934
339.766	4101
339.853	6733
339.940	15445
340.027	6560
340.113	6136
340.200	8112
340.287	6508
340.374	7986
340.460	14626
340.547	6500
340.634	13081
340.720	45067
340.807	24207
340.894	6825
340.980	5401
341.067	5040
341.154	6228
341.240	11259
341.327	21666
341.414	9610
341.500	12118
341.587	7028
341.674	5579
341.760	14663
341.847	16270
341.933	5713
342.020	3476
342.106	3853
342.193	6825
342.279	11988
342.366	9621
342.452	14840
342.539	8304
342.625	19763
342.712	46786
342.798	18096
342.885	8005
342.971	3679
343.058	4434
343.144	4738
343.230	5143
343.317	8572
343.403	6584
343.490	4352
343.576	4044
343.662	5919
343.749	6703
343.835	8916
343.921	19876
344.008	117301
344.094	247629
344.180	51100
344.267	18963
344.353	65559
344.439	59271
344.525	23608
344.612	11287
344.698	8992
344.784	5677
344.870	4789
344.957	5713
345.043	8875
345.129	5983
345.215	13788
345.301	9227
345.387	6327
345.474	3595
345.560	4073
345.646	4712
345.732	4390
345.818	8008
345.904	6972
345.990	7038
346.076	7394
346.162	12011
346.249	6680
346.335	4996
346.421	7163
346.507	29317
346.593	96515
346.679	19478
346.765	6628
346.851	7264
346.937	5338
347.023	5133
347.108	6175
347.194	5419
347.280	6082
347.366	9186
347.452	35304
347.538	124876
347.624	77345
347.710	55358
347.796	9688
347.882	4387
347.967	4872
348.053	4466
348.139	4184
348.225	4809
348.311	4880
348.397	4302
348.482	6823
348.568	7538
348.654	5483
348.740	13038
348.825	11062
348.911	14290
348.997	56945
349.083	104604
349.168	15585
349.254	7424
349.340	7347
349.425	4685
349.511	6831
349.597	7655
349.682	17850
349.768	59761
349.854	25372
349.939	5891
350.025	4501
350.110	4364
350.196	4208
350.282	3247
350.367	4182
350.453	8033
350.538	8267
350.624	7460
350.709	6644
350.795	4132
350.880	3883
350.966	6459
351.051	8823
351.137	5650
351.222	6009
351.308	18419
351.393	47863
351.479	15143
351.564	6269
351.649	5051
351.735	3941
351.820	4198
351.906	5234
351.991	7919
352.076	31599
352.162	44739
352.247	8790
352.332	6922
352.418	16040
352.503	20287
352.588	68061
352.673	49284
352.759	12049
352.844	6104
352.929	7967
353.014	9716
353.100	7390
353.185	13797
353.270	18049
353.355	16985
353.441	6190
353.526	7139
353.611	16420
353.696	15788
353.781	10307
353.866	4275
353.952	6783
354.037	14540
354.122	33981
354.207	28964
354.292	10071
354.377	4910
354.462	4487
354.547	7609
354.632	6526
354.717	9674
354.802	15517
354.887	6940
354.972	4644
355.057	4503
355.142	3511
355.227	5696
355.312	11259
355.397	22343
355.482	52283
355.567	23183
355.652	18910
355.737	21506
355.822	74325
355.907	53902
355.991	9358
356.076	4810
356.161	6171
356.246	5402
356.331	7367
356.416	20381
356.501	135450
356.585	128078
356.670	18318
356.755	11633
356.840	18592
356.924	92279
357.009	305685
357.094	95983
357.179	21960
357.263	15659
357.348	13371
357.433	13189
357.517	12903
357.602	11570
357.687	12042
357.771	36677
357.856	146050
357.941	67518
358.025	72963
358.110	290923
358.195	113303
358.279	17603
358.364	14252
358.448	48594
358.533	123217
358.617	85160
358.702	87324
358.787	29688
358.871	16900
358.956	14136
359.040	7395
359.125	6897
359.209	12936
359.294	75578
359.378	119018
359.462	25452
359.547	10257
359.631	6351
359.716	4518
359.800	5331
359.885	7882
359.969	6816
360.053	5571
360.138	5821
360.222	10553
360.306	18842
360.391	17710
360.475	69401
360.559	126364
360.644	56508
360.728	35422
360.812	75725
360.896	195081
360.981	62600
361.065	26520
361.149	8870
361.233	9719
361.318	8855
361.402	13161
361.486	9078
361.570	7996
361.654	9983
361.739	26737
361.823	130405
361.907	190844
361.991	32060
362.075	17151
362.159	33620
362.243	25011
362.327	34143
362.411	52878
362.495	23135
362.580	10337
362.664	7838
362.748	7735
362.832	11679
362.916	21491
363.000	82676
363.084	227357
363.168	242372
363.252	48137
363.336	16820
363.420	20069
363.503	52491
363.587	56915
363.671	14650
363.755	11747
363.839	17326
363.923	10584
364.007	21123
364.091	21765
364.175	26973
364.258	97134
364.342	106603
364.426	198580
364.510	100439
364.594	32068
364.677	38659
364.761	175817
364.845	110376
364.929	31552
365.013	23188
365.096	21271
365.180	22956
365.264	25307
365.347	85329
365.431	33323
365.515	9920
365.598	7546
365.682	7164
365.766	7360
365.849	9093
365.933	8087
366.017	8974
366.100	5595
366.184	3835
366.267	6703
366.351	5778
366.435	4639
366.518	4160
366.602	5182
366.685	5923
366.769	6927
366.852	9028
366.936	15509
367.019	10795
367.103	6505
367.186	10581
367.270	5705
367.353	4270
367.436	6845
367.520	5578
367.603	8152
367.687	10688
367.770	20023
367.853	13661
367.937	47874
368.020	74339
368.104	15673
368.187	16026
368.270	20092
368.353	17396
368.437	23262
368.520	43937
368.603	29275
368.687	52923
368.770	93026
368.853	21147
368.936	17885
369.020	14395
369.103	7800
369.186	5672
369.269	6658
369.352	14286
369.436	17784
369.519	11184
369.602	6313
369.685	8300
369.768	7038
369.851	6345
369.934	4382
370.018	7257
370.101	16603
370.184	12914
370.267	9418
370.350	18508
370.433	28049
370.516	99838
370.599	147239
370.682	45499
370.765	46414
370.848	61716
370.931	120475
371.014	38660
371.097	8473
371.180	7641
371.263	6244
371.346	4577
371.429	6741
371.511	5859
371.594	11938
371.677	16065
371.760	14822
371.843	19874
371.926	103316
372.009	216873
372.091	60903
372.174	48366
372.257	120643
372.340	42307
372.423	23377
372.505	20169
372.588	13074
372.671	38398
372.754	121662
372.836	54293
372.919	25907
373.002	41945
373.085	17974
373.167	20023
373.250	50454
373.332	116144
373.415	161701
373.498	316483
373.580	112619
373.663	224641
373.746	245367
373.828	43800
373.911	17457
373.993	16339
374.076	41804
374.159	37885
374.241	29787
374.324	96711
374.406	62177
374.489	100450
374.571	268187
374.654	97868
374.736	53289
374.819	170612
374.901	239815
374.983	233701
375.066	37717
375.148	15073
375.231	39806
375.313	65974
375.395	24895
375.478	10199
375.560	9992
375.643	14346
375.725	52352
375.807	219671
375.890	139720
375.972	43309
376.054	25548
376.136	35330
376.219	18832
376.301	63864
376.383	182564
376.465	61002
376.548	33881
376.630	48860
376.712	151495
376.794	62483
376.877	9743
376.959	5539
377.041	6897
377.123	9000
377.205	9890
377.287	4042
377.369	5542
377.452	6148
377.534	5539
377.616	5594
377.698	6710
377.780	4648
377.862	6775
377.944	6415
378.026	3891
378.108	5129
378.190	4084
378.272	5989
378.354	4739
378.436	4331
378.518	7619
378.600	19711
378.682	22579
378.764	65771
378.846	47192
378.928	12886
379.010	18063
379.091	11050
379.173	6080
379.255	6107
379.337	10261
379.419	33333
379.501	95836
379.583	34748
379.664	10637
379.746	23018
379.828	61841
379.910	85481
379.991	73705
380.073	12711
380.155	9760
380.237	7450
380.318	6426
380.400	7597
380.482	15594
380.564	21445
380.645	22417
380.727	20438
380.809	12630
380.890	9781
380.972	7554
381.053	8367
381.135	10021
381.217	23234
381.298	65281
381.380	31380
381.461	30258
381.543	156817
381.624	173971
381.706	29575
381.787	17119
381.869	20031
381.951	72589
382.032	261744
382.113	140121
382.195	27840
382.276	23388
382.358	53638
382.439	138740
382.521	159037
382.602	245521
382.684	105371
382.765	196576
382.846	269004
382.928	505108
383.009	253853
383.090	171326
383.172	693112
383.253	987896
383.334	290265
383.416	236289
383.497	117878
383.578	65796
383.659	136199
383.741	571320
383.822	1401506
383.903	649338
383.984	190756
384.066	255002
384.147	143900
384.228	36720
384.309	27734
384.390	21743
384.471	17590
384.553	19197
384.634	20046
384.715	21543
384.796	13898
384.877	18092
384.958	66453
385.039	70875
385.120	24762
385.201	14781
385.282	15467
385.363	16239
385.444	16393
385.525	32880
385.606	110209
385.687	88191
385.768	19499
385.849	25112
385.930	115073
386.011	185738
386.092	44347
386.173	12509
386.254	10115
386.335	10147
386.416	11946
386.496	40079
386.577	60750
386.658	20062
386.739	12677
386.820	11559
386.901	9199
386.981	10966
387.062	10875
387.143	20321
387.224	67855
387.304	56311
387.385	21753
387.466	14380
387.547	16642
387.627	16287
387.708	29865
387.789	119509
387.869	145892
387.950	37278
388.031	9444
388.111	6092
388.192	12978
388.273	17576
388.353	13364
388.434	11660
388.514	27885
388.595	128079
388.676	148902
388.756	59723
388.837	56697
388.917	33446
388.998	8850
389.078	9244
389.159	8905
389.239	8399
389.320	13800
389.400	10944
389.480	25898
389.561	69199
389.641	33374
389.722	12351
389.802	18224
389.883	30742
389.963	85647
390.043	46930
390.124	12881
390.204	24624
390.284	71456
390.365	42975
390.445	49195
390.525	178620
390.605	151841
390.686	39662
390.766	17572
390.846	11841
390.927	7670
391.007	8633
391.087	10859
391.167	13301
391.247	10898
391.328	12369
391.408	14763
391.488	10775
391.568	8194
391.648	11624
391.728	15695
391.808	15766
391.888	19512
391.969	42417
392.049	61047
392.129	25764
392.209	35490
392.289	85464
392.369	44057
392.449	26601
392.529	22731
392.609	25414
392.689	36103
392.769	94783
392.849	80627
392.929	61041
393.009	132352
393.089	130450
393.169	175385
393.248	567539
393.328	1673518
393.408	1621947
393.488	508869
393.568	158186
393.648	76653
393.728	49948
393.807	33968
393.887	29272
393.967	24670
394.047	25393
394.127	25920
394.206	36553
394.286	119934
394.366	536795
394.446	514107
394.525	99492
394.605	28490
394.685	22324
394.764	31072
394.844	50425
394.924	40699
395.003	19193
395.083	15667
395.163	14280
395.242	12733
395.322	14154
395.402	10939
395.481	15425
395.561	26033
395.640	65831
395.720	68729
395.799	66273
395.879	50481
395.958	43561
396.038	168014
396.117	699597
396.197	686355
396.276	161296
396.356	55552
396.435	42601
396.515	43515
396.594	64989
396.673	144060
396.753	563635
396.832	1482885
396.912	996421
396.991	243631
397.070	75855
397.150	41054
397.229	31368
397.308	42752
397.388	64200
397.467	30281
397.546	16046
397.625	12727
397.705	17866
397.784	14914
397.863	10284
397.942	9047
398.022	8600
398.101	18384
398.180	44208
398.259	22456
398.338	11511
398.417	10442
398.497	7398
398.576	8321
398.655	5817
398.734	6009
398.813	6808
398.892	16870
398.971	48749
399.050	24044
399.129	7116
399.208	4872
399.287	5178
399.366	3708
399.445	5219
399.524	5299
399.603	4551
399.682	10064
399.761	22684
399.840	57769
399.919	40031
399.998	7579
400.077	3501
400.156	3323
400.235	6540
400.313	3533
400.392	6335
400.471	32736
400.550	49447
400.629	12764
400.708	6720
400.786	5013
400.865	8520
400.944	9954
401.023	8544
401.102	2941
401.180	3341
401.259	3006
401.338	4327
401.416	6148
401.495	4927
401.574	4289
401.652	3885
401.731	6050
401.810	5900
401.888	3419
401.967	3663
402.046	5781
402.124	5752
402.203	7221
402.281	5824
402.360	8020
402.438	13422
402.517	7499
402.596	4658
402.674	3565
402.753	3547
402.831	4614
402.910	5569
402.988	27457
403.066	94808
403.145	49020
403.223	28859
403.302	75291
403.380	52939
403.459	51404
403.537	19847
403.615	7153
403.694	3067
403.772	3566
403.850	3125
403.929	2365
404.007	4459
404.085	10667
404.164	11191
404.242	4746
404.320	6294
404.398	11910
404.477	40380
404.555	193879
404.633	152022
404.711	20587
404.789	7060
404.868	6206
404.946	3358
405.024	3234
405.102	2733
405.180	1862
405.258	2236
405.336	3059
405.415	3457
405.493	7644
405.571	8410
405.649	3793
405.727	3015
405.805	5733
405.883	7046
405.961	5958
406.039	4811
406.117	2766
406.195	9236
406.273	42646
406.351	156438
406.429	78674
406.507	9479
406.585	3723
406.663	4301
406.740	6969
406.818	5293
406.896	2983
406.974	5458
407.052	12209
407.130	89687
407.208	115555
407.285	21067
407.363	4681
407.441	4677
407.519	3388
407.596	5383
407.674	15486
407.752	47928
407.830	36283
407.907	10630
407.985	4996
408.063	3298
408.141	1907
408.218	6107
408.296	5546
408.373	5757
408.451	5111
408.529	5260
408.606	3017
408.684	2103
408.762	2667
408.839	1406
408.917	2238
408.994	2964
409.072	2019
409.149	4584
409.227	9384
409.304	13582
409.382	10422
409.459	13068
409.537	17891
409.614	13422
409.692	8541
409.769	10581
409.846	19364
409.924	22399
410.001	13157
410.079	7456
410.156	6147
410.233	5536
410.311	5209
410.388	3692
410.465	5556
410.543	5111
410.620	4262
410.697	5439
410.775	5688
410.852	3848
410.929	6849
411.006	8893
411.083	5501
411.161	12254
411.238	10528
411.315	4708
411.392	3908
411.469	6790
411.547	7181
411.624	3358
411.701	3475
411.778	5126
411.855	10041
411.932	5705
412.009	2558
412.086	3767
412.163	3609
412.240	3838
412.317	4519
412.394	3461
412.471	2346
412.548	1712
412.625	2909
412.702	4803
412.779	7650
412.856	5225
412.933	2146
413.010	2781
413.087	5775
413.164	29614
413.241	39388
413.318	9342
413.395	6954
413.471	8975
413.548	4226
413.625	3588
413.702	3123
413.779	2106
413.855	1423
413.932	1820
414.009	1355
414.086	1622
414.162	2015
414.239	5559
414.316	28187
414.393	62939
414.469	19837
414.546	2706
414.623	1770
414.699	3051
414.776	3265
414.853	2980
414.929	2722
415.006	2123
415.082	2645
415.159	2153
415.236	2681
415.312	3756
415.389	6245
415.465	8620
415.542	4552
415.618	3289
415.695	5228
415.771	4455
415.848	3068
415.924	3492
416.000	2390
416.077	2768
416.153	603
416.230	313
416.306	828
416.383	1138
416.459	1652
416.535	1690
416.612	1140
416.688	2264
416.764	3260
416.841	3157
416.917	2773
416.993	2929
417.069	3673
417.146	4039
417.222	4525
417.298	3342
417.374	1431
417.451	2087
417.527	4452
417.603	4856
417.679	3442
417.755	2566
417.831	954
417.908	1469
417.984	1557
418.060	1895
418.136	7888
418.212	10048
418.288	3219
418.364	2102
418.440	1819
418.516	4665
418.592	4518
418.668	11343
418.744	18113
418.820	12662
418.896	3553
418.972	1045
419.048	2729
419.124	9230
419.200	5403
419.276	1583
419.352	694
419.428	2042
419.504	2973
419.579	4521
419.655	3374
419.731	4197
419.807	12850
419.883	23107
419.959	14637
420.034	4926
420.110	10642
420.186	40376
420.262	27419
420.337	5958
420.413	5445
420.489	2906
420.565	4469
420.640	2868
420.716	3660
420.792	2957
420.867	3767
420.943	3540
421.019	6261
421.094	5043
421.170	3269
421.245	3129
421.321	4407
421.397	4244
421.472	11410
421.548	26425
421.623	18721
421.699	7898
421.774	8204
421.850	7477
421.925	12600
422.001	11530
422.076	10748
422.152	13321
422.227	20458
422.302	24289
422.378	37877
422.453	72354
422.529	185372
422.604	492368
422.679	686319
422.755	471210
422.830	182118
422.905	74962
422.981	40745
423.056	28073
423.131	19660
423.207	14278
423.282	14696
423.357	18712
423.432	13920
423.508	13036
423.583	24891
423.658	16864
423.733	8022
423.808	7629
423.883	9605
423.959	8187
424.034	9699
424.109	7702
424.184	4042
424.259	4211
424.334	3232
424.409	2674
424.484	3499
424.559	3979
424.634	3972
424.709	7455
424.784	6583
424.859	4683
424.934	6920
425.009	27590
425.084	46507
425.159	16194
425.234	4728
425.309	7604
425.384	49353
425.459	78980
425.534	19208
425.609	3355
425.683	2377
425.758	3091
425.833	2898
425.908	5116
425.983	18583
426.058	46912
426.132	17963
426.207	3685
426.282	5155
426.357	3298
426.431	2367
426.506	3503
426.581	1814
426.655	2691
426.730	2845
426.805	2328
426.879	3267
426.954	3451
427.029	9012
427.103	51728
427.178	127819
427.253	51532
427.327	8498
427.402	22531
427.476	71948
427.551	32891
427.625	5193
427.700	3818
427.774	2056
427.849	3526
427.923	1672
427.998	2385
428.072	3983
428.147	11720
428.221	58077
428.296	177688
428.370	85569
428.444	10510
428.519	6349
428.593	9252
428.667	8369
428.742	12069
428.816	20607
428.890	113630
428.965	201433
429.039	61576
429.113	14295
429.188	6999
429.262	3369
429.336	7560
429.410	20254
429.485	12791
429.559	8143
429.633	6651
429.707	4738
429.781	17598
429.855	101809
429.930	148691
430.004	48532
430.078	45459
430.152	68934
430.226	227371
430.300	207656
430.374	32276
430.448	9570
430.522	17129
430.596	44601
430.670	47311
430.744	187254
430.818	236212
430.892	42958
430.966	8019
431.040	4498
431.114	1316
431.188	1258
431.262	2475
431.336	2178
431.410	5835
431.484	13453
431.557	11077
431.631	2925
431.705	6112
431.779	38410
431.853	162509
431.927	102554
432.000	12250
432.074	3718
432.148	2903
432.222	2774
432.295	1581
432.369	2072
432.443	6807
432.516	51426
432.590	131125
432.664	41629
432.737	5748
432.811	2174
432.885	847
432.958	1681
433.032	651
433.106	-247
433.179	1299
433.253	1061
433.326	495
433.400	958
433.473	692
433.547	31
433.620	1576
433.694	5142
433.767	6191
433.841	2221
433.914	3259
433.988	3880
434.061	2663
434.134	1454
434.208	511
434.281	285
434.355	1244
434.428	4072
434.501	3636
434.575	1334
434.648	831
434.721	229
434.795	-102
434.868	795
434.941	562
435.014	1496
435.088	3355
435.161	10107
435.234	12612
435.307	10009
435.381	5008
435.454	6534
435.527	11225
435.600	10280
435.673	6554
435.746	4424
435.819	3123
435.892	2889
435.966	2664
436.039	1754
436.112	1711
436.185	263
436.258	407
436.331	86
436.404	172
436.477	31
436.550	319
436.623	683
436.696	64
436.769	1080
436.842	1126
436.915	2055
436.987	2639
437.060	1769
437.133	1504
437.206	953
437.279	1342
437.352	356
437.425	1419
437.498	1816
437.570	4494
437.643	4686
437.716	1372
437.789	642
437.861	5733
437.934	17010
438.007	7985
438.080	1845
438.152	2341
438.225	9016
438.298	78381
438.370	205090
438.443	78185
438.516	18006
438.588	4487
438.661	1446
438.734	1461
438.806	1881
438.879	2633
438.951	3885
439.024	8960
439.096	2193
439.169	1686
439.241	124
439.314	774
439.386	1713
439.459	3957
439.531	7193
439.604	3005
439.676	1005
439.749	1583
439.821	502
439.893	1368
439.966	434
440.038	2487
440.110	3178
440.183	1371
440.255	1596
440.327	5527
440.400	26339
440.472	116721
440.544	73309
440.617	9083
440.689	6969
440.761	9303
440.833	14457
440.905	9685
440.978	1642
441.050	1257
441.122	1540
441.194	496
441.266	937
441.338	1070
441.411	5212
441.483	32991
441.555	48538
441.627	11059
441.699	3749
441.771	2939
441.843	2024
441.915	1293
441.987	1325
442.059	2039
442.131	2455
442.203	5470
442.275	6463
442.347	7800
442.419	15361
442.491	88640
442.563	209124
442.635	84226
442.706	23366
442.778	15770
442.850	4931
442.922	3846
442.994	3767
443.066	5248
443.137	5755
443.209	6141
443.281	10317
443.353	23683
443.425	105908
443.496	379408
443.568	362655
443.640	132925
443.711	26695
443.783	10279
443.855	5031
443.926	3593
443.998	2736
444.070	3779
444.141	4473
444.213	6705
444.285	8099
444.356	7026
444.428	5440
444.499	2408
444.571	1796
444.642	2575
444.714	3878
444.785	6250
444.857	6450
444.928	9026
445.000	7918
445.071	9153
445.143	12253
445.214	13245
445.285	18912
445.357	54536
445.428	240301
445.500	530104
445.571	336160
445.642	185474
445.714	56943
445.785	26583
445.856	11889
445.928	9695
445.999	9386
446.070	7391
446.141	5957
446.213	7913
446.284	4715
446.355	3634
446.426	2766
446.497	2364
446.569	3349
446.640	7759
446.711	7202
446.782	2301
446.853	3732
446.924	4629
446.995	2747
447.066	1650
447.138	3201
447.209	2885
447.280	198
447.351	765
447.422	734
447.493	2602
447.564	3020
447.635	5790
447.706	2483
447.777	737
447.847	525
447.918	849
447.989	1644
448.060	2901
448.131	6726
448.202	7031
448.273	5009
448.344	2688
448.414	1534
448.485	1515
448.556	999
448.627	336
448.698	1047
448.768	-336
448.839	637
448.910	3164
448.981	3816
449.051	1674
449.122	708
449.193	478
449.263	434
449.334	435
449.405	2422
449.475	8418
449.546	5496
449.616	4508
449.687	5372
449.758	3085
449.828	923
449.899	1732
449.969	554
450.040	490
450.110	1504
450.181	2676
450.251	907
450.322	653
450.392	672
450.463	967
450.533	275
450.604	193
450.674	605
450.744	1426
450.815	687
450.885	1803
450.955	1755
451.026	790
451.096	672
451.166	2150
451.237	4381
451.307	10533
451.377	5634
451.447	1648
451.518	214
451.588	675
451.658	1307
451.728	2054
451.799	8676
451.869	13277
451.939	3315
452.009	1052
452.079	179
452.149	1113
452.219	2745
452.289	11775
452.360	10869
452.430	2560
452.500	3580
452.570	5787
452.640	11136
452.710	27635
452.780	30796
452.850	22405
452.920	20705
452.990	8305
453.060	4200
453.129	5801
453.199	4928
453.269	15736
453.339	37204
453.409	58722
453.479	47962
453.549	70840
453.619	71657
453.688	34042
453.758	6178
453.828	2478
453.898	1437
453.968	2063
454.037	1492
454.087	1870
454.107	2011
454.168	1214
454.177	1083
454.247	604
454.249	617
454.316	446
454.330	774
454.386	1983
454.411	3246
454.456	5140
454.492	7531
454.525	9643
454.574	6088
454.595	4530
454.655	2716
454.665	2438
454.734	1493
454.736	1589
454.804	4265
454.817	5636
454.873	10852
454.898	12345
454.943	14888
454.979	10633
455.013	6802
455.060	4073
455.082	3039
455.141	3224
455.152	3187
455.221	7785
455.222	7940
455.291	16317
455.303	16593
455.360	17510
455.384	23041
455.430	32576
455.465	26256
455.499	20322
455.546	14611
455.569	11789
455.627	9833
455.638	9520
455.707	2221
455.708	2234
455.777	1756
455.789	1853
455.846	2233
455.869	2238
455.916	2197
455.950	1985
455.985	1764
456.031	2057
456.054	2174
456.112	1798
456.124	1738
456.193	2238
456.193	2220
456.262	1560
456.274	1819
456.332	3179
456.355	3303
456.401	3187
456.436	2915
456.470	2596
456.516	1972
456.540	1704
456.597	1213
456.609	1119
456.678	1618
456.678	1600
456.747	1221
456.759	1204
456.817	1482
456.840	1763
456.886	1974
456.920	1669
456.955	1573
457.001	2508
457.024	3024
457.082	3649
457.093	3705
457.162	5075
457.163	5100
457.232	5657
457.243	5355
457.301	4081
457.324	3374
457.370	2263
457.405	2601
457.439	2888
457.485	3006
457.508	3161
457.566	4072
457.577	4318
457.646	5380
457.647	5432
457.715	14474
457.727	16515
457.784	29034
457.808	37971
457.853	47036
457.889	52752
457.922	51130
457.969	35161
457.991	37200
458.050	47827
458.060	49595
458.129	83228
458.130	84209
458.198	76408
458.211	67744
458.267	38259
458.292	25999
458.336	15968
458.372	14939
458.405	21980
458.453	35583
458.474	45945
458.533	84154
458.543	86585
458.611	132353
458.614	132945
458.680	76891
458.694	58954
458.749	27764
458.775	19732
458.818	10777
458.855	8376
458.887	6803
458.936	5290
458.955	4752
459.016	4509
459.024	4574
459.093	5640
459.097	5675
459.162	5406
459.177	5394
459.230	5469
459.257	5777
459.299	6230
459.338	6409
459.368	6734
459.418	7606
459.437	7299
459.499	5035
459.505	4918
459.574	4542
459.579	4526
459.643	3986
459.659	3782
459.711	3731
459.740	3872
459.780	3912
459.820	4296
459.849	4582
459.900	4853
459.917	5038
459.981	5641
459.986	5646
460.054	6365
460.061	6430
460.123	5898
460.141	5421
460.191	5361
460.222	5987
460.260	6604
460.302	7506
460.328	7494
460.382	6383
460.397	6219
460.462	5195
460.465	5269
460.534	7909
460.543	8322
460.602	21098
460.623	26049
460.671	39304
460.703	52374
460.739	49265
460.783	40508
460.808	34963
460.864	10265
460.876	8106
460.944	5081
460.945	5049
461.013	4883
461.024	4901
461.081	5053
461.104	5538
461.150	5945
461.184	5698
461.218	5540
461.264	5197
461.286	5317
461.345	6015
461.355	5883
461.423	5179
461.425	5140
461.491	5584
461.505	5873
461.559	9026
461.585	10569
461.628	13133
461.665	15921
461.696	16415
461.745	18570
461.764	17391
461.825	9147
461.832	9048
461.901	6547
461.905	6600
461.969	6035
461.985	5832
462.037	5748
462.065	5719
462.105	5509
462.145	5485
462.173	6800
462.225	9240
462.241	9670
462.305	12271
462.310	12077
462.378	9515
462.385	8852
462.446	7426
462.465	7299
462.514	7403
462.545	7810
462.582	7922
462.625	8049
462.650	7235
462.705	5121
462.718	5098
462.785	5369
462.786	5387
462.854	5692
462.865	5936
462.922	7342
462.945	7832
462.990	7006
463.025	5825
463.058	5616
463.104	5456
463.126	5129
463.184	4378
463.194	4490
463.262	5429
463.264	5458
463.330	5246
463.344	5214
463.398	5941
463.424	6122
463.466	5603
463.504	5476
463.533	5708
463.583	5861
463.601	6085
463.663	6610
463.669	6652
463.737	7623
463.743	7708
463.805	10401
463.823	11146
463.873	14167
463.903	16235
463.940	17160
463.982	18600
464.008	16044
464.062	8863
464.076	8460
464.142	5723
464.144	5697
464.211	5849
464.221	5901
464.279	6119
464.301	6268
464.347	6945
464.381	7379
464.414	8276
464.461	9422
464.482	11010
464.540	15618
464.550	16079
464.617	19341
464.620	19425
464.685	13395
464.699	11859
464.753	12055
464.779	12371
464.820	12772
464.859	12976
464.888	12176
464.938	10970
464.956	11170
465.018	11721
465.023	11864
465.091	13664
465.098	13808
465.158	15438
465.177	16071
465.226	14987
465.257	14011
465.293	12525
465.336	10618
465.361	10824
465.416	11540
465.428	12052
465.495	14866
465.496	14908
465.563	17904
465.575	18472
465.631	21197
465.654	22500
465.698	16158
465.734	10317
465.765	10037
465.813	9191
465.833	8822
465.893	8495
465.900	8531
465.968	8598
465.972	8593
466.035	8676
466.052	8694
466.102	8819
466.131	8839
466.170	8776
466.210	8746
466.237	9243
466.290	10055
466.304	10126
466.369	10485
466.372	10514
466.439	10835
466.449	10854
466.506	11645
466.528	11931
466.573	14626
466.607	16616
466.641	21280
466.687	27738
466.708	29584
466.766	34771
466.775	32681
466.842	16537
466.845	15738
466.909	12003
466.925	11162
466.977	11126
467.004	11156
467.044	11848
467.083	12512
467.111	13918
467.163	16524
467.178	16918
467.242	18387
467.245	18274
467.312	15258
467.321	14834
467.379	14699
467.400	14609
467.446	14866
467.480	15008
467.559	15090
467.638	13437
467.717	13032
467.796	15553
467.875	16772
467.955	15613
468.034	18831
468.113	31892
468.192	42531
468.271	19465
468.350	21720
468.429	30697
468.508	34476
468.588	21764
468.667	15139
468.746	13800
468.825	13581
468.904	11796
468.983	13188
469.062	15558
469.141	18664
469.220	11325
469.299	13229
469.378	13121
469.456	17959
469.535	15701
469.614	14876
469.693	14953
469.772	17819
469.851	20524
469.930	16795
470.009	16328
470.088	17563
470.166	26218
470.245	45948
470.324	57520
470.403	31059
470.482	18980
470.560	15308
470.639	15223
470.718	18113
470.797	14897
470.875	14683
470.954	16735
471.033	17292
471.111	11387
471.190	11053
471.269	10328
471.347	11020
471.426	11184
471.505	12995
471.583	14506
471.662	13607
471.740	12841
471.819	13978
471.898	12201
471.976	11419
472.055	11433
472.133	11928
472.212	14360
472.290	13449
472.369	11566
472.447	11530
472.526	10483
472.604	12709
472.683	12688
472.761	13286
472.839	12698
472.918	12427
472.996	12204
473.075	12990
473.153	11803
473.231	10376
473.310	12196
473.388	12954
473.466	11158
473.545	13409
473.623	18704
473.701	18293
473.780	14031
473.858	10680
473.936	13343
474.014	11923
474.093	13414
474.171	15241
474.249	17132
474.327	13586
474.405	10798
474.484	10758
474.562	10627
474.640	10860
474.718	10442
474.796	10745
474.874	10140
474.952	9357
475.030	9408
475.108	10566
475.187	11812
475.265	12962
475.343	19280
475.421	23162
475.499	12200
475.577	13149
475.655	13828
475.733	17383
475.811	26506
475.889	23729
475.966	18057
476.044	11049
476.122	14705
476.200	18749
476.278	14629
476.356	10601
476.434	10624
476.512	13681
476.590	18750
476.667	16790
476.745	9369
476.823	10123
476.901	9591
476.979	9049
477.056	9176
477.134	10019
477.212	9692
477.290	9994
477.367	8468
477.445	8600
477.523	8361
477.601	9328
477.678	9416
477.756	9908
477.834	10844
477.911	8745
477.989	8788
478.066	8359
478.144	9453
478.222	14335
478.299	23087
478.377	21049
478.454	8520
478.532	8956
478.609	9243
478.687	10345
478.764	8359
478.842	10431
478.919	12449
478.997	10709
479.074	7791
479.152	9363
479.229	11341
479.307	7749
479.384	8140
479.461	7220
479.539	7434
479.616	9744
479.694	8548
479.771	8820
479.848	9108
479.926	9786
480.003	12334
480.080	10175
480.157	7937
480.235	7722
480.312	7770
480.389	8082
480.467	11509
480.544	13545
480.621	8892
480.698	10685
480.775	10772
480.853	9269
480.930	8068
481.007	8527
481.084	8397
481.161	10014
481.238	8837
481.315	7929
481.392	7596
481.470	6899
481.547	8654
481.624	7727
481.701	7906
481.778	8554
481.855	8591
481.932	11219
482.009	16195
482.086	13738
482.163	11377
482.240	20286
482.317	31782
482.393	23217
482.470	10131
482.547	9676
482.624	8517
482.701	10184
482.778	9378
482.855	9499
482.932	9810
483.009	8605
483.085	11238
483.162	13963
483.239	14287
483.316	12666
483.393	13187
483.469	10319
483.546	10940
483.623	11464
483.699	8117
483.776	9586
483.853	10172
483.930	12350
484.006	23316
484.083	37603
484.160	30895
484.236	47599
484.313	36302
484.389	26390
484.466	25212
484.543	25463
484.619	29458
484.696	33776
484.772	27049
484.849	25870
484.925	22848
485.002	22365
485.078	23376
485.155	24195
485.231	21428
485.308	20328
485.384	20820
485.461	22739
485.537	29842
485.614	33324
485.690	20000
485.766	20364
485.843	21427
485.919	28896
485.995	30301
486.072	19874
486.148	19561
486.224	19386
486.301	19358
486.377	22189
486.453	23078
486.530	23101
486.606	28672
486.682	31293
486.758	31608
486.835	33220
486.911	28269
486.987	39459
487.063	54373
487.139	72464
487.215	49406
487.292	29363
487.368	26373
487.444	31475
487.520	44277
487.596	47237
487.672	91413
487.748	301572
487.824	433591
487.900	107590
487.976	33898
488.052	29921
488.128	33440
488.204	25906
488.280	21005
488.356	22462
488.432	33013
488.508	44501
488.584	24004
488.660	21966
488.736	21515
488.812	20950
488.888	25483
488.964	32725
489.039	65987
489.115	99704
489.191	56816
489.267	19043
489.343	17586
489.418	16708
489.494	15598
489.570	14326
489.646	17886
489.722	16325
489.797	16116
489.873	20947
489.949	32990
490.024	27895
490.100	14957
490.176	16047
490.251	18712
490.327	26124
490.403	15450
490.478	14549
490.554	13181
490.629	13203
490.705	13639
490.781	14600
490.856	13387
490.932	16329
491.007	17230
491.083	15541
491.158	13815
491.234	16395
491.309	25070
491.385	24472
491.460	14322
491.536	15082
491.611	14591
491.686	15880
491.762	22084
491.837	41672
491.913	66243
491.988	94072
492.063	118271
492.139	28658
492.214	21305
492.289	13962
492.365	11088
492.440	14284
492.515	12486
492.590	12965
492.666	10952
492.741	14467
492.816	16486
492.891	12268
492.967	12581
493.042	9988
493.117	10823
493.192	11361
493.267	16959
493.342	41203
493.418	54812
493.493	16696
493.568	11087
493.643	11271
493.718	12469
493.793	17186
493.868	20421
493.943	14034
494.018	10532
494.093	9802
494.168	11642
494.243	10580
494.318	9076
494.393	9450
494.468	9593
494.543	10445
494.618	11138
494.693	10145
494.768	9911
494.842	11197
494.917	9245
494.992	10173
495.067	9759
495.142	9526
495.217	11350
495.292	11012
495.366	12455
495.441	16464
495.516	18798
495.591	25450
495.665	89560
495.740	209718
495.815	77144
495.890	14009
495.964	8822
496.039	13143
496.114	11233
496.188	13102
496.263	12286
496.338	9871
496.412	11888
496.487	13582
496.561	14668
496.636	16133
496.710	11472
496.785	12548
496.860	12407
496.934	10024
497.009	11037
497.083	11407
497.158	10394
497.232	13410
497.307	15996
497.381	13399
497.455	13616
497.530	15680
497.604	12690
497.679	14352
497.753	19798
497.827	26099
497.902	23135
497.976	26975
498.050	58782
498.125	223117
498.199	217281
498.273	41446
498.348	29808
498.422	24433
498.496	23432
498.570	22493
498.645	14809
498.719	13595
498.793	16778
498.867	22944
498.941	28037
499.016	85984
499.090	224810
499.164	74707
499.238	14239
499.312	12311
499.386	17518
499.460	14422
499.534	13473
499.609	18306
499.683	19757
499.757	16803
499.831	37106
499.905	141883
499.979	126229
500.053	21821
500.127	24050
500.201	21892
500.275	14146
500.349	13128
500.422	15047
500.496	23242
500.570	48036
500.644	89631
500.718	142204
500.792	32849
500.866	11519
500.940	13148
501.013	11939
501.087	12966
501.161	23000
501.235	25113
501.309	42311
501.382	115943
501.456	97784
501.530	25883
501.603	34960
501.677	15772
501.751	7921
501.825	13478
501.898	17891
501.972	44693
502.046	28051
502.119	11599
502.193	24158
502.266	48775
502.340	22762
502.413	22250
502.487	39136
502.561	23007
502.634	11546
502.708	12258
502.781	10490
502.855	9571
502.928	6443
503.002	7334
503.075	7285
503.149	7675
503.222	7307
503.295	7881
503.369	9008
503.442	13075
503.516	34297
503.589	81759
503.662	51193
503.736	21587
503.809	43389
503.882	38669
503.956	58223
504.029	73915
504.102	159533
504.175	227004
504.249	60528
504.322	22195
504.395	13917
504.468	10594
504.542	9067
504.615	7811
504.688	8010
504.761	5191
504.834	9735
504.907	12519
504.980	18535
505.053	9793
505.127	9328
505.200	14582
505.273	8626
505.346	5905
505.419	5310
505.492	6509
505.565	5370
505.638	5777
505.711	5106
505.784	5686
505.857	4565
505.930	6555
506.003	4581
506.076	7255
506.149	7084
506.221	7745
506.294	8904
506.367	17665
506.440	61066
506.513	32572
506.586	9866
506.659	6733
506.731	7137
506.804	8196
506.877	12405
506.950	7860
507.022	6266
507.095	6142
507.168	9329
507.241	8884
507.313	5281
507.386	6853
507.459	12088
507.531	6950
507.604	5945
507.677	6509
507.749	4219
507.822	9577
507.894	18113
507.967	21854
508.040	12701
508.112	11827
508.185	11511
508.257	8990
508.330	15839
508.402	8859
508.475	7198
508.547	9614
508.620	8584
508.692	11950
508.765	8569
508.837	7487
508.909	7725
508.982	7363
509.054	9402
509.127	7348
509.199	6916
509.271	6546
509.344	5873
509.416	7301
509.488	6984
509.560	7668
509.633	8214
509.705	10145
509.777	8939
509.849	13130
509.922	8844
509.994	7277
510.066	7628
510.138	8230
510.210	17909
510.283	16319
510.355	12371
510.427	11976
510.499	10389
510.571	10815
510.643	9671
510.715	16950
510.787	13411
510.859	11573
510.931	12145
511.003	16372
511.076	14474
511.148	7984
511.219	7997
511.291	12694
511.363	12937
511.435	8791
511.507	6795
511.579	9243
511.651	9530
511.723	8003
511.795	7092
511.867	7834
511.939	9799
512.010	14006
512.082	12900
512.154	8949
512.226	8539
512.298	15024
512.369	20006
512.441	16791
512.513	16883
512.585	12126
512.656	12757
512.728	12438
512.800	10535
512.871	11669
512.943	11071
513.015	9749
513.086	9989
513.158	12341
513.230	10549
513.301	16643
513.373	21583
513.444	12559
513.516	10310
513.588	10585
513.659	11744
513.731	15315
513.802	12683
513.874	26803
513.945	43631
514.016	14693
514.088	10483
514.159	11785
514.231	15934
514.302	20258
514.374	14013
514.445	11825
514.516	18355
514.588	13481
514.659	11590
514.730	16453
514.802	16292
514.873	12025
514.944	13554
515.016	13097
515.087	13019
515.158	15583
515.229	17733
515.301	11330
515.372	14766
515.443	9814
515.514	10356
515.585	9303
515.656	11236
515.728	11411
515.799	10277
515.870	11720
515.941	12278
516.012	12968
516.083	18871
516.154	21605
516.225	27661
516.296	28721
516.367	28831
516.438	35520
516.509	46583
516.580	69946
516.651	244414
516.722	883358
516.793	316112
516.864	64112
516.935	62225
517.006	74978
517.077	99108
517.148	226430
517.219	1095158
517.289	1577140
517.360	227006
517.431	57807
517.502	27823
517.573	25928
517.643	24415
517.714	26814
517.785	31071
517.856	36223
517.926	47050
517.997	60842
518.068	82508
518.138	109232
518.209	166620
518.280	685512
518.350	2508530
518.421	855361
518.492	95683
518.562	50349
518.633	46090
518.703	47690
518.774	93278
518.845	285237
518.915	262758
518.986	62376
519.056	34023
519.127	43791
519.197	55046
519.268	82312
519.338	47371
519.408	18713
519.479	25660
519.549	19684
519.620	15489
519.690	11811
519.760	11648
519.831	12353
519.901	12262
519.971	10812
520.042	12171
520.112	13852
520.182	18865
520.253	23442
520.323	23899
520.393	67566
520.463	122346
520.534	79517
520.604	193184
520.674	50764
520.744	47558
520.814	213572
520.885	139076
520.955	30148
521.025	79686
521.095	31172
521.165	11766
521.235	9458
521.305	8244
521.375	9639
521.445	10987
521.515	14115
521.585	16124
521.655	13763
521.725	12757
521.795	11140
521.865	6633
521.935	13072
522.005	8890
522.075	7975
522.145	8820
522.215	10051
522.285	11269
522.355	13831
522.424	24344
522.494	21687
522.564	15502
522.634	32999
522.704	96722
522.774	34623
522.843	11238
522.913	10292
522.983	12081
523.053	10126
523.122	9959
523.192	14769
523.262	53186
523.331	47457
523.401	10862
523.471	7656
523.540	9360
523.610	6731
523.680	6844
523.749	7636
523.819	9204
523.888	8398
523.958	6195
524.027	8749
524.097	8241
524.166	8568
524.236	8433
524.305	10386
524.375	6953
524.444	6233
524.514	9684
524.583	7349
524.653	8617
524.722	13277
524.791	7628
524.861	9473
524.930	6809
524.999	7691
525.069	11053
525.138	8310
525.207	8356
525.277	9255
525.346	9253
525.415	9683
525.484	11539
525.554	11982
525.623	13833
525.692	15656
525.761	19452
525.830	25084
525.900	33135
525.969	48887
526.038	82620
526.107	186219
526.176	565908
526.245	427830
526.314	121181
526.383	284963
526.452	366444
526.522	635936
526.591	564798
526.660	108696
526.729	65063
526.797	71895
526.867	117117
526.935	465782
527.004	1237132
527.073	652228
527.142	59144
527.211	25044
527.280	19932
527.349	18756
527.418	10785
527.487	13076
527.555	10512
527.624	10367
527.693	7559
527.762	9089
527.831	6134
527.899	7182
527.968	6384
528.037	6604
528.106	8621
528.174	17221
528.243	11731
528.312	16916
528.380	21559
528.449	7854
528.518	7303
528.586	3358
528.655	6418
528.723	5213
528.792	5552
528.861	5609
528.929	4843
528.998	6831
529.066	5102
529.135	5087
529.203	4179
529.272	4144
529.340	7075
529.409	7500
529.477	4633
529.545	6835
529.614	10981
529.682	14658
529.751	14355
529.819	23510
529.887	10976
529.956	5858
530.024	7693
530.092	5852
530.161	7526
530.229	13297
530.297	5620
530.365	5590
530.434	5558
530.502	4512
530.570	5971
530.638	3769
530.707	6002
530.775	7145
530.843	4662
530.911	4502
530.979	5619
531.047	5451
531.115	6129
531.183	5654
531.252	6270
531.320	5270
531.388	4652
531.456	5426
531.524	4611
531.592	7537
531.660	7436
531.728	5111
531.796	5726
531.864	5525
531.932	5513
532.000	6979
532.067	5673
532.135	7244
532.203	8846
532.271	8191
532.339	17017
532.407	43477
532.475	24186
532.542	12976
532.610	13745
532.678	17868
532.746	77319
532.814	191150
532.881	47038
532.949	12445
533.017	9453
533.084	7840
533.152	5854
533.220	7355
533.287	7367
533.355	6422
533.423	7224
533.490	5652
533.558	6700
533.625	7684
533.693	7911
533.761	8273
533.828	8659
533.896	7992
533.963	16517
534.031	18564
534.098	26556
534.166	13665
534.233	9525
534.300	12184
534.368	11482
534.435	12259
534.503	16073
534.570	30291
534.637	21585
534.705	21201
534.772	26617
534.840	55155
534.907	253017
534.974	298668
535.041	32312
535.109	14695
535.176	10563
535.243	9704
535.310	10097
535.378	9648
535.445	9068
535.512	8796
535.579	9140
535.646	8045
535.714	10355
535.781	11491
535.848	10111
535.915	10911
535.982	9117
536.049	9946
536.116	11164
536.183	9689
536.250	10148
536.317	10117
536.384	12076
536.451	18088
536.518	18015
536.585	12699
536.652	14307
536.719	22175
536.786	18550
536.853	14408
536.920	19024
536.987	29980
537.053	27414
537.120	97718
537.187	76707
537.254	13610
537.321	11564
537.388	11547
537.454	9964
537.521	10604
537.588	8811
537.654	12477
537.721	13232
537.788	13790
537.855	10973
537.921	11517
537.988	11104
538.055	11960
538.121	9979
538.188	11237
538.254	15737
538.321	31070
538.388	18887
538.454	12255
538.521	12410
538.587	10275
538.654	11509
538.720	11827
538.787	11038
538.853	11887
538.920	12194
538.986	11611
539.053	11224
539.119	11972
539.185	12164
539.252	14764
539.318	19874
539.385	17942
539.451	13210
539.517	15236
539.583	16372
539.650	29472
539.716	67621
539.782	20704
539.849	11478
539.915	13163
539.981	12396
540.047	15031
540.114	13302
540.180	14290
540.246	13897
540.312	17761
540.378	30487
540.444	31356
540.510	31993
540.576	79853
540.643	25841
540.709	12613
540.775	13290
540.841	13417
540.907	19736
540.973	45103
541.039	26494
541.105	21199
541.171	14661
541.237	11999
541.303	13936
541.369	17073
541.435	17466
541.500	28522
541.566	19023
541.632	11479
541.698	10964
541.764	12256
541.830	10573
541.896	11094
541.961	11838
542.027	13007
542.093	12907
542.159	13359
542.224	12451
542.290	17455
542.356	27313
542.421	32266
542.487	16849
542.553	12742
542.618	13598
542.684	12686
542.750	12605
542.815	15861
542.881	19553
542.947	69867
543.012	47558
543.078	12746
543.143	11210
543.209	13358
543.274	11830
543.340	15233
543.405	29660
543.471	42147
543.536	13763
543.602	12242
543.667	10974
543.732	13269
543.798	10588
543.863	12196
543.928	11032
543.994	10882
544.059	12024
544.124	12094
544.190	13763
544.255	13230
544.320	12931
544.386	12653
544.451	17273
544.516	18900
544.581	19167
544.646	46081
544.712	66034
544.777	17186
544.842	14950
544.907	14100
544.972	13648
545.037	14463
545.102	15223
545.168	14263
545.233	15592
545.298	17409
545.363	17487
545.428	19979
545.493	30948
545.558	58925
545.623	26887
545.688	15937
545.753	16229
545.818	16365
545.883	16907
545.947	16576
546.012	17530
546.077	18165
546.142	19526
546.207	19390
546.272	24551
546.337	25301
546.401	22850
546.466	22592
546.531	21489
546.596	24956
546.661	24865
546.725	26149
546.790	25240
546.855	28224
546.919	29871
546.984	34533
547.049	37854
547.113	42288
547.178	45526
547.243	51907
547.307	60528
547.372	69042
547.436	68675
547.501	69739
547.565	75474
547.630	72271
547.695	69158
547.759	68206
547.823	68220
547.888	67124
547.952	68616
548.017	72807
548.081	75287
548.146	76213
548.210	77610
548.274	81454
548.339	78406
548.403	72752
548.468	65942
548.532	67746
548.596	68061
548.660	68026
548.725	75154
548.789	82349
548.853	80652
548.917	75792
548.982	74828
549.046	68267
549.110	58677
549.174	61855
549.238	71745
549.303	78163
549.367	81080
549.431	77006
549.495	72563
549.559	71914
549.623	84101
549.687	94472
549.751	96587
549.815	109633
549.879	109406
549.943	102623
550.007	109155
550.071	108731
550.135	99966
550.199	93235
550.263	90362
550.327	85415
550.391	88733
550.455	99148
550.519	101015
550.582	108184
550.646	129810
550.710	129301
550.774	123663
550.838	125612
550.901	128330
550.965	135129
551.029	140553
551.093	150182
551.156	164463
551.220	202405
551.284	248502
551.347	172341
551.411	146850
551.475	143432
551.538	133167
551.602	124605
551.666	115511
551.729	108896
551.793	105884
551.856	103295
551.920	102668
551.983	101308
552.047	100802
552.110	100683
552.174	102461
552.237	105441
552.301	97579
552.364	92451
552.428	90363
552.491	97033
552.554	97370
552.618	98557
552.681	103884
552.745	102725
552.808	140205
552.871	168433
552.934	115442
552.998	100160
553.061	96343
553.124	90640
553.187	90121
553.251	94181
553.314	92582
553.377	92639
553.440	99253
553.503	115264
553.567	123687
553.630	101824
553.693	97168
553.756	99713
553.819	95650
553.882	92989
553.945	92981
554.008	93419
554.071	93539
554.134	94214
554.197	87742
554.260	87116
554.323	89929
554.386	89926
554.449	92234
554.512	93835
554.575	88069
554.638	88603
554.701	86928
554.764	84839
554.827	83712
554.889	79197
554.952	74048
555.015	73664
555.078	75732
555.141	75907
555.203	75474
555.266	74776
555.329	73344
555.391	69866
555.454	71536
555.517	68476
555.580	64813
555.642	62394
555.705	62333
555.768	61457
555.830	60166
555.893	56335
555.955	55243
556.018	55044
556.080	54407
556.143	55879
556.206	56519
556.268	55030
556.330	55135
556.393	53401
556.455	50561
556.518	53446
556.580	51744
556.643	47159
556.705	46733
556.767	44105
556.830	45676
556.892	46779
556.955	52393
557.017	46127
557.079	42885
557.142	42559
557.204	43510
557.266	58901
557.328	49006
557.391	37585
557.453	35098
557.515	36091
557.577	40465
557.639	40336
557.701	37748
557.764	37077
557.826	40515
557.888	42650
557.950	45233
558.012	50179
558.074	65215
558.136	163350
558.198	391263
558.260	119889
558.322	51754
558.384	55732
558.446	63160
558.508	72613
558.570	86571
558.632	114407
558.694	147769
558.756	212906
558.818	701275
558.880	1611320
558.942	470992
559.003	421395
559.065	184071
559.127	79071
559.189	78249
559.251	86941
559.312	124778
559.374	333529
559.436	1121393
559.498	468696
559.559	88356
559.621	76655
559.683	86164
559.744	146960
559.806	536657
559.868	735720
559.929	124303
559.991	76690
560.052	127632
560.114	383784
560.176	210974
560.237	216902
560.299	332710
560.360	61001
560.422	27255
560.483	22852
560.545	21068
560.606	18929
560.667	18001
560.729	17087
560.790	16630
560.852	16223
560.913	16687
560.974	16039
561.036	15998
561.097	15833
561.158	16916
561.220	16935
561.281	16295
561.342	17412
561.403	18274
561.465	22210
561.526	45696
561.587	52855
561.648	17988
561.709	14674
561.771	14083
561.832	13753
561.893	13203
561.954	13183
562.015	12841
562.076	13750
562.137	13687
562.198	12685
562.259	13078
562.320	14576
562.381	15419
562.442	20389
562.503	16667
562.564	13332
562.625	13152
562.686	12523
562.747	14563
562.808	12146
562.869	12206
562.930	13372
562.991	11992
563.051	11653
563.112	12018
563.173	11092
563.234	10185
563.294	12133
563.355	12012
563.416	11858
563.477	10482
563.537	11931
563.598	11098
563.659	12500
563.720	11554
563.780	12640
563.841	12391
563.901	11140
563.962	10703
564.023	10301
564.083	11723
564.144	11537
564.204	10073
564.265	10486
564.325	11672
564.386	17272
564.446	16248
564.507	10905
564.567	10370
564.628	11314
564.688	10500
564.749	9974
564.809	11509
564.869	11988
564.930	9918
564.990	10493
565.050	10725
565.111	11393
565.171	10527
565.231	10467
565.292	10765
565.352	10047
565.412	9997
565.472	9857
565.532	10760
565.593	10712
565.653	9755
565.713	11758
565.773	11806
565.833	15058
565.893	17492
565.953	11419
566.013	10947
566.074	10727
566.134	13385
566.194	16297
566.254	16782
566.314	12223
566.374	10153
566.434	10992
566.494	10874
566.554	11165
566.614	10586
566.673	11199
566.733	11726
566.793	12143
566.853	12405
566.913	11016
566.973	11642
567.033	13129
567.092	14034
567.152	13680
567.212	13426
567.272	11726
567.331	12493
567.391	12394
567.451	12800
567.511	15181
567.570	14923
567.630	12119
567.690	12552
567.749	10323
567.809	11687
567.868	12993
567.928	13118
567.988	14416
568.047	16371
568.107	17290
568.166	22124
568.226	33197
568.285	43579
568.345	33343
568.404	27146
568.464	23579
568.523	21969
568.582	22663
568.642	26095
568.701	30451
568.761	44578
568.820	72277
568.879	60955
568.939	42080
568.998	30749
569.057	23407
569.116	19740
569.176	17418
569.235	14307
569.294	14394
569.353	13898
569.413	13273
569.472	12540
569.531	12147
569.590	11467
569.649	11454
569.708	10521
569.767	12723
569.827	15736
569.886	13968
569.945	10946
570.004	12673
570.063	11833
570.122	12425
570.181	11406
570.240	12827
570.299	13234
570.358	15185
570.417	11096
570.475	11334
570.534	12192
570.593	12575
570.652	13118
570.711	13913
570.770	11828
570.829	14654
570.887	13720
570.946	14887
571.005	12028
571.064	12933
571.122	16028
571.181	13710
571.240	10973
571.299	9854
571.357	10641
571.416	10784
571.475	10245
571.533	12409
571.592	11955
571.650	12146
571.709	10667
571.768	13249
571.826	12031
571.885	11214
571.943	9610
572.002	9864
572.060	9613
572.119	10083
572.177	9937
572.236	9688
572.294	8902
572.352	10790
572.411	9387
572.469	9009
572.528	10014
572.586	9569
572.644	12113
572.703	15904
572.761	10889
572.819	9071
572.877	7875
572.936	8924
572.994	8064
573.052	9411
573.110	10773
573.169	9828
573.227	9129
573.285	9098
573.343	8887
573.401	9364
573.459	8589
573.517	9970
573.576	9769
573.634	10304
573.692	10201
573.750	10726
573.808	8850
573.866	8851
573.924	10062
573.982	9593
574.040	9692
574.098	8833
574.155	8537
574.213	9228
574.271	8309
574.329	11125
574.387	8399
574.445	7257
574.503	7912
574.560	7440
574.618	7487
574.676	9048
574.734	7377
574.792	9384
574.849	7969
574.907	7408
574.965	6721
575.022	7000
575.080	6542
575.138	7649
575.195	7422
575.253	8026
575.311	8941
575.368	7956
575.426	6726
575.483	7655
575.541	8550
575.598	6899
575.656	7317
575.713	8019
575.771	7927
575.828	7238
575.886	7110
575.943	7903
576.001	7309
576.058	7430
576.115	7477
576.173	8856
576.230	10641
576.287	12276
576.345	10002
576.402	8381
576.459	8104
576.517	6923
576.574	8684
576.631	7631
576.688	6936
576.746	7421
576.803	6886
576.860	6982
576.917	7628
576.974	7336
577.031	7426
577.089	6916
577.146	7007
577.203	7201
577.260	7485
577.317	7957
577.374	8070
577.431	7946
577.488	7307
577.545	6706
577.602	7598
577.659	7095
577.716	6338
577.773	6700
577.830	5789
577.886	6550
577.943	5431
578.000	7268
578.057	7731
578.114	7571
578.171	7079
578.227	7371
578.284	7370
578.341	7949
578.398	6305
578.454	8458
578.511	7865
578.568	9697
578.625	7545
578.681	7648
578.738	7148
578.794	8507
578.851	7360
578.908	6613
578.964	7180
579.021	8127
579.077	8834
579.134	8197
579.190	6811
579.247	7476
579.303	7159
579.360	6547
579.416	7475
579.473	6287
579.529	6879
579.586	6893
579.642	7530
579.698	7791
579.755	7248
579.811	7103
579.867	7381
579.924	6408
579.980	6957
580.036	7363
580.093	7002
580.149	8408
580.205	8187
580.261	6976
580.317	7533
580.374	7892
580.430	8614
580.486	7805
580.542	7084
580.598	7517
580.619	7709
580.654	8045
580.692	8035
580.710	8042
580.765	7899
580.767	7900
580.823	7975
580.838	7862
580.879	7571
580.911	7638
580.935	7685
580.984	7521
580.991	7513
581.047	8525
581.057	8385
581.103	7721
581.130	7717
581.159	7720
581.203	7411
581.215	7338
581.270	7511
581.276	7457
581.326	6906
581.349	7285
581.382	7858
581.422	7860
581.438	7884
581.494	7569
581.494	7568
581.550	7556
581.567	7823
581.606	8426
581.640	8263
581.661	8117
581.713	7831
581.717	7821
581.773	7620
581.786	7580
581.829	7322
581.859	7533
581.885	7806
581.932	8301
581.940	8373
581.996	8413
582.004	8340
582.052	7984
582.077	7795
582.107	7541
582.150	7785
582.163	7883
582.219	7436
582.223	7523
582.274	8477
582.296	8432
582.330	8376
582.368	8314
582.386	8314
582.441	7839
582.441	7837
582.497	8228
582.514	8171
582.552	8127
582.587	8463
582.608	8611
582.659	8538
582.663	8534
582.719	8530
582.732	8420
582.774	8114
582.805	8330
582.830	8574
582.877	8798
582.885	8794
582.941	7906
582.950	7973
582.996	8347
583.023	8453
583.052	8724
583.095	8838
583.107	8828
583.162	8998
583.168	9012
583.218	9077
583.240	8717
583.273	8154
583.313	8102
583.328	8165
583.384	8828
583.385	8831
583.439	8423
583.458	8377
583.494	8528
583.531	8770
583.549	8937
583.603	8619
583.605	8604
583.660	8677
583.676	8899
583.715	9460
583.748	9249
583.770	9133
583.820	9495
583.825	9532
583.881	9265
583.893	9228
583.936	8930
583.965	8864
583.991	8960
584.038	9173
584.046	9210
584.101	9251
584.110	9281
584.156	9260
584.183	9386
584.211	9542
584.255	9589
584.266	9618
584.321	9421
584.328	9458
584.376	9797
584.400	9964
584.431	10317
584.472	10237
584.486	10151
584.541	11052
584.545	11042
584.596	10945
584.617	11164
584.651	11925
584.689	12853
584.706	12947
584.761	11523
584.762	11525
584.816	13124
584.834	13363
584.871	13432
584.906	13662
584.926	13938
584.978	14497
584.980	14533
585.035	16124
585.051	16631
585.090	18010
585.123	19473
585.145	20604
585.195	22672
585.200	22969
585.254	27140
585.267	28523
585.309	32841
585.340	36733
585.364	39793
585.412	43163
585.419	43775
585.473	51997
585.484	54249
585.528	69072
585.556	84452
585.583	119374
585.628	204408
585.637	236017
585.692	518224
585.700	561969
585.747	687963
585.772	569651
585.801	331281
585.845	99935
585.856	76884
585.910	42032
585.917	38478
585.965	29916
585.989	26740
586.019	24284
586.061	22375
586.074	22093
586.128	21848
586.133	21832
586.183	22429
586.205	22635
586.237	22304
586.277	21029
586.292	20713
586.346	20421
586.349	20394
586.401	20576
586.421	20709
586.455	20955
586.493	21834
586.509	23176
586.564	26850
586.565	26990
586.618	35760
586.637	36807
586.672	34070
586.709	31414
586.727	31141
586.781	32057
586.781	32077
586.835	25416
586.853	23936
586.889	22922
586.925	21612
586.944	21482
586.996	22255
586.998	22294
587.052	22543
587.068	22576
587.106	23180
587.140	23563
587.161	23677
587.212	24373
587.215	24464
587.269	25044
587.284	25140
587.323	25368
587.356	26051
587.377	26644
587.427	27450
587.431	27524
587.485	28194
587.499	28331
587.539	29334
587.571	29997
587.593	30753
587.643	33123
587.648	33387
587.702	34083
587.715	34541
587.755	35922
587.786	36694
587.810	37375
587.858	38464
587.864	38769
587.917	41940
587.930	42547
587.971	45329
588.001	47718
588.025	49590
588.073	52352
588.079	52983
588.133	58475
588.145	59839
588.187	65879
588.217	69957
588.241	74586
588.288	84355
588.295	85993
588.348	99358
588.360	102366
588.402	115910
588.431	125829
588.456	135868
588.503	155718
588.510	159330
588.564	188537
588.575	195014
588.617	228318
588.646	252982
588.671	286199
588.718	355206
588.725	376666
588.778	557752
588.789	600176
588.832	970316
588.861	1248260
588.886	1599255
588.932	2290730
588.939	2318436
588.993	2336678
589.004	2314390
589.047	1724602
589.075	1285830
589.100	996721
589.147	534839
589.154	513486
589.207	379616
589.218	354412
589.261	332587
589.290	322114
589.314	340917
589.361	385756
589.368	409685
589.421	621348
589.433	671561
589.475	1136208
589.504	1490167
589.528	1749777
589.576	2191608
589.582	2134126
589.635	1422977
589.647	1258790
589.689	726625
589.718	391613
589.742	318822
589.790	194011
589.795	188837
589.849	143887
589.861	133999
589.902	116804
589.932	104003
589.955	96451
590.004	80743
590.009	79985
590.062	71257
590.075	69008
590.115	64952
590.146	61635
590.168	60010
590.218	56252
590.222	56182
590.275	54105
590.289	53394
590.328	51804
590.360	50215
590.381	49786
590.431	48546
590.435	48554
590.488	46899
590.503	46419
590.541	46469
590.574	46158
590.594	45829
590.645	44825
590.647	44901
590.700	43868
590.716	43512
590.753	42732
590.787	41972
590.806	42407
590.859	43147
590.859	43232
590.912	42088
590.930	41554
590.965	42246
591.001	42989
591.018	42792
591.071	41790
591.072	41678
591.124	41324
591.143	41162
591.177	41249
591.214	41095
591.230	41795
591.283	44008
591.285	43979
591.336	44426
591.356	44514
591.389	44337
591.427	43585
591.442	43015
591.495	40575
591.498	40301
591.547	39697
591.569	39309
591.600	39365
591.640	39131
591.653	39397
591.706	40177
591.711	40159
591.759	41827
591.782	42533
591.811	43724
591.853	45192
591.864	44867
591.917	42462
591.924	42013
591.969	42471
591.995	42593
592.022	42807
592.066	42841
592.075	43296
592.127	45421
592.137	45704
592.180	47013
592.208	47613
592.233	46687
592.279	44601
592.285	44640
592.338	44011
592.350	43749
592.390	43979
592.421	43986
592.443	44658
592.491	45749
592.495	45864
592.548	45785
592.562	45645
592.600	45308
592.633	44796
592.653	45168
592.704	45585
592.705	45863
592.775	46649
592.846	48627
592.916	49172
592.987	51717
593.058	49308
593.128	47288
593.199	47543
593.270	47300
593.341	46604
593.411	49968
593.482	51353
593.553	52279
593.623	51171
593.694	52572
593.764	54415
593.835	52386
593.906	52995
593.976	54471
594.047	54786
594.117	59299
594.188	60224
594.258	57498
594.329	57545
594.399	58850
594.470	59246
594.540	61863
594.611	62191
594.681	62119
594.751	62714
594.822	68239
594.892	70330
594.963	69828
595.033	71657
595.103	72264
595.174	74503
595.244	82902
595.314	86968
595.384	77576
595.455	77631
595.525	82503
595.595	83796
595.665	83721
595.736	81837
595.806	83549
595.876	83440
595.946	84769
596.016	87426
596.087	89719
596.157	89407
596.227	90228
596.297	97125
596.367	101725
596.437	108855
596.507	111861
596.577	114342
596.647	109021
596.717	112783
596.787	116598
596.857	116436
596.927	115542
596.997	115873
597.067	118890
597.137	121170
597.207	120769
597.277	121906
597.347	116852
597.417	112899
597.487	113253
597.557	117801
597.626	119308
597.696	122156
597.766	124131
597.836	120652
597.906	107805
597.975	103607
598.045	106067
598.115	111183
598.185	119049
598.254	133906
598.324	146091
598.394	149105
598.464	145676
598.533	139691
598.603	128811
598.672	126290
598.742	129245
598.812	130160
598.881	132189
598.951	129374
599.020	133200
599.090	138405
599.159	139758
599.229	132367
599.299	131501
599.368	134810
599.437	132684
599.507	121412
599.576	119882
599.646	115990
599.715	115111
599.785	113385
599.854	111069
599.924	110812
599.993	109479
600.062	111432
600.132	113229
600.201	121838
600.270	143817
600.340	148075
600.409	142100
600.478	141233
600.547	146631
600.617	131366
600.686	105757
600.755	97519
600.824	93905
600.894	88698
600.963	88578
601.032	86659
601.101	84587
601.170	80748
601.239	78272
601.308	81901
601.378	79788
601.447	77363
601.516	79227
601.585	83135
601.654	87454
601.723	81573
601.792	81618
601.861	86020
601.930	92481
601.999	94980
602.068	91689
602.137	97124
602.206	97145
602.275	95268
602.343	101418
602.412	102131
602.481	94486
602.550	95728
602.619	97180
602.688	100462
602.756	99006
602.825	99814
602.894	103543
602.963	105993
603.032	106443
603.100	106047
603.169	106936
603.238	107346
603.307	108050
603.375	109532
603.444	111433
603.513	113436
603.581	116682
603.650	118735
603.719	116366
603.787	119103
603.856	123745
603.924	125724
603.993	132483
604.061	135402
604.130	141450
604.198	145502
604.267	148253
604.335	150390
604.404	151276
604.472	152629
604.541	155542
604.609	154466
604.678	156188
604.746	157067
604.815	163062
604.883	163922
604.951	164650
605.020	167402
605.088	171143
605.156	174230
605.225	178215
605.293	177493
605.361	179463
605.429	180892
605.498	186497
605.566	190809
605.634	200555
605.702	207785
605.771	213262
605.839	214932
605.907	209703
605.975	199776
606.043	196937
606.111	197192
606.180	196282
606.248	193601
606.316	194577
606.384	192470
606.452	201162
606.520	212994
606.588	208760
606.656	207884
606.724	202470
606.792	191884
606.860	169924
606.928	153997
606.996	150097
607.064	146124
607.132	152088
607.200	162374
607.267	167334
607.335	170891
607.403	172781
607.471	166770
607.539	162488
607.607	163737
607.674	142645
607.742	145966
607.810	147580
607.878	144540
607.946	147316
608.013	155385
608.081	158177
608.149	160600
608.216	163819
608.284	168250
608.352	171239
608.419	166291
608.487	168258
608.555	161514
608.622	166138
608.690	178301
608.757	196971
608.825	201617
608.893	198452
608.960	189144
609.028	183962
609.095	182224
609.163	174674
609.230	156324
609.298	142958
609.365	152143
609.432	162675
609.500	179461
609.567	206758
609.635	236508
609.702	246319
609.769	234871
609.837	181442
609.904	155968
609.971	163757
610.039	189143
610.106	264322
610.173	547623
610.241	1269192
610.308	588837
610.375	206566
610.442	170451
610.509	161532
610.577	161664
610.644	163949
610.711	168884
610.778	173373
610.845	181027
610.912	192314
610.980	201539
611.047	204342
611.114	198853
611.181	189871
611.248	188499
611.315	202369
611.382	205049
611.449	214281
611.516	216017
611.583	214883
611.650	215782
611.717	218726
611.784	224331
611.851	238996
611.918	262227
611.984	317694
612.051	484590
612.118	1069811
612.185	2635582
612.252	1367018
612.319	352224
612.386	290497
612.452	262152
612.519	251056
612.586	247509
612.653	249229
612.719	257291
612.786	243981
612.853	225428
612.919	217881
612.986	223148
613.053	208507
613.120	197563
613.186	189350
613.253	190786
613.319	190419
613.386	191637
613.453	197214
613.519	201210
613.586	208445
613.652	223366
613.719	210303
613.785	207231
613.852	198346
613.918	195488
613.985	201499
614.051	217678
614.118	237878
614.184	223901
614.250	199325
614.317	201141
614.383	198255
614.449	201535
614.516	201762
614.582	201942
614.648	196301
614.715	197839
614.781	191963
614.847	192401
614.914	189637
614.980	185579
615.046	185455
615.112	191074
615.179	190930
615.245	195286
615.311	195057
615.377	207341
615.443	210603
615.509	202334
615.575	209129
615.642	206280
615.708	212326
615.774	225837
615.840	243047
615.906	271168
615.972	355166
616.038	587951
616.104	1317399
616.170	3129394
616.236	2270802
616.302	504906
616.368	383197
616.434	270578
616.500	251843
616.565	288653
616.631	363500
616.697	282359
616.763	303782
616.829	497491
616.895	903844
616.961	770969
617.026	297265
617.092	214427
617.158	204265
617.224	195308
617.289	182822
617.355	172826
617.421	169736
617.487	170680
617.552	160854
617.618	159971
617.684	160324
617.749	162941
617.815	152783
617.880	148130
617.946	149396
618.012	155038
618.077	156987
618.143	148622
618.208	151274
618.274	162561
618.339	163360
618.405	133149
618.470	135843
618.536	131775
618.601	133219
618.667	120945
618.732	114656
618.798	114285
618.863	112643
618.928	111982
618.994	116417
619.059	120369
619.124	134487
619.190	118057
619.255	111925
619.320	112504
619.386	114192
619.451	111283
619.516	107692
619.581	108410
619.647	112145
619.712	111848
619.777	106533
619.842	107881
619.907	111531
619.972	112899
620.038	110973
620.103	105866
620.168	106974
620.233	109034
620.298	109421
620.363	109556
620.428	114415
620.493	116718
620.558	117936
620.623	119682
620.688	117973
620.753	117493
620.818	119152
620.883	121258
620.948	120657
621.013	118892
621.078	118169
621.143	119784
621.207	123714
621.272	119938
621.337	117822
621.402	115344
621.467	119209
621.532	118425
621.596	117746
621.661	111373
621.726	109134
621.791	111106
621.855	113042
621.920	112331
621.985	113919
622.049	116487
622.114	116406
622.179	116007
622.243	119227
622.308	123421
622.373	128983
622.437	125262
622.502	117532
622.566	116909
622.631	115107
622.695	118749
622.760	117091
622.824	116026
622.889	120154
622.953	124283
623.018	150981
623.082	144184
623.147	127882
623.211	123102
623.276	124842
623.340	115517
623.404	113080
623.469	111175
623.533	113554
623.597	110986
623.662	109917
623.726	100631
623.790	94577
623.854	93569
623.919	95970
623.983	98148
624.047	98980
624.111	100389
624.176	102389
624.240	107447
624.304	113688
624.368	100936
624.432	101552
624.496	105776
624.560	116694
624.625	118483
624.689	110051
624.753	116303
624.817	109967
624.881	107517
624.945	95660
625.009	92638
625.073	95837
625.137	103055
625.201	117252
625.265	111978
625.329	98738
625.393	104455
625.456	101848
625.520	106309
625.584	109804
625.648	115437
625.712	126800
625.776	157533
625.839	155114
625.903	98750
625.967	85481
626.031	102617
626.095	129846
626.158	99349
626.222	75721
626.286	71510
626.349	68370
626.413	63729
626.477	67375
626.540	65697
626.604	63703
626.668	63639
626.731	62350
626.795	62501
626.858	64243
626.922	61513
626.986	60868
627.049	60943
627.113	65370
627.176	61845
627.240	60898
627.303	61312
627.366	60531
627.430	61307
627.493	60571
627.557	59956
627.620	62417
627.684	63484
627.747	65824
627.810	58516
627.874	54054
627.937	50591
628.000	55037
628.064	52358
628.127	46278
628.190	47116
628.253	46291
628.317	44121
628.380	43960
628.443	41714
628.506	41556
628.569	39671
628.632	37144
628.696	38030
628.759	37177
628.822	35857
628.885	35414
628.948	35379
629.011	35095
629.074	34365
629.137	32253
629.200	32213
629.263	36365
629.326	30639
629.389	31332
629.452	31332
629.515	31786
629.578	31535
629.641	33588
629.704	32413
629.767	32661
629.830	31827
629.892	31202
629.955	30843
630.018	33525
630.081	35698
630.144	40883
630.207	33003
630.269	33953
630.332	30656
630.395	30205
630.458	28945
630.520	29057
630.583	30484
630.646	28413
630.708	28728
630.771	28386
630.834	31543
630.896	29636
630.959	29219
631.021	29449
631.084	28967
631.146	31243
631.209	31329
631.272	30100
631.334	30828
631.397	30609
631.459	31738
631.522	35333
631.584	35364
631.646	38594
631.709	42335
631.771	47535
631.834	39310
631.896	36784
631.958	31353
632.021	31923
632.083	29787
632.145	29917
632.208	29582
632.270	30689
632.332	27997
632.395	27597
632.457	29721
632.519	27705
632.581	28620
632.643	27702
632.706	27765
632.768	26545
632.830	28196
632.892	27754
632.954	28667
633.016	30009
633.078	28040
633.141	27940
633.203	28152
633.265	28546
633.327	27904
633.389	28212
633.451	31253
633.513	34705
633.575	32417
633.637	33815
633.698	32342
633.760	31126
633.822	31796
633.884	33821
633.946	32951
634.008	34650
634.070	36752
634.132	40872
634.193	43714
634.255	48458
634.317	50018
634.379	48646
634.441	41554
634.502	37638
634.564	34299
634.626	32249
634.687	30870
634.749	27489
634.811	29051
634.873	27058
634.934	27605
634.996	28209
635.057	26533
635.119	26994
635.181	28625
635.242	29364
635.304	27769
635.365	30553
635.427	28425
635.488	29358
635.550	27714
635.611	28831
635.673	27094
635.734	32401
635.796	33710
635.857	38861
635.918	39753
635.980	47120
636.041	48972
636.102	54211
636.164	54712
636.225	52027
636.286	42580
636.348	37237
636.409	33277
636.470	30676
636.531	28796
636.593	28406
636.654	27089
636.715	25799
636.776	25511
636.838	24594
636.899	24497
636.960	23169
637.021	22124
637.082	23984
637.143	23183
637.204	21264
637.265	21756
637.326	22753
637.387	22705
637.448	21969
637.509	23300
637.570	21900
637.631	22711
637.692	19960
637.753	19356
637.814	21537
637.875	20655
637.936	21736
637.997	19359
638.058	20848
638.119	21455
638.179	20348
638.240	19720
638.301	20389
638.362	18342
638.423	20066
638.483	19816
638.544	17347
638.605	19542
638.666	17897
638.726	18513
638.787	18762
638.848	18629
638.908	17866
638.969	17822
639.030	17073
639.090	16810
639.151	18941
639.211	19923
639.272	24821
639.332	35238
639.393	23562
639.453	20131
639.514	22190
639.574	18096
639.635	17105
639.695	17698
639.756	16627
639.816	19401
639.877	22112
639.937	34352
639.997	38712
640.058	17902
640.118	16681
640.178	17342
640.239	16390
640.299	17352
640.359	16925
640.420	17926
640.480	21518
640.540	26316
640.600	26096
640.661	22711
640.721	22198
640.781	25464
640.841	18275
640.901	17836
640.961	18607
641.021	20474
641.082	24272
641.142	28588
641.202	18805
641.262	14817
641.322	17258
641.382	15154
641.442	16636
641.502	15366
641.562	16251
641.622	15519
641.682	19142
641.742	21580
641.802	19457
641.861	17731
641.921	17427
641.981	20653
642.041	18625
642.101	21506
642.161	15209
642.221	15082
642.280	15372
642.340	14643
642.400	13947
642.460	15703
642.519	15244
642.579	15205
642.639	16503
642.698	12873
642.758	18588
642.818	16454
642.877	15734
642.937	17531
642.997	20221
643.056	25353
643.116	17031
643.175	17967
643.235	16858
643.294	17784
643.354	20387
643.414	22267
643.473	27805
643.532	36615
643.592	56947
643.651	94854
643.711	178948
643.770	381087
643.830	986104
643.889	1880718
643.948	346115
644.008	61173
644.067	40200
644.126	29081
644.186	24372
644.245	21697
644.304	17502
644.363	19989
644.423	16609
644.482	18764
644.541	19500
644.600	19715
644.659	26833
644.719	34755
644.778	56438
644.837	106496
644.896	234707
644.955	510563
645.014	129876
645.073	30270
645.132	21999
645.191	20052
645.250	18413
645.309	20631
645.368	22681
645.427	31010
645.486	56320
645.545	92581
645.604	25384
645.663	17907
645.722	17665
645.781	20746
645.840	26354
645.898	33500
645.957	52792
646.016	87573
646.075	171132
646.134	357893
646.192	1037805
646.251	1308743
646.310	151197
646.369	44941
646.427	36565
646.486	25684
646.545	20658
646.603	18126
646.662	17066
646.721	16489
646.779	15968
646.838	18098
646.896	23635
646.955	34879
647.014	58787
647.072	121184
647.131	328980
647.189	124877
647.248	20341
647.306	16121
647.365	15641
647.423	10997
647.481	13571
647.540	10415
647.598	13025
647.657	11164
647.715	11563
647.773	9499
647.832	11726
647.890	9395
647.948	10025
648.007	10875
648.065	9287
648.123	9042
648.181	10989
648.240	10583
648.298	10702
648.356	8967
648.414	9670
648.472	10402
648.531	10468
648.589	9399
648.647	9651
648.705	9900
648.763	9961
648.821	11456
648.879	11267
648.937	14309
648.995	17755
649.053	24864
649.111	42205
649.169	74754
649.227	142367
649.285	316917
649.343	896935
649.401	329975
649.459	65855
649.516	36622
649.574	23033
649.632	33674
649.690	36014
649.748	28290
649.806	41530
649.863	82619
649.921	233346
649.979	123890
650.037	17749
650.094	10765
650.152	11522
650.210	8544
650.268	9640
650.325	9271
650.383	9195
650.440	7435
650.498	8568
650.556	7820
650.613	7606
650.671	7700
650.728	7357
650.786	8975
650.843	12529
650.901	7055
650.958	7265
651.016	6875
651.073	6753
651.131	5087
651.188	6947
651.246	6904
651.303	6607
651.360	5855
651.418	6259
651.475	6021
651.532	5614
651.590	6573
651.647	5760
651.704	6071
651.762	6770
651.819	7509
651.876	6232
651.933	5310
651.990	7786
652.048	3821
652.105	5820
652.162	6322
652.219	5129
652.276	5974
652.333	6513
652.390	4504
652.448	5401
652.505	6437
652.562	4925
652.619	5698
652.676	8154
652.733	7512
652.790	5102
652.847	5016
652.904	5362
652.961	4063
653.017	4752
653.074	6605
653.131	5816
653.188	4198
653.245	5064
653.302	4725
653.359	5569
653.415	4930
653.472	4769
653.529	5080
653.586	4110
653.642	4191
653.699	5600
653.756	4218
653.813	4902
653.869	6145
653.926	4500
653.983	3851
654.039	5389
654.096	4302
654.152	6165
654.209	3739
654.266	5645
654.322	3807
654.379	5860
654.435	5858
654.492	6364
654.548	8915
654.605	12528
654.661	6734
654.717	5103
654.774	5497
654.830	5125
654.887	4786
654.943	4411
655.000	4704
655.056	5252
655.112	4841
655.168	4571
655.225	5969
655.281	6551
655.337	6100
655.394	7855
655.450	7220
655.506	6846
655.562	8688
655.618	7766
655.675	4645
655.731	5402
655.787	4175
655.843	5599
655.899	4846
655.955	5375
656.011	5399
656.067	5112
656.123	5831
656.179	6129
656.235	7807
656.291	5587
656.347	7488
656.403	5202
656.459	5051
656.515	5205
656.571	4963
656.627	5989
656.683	4025
656.739	5605
656.795	4523
656.850	6079
656.906	7231
656.962	6231
657.018	5269
657.074	6741
657.129	8084
657.185	11445
657.241	26542
657.297	13291
657.352	5090
657.408	5337
657.464	6003
657.519	3669
657.575	2753
657.630	3204
657.686	3844
657.742	3966
657.797	4317
657.853	4393
657.908	4412
657.964	2879
658.019	3526
658.075	4761
658.130	4382
658.186	3945
658.241	4648
658.297	2753
658.352	3613
658.407	4631
658.463	2985
658.518	4098
658.573	3337
658.629	3414
658.684	3794
658.739	3958
658.795	2834
658.850	4062
658.905	3129
658.960	4068
659.016	3111
659.071	4072
659.126	4732
659.181	5333
659.236	10037
659.291	10284
659.346	4973
659.401	5868
659.457	3753
659.512	4724
659.567	5054
659.622	4208
659.677	3650
659.732	2888
659.787	4492
659.842	4126
659.897	4198
659.952	4024
660.007	3134
660.061	4155
660.116	3157
660.171	3107
660.226	3519
660.281	5226
660.336	3404
660.391	3983
660.445	3239
660.500	4155
660.555	3632
660.610	4200
660.664	3465
660.719	3250
660.774	3844
660.828	3780
660.883	3540
660.938	4367
660.992	2056
661.047	2963
661.101	3076
661.156	4213
661.211	2832
661.265	3766
661.320	2867
661.374	4240
661.429	2630
661.483	4310
661.538	2283
661.592	3537
661.647	3115
661.701	4100
661.755	3491
661.810	3480
661.864	2664
661.919	3469
661.973	3584
662.027	3496
662.081	2900
662.136	3386
662.190	3610
662.244	3514
662.299	2835
662.353	3764
662.407	2659
662.461	3349
662.515	2908
662.569	3247
662.624	3994
662.678	3028
662.732	3291
662.786	3268
662.840	3535
662.894	3572
662.948	3150
663.002	3634
663.056	3548
663.110	2799
663.164	3384
663.218	4255
663.272	3699
663.326	4479
663.380	3950
663.434	4651
663.488	2629
663.542	4107
663.595	3939
663.649	2701
663.703	3052
663.757	3693
663.811	3285
663.864	3635
663.918	3246
663.972	3335
664.026	2967
664.079	2512
664.133	3550
664.187	3422
664.240	3202
664.294	2924
664.348	3936
664.401	3136
664.455	3252
664.508	3328
664.562	2653
664.615	3475
664.669	2562
664.722	3700
664.776	2362
664.829	2813
664.883	3297
664.936	3637
664.990	3700
665.043	3772
665.097	3055
665.150	4579
665.203	2002
665.257	3899
665.310	3995
665.363	3258
665.417	3450
665.470	3883
665.523	3852
665.576	4211
665.630	3746
665.683	3231
665.736	3463
665.789	3664
665.842	1646
665.895	4476
665.949	4623
666.002	3430
666.055	3209
666.108	4436
666.161	2883
666.214	4514
666.267	4222
666.320	4950
666.373	4514
666.426	4387
666.479	3490
666.532	4265
666.585	4367
666.638	5739
666.691	3774
666.744	5086
666.796	3931
666.849	4212
666.902	4318
666.955	3119
667.008	3435
667.060	3276
667.113	2617
667.166	3477
667.219	4053
667.271	4140
667.324	2907
667.377	4040
667.430	3676
667.482	4612
667.535	3114
667.587	4304
667.640	4056
667.693	6100
667.745	10204
667.798	10130
667.850	3785
667.903	4208
667.955	4280
668.008	4209
668.060	4162
668.113	4951
668.165	4299
668.218	4307
668.270	3484
668.322	3801
668.375	3423
668.427	4370
668.479	2800
668.532	3412
668.584	3312
668.636	2932
668.689	3630
668.741	3417
668.793	2844
668.845	4311
668.898	3172
668.950	3105
669.002	3335
669.054	3229
669.106	3276
669.158	3247
669.211	3420
669.263	4134
669.315	5072
669.367	4722
669.419	3433
669.471	5637
669.523	6500
669.575	8091
669.627	5877
669.679	4404
669.731	3762
669.783	5571
669.835	5256
669.886	4888
669.938	3320
669.990	3838
670.042	2473
670.094	3812
670.146	3074
670.197	4434
670.249	4193
670.301	5335
670.353	5755
670.404	8699
670.456	9065
670.508	16385
670.560	26477
670.611	47876
670.663	82290
670.715	216153
670.766	298344
670.818	63239
670.869	12185
670.921	7961
670.972	6994
671.024	5391
671.075	4943
671.127	5567
671.178	4261
671.230	4699
671.281	4810
671.333	5210
671.384	5603
671.436	8454
671.487	11515
671.538	16373
671.590	25164
671.641	42355
671.692	82266
671.744	152522
671.795	75377
671.846	21251
671.897	10852
671.949	7690
672.000	5378
672.051	5034
672.102	5213
672.153	4595
672.204	4424
672.256	4690
672.307	3424
672.358	3795
672.409	4093
672.460	3256
672.511	3390
672.562	3441
672.613	3133
672.664	3215
672.715	2840
672.766	2973
672.817	2687
672.868	2803
672.919	3358
672.970	3582
673.021	2872
673.071	2486
673.122	2839
673.173	2411
673.224	3097
673.275	2652
673.326	2212
673.376	3456
673.427	2339
673.478	2808
673.528	3125
673.579	2421
673.630	2875
673.680	3077
673.731	2021
673.782	2868
673.832	1719
673.883	2497
673.934	3314
673.984	2690
674.035	2701
674.085	3236
674.136	3087
674.186	3535
674.237	3397
674.287	5320
674.338	3891
674.388	3454
674.438	3379
674.489	3748
674.539	3127
674.589	4215
674.640	3425
674.690	3529
674.740	2853
674.791	3437
674.841	2876
674.891	3136
674.942	2298
674.992	3389
675.042	2034
675.092	2372
675.142	2168
675.193	3253
675.243	1865
675.293	2991
675.343	2425
675.393	2710
675.443	2926
675.493	2504
675.543	2011
675.593	2944
675.643	2501
675.693	3421
675.743	1753
675.793	2783
675.843	1874
675.893	2707
675.943	1889
675.993	2476
676.043	1779
676.093	2692
676.142	1358
676.192	2163
676.242	2409
676.292	2294
676.341	2297
676.391	1882
676.441	884
676.491	2480
676.540	1465
676.590	2382
676.640	1521
676.689	1857
676.739	1503
676.789	1975
676.838	1269
676.888	2095
676.937	1981
676.987	2249
677.037	1632
677.086	1685
677.136	1752
677.185	2574
677.235	1320
677.284	1773
677.333	809
677.383	1981
677.432	364
677.482	1752
677.531	2032
677.580	1512
677.630	1181
677.679	1895
677.728	1745
677.778	1543
677.827	1537
677.876	2169
677.925	1014
677.975	1941
678.024	1852
678.073	2975
678.122	1873
678.171	1827
678.220	2175
678.269	2863
678.319	3227
678.368	3278
678.417	2717
678.466	2246
678.515	2187
678.564	2264
678.613	1891
678.662	1127
678.711	1153
678.760	1748
678.809	1383
678.857	2309
678.906	1856
678.955	1545
679.004	1931
679.053	1423
679.102	1019
679.151	1754
679.199	1056
679.248	1146
679.297	1638
679.346	1773
679.394	1270
679.443	1746
679.492	1628
679.540	1666
679.589	1549
679.638	1492
679.686	1217
679.735	2419
679.784	2799
679.832	2532
679.881	1306
679.929	1623
679.978	1454
680.026	1657
680.075	1248
680.123	820
680.172	474
680.220	1616
680.268	1981
680.317	1266
680.365	1640
680.414	1332
680.462	1630
680.510	2493
680.559	1043
680.607	1149
680.655	1545
680.703	763
680.752	1341
680.800	1693
680.848	919
680.896	738
680.945	787
680.993	1497
681.041	1032
681.089	1606
681.137	315
681.185	1743
681.233	715
681.258	1219
681.281	1673
681.329	265
681.377	1305
681.380	1323
681.425	1278
681.473	866
681.502	1039
681.521	1114
681.569	1863
681.617	910
681.624	1047
681.665	1748
681.713	1493
681.745	1744
681.761	1829
681.809	595
681.857	2482
681.867	2219
681.904	1221
681.952	2842
681.989	1819
682.000	1482
682.048	1963
682.096	1836
682.111	1829
682.143	1731
682.191	2123
682.233	2487
682.239	2518
682.286	2790
682.334	2216
682.354	1984
682.382	1647
682.430	2092
682.476	2192
682.477	2173
682.525	2408
682.572	2063
682.598	2064
682.620	2045
682.667	2820
682.715	2630
682.720	2671
682.763	2859
682.810	3336
682.841	2797
682.857	2448
682.905	2950
682.952	2403
682.963	2505
683.000	2772
683.047	2077
683.085	3146
683.095	3425
683.142	2739
683.190	2817
683.206	2807
683.237	2799
683.284	3570
683.328	3067
683.332	2993
683.379	3346
683.426	2798
683.449	3089
683.473	3463
683.521	3093
683.568	3456
683.571	3467
683.615	3225
683.662	3858
683.693	3096
683.709	2661
683.757	3272
683.804	3215
683.814	3151
683.851	2905
683.898	3892
683.936	4016
683.945	4049
683.992	4125
684.039	4849
684.057	4563
684.086	4030
684.133	4424
684.179	4383
684.180	4358
684.227	4829
684.274	4150
684.300	4581
684.321	4873
684.368	4361
684.415	4862
684.422	4731
684.462	3879
684.509	4812
684.543	4368
684.556	4198
684.603	4664
684.649	3611
684.665	3715
684.696	4029
684.743	3693
684.786	4680
684.790	4747
684.837	4625
684.883	4571
684.908	4769
684.930	4893
684.977	4784
685.023	4884
685.029	4914
685.070	4925
685.117	4067
685.150	4578
685.164	4825
685.210	5506
685.257	6126
685.272	5978
685.303	5675
685.350	6171
685.393	5658
685.396	5624
685.443	6310
685.490	7259
685.514	7431
685.536	7238
685.583	6439
685.629	6366
685.636	6107
685.675	4717
685.722	5974
685.757	5675
685.768	5562
685.815	6241
685.861	6395
685.878	6364
685.908	6376
685.954	5174
686.000	6233
686.000	6249
686.047	6881
686.093	7119
686.121	7301
686.139	7128
686.185	7222
686.232	6383
686.242	6326
686.278	6176
686.324	5818
686.363	5552
686.370	5546
686.416	5761
686.463	6056
686.484	5753
686.509	5433
686.555	6428
686.601	6173
686.606	6239
686.647	6663
686.693	5291
686.727	5382
686.739	5438
686.785	5541
686.831	6187
686.848	6131
686.877	5991
686.923	5794
686.969	5232
686.969	5228
687.015	5889
687.061	6404
687.090	6233
687.107	6065
687.153	6249
687.199	6330
687.211	6107
687.245	5722
687.291	6365
687.332	7190
687.336	7258
687.382	7094
687.428	6534
687.453	6803
687.474	6913
687.520	6694
687.565	6512
687.574	6433
687.611	6414
687.657	6813
687.695	7265
687.702	7374
687.748	7746
687.794	8384
687.816	8436
687.839	8096
687.885	7314
687.931	7114
687.937	7043
687.976	7151
688.022	7282
688.058	7446
688.067	7501
688.113	7672
688.158	7574
688.179	7856
688.204	7946
688.249	7422
688.295	7335
688.300	7287
688.340	7422
688.386	8079
688.421	7677
688.431	7524
688.477	7806
688.522	7767
688.542	7953
688.567	8131
688.613	7924
688.658	7658
688.663	7633
688.703	7602
688.749	7688
688.784	7580
688.794	7546
688.839	7894
688.884	7815
688.905	7852
688.930	7861
688.975	7396
689.020	7182
689.026	7178
689.065	7251
689.110	7083
689.146	7307
689.155	7436
689.201	7520
689.246	7757
689.267	7868
689.291	7831
689.336	8001
689.381	7514
689.388	7484
689.426	7479
689.471	7984
689.509	7774
689.516	7749
689.561	8054
689.606	7910
689.630	7883
689.651	7841
689.696	7718
689.741	7878
689.750	7874
689.785	8127
689.830	8259
689.871	8561
689.875	8548
689.920	8491
689.965	8011
689.992	7671
690.010	7689
690.054	7680
690.099	8215
690.112	8284
690.144	8274
690.189	8222
690.233	7729
690.233	7739
690.278	8284
690.323	8198
690.354	8310
690.367	8408
690.412	8413
690.457	9184
690.474	9098
690.501	8771
690.546	8318
690.590	8133
690.595	8102
690.635	8197
690.680	7936
690.716	7755
690.724	7752
690.769	8392
690.813	8972
690.836	8829
690.857	8923
690.902	9609
690.946	10328
690.957	10463
690.991	11234
691.035	11957
691.077	13411
691.080	13450
691.124	12394
691.168	12155
691.198	11918
691.213	11707
691.257	11288
691.301	10462
691.318	10284
691.346	10249
691.390	9446
691.434	9695
691.439	9618
691.478	9758
691.522	10300
691.559	10489
691.567	10472
691.611	10587
691.655	9983
691.680	10092
691.699	10256
691.743	10461
691.787	10269
691.800	10186
691.831	10058
691.875	10230
691.919	10090
691.921	10075
691.964	10341
692.008	10466
692.041	10714
692.052	10783
692.096	10518
692.139	10433
692.162	10377
692.183	10286
692.227	10238
692.271	9923
692.282	9897
692.315	10345
692.359	10699
692.402	11285
692.403	11308
692.447	11195
692.490	11379
692.523	11071
692.534	11050
692.578	11329
692.622	11364
692.643	11504
692.666	11346
692.709	10771
692.753	10260
692.763	10087
692.797	10011
692.840	10150
692.884	10006
692.884	10028
692.928	10143
692.971	10175
693.004	10097
693.015	10124
693.059	10155
693.102	10584
693.124	10561
693.146	10688
693.189	11123
693.233	11570
693.245	11579
693.276	11386
693.320	11582
693.363	11423
693.365	11390
693.407	11057
693.450	11055
693.485	10688
693.493	10789
693.537	11513
693.580	11986
693.605	12396
693.624	12700
693.667	13064
693.710	13688
693.725	13854
693.753	15391
693.797	17834
693.840	20397
693.845	20626
693.883	19848
693.926	18646
693.966	17899
693.970	17753
694.013	15473
694.056	13817
694.086	12357
694.099	12374
694.142	12730
694.185	12365
694.206	12410
694.229	12528
694.272	12706
694.315	12834
694.326	12718
694.358	12654
694.401	13265
694.444	13531
694.446	13501
694.487	13056
694.530	12779
694.566	12470
694.573	12398
694.616	11798
694.659	11540
694.686	10982
694.702	10954
694.745	11301
694.787	11191
694.806	11233
694.830	11283
694.873	11154
694.916	11185
694.926	11155
694.959	11566
695.002	12134
695.044	12559
695.046	12554
695.087	12687
695.130	12510
695.166	12488
695.172	12469
695.215	12169
695.258	11750
695.286	11344
695.301	11349
695.343	11554
695.386	11554
695.406	11654
695.428	11980
695.471	12303
695.514	12749
695.526	12854
695.556	13046
695.599	13184
695.641	13187
695.646	13185
695.684	13077
695.726	12608
695.766	12488
695.769	12524
695.811	12248
695.854	12191
695.886	12104
695.896	12150
695.938	12101
695.981	11920
696.005	11974
696.023	12424
696.065	13264
696.108	14268
696.125	14535
696.150	14170
696.192	13651
696.235	13059
696.245	12945
696.277	13331
696.319	13398
696.361	13661
696.365	13650
696.404	13604
696.446	13485
696.485	13224
696.488	13275
696.530	13722
696.572	13924
696.604	14228
696.614	14197
696.656	13615
696.698	13243
696.724	12958
696.740	13062
696.783	13308
696.825	13431
696.844	13497
696.867	13509
696.909	13402
696.951	13311
696.964	13239
696.992	13601
697.034	14028
697.076	14491
697.083	14552
697.118	14933
697.160	15277
697.202	15574
697.203	15543
697.244	14900
697.286	14126
697.323	13403
697.327	13491
697.369	14005
697.411	14398
697.442	14768
697.453	14921
697.494	15271
697.536	15750
697.562	15950
697.578	16127
697.620	16513
697.661	16856
697.682	16995
697.703	17484
697.744	18382
697.786	19435
697.801	19683
697.828	19680
697.869	19592
697.911	19577
697.921	19521
697.952	18536
697.994	17135
698.035	15818
698.040	15606
698.077	15559
698.118	15534
698.160	15440
698.160	15398
698.201	15636
698.243	15720
698.279	15849
698.284	15918
698.325	16119
698.367	16353
698.399	16441
698.408	16389
698.449	16002
698.491	15581
698.518	15281
698.532	15415
698.573	15677
698.614	15931
698.638	16033
698.656	16105
698.697	16204
698.738	16271
698.757	16263
698.779	16269
698.820	16193
698.862	16125
698.877	16052
698.903	16608
698.944	17442
698.985	18265
698.996	18449
699.026	18091
699.067	17523
699.116	16804
699.235	15020
699.354	16555
699.474	16510
699.593	17740
699.713	17489
699.832	18387
699.951	19173
700.070	17429
700.190	16211
700.309	16397
700.428	18593
700.547	16116
700.667	17025
700.786	17550
700.905	15583
701.024	16191
701.143	15863
701.262	14710
701.381	15610
701.500	18025
701.619	19560
701.738	15888
701.857	15543
701.976	14736
702.095	14278
702.214	17636
702.333	18028
702.452	16031
702.571	14997
702.690	15590
702.809	14454
702.928	15462
703.047	14334
703.165	15243
703.284	14674
703.403	13871
703.522	15795
703.640	15192
703.759	18643
703.878	20335
703.997	14449
704.115	14078
704.234	13580
704.353	14248
704.471	13040
704.590	12922
704.708	13360
704.827	13561
704.946	12546
705.064	13345
705.183	14275
705.301	13838
705.420	16243
705.538	15337
705.656	13150
705.775	14915
705.893	17466
706.012	18211
706.130	13876
706.249	14294
706.367	13284
706.485	15092
706.604	14361
706.722	15351
706.840	18983
706.958	18109
707.077	13782
707.195	12998
707.313	13794
707.431	12579
707.549	12490
707.668	13491
707.786	13490
707.904	12702
708.022	12678
708.140	12162
708.258	12750
708.376	13062
708.494	12287
708.612	13981
708.730	17181
708.848	16866
708.966	16757
709.084	15620
709.202	14587
709.320	13999
709.438	14173
709.556	13922
709.674	13789
709.791	13059
709.909	12807
710.027	13119
710.145	12660
710.263	14145
710.380	13249
710.498	12056
710.616	12769
710.733	13166
710.851	12972
710.969	13636
711.086	13061
711.204	13237
711.322	12619
711.439	13325
711.557	12702
711.674	12919
711.792	12237
711.909	12816
712.027	12437
712.144	11641
712.262	12950
712.379	13294
712.497	16265
712.614	15138
712.732	14439
712.849	14664
712.966	16942
713.084	22056
713.201	14684
713.318	14673
713.436	13780
713.553	15559
713.670	17941
713.787	17381
713.905	17455
714.022	14464
714.139	16733
714.256	23142
714.373	36570
714.490	73670
714.608	229942
714.725	992512
714.842	751050
714.959	51733
715.076	24032
715.193	18646
715.310	17925
715.427	14475
715.544	14440
715.661	13833
715.778	13252
715.895	15045
716.011	14632
716.128	13653
716.245	15870
716.362	18611
716.479	19104
716.596	13845
716.713	13522
716.829	13065
716.946	13100
717.063	12497
717.180	11302
717.296	11668
717.413	11232
717.530	12479
717.646	12036
717.763	11216
717.880	10360
717.996	10655
718.113	12740
718.229	11076
718.346	10931
718.462	12477
718.579	18827
718.695	35809
718.812	21261
718.928	16047
719.045	11309
719.161	11161
719.277	11691
719.394	11657
719.510	11581
719.626	13395
719.743	18409
719.859	28618
719.975	63963
720.092	288907
720.208	535056
720.324	46868
720.440	17085
720.557	16479
720.673	28468
720.789	27430
720.905	42954
721.021	13985
721.137	10461
721.253	10956
721.369	9802
721.486	11806
721.602	14436
721.718	9624
721.834	9246
721.950	10336
722.066	9434
722.181	10250
722.297	10114
722.413	10831
722.529	9392
722.645	8970
722.761	9426
722.877	8073
722.993	9950
723.108	12513
723.224	11410
723.340	9603
723.456	9443
723.571	9315
723.687	8385
723.803	9020
723.918	8605
724.034	8819
724.150	7590
724.265	9318
724.381	17338
724.497	19112
724.612	8428
724.728	7528
724.843	8188
724.959	10895
725.074	18332
725.190	17592
725.305	9785
725.421	7839
725.536	7974
725.651	7497
725.767	8225
725.882	6981
725.997	7372
726.113	8081
726.228	7030
726.343	6535
726.459	6620
726.574	7650
726.689	7460
726.804	7443
726.920	6957
727.035	7670
727.150	7512
727.265	7818
727.380	7808
727.495	8199
727.610	6760
727.725	7092
727.841	7322
727.956	10425
728.071	9356
728.186	6682
728.301	7650
728.416	9019
728.531	7591
728.645	7858
728.760	9417
728.875	11869
728.990	10969
729.105	9292
729.220	9909
729.335	8385
729.449	6881
729.564	6820
729.679	5991
729.794	6425
729.908	7476
730.023	7773
730.138	6744
730.253	6670
730.367	6907
730.482	6053
730.596	6294
730.711	8468
730.826	8169
730.940	7099
731.055	8469
731.169	7300
731.284	7220
731.398	6728
731.513	8271
731.627	9029
731.742	10078
731.856	11128
731.970	11315
732.085	14605
732.199	20834
732.313	40442
732.428	113992
732.542	328602
732.656	148495
732.771	27364
732.885	15630
732.999	13289
733.113	13166
733.227	12119
733.342	10282
733.456	9715
733.570	9675
733.684	9307
733.798	9373
733.912	9347
734.026	7923
734.140	8241
734.254	9822
734.368	13299
734.482	13502
734.596	8035
734.710	8350
734.824	8585
734.938	8435
735.052	8950
735.166	10985
735.280	9304
735.393	7720
735.507	9930
735.621	10998
735.735	13451
735.849	8561
735.962	8275
736.076	7958
736.190	9033
736.303	9980
736.417	11496
736.531	7774
736.644	9048
736.758	7177
736.872	7560
736.985	7061
737.099	7027
737.212	7511
737.326	8259
737.439	7818
737.553	7766
737.666	7254
737.780	7089
737.893	6866
738.007	7495
738.120	6538
738.233	7075
738.347	7223
738.460	8053
738.573	8603
738.687	7910
738.800	9045
738.913	11836
739.026	8467
739.140	7156
739.253	6853
739.366	6620
739.479	5653
739.592	6092
739.705	6299
739.818	7914
739.932	7793
740.045	8909
740.158	7621
740.271	7569
740.384	7228
740.497	7801
740.610	9267
740.723	9621
740.836	8560
740.949	10767
741.062	12894
741.174	9601
741.287	7154
741.400	7663
741.513	9613
741.626	10747
741.739	9151
741.851	8817
741.964	7865
742.077	7565
742.189	7971
742.302	10481
742.415	10323
742.527	8280
742.640	6773
742.753	6650
742.865	6079
742.978	5760
743.090	6532
743.203	6471
743.316	5343
743.428	5300
743.541	5355
743.653	5681
743.766	5571
743.878	6143
743.990	6942
744.103	8323
744.215	7450
744.327	6260
744.440	9400
744.552	15274
744.664	7180
744.777	5684
744.889	4534
745.001	5901
745.113	4820
745.226	4141
745.338	5725
745.450	5625
745.562	4472
745.674	5502
745.786	5565
745.898	4948
746.010	5734
746.122	5958
746.234	7043
746.347	4540
746.459	5061
746.570	4870
746.682	6153
746.794	7648
746.906	4169
747.018	4900
747.130	4878
747.242	5040
747.354	4258
747.466	5403
747.577	4722
747.689	4615
747.801	4492
747.913	4507
748.024	4205
748.136	4351
748.248	4348
748.359	4580
748.471	3908
748.583	4061
748.694	4285
748.806	5744
748.918	4959
749.029	5475
749.141	6233
749.252	6059
749.364	7399
749.475	16939
749.587	7692
749.698	4401
749.809	5102
749.921	4241
750.032	3370
750.144	4187
750.255	2741
750.366	3873
750.478	3534
750.589	4629
750.700	5195
750.811	5499
750.923	7065
751.034	19599
751.145	16059
751.256	4154
751.367	3670
751.479	3764
751.590	2897
751.701	3336
751.812	3090
751.923	4618
752.034	4539
752.145	3598
752.256	3339
752.367	4467
752.478	3841
752.589	3521
752.700	3952
752.811	3249
752.922	4157
753.032	5424
753.143	5496
753.254	2873
753.365	5444
753.476	3244
753.586	3696
753.697	3899
753.808	3439
753.919	3735
754.029	3365
754.140	3024
754.251	3412
754.361	3801
754.472	4189
754.582	3526
754.693	3525
754.804	3808
754.914	3337
755.025	3262
755.135	3235
755.246	3512
755.356	2652
755.466	3724
755.577	2673
755.687	3534
755.798	3612
755.908	2974
756.018	3169
756.129	3029
756.239	3477
756.349	4037
756.460	3754
756.570	4223
756.680	3667
756.790	4126
756.900	4631
757.011	3040
757.121	3156
757.231	3331
757.341	2873
757.451	2283
757.561	3211
757.671	3139
757.781	2444
757.891	3859
758.001	3421
758.111	4032
758.221	4524
758.331	5423
758.441	6259
758.551	9125
758.661	7829
758.771	4812
758.880	3895
758.990	4046
759.100	3316
759.210	4406
759.320	3634
759.429	4859
759.539	5290
759.649	4138
759.758	5535
759.868	6383
759.978	5994
760.087	6974
760.197	7825
760.307	6832
760.416	6324
760.526	4620
760.635	5113
760.745	6224
760.854	6921
760.964	7243
761.073	7696
761.182	7315
761.292	6078
761.401	5863
761.511	4626
761.620	4447
761.729	5022
761.839	3997
761.948	4220
762.057	4724
762.166	3744
762.276	3409
762.385	3974
762.494	3307
762.603	2940
762.712	3774
762.822	3490
762.931	3557
763.040	2283
763.149	3126
763.258	3469
763.367	3648
763.476	3280
763.585	3258
763.694	3687
763.803	3009
763.912	4343
764.021	3761
764.130	3503
764.238	4319
764.347	3591
764.456	3962
764.565	3827
764.674	3785
764.783	4310
764.891	3591
765.000	5725
765.109	4722
765.217	5247
765.326	7037
765.435	8001
765.543	7616
765.652	7892
765.761	11165
765.869	15592
765.978	23585
766.086	44839
766.195	92715
766.303	269387
766.412	714698
766.520	451136
766.629	103012
766.737	39226
766.846	22789
766.954	15690
767.062	13412
767.171	10472
767.279	9332
767.387	7198
767.496	6926
767.604	6160
767.712	5260
767.820	5787
767.928	5111
768.037	4979
768.145	5574
768.253	5312
768.361	4173
768.469	4722
768.577	4335
768.685	5376
768.793	5195
768.901	4815
769.009	6009
769.117	5720
769.225	7413
769.333	11400
769.441	18754
769.549	35243
769.657	92964
769.765	327762
769.873	527784
769.981	132846
770.088	30156
770.196	15961
770.304	11221
770.412	8917
770.519	7533
770.627	5503
770.735	5214
770.842	5188
770.950	5873
771.058	5859
771.165	5031
771.273	5524
771.380	6213
771.488	6107
771.595	6406
771.703	6031
771.810	5806
771.918	5440
772.025	5666
772.133	6858
772.240	6115
772.348	7200
772.455	6408
772.562	4889
772.670	5355
772.777	6703
772.884	5780
772.991	5276
773.099	6283
773.206	5171
773.313	6774
773.420	6279
773.528	4909
773.635	4697
773.742	6176
773.849	5694
773.956	5682
774.063	5534
774.170	4631
774.277	6414
774.384	4983
774.491	4738
774.598	5517
774.705	5428
774.812	7168
774.919	5434
775.026	4695
775.133	5855
775.239	4687
775.346	4179
775.453	4948
775.560	4395
775.667	5294
775.773	3680
775.880	5146
775.987	4455
776.093	4639
776.200	3895
776.307	3783
776.413	4786
776.520	5379
776.627	4348
776.733	4797
776.840	2665
776.946	7097
777.053	6785
777.159	11648
777.266	5995
777.372	11023
777.478	8695
777.585	6641
777.691	4658
777.798	4269
777.904	5002
778.010	8667
778.117	7400
778.223	4115
778.329	3857
778.435	3621
778.542	4399
778.648	4312
778.754	3523
778.860	4132
778.966	3999
779.072	3595
779.178	4208
779.284	3379
779.391	3184
779.497	2423
779.603	4982
779.708	3706
779.815	6115
779.920	10440
780.026	11495
780.132	4332
780.238	3137
780.344	3673
780.450	4539
780.556	2859
780.661	3252
780.767	3883
780.873	2732
780.979	3863
781.085	2698
781.190	4259
781.296	3485
781.402	3004
781.507	2994
781.613	2242
781.719	2893
781.824	2937
781.930	3233
782.035	3228
782.141	3828
782.246	2468
782.352	3839
782.457	3273
782.563	3361
782.668	4094
782.773	3179
782.879	2862
782.984	3809
783.090	4850
783.195	7903
783.300	5367
783.405	3127
783.511	2731
783.616	3404
783.721	4510
783.826	2959
783.932	3501
784.037	3717
784.142	2577
784.247	3571
784.352	3591
784.457	3517
784.562	3707
784.667	3103
784.772	2181
784.877	2055
784.982	3649
785.087	2936
785.192	2935
785.297	3143
785.402	2589
785.507	2337
785.611	3270
785.716	2911
785.821	2130
785.926	2131
786.031	2385
786.135	2186
786.240	1623
786.345	1825
786.450	2662
786.554	2300
786.659	2164
786.763	1458
786.868	3364
786.973	3542
787.077	1986
787.182	1986
787.286	1768
787.391	1841
787.495	2024
787.600	2486
787.704	1959
787.809	2226
787.913	2287
788.017	2438
788.122	2139
788.226	1965
788.330	782
788.435	2216
788.539	1972
788.643	1760
788.747	1192
788.852	1369
788.956	1791
789.060	1960
789.164	2506
789.268	778
789.372	2446
789.476	2268
789.580	852
789.684	1793
789.788	2926
789.892	1372
789.996	1714
790.100	1234
790.204	1877
790.308	1983
790.412	1059
790.516	2080
790.620	1420
790.724	1395
790.828	2113
790.931	2122
791.035	3422
791.139	1851
791.242	1397
791.346	2884
791.450	2099
791.554	985
791.657	1236
791.761	3316
791.864	3372
791.968	2725
792.072	2096
792.175	780
792.279	2001
792.382	2306
792.486	2197
792.589	1575
792.693	2675
792.796	581
792.899	2433
793.003	2650
793.106	1049
793.209	2434
793.313	2689
793.416	1302
793.519	4277
793.623	6496
793.726	7746
793.829	3364
793.932	2412
794.035	1755
794.138	3347
794.242	3513
794.345	2684
794.448	3802
794.551	7260
794.654	8176
794.757	7343
794.860	3186
794.963	3109
795.066	1036
795.169	1898
795.272	1055
795.375	2374
795.477	441
795.580	1707
795.683	513
795.786	2237
795.889	237
795.991	1968
796.094	2593
796.197	704
796.300	1839
796.402	947
796.505	1561
796.608	801
796.710	2057
796.813	2391
796.915	2004
797.018	1967
797.120	2140
797.223	357
797.326	2327
797.428	1040
797.530	1120
797.633	2002
797.735	2953
797.838	2922
797.940	2221
798.042	726
798.145	1286
798.247	1715
798.349	-438
798.452	1897
798.554	1721
798.656	1344
798.758	2619
798.860	756
798.962	646
799.065	1290
799.167	457
799.269	2504
799.371	2681
799.473	4273
799.575	2474
799.677	2684
799.779	4049
799.881	5531
799.983	3299
800.085	1856
800.187	1611
800.289	141
800.390	900
800.492	1854
800.594	2004
800.696	1031
800.798	936
800.899	664
801.001	1510
801.103	697
801.205	1820
801.306	1811
801.408	629
801.509	1418
801.611	1335
801.713	332
801.814	-456
801.916	469
802.017	948
802.119	-209
802.220	565
802.322	-145
802.423	2900
802.525	388
802.626	2284
802.727	1843
802.829	1477
802.930	-471
803.031	1596
803.133	292
803.234	587
803.335	1175
803.436	160
803.538	487
803.639	470
803.740	1542
803.841	440
803.942	1817
804.043	1682
804.144	258
804.245	134
804.346	327
804.447	792
804.548	3903
804.649	4331
804.750	1067
804.851	561
804.952	531
805.053	375
805.154	425
805.255	1357
805.355	1545
805.456	32
805.557	-345
805.658	-260
805.758	600
805.859	257
805.960	352
806.061	-125
806.161	-483
806.262	-24
806.362	618
806.463	-205
806.564	2415
806.664	1134
806.765	1169
806.865	1320
806.966	1085
807.066	-368
807.166	998
807.267	878
807.367	252
807.468	976
807.568	-840
807.668	1079
807.769	1018
807.869	451
807.969	726
808.069	126
808.170	1018
808.270	233
808.370	852
808.470	3382
808.570	583
808.670	882
808.770	195
808.870	-184
808.970	1674
809.070	343
809.170	77
809.271	1145
809.370	166
809.470	987
809.570	298
809.670	-208
809.770	480
809.870	1315
809.970	894
810.070	453
810.169	1215
810.269	-620
810.369	1401
810.469	-441
810.568	-30
810.668	-44
810.768	-658
810.867	144
810.967	-177
811.066	183
811.166	348
811.265	1558
811.365	-363
811.464	-197
811.564	903
811.663	736
811.763	-679
811.862	868
811.962	1767
812.061	-257
812.160	-182
812.260	343
812.359	638
812.458	400
812.557	1966
812.657	950
812.756	866
812.855	63
812.954	-609
813.053	420
813.153	97
813.252	-231
813.351	1174
813.450	605
813.549	-308
813.648	773
813.747	371
813.846	983
813.945	-408
814.044	171
814.143	837
814.242	1474
814.341	534
814.439	830
814.538	875
814.637	810
814.736	389
814.835	1084
814.933	924
815.032	1031
815.131	1369
815.229	2572
815.328	3820
815.427	1796
815.525	2494
815.624	2114
815.722	2371
815.821	2541
815.919	2126
816.018	2247
816.116	3243
816.215	2096
816.313	3224
816.412	2972
816.510	3771
816.609	5185
816.707	4261
816.805	4674
816.904	3589
817.002	4513
817.100	4838
817.198	5710
817.296	3873
817.395	5226
817.493	6667
817.591	4691
817.689	7374
817.787	9210
817.885	13945
817.983	24193
818.081	53378
818.179	127914
818.277	316954
818.375	238062
818.473	63719
818.571	26031
818.669	18633
818.767	16429
818.865	14735
818.963	17971
819.061	28190
819.158	49546
819.256	108298
819.354	264737
819.452	555246
819.549	319644
819.647	86883
819.745	36688
819.842	22360
819.940	16263
820.038	11172
820.135	9597
820.233	9478
820.330	5415
820.428	5583
820.525	6274
820.623	4417
820.720	4133
820.818	4951
820.915	3970
821.012	4392
821.110	2958
821.207	4139
821.304	3497
821.402	3631
821.499	3941
821.596	4746
821.693	4690
821.791	4472
821.888	4972
821.985	11010
822.082	7262
822.179	4316
822.276	2707
822.373	2597
822.470	3249
822.567	1890
822.664	1596
822.761	2582
822.858	1090
822.955	2551
823.052	2405
823.149	1921
823.246	1981
823.343	1625
823.440	2717
823.536	1789
823.633	1744
823.730	1399
823.827	2043
823.923	1933
824.020	2622
824.117	1596
824.213	1654
824.310	1874
824.407	839
824.503	2329
824.600	1711
824.696	1709
824.793	3777
824.889	2427
824.986	1474
825.082	1137
825.179	1967
825.275	1927
825.371	1536
825.468	1708
825.564	278
825.660	2062
825.757	1527
825.853	1990
825.949	622
826.045	1087
826.142	1595
826.238	1105
826.334	1649
826.430	398
826.526	531
826.622	1017
826.718	1123
826.814	654
826.910	1642
827.006	104
827.102	-41
827.198	2116
827.294	1034
827.390	519
827.486	1791
827.582	-337
827.678	83
827.774	964
827.869	-27
827.965	1380
828.061	70
828.157	986
828.252	467
828.348	675
828.444	1468
828.539	-31
828.635	932
828.731	1896
828.826	173
828.922	1459
829.017	1193
829.113	1483
829.208	835
829.304	1258
829.399	2498
829.495	906
829.590	1653
829.685	273
829.781	974
829.876	647
829.971	226
830.066	327
830.162	930
830.257	639
830.352	207
830.447	1595
830.543	1854
830.638	258
830.733	2433
830.828	636
830.923	1680
831.018	1065
831.113	1163
831.208	-44
831.303	314
831.398	89
831.493	747
831.588	1649
831.683	-601
831.778	927
831.873	1224
831.967	1670
832.062	447
832.157	-277
832.252	1729
832.346	407
832.441	2030
832.536	3507
832.631	7773
832.725	4245
832.820	1068
832.914	1092
833.009	270
833.104	1046
833.198	2667
833.293	780
833.387	681
833.482	708
833.576	789
833.670	1267
833.765	1834
833.859	1650
833.954	2573
834.048	847
834.142	830
834.237	161
834.331	629
834.425	758
834.519	99
834.613	500
834.708	342
834.802	1087
834.896	423
834.990	-223
835.084	419
835.178	-48
835.272	719
835.366	-56
835.460	1421
835.554	407
835.648	425
835.742	62
835.836	-170
835.930	-351
836.024	752
836.117	1093
836.211	-218
836.305	350
836.399	1596
836.493	-20
836.586	1596
836.680	-21
836.774	-934
836.867	790
836.961	-479
837.055	9
837.148	186
837.242	313
837.335	322
837.429	-429
837.522	-195
837.616	714
837.709	1901
837.803	131
837.896	1517
837.989	-220
838.083	1276
838.176	1885
838.269	1265
838.363	398
838.456	447
838.549	2238
838.642	3564
838.735	7613
838.829	2578
838.922	-178
839.015	428
839.108	-1135
839.201	196
839.294	876
839.387	991
839.480	-227
839.573	566
839.666	790
839.759	-46
839.852	-120
839.945	-275
840.038	171
840.131	-395
840.223	-518
840.316	1013
840.409	372
840.502	-566
840.594	1107
840.687	-744
840.780	528
840.873	252
840.965	-420
841.058	431
841.150	1941
841.243	516
841.336	530
841.428	276
841.521	-399
841.613	260
841.706	115
841.798	155
841.890	210
841.983	-313
842.075	671
842.167	477
842.260	501
842.352	1354
842.444	823
842.537	2196
842.629	3658
842.721	-518
842.813	734
842.905	-95
842.997	1052
843.090	349
843.182	719
843.274	2630
843.366	6411
843.458	11117
843.550	6961
843.642	436
843.734	-267
843.826	438
843.918	268
844.009	-298
844.101	-598
844.193	277
844.285	-404
844.377	1101
844.469	1376
844.560	1365
844.652	1422
844.744	643
844.835	186
844.927	-119
845.019	418
845.110	111
845.202	124
845.293	-500
845.385	-428
845.476	-326
845.568	745
845.659	429
845.751	86
845.842	133
845.934	-246
846.025	-315
846.116	310
846.208	-117
846.299	-246
846.390	-145
846.482	-427
846.573	875
846.664	419
846.755	1773
846.846	1837
846.937	-581
847.029	-5
847.120	-733
847.211	37
847.302	1324
847.393	-727
847.484	316
847.575	-1147
847.666	-317
847.757	550
847.847	618
847.938	473
848.029	219
848.120	-1079
848.211	-261
848.302	-317
848.392	21
848.483	682
848.574	-583
848.664	-618
848.755	308
848.846	348
848.936	488
849.027	1486
849.118	1490
849.208	1442
849.299	3881
849.389	9262
849.480	23537
849.570	48493
849.661	94926
849.751	145570
849.841	44343
849.932	6168
850.022	2539
850.112	2919
850.203	1262
850.293	942
850.383	1342
850.474	855
850.564	614
850.654	13
850.744	-224
850.834	457
850.924	922
851.014	712
851.104	166
851.194	574
851.284	969
851.374	1208
851.464	919
851.554	450
851.644	184
851.734	1715
851.824	548
851.914	464
852.004	997
852.094	-184
852.183	-64
852.273	1351
852.363	59
852.452	681
852.542	632
852.632	-87
852.721	555
852.811	567
852.901	813
852.990	1836
853.080	1951
853.169	2454
853.259	2723
853.348	4016
853.438	6397
853.527	9023
853.617	13972
853.706	28908
853.795	54598
853.885	121474
853.974	225406
854.063	421906
854.152	555450
854.242	201244
854.331	46297
854.420	19149
854.509	12755
854.598	9516
854.687	7002
854.777	5561
854.866	4122
854.955	4171
855.044	2062
855.133	2243
855.222	1581
855.311	1577
855.400	1789
855.488	938
855.577	1016
855.666	2169
855.755	1351
855.844	760
855.933	822
856.021	816
856.110	940
856.199	8
856.288	275
856.376	119
856.465	-631
856.554	699
856.642	-123
856.731	-628
856.819	1116
856.908	5
856.996	-83
857.085	89
857.173	-320
857.262	-771
857.350	700
857.438	31
857.527	575
857.615	152
857.703	-229
857.792	58
857.880	-151
857.968	-181
858.056	498
858.145	490
858.233	-157
858.321	-515
858.409	499
858.497	-24
858.585	-1060
858.673	43
858.761	-779
858.849	-508
858.937	-359
859.025	211
859.113	-161
859.201	-534
859.289	573
859.377	-107
859.465	56
859.552	-826
859.640	-608
859.728	-79
859.816	-405
859.903	-556
859.991	-366
860.079	339
860.166	298
860.254	-273
860.342	-45
860.429	83
860.517	-693
860.604	-214
860.692	-367
860.779	-1088
860.867	-200
860.954	-588
861.042	653
861.129	1081
861.216	-264
861.304	158
861.391	238
861.478	-207
861.565	-603
861.653	575
861.740	155
861.827	-420
861.914	-393
862.001	-272
862.089	14
862.176	875
862.263	-238
862.350	-399
862.437	-136
862.524	-843
862.611	-312
862.698	111
862.785	492
862.871	1135
862.958	-397
863.045	-223
863.132	504
863.219	-167
863.306	-1077
863.392	-75
863.479	23
863.566	-413
863.652	-512
863.739	-747
863.826	590
863.912	-87
863.999	-374
864.086	-6
864.172	-278
864.259	987
864.345	609
864.432	313
864.518	-95
864.604	1103
864.691	249
864.777	709
864.863	1640
864.950	2079
865.036	1991
865.122	5380
865.209	4496
865.295	4581
865.381	5352
865.467	6384
865.553	9479
865.639	16130
865.726	29957
865.812	61889
865.898	119537
865.984	179110
866.070	334417
866.156	308095
866.242	80807
866.328	21827
866.414	9344
866.499	7972
866.585	6186
866.671	4704
866.757	4999
866.843	4766
866.928	3300
867.014	2192
867.100	3573
867.186	3020
867.271	3188
867.357	3292
867.442	3836
867.528	2236
867.614	2955
867.699	1442
867.785	2897
867.870	2769
867.956	3798
868.041	2324
868.127	2167
868.212	2190
868.297	2059
868.383	3137
868.468	3117
868.553	4882
868.639	5373
868.724	10662
868.809	8882
868.894	2111
868.979	825
869.065	1456
869.150	464
869.235	911
869.320	480
869.405	1082
869.490	755
869.575	448
869.660	555
869.745	1838
869.830	734
869.915	413
870.000	1192
870.085	1028
870.169	2551
870.254	1608
870.339	489
870.424	55
870.509	1302
870.593	1379
870.678	1678
870.763	678
870.847	1261
870.932	1092
871.016	1405
871.101	1032
871.186	1424
871.270	1004
871.355	322
871.439	1356
871.523	389
871.608	557
871.692	746
871.777	1178
871.861	780
871.945	464
872.030	102
872.114	1184
872.198	877
872.282	-138
872.367	26
872.451	-2
872.535	1233
872.619	880
872.703	1396
872.787	60
872.871	1401
872.955	183
873.039	4
873.123	331
873.207	502
873.291	104
873.375	-395
873.459	1161
873.543	408
873.627	21
873.711	277
873.794	826
873.878	-4
873.962	304
874.045	721
874.129	480
874.137	553
874.213	1287
874.245	1181
874.296	1015
874.352	466
874.380	191
874.460	126
874.464	123
874.547	335
874.568	416
874.631	656
874.676	1195
874.714	1646
874.784	513
874.798	284
874.881	1590
874.892	1451
874.965	548
874.999	937
875.048	1461
875.107	1274
875.131	1189
875.215	1491
875.215	1490
875.298	343
875.323	407
875.381	594
875.430	1024
875.465	1322
875.538	1046
875.548	1001
875.631	433
875.646	339
875.714	-95
875.753	-95
875.798	-45
875.861	166
875.881	195
875.964	-245
875.968	-236
876.047	42
876.076	162
876.130	399
876.183	1170
876.213	1568
876.291	1008
876.296	971
876.379	524
876.398	435
876.462	206
876.506	212
876.545	92
876.613	207
876.628	292
876.711	628
876.721	623
876.794	440
876.828	650
876.877	958
876.935	948
876.960	927
877.043	663
877.043	665
877.125	1348
877.150	1503
877.208	1792
877.258	1345
877.291	1087
877.365	1276
877.374	1293
877.456	1174
877.472	1165
877.539	968
877.579	1089
877.622	1325
877.687	994
877.704	935
877.787	1201
877.794	1213
877.869	975
877.901	458
877.952	-174
878.008	720
878.034	1095
878.115	509
878.117	500
878.199	849
878.222	855
878.282	826
878.329	696
878.364	574
878.437	624
878.447	659
878.529	-108
878.544	135
878.611	877
878.651	677
878.694	792
878.758	934
878.776	904
878.858	878
878.865	898
878.941	818
878.972	558
879.023	350
879.078	617
879.105	846
879.185	1370
879.187	1374
879.269	1169
879.292	1069
879.351	750
879.399	471
879.433	307
879.506	497
879.516	522
879.598	32
879.613	126
879.680	656
879.720	875
879.762	959
879.827	637
879.844	612
879.926	662
879.933	725
880.007	1230
880.040	1567
880.089	2108
880.147	3753
880.171	4553
880.253	8308
880.254	8338
880.335	12186
880.360	13279
880.417	16811
880.467	25528
880.499	31263
880.574	33505
880.580	32998
880.662	9966
880.680	7456
880.744	2112
880.787	1577
880.825	1458
880.893	1036
880.907	947
880.989	474
881.000	456
881.070	827
881.106	717
881.152	184
881.213	224
881.233	308
881.315	187
881.319	177
881.396	620
881.426	647
881.478	198
881.532	116
881.559	313
881.639	601
881.641	593
881.722	627
881.745	500
881.803	787
881.852	909
881.885	563
881.958	492
881.966	556
882.047	1012
882.064	963
882.129	730
882.171	997
882.210	1482
882.277	2313
882.291	2302
882.372	605
882.383	528
882.454	753
882.489	738
882.535	292
882.596	-8
882.616	111
882.697	367
882.702	387
882.778	290
882.808	255
882.859	331
882.914	309
882.940	244
883.020	308
883.021	313
883.102	479
883.127	521
883.183	511
883.233	551
883.264	525
883.339	-171
883.345	-236
883.426	-198
883.445	-294
883.507	235
883.551	435
883.587	266
883.657	539
883.668	640
883.749	1047
883.763	1056
883.830	616
883.869	466
883.910	448
883.975	631
883.991	644
884.072	623
884.081	582
884.152	961
884.187	1147
884.233	713
884.292	190
884.314	184
884.394	212
884.398	205
884.475	96
884.504	172
884.555	95
884.610	-137
884.636	16
884.716	499
884.716	501
884.797	374
884.821	197
884.877	53
884.927	289
884.958	430
885.033	522
885.038	515
885.118	541
885.139	442
885.199	-161
885.244	-329
885.279	46
885.350	456
885.359	456
885.439	522
885.456	522
885.520	308
885.561	164
885.600	279
885.667	519
885.680	502
885.760	280
885.773	229
885.840	55
885.878	102
885.920	277
885.984	251
886.000	354
886.080	1119
886.089	1201
886.160	659
886.195	331
886.240	779
886.300	1151
886.320	1021
886.400	904
886.406	885
886.480	751
886.511	724
886.560	830
886.616	672
886.640	577
886.720	408
886.722	404
886.800	375
886.827	317
886.879	67
886.932	-142
886.959	-26
887.038	121
887.039	126
887.119	329
887.143	500
887.198	733
887.248	771
887.278	841
887.354	1039
887.358	1022
887.437	719
887.459	551
887.517	661
887.564	817
887.596	513
887.669	-243
887.676	-222
887.755	201
887.774	273
887.835	493
887.880	629
887.914	883
887.985	1349
887.994	1274
888.073	731
888.090	609
888.153	1051
888.195	1174
888.232	746
888.300	172
888.311	205
888.391	367
888.405	395
888.470	260
888.510	161
888.549	398
888.615	838
888.628	757
888.708	185
888.720	98
888.787	544
888.825	796
888.866	713
888.930	557
888.945	522
889.024	349
889.035	322
889.103	675
889.140	863
889.182	870
889.245	889
889.261	893
889.340	883
889.349	880
889.419	533
889.454	356
889.498	220
889.559	51
889.577	226
889.656	993
889.664	1068
889.735	950
889.768	889
889.814	764
889.873	597
889.978	345
890.083	941
890.187	279
890.292	1108
890.397	196
890.501	1096
890.606	434
890.710	764
890.815	624
890.919	772
891.024	1020
891.128	1249
891.233	1148
891.337	1227
891.442	465
891.546	331
891.650	-3
891.755	558
891.859	1428
891.963	442
892.068	758
892.172	543
892.276	238
892.380	457
892.484	1028
892.589	927
892.693	1647
892.797	313
892.901	250
893.005	550
893.109	770
893.213	1336
893.317	238
893.421	625
893.525	-154
893.629	287
893.733	588
893.837	-21
893.941	376
894.045	1187
894.148	481
894.252	819
894.356	988
894.460	1273
894.564	772
894.667	97
894.771	-11
894.875	385
894.978	390
895.082	293
895.186	209
895.289	513
895.393	595
895.496	736
895.600	-456
895.703	893
895.807	-128
895.910	431
896.014	597
896.117	979
896.221	1179
896.324	505
896.427	468
896.531	-307
896.634	207
896.737	1220
896.840	-19
896.944	465
897.047	512
897.150	-39
897.253	435
897.356	1154
897.460	-68
897.563	693
897.666	736
897.769	-57
897.872	185
897.975	84
898.078	-274
898.181	143
898.284	462
898.387	379
898.490	24
898.593	376
898.695	35
898.798	270
898.901	-404
899.004	1092
899.107	62
899.209	306
899.312	454
899.415	488
899.518	366
899.620	-132
899.723	229
899.826	1372
899.928	490
900.031	-191
900.133	-252
900.236	256
900.338	-623
900.441	402
900.543	-280
900.646	671
900.748	125
900.851	658
900.953	60
901.055	56
901.158	2
901.260	515
901.362	138
901.465	146
901.567	726
901.669	662
901.771	-628
901.873	682
901.976	97
902.078	624
902.180	-364
902.282	-350
902.384	474
902.486	254
902.588	338
902.690	340
902.792	-346
902.894	904
902.996	129
903.098	360
903.200	-409
903.302	-255
903.404	-424
903.505	-103
903.607	-174
903.709	926
903.811	-379
903.913	906
904.014	218
904.116	-380
904.218	-13
904.319	762
904.421	738
904.523	423
904.624	778
904.726	660
904.827	370
904.929	-284
905.030	316
905.132	1030
905.233	-27
905.335	-384
905.436	-343
905.537	26
905.639	454
905.740	-58
905.841	385
905.943	-74
906.044	-24
906.145	368
906.247	8
906.348	-265
906.449	-871
906.550	358
906.651	154
906.752	418
906.854	-146
906.955	-524
907.056	489
907.157	44
907.258	-606
907.359	-128
907.460	-509
907.561	-414
907.662	-275
907.762	47
907.863	-242
907.964	691
908.065	-153
908.166	300
908.267	-452
908.367	-669
908.468	-516
908.569	-271
908.670	11
908.770	852
908.871	449
908.971	209
909.072	-48
909.173	96
909.273	-223
909.374	-82
909.474	986
909.575	-855
909.675	-547
909.776	148
909.876	897
909.977	1012
910.077	-260
910.177	-416
910.278	-468
910.378	210
910.478	-461
910.579	-110
910.679	10
910.779	-77
910.879	72
910.980	-418
911.080	532
911.180	18
911.280	-778
911.380	-135
911.480	-546
911.580	-220
911.680	-338
911.780	-10
911.880	-3
911.980	-70
912.080	-916
912.180	233
912.280	-130
912.380	-511
912.480	-486
912.580	646
912.679	-601
912.779	758
912.879	-340
912.979	44
913.078	-682
913.178	-942
913.278	169
913.377	-100
913.477	-974
913.577	-159
913.676	368
913.776	-378
913.875	129
913.975	590
914.074	-765
914.174	-104
914.273	-796
914.373	612
914.472	-576
914.572	-627
914.671	-867
914.770	-46
914.870	-798
914.969	22
915.068	-198
915.167	813
915.267	164
915.366	-74
915.465	-365
915.564	472
915.663	-158
915.763	668
915.862	850
915.961	382
916.060	-920
916.159	-54
916.258	-365
916.357	67
916.456	224
916.555	461
916.654	460
916.752	-561
916.851	-507
916.950	-1040
917.049	645
917.148	263
917.247	56
917.345	-101
917.444	-44
917.543	614
917.642	-324
917.740	334
917.839	532
917.937	1335
918.036	706
918.135	-306
918.233	-614
918.332	-168
918.430	-397
918.529	-205
918.627	28
918.726	218
918.824	-487
918.923	-119
919.021	672
919.119	220
919.218	-538
919.316	598
919.414	62
919.512	-48
919.611	67
919.709	256
919.807	-377
919.905	-46
920.003	-568
920.102	183
920.200	-776
920.298	280
920.396	-207
920.494	1106
920.592	-135
920.690	69
920.788	300
920.886	11
920.984	122
921.082	-99
921.180	660
921.277	339
921.375	821
921.473	516
921.571	596
921.669	646
921.766	545
921.864	1472
921.962	957
922.060	339
922.157	588
922.255	1146
922.352	948
922.450	1338
922.548	140
922.645	932
922.743	1199
922.840	2492
922.938	3218
923.035	2886
923.133	3073
923.230	3139
923.327	4069
923.425	3607
923.522	3174
923.619	3670
923.717	1861
923.814	2883
923.911	2131
924.008	3510
924.106	1923
924.203	2368
924.300	2140
924.397	2047
924.494	3685
924.591	1860
924.688	1982
924.786	2152
924.883	2597
924.979	2100
925.077	2970
925.173	2929
925.270	2651
925.367	2405
925.464	2767
925.561	3616
925.658	3509
925.755	3189
925.852	3084
925.948	2671
926.045	3937
926.142	3041
926.239	3016
926.335	2519
926.432	4236
926.529	3398
926.625	3945
926.722	2450
926.818	2793
926.915	2727
927.011	1467
927.108	2344
927.204	1748
927.301	2318
927.397	2425
927.494	2617
927.590	1498
927.687	2291
927.783	2012
927.879	2648
927.976	1824
928.072	1704
928.168	3238
928.264	2157
928.361	1977
928.457	2708
928.553	1597
928.649	2070
928.745	2796
928.841	1360
928.937	2037
929.033	1844
929.129	1347
929.225	2469
929.321	2343
929.417	2069
929.513	2349
929.609	2203
929.705	1428
929.801	1748
929.897	1517
929.993	1940
930.089	1995
930.184	1106
930.280	2232
930.376	2841
930.471	1297
930.567	1466
930.663	1772
930.758	677
930.854	1266
930.950	1085
931.045	1723
931.141	1508
931.236	2207
931.332	1594
931.427	1035
931.523	2360
931.618	2258
931.714	1280
931.809	2405
931.905	1129
932.000	1494
932.095	2004
932.191	1947
932.286	1959
932.381	2000
932.476	1506
932.572	1873
932.667	2420
932.762	1391
932.857	1994
932.952	1452
933.047	1681
933.142	746
933.237	1336
933.332	1814
933.427	1717
933.522	965
933.617	1001
933.712	1188
933.807	2179
933.902	2265
933.997	2441
934.092	1066
934.187	1447
934.282	1572
934.376	1247
934.471	1530
934.566	1991
934.661	1044
934.755	1824
934.850	1837
934.945	1703
935.039	812
935.134	750
935.228	1542
935.323	2758
935.417	1155
935.512	1599
935.606	1477
935.701	1765
935.795	1787
935.890	996
935.984	1896
936.079	1731
936.173	2385
936.267	1220
936.362	401
936.456	1017
936.550	1311
936.644	1737
936.738	275
936.833	1554
936.927	814
937.021	1677
937.115	912
937.209	1645
937.303	2059
937.397	-10
937.491	489
937.585	1753
937.679	251
937.773	292
937.867	672
937.961	1355
938.055	723
938.149	1520
938.243	345
938.337	658
938.430	644
938.524	1486
938.618	1803
938.712	2122
938.805	1126
938.899	781
938.993	1557
939.086	1154
939.180	1530
939.274	2201
939.367	1710
939.461	1690
939.554	1132
939.648	1316
939.741	1031
939.835	1835
939.928	1627
940.022	1776
940.115	1247
940.208	744
940.302	1476
940.395	1611
940.488	-272
940.582	1911
940.675	-397
940.768	1202
940.861	1172
940.954	2760
941.048	-53
941.141	826
941.234	885
941.327	1776
941.420	2618
941.513	926
941.606	593
941.699	1816
941.792	1635
941.885	1549
941.978	503
942.071	1175
942.164	-496
942.257	757
942.349	158
942.442	1546
942.535	-224
942.628	757
942.721	1020
942.813	-844
942.906	1095
942.999	1585
943.091	483
943.184	414
943.277	437
943.369	995
943.462	248
943.554	1227
943.647	335
943.739	1628
943.832	1023
943.924	-476
944.017	503
944.109	16
944.201	1133
944.294	256
944.386	369
944.478	376
944.571	573
944.663	717
944.755	104
944.847	856
944.940	-276
945.032	-191
945.124	-105
945.216	911
945.308	442
945.400	714
945.492	520
945.584	242
945.676	1494
945.768	1118
945.860	48
945.952	455
946.044	387
946.136	689
946.228	379
946.320	313
946.412	575
946.503	1067
946.595	1375
946.687	310
946.779	2
946.870	335
946.962	-615
947.054	1459
947.145	725
947.237	57
947.329	651
947.420	721
947.512	449
947.603	-602
947.695	172
947.786	-472
947.878	-152
947.969	453
948.061	371
948.152	257
948.243	304
948.335	1182
948.426	-246
948.517	700
948.609	212
948.700	-291
948.791	177
948.882	476
948.973	-613
949.065	-111
949.156	34
949.247	-250
949.338	-106
949.429	-138
949.520	-132
949.611	-293
949.702	451
949.793	91
949.884	396
949.975	-165
950.066	-471
950.157	239
950.247	-89
950.338	-85
950.429	25
950.520	104
950.611	-328
950.701	355
950.792	365
950.883	144
950.973	-464
951.064	488
951.155	48
951.245	723
951.336	267
951.427	-632
951.517	642
951.608	607
951.698	-521
951.788	71
951.879	-487
951.969	-688
952.060	-1562
952.150	383
952.240	416
952.331	-280
952.421	1506
952.511	-503
952.602	-193
952.692	-464
952.782	-201
952.872	74
952.962	-407
953.052	263
953.143	-640
953.233	9
953.323	805
953.413	-6
953.503	35
953.593	616
953.683	87
953.773	-1101
953.863	-372
953.953	297
954.042	-659
954.132	-552
954.222	-34
954.312	-784
954.402	245
954.492	-103
954.581	395
954.671	-632
954.761	-1254
954.850	1307
954.940	-973
955.030	126
955.119	-1052
955.209	130
955.298	-602
955.388	-226
955.477	108
955.567	-737
955.656	81
955.746	292
955.835	-406
955.925	-538
956.014	-380
956.103	-14
956.193	-417
956.282	379
956.371	29
956.461	-539
956.550	-599
956.639	365
956.728	-559
956.817	-126
956.906	-301
956.995	302
957.085	-669
957.174	-395
957.263	-1096
957.352	-124
957.441	-760
957.530	-401
957.619	-241
957.708	-292
957.796	-887
957.885	-497
957.974	-864
958.063	-262
958.152	-1211
958.241	-213
958.329	-107
958.418	-296
958.507	-1870
958.596	590
958.684	-1114
958.773	-211
958.861	-994
958.950	111
959.039	-931
959.127	-762
959.216	86
959.304	-1009
959.393	-1117
959.481	-427
959.570	-593
959.658	28
959.746	-928
959.835	-110
959.923	22
960.011	-651
960.100	-272
960.188	475
960.276	-743
960.365	-543
960.453	-1525
960.541	-1121
960.629	-1004
960.717	-1063
960.805	-2054
960.893	-65
960.981	-1310
961.069	-94
961.158	-597
961.245	0
961.333	369
961.421	-1409
961.509	-714
961.597	-371
961.685	-1129
961.773	-571
961.861	-1534
961.949	-775
962.036	-1680
962.124	-219
962.212	-1382
962.299	-539
962.387	-1734
962.475	-70
962.562	-1039
962.650	326
962.738	-1173
962.825	-1009
962.913	-887
963.000	-486
963.088	-594
963.175	-510
963.263	-467
963.350	-162
963.438	-1188
963.525	-936
963.612	-158
963.700	-371
963.787	943
963.874	776
963.962	71
964.049	-233
964.136	-1429
964.223	-865
964.310	-373
964.398	-344
964.485	-1364
964.572	-320
964.659	-153
964.746	-1264
964.833	-979
964.920	-517
965.007	-749
965.094	-647
965.181	-457
965.268	-1358
965.355	-688
965.441	-1193
965.528	-1208
965.615	-259
965.702	-993
965.789	-416
965.875	-1548
965.962	-1368
966.049	-1607
966.136	-710
966.222	-696
966.309	-595
966.395	-1083
966.482	499
966.569	-1213
966.655	-516
966.742	-1169
966.828	-676
966.915	-1423
967.001	-200
967.087	-1766
967.174	-2043
967.260	-603
967.347	-510
967.433	-742
967.519	535
967.605	-872
967.692	-460
967.778	-935
967.864	-1107
967.950	-545
968.036	-1538
968.123	-974
968.209	-828
968.295	-1279
968.381	977
968.467	-596
968.553	-1329
968.639	-1010
968.725	-897
968.811	-53
968.897	-451
968.983	-1990
969.069	-1146
969.154	-1487
969.240	-252
969.326	-1251
969.412	-980
969.497	-1428
969.583	-1312
969.669	-658
969.755	-1003
969.840	-1137
969.926	449
970.012	-859
970.097	61
970.183	-163
970.268	-829
970.354	-516
970.439	-1232
970.525	-457
970.610	-1911
970.696	-438
970.781	-103
970.866	-2049
970.952	-201
971.037	-1332
971.122	-1108
971.208	-991
971.293	-627
971.378	-2164
971.463	-1041
971.549	36
971.634	-1377
971.719	-1177
971.804	-1073
971.889	-988
971.974	-1158
972.059	-992
972.144	12
972.229	-1475
972.314	-1433
972.399	-1260
972.484	-907
972.569	-746
972.654	-1298
972.739	-58
972.824	-913
972.908	-1313
972.993	-1089
973.078	-1146
973.163	-753
973.247	-1570
973.332	-1738
973.417	-785
973.501	-1413
973.586	-932
973.671	-725
973.755	-1629
973.840	-477
973.924	-735
974.009	-854
974.093	-909
974.178	-345
974.262	-1064
974.346	-1380
974.431	-1675
974.515	-1398
974.600	-1341
974.684	325
974.768	-2021
974.852	157
974.937	-2521
975.021	-768
975.105	-1877
975.189	-1104
975.273	-720
975.358	-973
975.442	-898
975.526	-704
975.610	-1372
975.694	-1619
975.778	-598
975.862	1
975.946	-2884
976.030	48
976.114	-1232
976.198	-569
976.281	-968
976.365	-176
976.449	-1701
976.533	-980
976.617	-1743
976.700	-936
976.784	-1188
976.868	-1845
976.951	-1056
977.035	-1325
977.119	-712
977.202	-1554
977.286	-1422
977.369	-392
977.453	501
977.536	-1231
977.620	-1030
977.703	-209
977.787	-1027
977.870	-460
977.953	-103
978.037	-1637
978.120	-610
978.203	-1134
978.287	-978
978.370	-316
978.453	-1305
978.536	-805
978.620	-20
978.703	-132
978.786	-1648
978.869	-1351
978.952	-2491
979.035	-4
979.118	-719
979.201	-876
979.284	-1037
979.367	-1557
979.450	-1236
979.533	-1210
979.616	-1390
979.699	-1472
979.782	-904
979.865	-1380
979.948	-1024
980.030	-1793
980.113	-1315
980.196	-1978
980.279	-733
980.361	-1061
980.444	-1404
980.526	-269
980.609	-463
980.692	-751
980.774	-1215
980.857	-1742
980.939	28
981.022	-635
981.104	-451
981.187	-1254
981.269	-1192
981.352	-181
981.434	-1663
981.516	-2158
981.599	-268
981.681	-520
981.763	-1344
981.846	-1091
981.928	-1067
982.010	-732
982.092	-1210
982.174	-64
982.256	-1734
982.339	-1260
982.421	-356
982.503	-459
982.585	-2246
982.667	-555
982.749	-847
982.831	-344
982.913	-2077
982.995	-28
983.077	-957
983.158	-238
983.240	-1623
983.322	38
983.404	393
983.486	-989
983.568	-336
983.649	-379
983.731	-375
983.813	-2
983.894	-1191
983.976	-1003
984.058	-1266
984.139	706
984.221	-1426
984.302	-421
984.384	-1528
984.465	-1605
984.547	-668
984.628	-1166
984.710	-42
984.791	-1011
984.872	-1885
984.954	-1127
985.035	-703
985.116	-1175
985.198	-847
985.279	-202
985.360	-716
985.441	-1202
985.522	-14
985.604	-180
985.685	-2634
985.766	112
985.847	178
985.928	-943
986.009	-403
986.090	-395
986.171	142
986.252	-773
986.333	-325
986.414	-932
986.495	-995
986.576	-653
986.656	-617
986.737	-733
986.818	-810
986.899	-1064
986.980	-1780
987.060	-153
987.141	-1065
987.222	847
987.302	436
987.383	276
987.464	-1488
987.544	-10
987.625	-294
987.705	-123
987.786	-1003
987.866	3
987.947	-263
988.027	-666
988.108	-1148
988.188	42
988.268	-178
988.349	102
988.429	-815
988.509	264
988.589	-817
988.670	-1977
988.750	457
988.830	-353
988.910	-987
988.990	141
989.070	-935
989.151	-317
989.231	-1307
989.311	334
989.391	-990
989.471	-83
989.551	-745
989.631	-893
989.711	-838
989.791	-861
989.870	-777
989.950	-639
990.030	-988
990.110	-734
990.190	-1319
990.269	-730
990.349	-1063
990.429	-716
990.509	-691
990.588	-1236
990.668	478
990.747	-216
990.827	-704
990.907	-488
990.986	-1504
991.066	-397
991.145	-1579
991.225	-116
991.304	-1433
991.383	-355
991.463	-1311
991.542	-534
991.622	-1026
991.701	-859
991.780	-1305
991.859	-1277
991.939	-1152
992.018	-576
992.097	-635
992.176	-63
992.256	-1099
992.335	-1103
992.414	428
992.493	-1131
992.572	-1344
992.651	428
992.730	-1056
992.809	-319
992.888	-1325
992.967	-1384
993.046	-340
993.125	-1782
993.203	-569
993.282	-569
993.361	-717
993.440	-796
993.519	-1389
993.597	-209
993.676	-1827
993.755	-847
993.834	-484
993.912	-863
993.991	-603
994.069	-1244
994.148	-1223
994.226	-1120
994.305	-1069
994.384	-502
994.462	-453
994.540	-1291
994.619	-1379
994.697	256
994.776	-2271
994.854	-637
994.932	-1493
995.011	-591
995.089	-1845
995.167	-581
995.245	-1538
995.324	-1682
995.402	-807
995.480	-1062
995.558	-1155
995.636	-2038
995.714	-1592
995.792	438
995.870	-2014
995.948	-971
996.026	-729
996.104	-1695
996.182	-703
996.260	-1254
996.338	-1253
996.416	-1923
996.494	-1322
996.572	-214
996.649	-1711
996.727	-2126
996.805	-1648
996.883	-966
996.960	-1681
997.038	-787
997.116	-662
997.193	-1312
997.271	-859
997.348	-1639
997.426	-1072
997.504	-995
997.581	-1032
997.658	87
997.736	-1985
997.813	-1155
997.891	-192
997.968	-2037
998.046	-1284
998.123	-1014
998.200	-1090
998.277	-1795
998.355	-558
998.432	-1540
998.509	-908
998.586	-453
998.663	-1249
998.741	-745
998.818	-1830
998.895	-1387
998.972	-558
999.049	-1033
999.126	-1836
999.203	-294
999.280	-1143
999.357	-1265
999.434	-1128
999.511	-869
999.587	-1635
999.664	-1102
999.741	-2029
999.818	-650
999.895	-935
999.971	-1901
1000.048	-1784
1000.125	-740
1000.202	-1457
1000.278	-1267
1000.355	-1327
1000.431	-1155
1000.508	-1367
1000.584	-910
1000.661	-345
1000.738	-1979
1000.814	-1513
1000.890	-986
1000.967	-1404
1001.043	-859
1001.120	-2366
1001.196	-1608
1001.272	-2192
1001.349	-1348
1001.425	-1574
1001.501	-473
1001.577	-2135
1001.654	-324
1001.730	-1584
1001.806	-1027
1001.882	-1762
1001.958	-403
1002.034	-1145
1002.110	-598
1002.186	-1918
1002.262	-1215
1002.338	-1794
1002.414	-800
1002.490	-1387
1002.566	-2067
1002.642	-1441
1002.718	-264
1002.794	-2126
1002.870	-914
1002.945	-2279
1003.021	-1366
1003.097	-1516
1003.173	-1065
1003.248	-2105
1003.324	-534
1003.400	-939
1003.475	-1506
1003.551	-1500
1003.626	-561
1003.702	-2356
1003.777	-1430
1003.853	-2111
1003.928	-1090
1004.004	-2400
1004.079	-942
1004.155	-1256
1004.230	-1571
1004.305	-1241
1004.381	-1457
1004.456	-1781
1004.531	-1035
1004.607	-2211
1004.682	-1336
1004.757	-1272
1004.832	-1964
1004.907	-1447
1004.982	-1412
1005.057	-1558
1005.133	-1467
1005.208	-1330
1005.283	-1238
1005.358	-1170
1005.433	-2144
1005.508	-1454
1005.583	-1998
1005.657	-1852
1005.732	-1265
1005.807	-2316
1005.882	-1545
1005.957	-1463
1006.032	-1693
1006.106	-2242
1006.181	-1622
1006.256	-1886
1006.331	-2397
1006.405	-2411
1006.480	-1059
1006.554	-1717
1006.629	-1118
1006.704	-1872
1006.778	-1630
1006.853	-918
1006.927	-1502
1007.002	-2377
1007.076	-2198
1007.150	-2106
1007.225	-2440
1007.299	-1790
1007.373	-2539
1007.448	-2156
1007.522	-779
1007.596	-1912
1007.671	-1251
1007.745	-885
1007.819	-1719
1007.893	-2249
1007.967	-1581
1008.041	-3233
1008.115	-1129
1008.190	-2372
1008.264	-775
1008.338	-3651
1008.412	-1143
1008.486	-1890
1008.560	-1620
1008.633	-2685
1008.707	-1942
1008.781	-1454
1008.855	-1791
1008.929	-1382
1009.003	-2531
1009.076	-2076
1009.150	-1769
1009.224	-1403
1009.298	-857
1009.371	-2052
1009.445	-1377
1009.519	-1320
1009.592	-2576
1009.666	-1576
1009.739	-1510
1009.813	-2439
1009.886	-1214
1009.960	-2636
1010.033	-803
1010.107	-1567
1010.180	-2139
1010.253	-2004
1010.327	-1314
1010.400	-1380
1010.473	-2230
1010.547	-1108
1010.620	-2249
1010.693	-2285
1010.766	-1573
1010.840	-1878
1010.913	-607
1010.986	-2225
1011.059	-2174
1011.132	-2119
1011.205	-432
1011.278	-1941
1011.351	-1918
1011.424	-1499
1011.497	-1734
1011.570	-1968
1011.643	-1646
1011.716	-2187
1011.789	-2139
1011.862	-1809
1011.934	-1765
1012.007	-3045
1012.080	-1506
1012.153	-2138
1012.225	-983
1012.298	-2193
1012.371	-3029
1012.443	-1545
1012.516	-2402
1012.588	-1766
1012.661	-1064
1012.733	-2404
1012.806	-887
1012.879	-1931
1012.951	-1159
1013.023	-1779
1013.096	-1219
1013.168	-1590
1013.241	-1127
1013.313	-2667
1013.385	-1011
1013.458	-2569
1013.530	-1166
1013.602	-2844
1013.674	-1689
1013.746	-3355
1013.819	-1476
1013.891	-1991
1013.963	-2221
1014.035	-1936
1014.107	-1745
1014.179	-1643
1014.251	-2629
1014.323	-1722
1014.395	-1703
1014.467	-1999
1014.539	-1667
1014.611	-1888
1014.683	-2084
1014.754	-2675
1014.826	-2596
1014.898	-2688
1014.970	-3181
1015.042	-1552
1015.113	-2083
1015.185	-1489
1015.257	-2160
1015.328	-1753
1015.400	-1656
1015.471	-1548
1015.543	-2506
1015.615	-1902
1015.686	-1560
1015.757	-2522
1015.829	-1751
1015.901	-1305
1015.972	-1280
1016.043	-2030
1016.115	-1579
1016.186	-1843
1016.257	-1911
1016.328	-2498
1016.400	-1308
1016.471	-2368
1016.542	-1548
1016.613	-2366
1016.685	-1751
1016.756	-1916
1016.827	-2834
1016.898	-2838
1016.969	-909
1017.040	-2124
1017.111	-2209
1017.182	-1904
1017.253	-1140
1017.324	-2248
1017.395	-2657
1017.466	-1979
1017.537	-2036
1017.608	-2089
1017.678	-1724
1017.749	-1827
1017.820	-1685
1017.891	-2349
1017.961	-1757
1018.032	-2249
1018.103	-1070
1018.173	-2334
1018.244	-2631
1018.315	-2266
1018.385	-1030
1018.456	-1557
1018.526	-2631
1018.597	-2524
1018.667	-1217
1018.738	-3185
1018.808	-2494
1018.878	-1761
1018.949	-1307
1019.019	-2425
1019.089	-1710
1019.160	-1854
1019.230	-2325
1019.300	-2665
1019.371	-3024
1019.441	-1291
1019.511	-2294
1019.581	-2046
1019.651	-2199
1019.721	-1731
1019.791	-2176
1019.861	-2252
1019.931	-1350
1020.001	-2868
1020.071	-1345
1020.141	-1938
1020.211	-2340
1020.281	-2190
1020.351	-1842
1020.421	-2146
1020.491	-970
1020.560	-2647
1020.630	-2175
1020.700	-1785
1020.770	-2396
1020.839	-2367
1020.909	-2462
1020.979	-2990
1021.048	-1443
1021.118	-1906
1021.187	-2382
1021.257	-1799
1021.326	-1824
1021.396	-1919
1021.465	-2261
1021.535	-1916
1021.604	-2361
1021.674	-1752
1021.743	-892
1021.812	-2057
1021.882	-2342
1021.951	-2486
1022.020	-1696
1022.089	-2231
1022.159	-2123
1022.228	-2311
1022.297	-1755
1022.366	-1500
1022.435	-2027
1022.504	-2242
1022.573	-2220
1022.642	-2408
1022.711	-2556
1022.781	-1738
1022.849	-1918
1022.918	-2247
1022.987	-1882
1023.056	-1950
1023.125	-2088
1023.194	-2649
1023.263	-2302
1023.331	-1786
1023.400	-2818
1023.469	-2794
1023.538	-1789
1023.606	-2113
1023.675	-1527
1023.744	-2675
1023.812	-920
1023.881	-2827
1023.949	-2122
1024.018	-2217
1024.086	-2032
1024.155	-2229
1024.223	-2276
1024.292	-2286
1024.360	-1600
1024.429	-1653
1024.497	-1850
1024.565	-1708
1024.634	-1451
1024.702	-1611
1024.770	-1424
1024.838	-2088
1024.907	-2027
1024.975	-3150
1025.043	-1867
1025.111	-2463
1025.179	-2035
1025.247	-2480
1025.315	-2143
1025.383	-2416
1025.451	-1655
1025.519	-2027
1025.587	-1803
1025.655	-1725
1025.723	-2785
1025.791	-2186
1025.859	-1965
1025.927	-1405
1025.995	-1768
1026.062	-2422
1026.130	-1458
1026.198	-3077
1026.266	-2178
1026.333	-2139
1026.401	-1504
1026.469	-2028
1026.536	-1475
1026.604	-2300
1026.671	-2423
1026.739	-1955
1026.806	-2306
1026.874	-2071
1026.941	-1551
1027.009	-2796
1027.076	-2113
1027.144	-1318
1027.211	-2298
1027.278	-2115
1027.345	-1670
1027.413	-1926
1027.480	-2626
1027.547	-2303
1027.614	-1697
1027.682	-2081
1027.749	-1192
1027.816	-1803
1027.883	-1417
1027.950	-2014
1028.017	-2188
1028.084	-1722
1028.151	-2545
1028.218	-2708
1028.285	-1254
1028.352	-2294
1028.419	-1152
1028.486	-2392
1028.553	-2128
1028.619	-2145
1028.686	-1118
1028.753	-2874
1028.820	-2084
1028.886	-2402
1028.953	-2441
1029.020	-2039
1029.086	-2269
1029.153	-2437
1029.220	-1791
1029.286	-1748
1029.353	-1802
1029.419	-2578
1029.486	-1625
1029.552	-2563
1029.619	-2481
1029.685	-2006
1029.751	-2394
1029.818	-1527
1029.884	-1502
1029.951	-1416
1030.017	-2936
1030.083	-2273
1030.149	-2114
1030.216	-2816
1030.282	-1581
1030.348	-2694
1030.414	-1981
1030.480	-2351
1030.546	-1801
1030.612	-1908
1030.678	-2358
1030.744	-1907
1030.810	-2091
1030.876	-2151
1030.942	-1333
1031.008	-2077
1031.074	-2457
1031.140	-2091
1031.206	-1563
1031.272	-2528
1031.337	-1548
1031.403	-2542
1031.469	-1557
1031.534	-2521
1031.600	-2174
1031.666	-2794
1031.731	-1312
1031.797	-2120
1031.863	-1255
1031.928	-2038
1031.994	-2229
1032.059	-2317
1032.125	-2481
1032.190	-1904
1032.256	-1507
1032.321	-2357
1032.386	-2932
1032.452	-1976
1032.517	-1674
1032.582	-2534
1032.647	-1986
1032.713	-2283
1032.778	-1527
1032.843	-2437
1032.908	-2711
1032.974	-2003
1033.039	-2326
1033.104	-2069
1033.169	-2431
1033.234	-2232
1033.299	-1295
1033.364	-1364
1033.429	-1619
1033.494	-1752
1033.559	-1939
1033.624	-2541
1033.688	-1454
1033.753	-2536
1033.818	-626
1033.883	-1745
1033.948	-1547
1034.013	-1368
1034.077	-1390
1034.142	-1861
1034.207	-737
1034.271	415
1034.336	568
1034.400	-66
1034.465	-779
1034.530	-1232
1034.594	-1542
1034.658	-2170
1034.723	-2010
1034.787	-1221
1034.852	-1551
1034.916	-2553
1034.981	-2063
1035.045	-1974
1035.109	-2428
1035.173	-1497
1035.238	-1571
1035.302	-2509
1035.366	-2371
1035.430	-2168
1035.495	-1821
1035.559	-1634
1035.623	-1411
1035.687	-2295
1035.751	-2137
1035.815	-1871
1035.879	-1876
1035.943	-2174
1036.007	-2178
1036.071	-1429
1036.135	-1540
1036.198	-1743
1036.262	-2883
1036.326	-1393
1036.390	-2014
1036.454	-2371
1036.517	-1273
1036.581	-1710
1036.645	-391
1036.709	-611
1036.772	-1608
1036.836	-1837
1036.900	-1428
1036.963	-3005
1037.026	-1807
1037.090	-2880
1037.154	-1551
1037.217	-1958
1037.280	-1753
1037.344	-3111
1037.407	-2019
1037.471	-2261
1037.534	-2810
1037.597	-2911
1037.661	-2202
1037.724	-2395
1037.787	-2417
1037.850	-2520
1037.913	-2546
1037.977	-2278
1038.040	-1518
1038.103	-2678
1038.166	-1564
1038.229	-2764
1038.292	-1809
1038.355	-2591
1038.418	-2860
1038.481	-1610
1038.544	-2622
1038.607	-2507
1038.670	-1559
1038.732	-3074
1038.795	-2301
1038.858	-2480
1038.921	-1453
1038.984	-1780
1039.046	-1275
1039.109	-2901
1039.172	-2804
1039.234	-2568
1039.297	-1637
1039.360	-2309
1039.422	-1714
1039.485	-1680
1039.547	-2630
1039.610	-1560
1039.672	-2193
1039.734	-1403
1039.797	-1568
1039.859	-2275
1039.922	-2191
1039.984	-2681
1040.046	-2363
1040.109	-2536
1040.171	-2302
1040.233	-2795
1040.295	-1739
1040.358	-2425
1040.420	-3063
1040.482	-1920
1040.544	-2888
1040.606	-2995
1040.668	-2086
1040.730	-2641
1040.792	-1826
1040.854	-2973
1040.916	-1769
1040.978	-2324
1041.040	-1877
1041.102	-2805
1041.164	-2582
1041.225	-1886
1041.287	-2528
1041.349	-2517
1041.411	-1466
1041.472	-2725
1041.534	-1931
1041.596	-2398
1041.657	-1925
1041.719	-1805
1041.781	-2352
1041.842	-3027
1041.904	-2495
1041.965	-2188
1042.027	-1014
1042.088	-2717
1042.150	-2077
1042.211	-2053
1042.272	-2396
1042.334	-2508
1042.395	-1884
1042.456	-1730
1042.518	-2224
1042.579	-2275
1042.640	-1919
1042.701	-1763
1042.763	-2394
1042.824	-2711
1042.885	-1990
1042.946	-2730
1043.007	-2390
1043.068	-1978
1043.129	-2082
1043.190	-2034
1043.251	-1474
1043.312	-2098
1043.373	-2085
1043.434	-2188
1043.495	-1697
1043.556	-1693
1043.616	-1727
1043.677	-2183
1043.738	-2361
1043.799	-2812
1043.859	-1838
1043.920	-2095
1043.981	-2207
1044.041	-2477
1044.102	-2315
1044.162	-1842
1044.223	-2639
1044.284	-2122
1044.344	-1653
1044.405	-3022
1044.465	-2146
1044.525	-2374
1044.586	-1924
1044.646	-2506
1044.707	-1915
1044.767	-2830
1044.827	-2023
1044.887	-2478
1044.948	-1503
1045.008	-2618
1045.068	-1864
1045.128	-1977
1045.188	-2291
1045.249	-2334
1045.309	-1357
1045.369	-2491
1045.429	-2292
1045.489	-2193
1045.549	-1588
1045.609	-2399
1045.669	-2017
1045.729	-2463
1045.789	-2054
1045.848	-1767
1045.908	-2378
1045.968	-1350
1046.028	-1541
1046.088	-1776
1046.147	-549
1046.207	-2487
1046.267	-1473
1046.326	-1599
1046.386	-1832
1046.446	-1682
1046.505	-535
1046.565	-1242
1046.624	-406
1046.684	-1352
1046.743	-720
1046.803	-1170
1046.862	-1163
1046.922	0
