'Start Wavelength	183.907
'End Wavelength	1046.922
'Gate Delay	5.000
'Gate Width (ms)	1.050
'Laser Output Level	0.000
'X Position	0.000
'Y Position	0.000
'Z Position	0.000
'Grid Point Number	1.000
'Shot Number	100.000
183.907	547.000
183.977	-351.000
184.047	-154
184.116	1100
184.186	209
184.256	193
184.325	303
184.395	-225
184.465	673
184.534	-302
184.604	-361
184.674	979
184.743	-442
184.813	682
184.883	521
184.952	366
185.022	298
185.092	-49
185.161	46
185.231	64
185.301	451
185.370	553
185.440	207
185.509	240
185.579	138
185.649	354
185.718	-270
185.788	116
185.857	-743
185.927	363
185.996	-226
186.066	748
186.136	-486
186.205	449
186.275	616
186.344	-38
186.414	38
186.483	-535
186.553	1384
186.622	653
186.692	362
186.761	-187
186.831	1194
186.900	-136
186.970	579
187.039	338
187.109	965
187.178	560
187.248	212
187.317	385
187.387	547
187.456	686
187.526	632
187.595	942
187.664	-157
187.734	-42
187.803	1254
187.873	825
187.942	1167
188.012	638
188.081	-192
188.150	-126
188.220	847
188.289	982
188.358	199
188.428	1857
188.497	-268
188.567	573
188.636	367
188.705	52
188.775	-162
188.844	-401
188.913	839
188.983	625
189.052	573
189.121	158
189.191	-237
189.260	859
189.329	648
189.399	407
189.468	241
189.537	-65
189.606	-11
189.676	132
189.745	671
189.814	757
189.883	687
189.953	641
190.022	1120
190.091	507
190.161	934
190.230	1023
190.299	283
190.368	369
190.437	3
190.507	796
190.576	444
190.645	470
190.714	-202
190.783	-5
190.853	520
190.922	585
190.991	84
191.060	742
191.129	194
191.198	676
191.268	698
191.337	147
191.406	771
191.475	225
191.544	-81
191.613	303
191.682	249
191.752	-36
191.821	604
191.890	656
191.959	924
192.028	1332
192.097	-719
192.166	482
192.235	-20
192.304	836
192.373	468
192.442	-264
192.511	141
192.580	329
192.650	673
192.719	361
192.788	432
192.857	48
192.926	427
192.995	-306
193.064	142
193.133	1335
193.202	1160
193.271	1592
193.340	1007
193.409	1598
193.478	1144
193.547	1789
193.615	1573
193.684	1735
193.753	1258
193.822	1264
193.891	874
193.960	769
194.029	129
194.098	756
194.167	783
194.236	447
194.305	-291
194.374	1604
194.443	208
194.512	75
194.580	1216
194.649	1537
194.718	1068
194.787	643
194.856	96
194.925	1083
194.994	-124
195.062	639
195.131	1125
195.200	1192
195.269	875
195.338	864
195.407	361
195.475	574
195.544	1431
195.613	901
195.682	1394
195.751	1495
195.819	833
195.888	1108
195.957	1553
196.026	1765
196.094	1832
196.163	1226
196.232	917
196.301	1176
196.369	1151
196.438	932
196.507	319
196.576	534
196.644	938
196.713	1029
196.782	424
196.850	570
196.919	911
196.988	808
197.056	607
197.125	1283
197.194	-180
197.262	283
197.331	464
197.400	1777
197.468	596
197.537	493
197.606	918
197.674	740
197.743	1496
197.812	1389
197.880	2243
197.949	1586
198.017	1431
198.086	1302
198.155	264
198.223	1449
198.292	2584
198.360	963
198.429	22
198.497	657
198.566	1249
198.635	2293
198.703	876
198.772	1025
198.840	2555
198.909	3356
198.977	1285
199.046	1296
199.114	799
199.183	1627
199.251	531
199.320	452
199.388	567
199.457	1147
199.525	284
199.594	786
199.662	100
199.731	775
199.799	686
199.867	1050
199.936	1105
200.004	1252
200.073	492
200.141	262
200.210	-85
200.278	857
200.346	556
200.415	1289
200.483	1126
200.552	1388
200.620	791
200.688	801
200.757	1307
200.825	1214
200.893	920
200.962	1821
201.030	750
201.098	1224
201.167	1227
201.235	760
201.303	762
201.372	1467
201.440	574
201.508	1705
201.577	1352
201.645	1620
201.713	81
201.781	1566
201.850	1280
201.918	761
201.986	471
202.055	1071
202.123	920
202.191	1198
202.259	1223
202.327	1146
202.396	929
202.464	959
202.532	1916
202.600	4315
202.669	3424
202.737	923
202.805	872
202.873	855
202.941	990
203.009	648
203.078	715
203.146	1125
203.214	876
203.282	671
203.350	1910
203.418	1253
203.487	1249
203.555	778
203.623	347
203.691	1304
203.759	602
203.827	521
203.895	749
203.963	1499
204.031	1236
204.099	1215
204.168	845
204.236	1124
204.304	1763
204.372	772
204.440	973
204.508	1185
204.576	82
204.644	1178
204.712	1044
204.780	725
204.848	1449
204.916	604
204.984	1242
205.052	1007
205.120	1494
205.188	1104
205.256	780
205.324	991
205.392	429
205.460	1770
205.528	741
205.596	2321
205.664	868
205.732	955
205.799	1880
205.867	5234
205.935	687
206.003	1557
206.071	776
206.139	766
206.207	849
206.275	682
206.343	967
206.411	807
206.478	1497
206.546	925
206.614	1516
206.682	1465
206.750	463
206.818	1076
206.885	2321
206.953	1103
207.021	1326
207.089	2073
207.157	464
207.225	1353
207.292	621
207.360	2439
207.428	1386
207.496	1148
207.563	1614
207.631	1274
207.699	1512
207.767	1797
207.834	1067
207.902	2245
207.970	955
208.038	1425
208.105	1045
208.173	1743
208.241	1528
208.309	2203
208.376	2190
208.444	3099
208.512	1914
208.579	1519
208.647	1779
208.715	2112
208.782	832
208.850	1868
208.918	1329
208.985	1932
209.053	2005
209.120	1889
209.188	1570
209.256	1728
209.323	1347
209.391	2316
209.459	2790
209.526	2435
209.594	752
209.661	1303
209.729	1985
209.796	2053
209.864	1281
209.932	778
209.999	2777
210.067	2074
210.134	1528
210.202	1955
210.269	2523
210.337	3246
210.404	1947
210.472	2089
210.539	1643
210.607	1479
210.674	3170
210.742	1662
210.809	1372
210.877	2319
210.944	2464
211.012	2003
211.079	3946
211.146	1572
211.214	1468
211.281	2376
211.349	2886
211.416	2404
211.484	1746
211.551	2020
211.618	2126
211.686	2039
211.753	1465
211.821	2097
211.888	1780
211.955	1739
212.023	1853
212.090	2535
212.157	2271
212.225	2508
212.292	4499
212.359	6498
212.427	11578
212.494	7438
212.561	3775
212.629	2885
212.696	1975
212.763	2951
212.831	1978
212.898	2677
212.965	1992
213.032	2691
213.100	2776
213.167	2692
213.234	3227
213.301	2034
213.369	1963
213.436	2255
213.503	1650
213.570	2768
213.638	3060
213.705	1454
213.772	1956
213.839	1568
213.906	2996
213.973	2190
214.041	1801
214.108	2598
214.175	2091
214.242	2241
214.309	2179
214.376	2403
214.444	2345
214.511	3030
214.578	2309
214.645	2713
214.712	2978
214.779	3059
214.846	2809
214.913	3443
214.980	3804
215.048	3686
215.115	4137
215.182	3747
215.249	2998
215.316	3289
215.383	3126
215.450	2619
215.517	2791
215.584	2855
215.651	2231
215.718	2301
215.785	2673
215.852	2581
215.919	2984
215.986	3266
216.053	2094
216.120	2053
216.187	2668
216.254	3279
216.321	2514
216.388	2296
216.455	3593
216.522	3024
216.589	3530
216.656	5134
216.722	5052
216.789	4043
216.856	3327
216.923	3434
216.990	3416
217.057	3514
217.124	3912
217.191	3355
217.258	4758
217.324	4765
217.391	4709
217.458	4380
217.525	3605
217.592	2936
217.659	2978
217.725	3650
217.792	4055
217.859	4189
217.926	2414
217.993	1809
218.059	2810
218.126	2344
218.193	2166
218.260	2380
218.327	2269
218.393	3415
218.460	2721
218.527	2316
218.594	2022
218.660	3986
218.727	4200
218.794	2484
218.860	3402
218.927	2763
218.994	1028
219.061	1996
219.127	2636
219.194	3590
219.261	2665
219.327	1946
219.394	2914
219.461	2147
219.527	1615
219.594	2583
219.661	2431
219.727	809
219.794	2717
219.860	1792
219.927	2425
219.994	3372
220.060	5959
220.127	5464
220.193	3856
220.260	3919
220.326	4170
220.393	6334
220.460	7550
220.526	5949
220.593	3799
220.659	5629
220.726	4219
220.792	8211
220.859	8466
220.925	10493
220.992	13167
221.058	11426
221.125	11586
221.191	8173
221.258	3766
221.324	3424
221.391	3042
221.457	2534
221.524	2679
221.590	3836
221.657	8660
221.723	7433
221.789	6078
221.856	6367
221.922	3359
221.989	4162
222.055	2965
222.121	2460
222.188	4658
222.254	4035
222.321	3341
222.387	1257
222.453	1922
222.520	2521
222.586	1933
222.652	2073
222.719	1988
222.785	3157
222.851	1717
222.918	2685
222.984	2519
223.050	2711
223.116	1272
223.183	2939
223.249	1946
223.315	1860
223.382	1686
223.448	2629
223.514	1902
223.580	2104
223.647	1868
223.713	2023
223.779	1737
223.845	1988
223.911	2613
223.978	1009
224.044	2220
224.110	1712
224.176	1959
224.242	2521
224.309	1272
224.375	2250
224.441	1684
224.507	1189
224.573	1465
224.639	2773
224.705	1133
224.772	1557
224.838	1155
224.904	2462
224.970	2182
225.036	1591
225.102	1701
225.168	2778
225.234	2591
225.300	1737
225.366	1578
225.432	1999
225.499	2304
225.565	1774
225.631	2674
225.697	2924
225.763	3544
225.829	4008
225.895	3917
225.961	4748
226.027	5099
226.093	4222
226.159	4628
226.225	7479
226.291	12502
226.357	20028
226.423	12869
226.489	8027
226.554	5929
226.620	5767
226.686	6106
226.752	8621
226.818	13002
226.884	23843
226.950	21677
227.016	10307
227.082	7991
227.148	5813
227.214	5108
227.279	4439
227.345	3035
227.411	4065
227.477	4789
227.543	9276
227.609	9522
227.674	6185
227.740	4214
227.806	3379
227.872	2264
227.938	3090
228.003	3955
228.069	3821
228.135	2357
228.201	2631
228.267	2347
228.332	2986
228.398	2748
228.464	2802
228.530	1650
228.595	3401
228.661	1631
228.727	3199
228.792	4224
228.858	3080
228.924	1396
228.990	4474
229.055	2211
229.121	3833
229.187	2326
229.252	2464
229.318	1939
229.384	3259
229.449	2774
229.515	586
229.581	1229
229.646	3697
229.712	2254
229.777	4892
229.843	5079
229.909	5312
229.974	5076
230.040	4698
230.105	3665
230.171	3910
230.236	5055
230.302	6658
230.368	5585
230.433	3403
230.499	3723
230.564	4944
230.630	3040
230.695	3078
230.761	3618
230.826	1402
230.892	4994
230.957	3698
231.023	2986
231.088	2640
231.154	3516
231.219	3814
231.284	4084
231.350	4353
231.415	2162
231.481	3862
231.546	1613
231.612	3061
231.677	1967
231.742	1642
231.808	4053
231.873	2011
231.939	717
232.004	5350
232.069	4579
232.135	2914
232.200	2480
232.265	3055
232.331	2178
232.396	1885
232.461	1284
232.527	1835
232.592	2180
232.657	2613
232.723	2728
232.788	2986
232.853	2880
232.918	3449
232.984	1540
233.049	1958
233.114	2315
233.179	3390
233.245	4428
233.310	5203
233.375	2031
233.440	2480
233.506	1860
233.571	1244
233.636	2380
233.701	2065
233.766	3572
233.832	4798
233.897	2717
233.962	1964
234.027	4535
234.092	2850
234.157	3127
234.222	3077
234.288	3687
234.353	7954
234.418	7784
234.483	6287
234.548	5578
234.613	4485
234.678	4940
234.743	4387
234.808	8783
234.873	6853
234.938	5185
235.004	3782
235.069	4564
235.134	2798
235.199	3890
235.264	3419
235.329	1914
235.394	4109
235.459	4227
235.524	3636
235.589	3101
235.654	3143
235.719	1751
235.784	4138
235.849	3973
235.913	5037
235.978	5512
236.043	6274
236.108	4055
236.173	3002
236.238	4262
236.303	2790
236.368	4046
236.433	5062
236.498	6401
236.563	6624
236.627	11022
236.692	30536
236.757	28290
236.822	13468
236.887	8914
236.952	8917
237.017	5034
237.081	8401
237.146	7411
237.211	16852
237.276	30082
237.341	45119
237.405	25840
237.470	12998
237.535	9442
237.600	6355
237.664	5860
237.729	3938
237.794	5212
237.859	11239
237.923	7347
237.988	4911
238.053	5820
238.118	5798
238.182	11434
238.247	11249
238.312	4452
238.376	5566
238.441	3778
238.506	4776
238.570	2000
238.635	4569
238.700	2605
238.764	2919
238.829	5598
238.893	5723
238.958	5617
239.023	4930
239.087	3224
239.152	3925
239.216	2595
239.281	3950
239.346	3449
239.410	3746
239.475	3275
239.539	9832
239.604	7747
239.668	5176
239.733	4160
239.797	6517
239.862	14831
239.926	13481
239.991	5764
240.055	4376
240.120	3793
240.184	3886
240.249	2557
240.313	2745
240.378	3162
240.442	6747
240.507	10213
240.571	4917
240.635	4433
240.700	7411
240.764	3446
240.829	3046
240.893	1559
240.957	3310
241.022	6493
241.086	9734
241.151	4606
241.215	2839
241.279	4247
241.344	6028
241.408	4821
241.472	4610
241.537	5890
241.601	4959
241.665	4113
241.730	4349
241.794	5042
241.858	4193
241.922	4462
241.987	5122
242.051	3548
242.115	3535
242.179	4239
242.244	3756
242.308	4184
242.372	4477
242.436	4513
242.501	4458
242.565	3346
242.629	3979
242.693	4305
242.757	3299
242.822	3818
242.886	3702
242.950	3460
243.014	3381
243.078	4407
243.142	4594
243.206	3301
243.271	5515
243.335	4157
243.399	7119
243.463	16777
243.527	42184
243.591	15983
243.655	7765
243.719	4359
243.783	6609
243.847	8069
243.911	10793
243.975	10775
244.040	8303
244.104	6125
244.168	3152
244.232	6421
244.296	8694
244.360	8895
244.424	5022
244.488	4671
244.552	4737
244.615	2438
244.679	3749
244.743	3697
244.807	4899
244.871	3098
244.935	4384
244.999	2436
245.063	4071
245.127	4805
245.191	6523
245.255	7010
245.319	5413
245.383	4362
245.446	5311
245.510	2884
245.574	3770
245.638	4700
245.702	3372
245.766	8615
245.829	6882
245.893	3665
245.957	3731
246.021	4572
246.085	4567
246.149	4990
246.212	10864
246.276	16591
246.340	8320
246.404	7071
246.467	6248
246.531	8069
246.595	6872
246.659	7017
246.722	4749
246.786	6667
246.850	6740
246.913	8145
246.977	4153
247.041	4539
247.104	5519
247.168	6129
247.232	11467
247.295	20451
247.359	12923
247.423	6230
247.486	9801
247.550	7429
247.614	5309
247.677	7408
247.741	5149
247.804	3995
247.868	5646
247.932	9553
247.995	20926
248.059	9083
248.122	4993
248.186	6997
248.249	11754
248.313	31800
248.376	35493
248.440	23915
248.503	10165
248.567	9046
248.630	11407
248.694	15214
248.757	20625
248.821	35093
248.884	25119
248.948	20392
249.011	28984
249.075	39203
249.138	36369
249.202	16934
249.265	11539
249.328	11068
249.392	9446
249.455	9073
249.519	7887
249.582	9285
249.645	12846
249.709	10585
249.772	8163
249.835	6455
249.899	7186
249.962	7115
250.025	6703
250.089	12933
250.152	20130
250.215	11898
250.279	7870
250.342	7811
250.405	8320
250.468	7484
250.532	9448
250.595	14998
250.658	39853
250.721	65031
250.785	27861
250.848	17272
250.911	9918
250.974	10393
251.038	11904
251.101	22600
251.164	13299
251.227	13279
251.290	12978
251.354	18166
251.417	54833
251.480	59047
251.543	43458
251.606	93511
251.669	79708
251.732	36495
251.795	33637
251.859	34362
251.922	63078
251.985	42462
252.048	18732
252.111	14039
252.174	12536
252.237	22237
252.300	42066
252.363	44908
252.426	79035
252.489	38276
252.552	19989
252.615	13247
252.678	15275
252.741	32487
252.804	42393
252.867	82667
252.930	54337
252.993	29992
253.056	19836
253.119	14273
253.182	10427
253.245	18352
253.308	14148
253.371	11691
253.434	11103
253.497	10993
253.559	20601
253.622	14617
253.685	17962
253.748	20294
253.811	9429
253.874	11184
253.937	11284
254.000	9138
254.062	14082
254.125	22098
254.188	19489
254.251	17930
254.314	9007
254.376	15593
254.439	18098
254.502	15350
254.565	15536
254.628	26426
254.690	16870
254.753	9822
254.816	8290
254.878	7679
254.941	14899
255.004	16356
255.067	8118
255.129	7955
255.192	6125
255.255	4396
255.317	6157
255.380	4875
255.443	3511
255.505	3680
255.568	3272
255.631	3392
255.693	4806
255.756	3408
255.819	4927
255.881	3615
255.944	3774
256.006	3468
256.069	3895
256.132	3306
256.194	5345
256.257	9023
256.319	7394
256.382	7034
256.444	7094
256.507	5608
256.569	4610
256.632	5120
256.694	7563
256.757	18272
256.819	52052
256.882	25103
256.944	11532
257.007	8905
257.069	8907
257.132	5864
257.194	7224
257.257	5273
257.319	5247
257.381	6671
257.444	15347
257.506	55272
257.569	68724
257.631	34448
257.693	18839
257.756	10483
257.818	8840
257.880	5884
257.943	6731
258.005	5222
258.067	4794
258.130	5326
258.192	6375
258.254	10274
258.317	7945
258.379	6079
258.441	12343
258.503	12734
258.566	11710
258.628	15892
258.690	6722
258.753	7129
258.815	11745
258.877	6823
258.939	5040
259.001	5349
259.064	4230
259.126	5579
259.188	7109
259.250	6771
259.312	7271
259.375	14008
259.437	11143
259.499	6019
259.561	5872
259.623	6150
259.685	5776
259.747	5190
259.809	10970
259.872	20013
259.934	28934
259.996	30795
260.058	11735
260.120	5627
260.182	5338
260.244	5041
260.306	3938
260.368	4914
260.430	4162
260.492	8105
260.554	13935
260.616	11083
260.678	17923
260.740	21519
260.802	6869
260.864	6698
260.926	5087
260.988	6185
261.050	5198
261.112	11166
261.174	22541
261.236	17695
261.298	6977
261.359	8825
261.421	13697
261.483	5515
261.545	6006
261.607	4484
261.669	5248
261.731	6600
261.793	15678
261.854	8783
261.916	7086
261.978	5617
262.040	5321
262.102	5088
262.164	5571
262.225	5453
262.287	4737
262.349	11396
262.411	9933
262.472	5963
262.534	6119
262.596	12095
262.658	6120
262.719	3606
262.781	5605
262.843	11122
262.904	7388
262.966	5609
263.028	7624
263.090	22070
263.151	62527
263.213	23789
263.275	13647
263.336	7387
263.398	5733
263.459	3340
263.521	4549
263.583	11446
263.644	8026
263.706	3733
263.767	3089
263.829	3174
263.891	2980
263.952	1924
264.014	2924
264.075	4709
264.137	11381
264.198	6950
264.260	3005
264.321	2804
264.383	7667
264.444	19956
264.506	7109
264.567	5135
264.629	7348
264.690	14264
264.752	7699
264.813	5447
264.875	3281
264.936	4801
264.998	4167
265.059	3478
265.120	4178
265.182	6852
265.243	26990
265.305	31297
265.366	9285
265.427	5477
265.489	5412
265.550	2694
265.611	5289
265.673	4607
265.734	4084
265.795	3523
265.857	3082
265.918	3804
265.979	10025
266.040	42953
266.102	40921
266.163	12525
266.224	10292
266.286	6468
266.347	4199
266.408	4717
266.469	4394
266.530	4091
266.592	3087
266.653	7913
266.714	12364
266.775	5139
266.836	4044
266.898	3113
266.959	5629
267.020	4311
267.081	5087
267.142	3834
267.203	3854
267.264	3182
267.326	5821
267.387	3475
267.448	3872
267.509	4444
267.570	3090
267.631	3069
267.692	2661
267.753	4243
267.814	2785
267.875	6876
267.936	15619
267.997	8561
268.058	8860
268.119	5140
268.180	4414
268.241	4111
268.302	4071
268.363	3291
268.424	3971
268.485	4213
268.546	2892
268.607	2643
268.668	1990
268.729	2697
268.790	3861
268.851	3939
268.912	8998
268.972	12103
269.033	7124
269.094	4149
269.155	3717
269.216	3685
269.277	3241
269.338	3742
269.398	3847
269.459	3933
269.520	6850
269.581	7641
269.642	9238
269.702	5333
269.763	5961
269.824	4364
269.885	5648
269.945	8426
270.006	4958
270.067	2587
270.128	2949
270.188	3433
270.249	2954
270.310	2204
270.370	4512
270.431	3703
270.492	3903
270.553	4115
270.613	7767
270.674	14701
270.734	7449
270.795	3796
270.856	6029
270.916	4854
270.977	3770
271.038	5235
271.098	5735
271.159	8748
271.219	7162
271.280	3035
271.340	4185
271.401	2997
271.462	7634
271.522	5827
271.583	4128
271.643	3745
271.704	4662
271.764	4915
271.825	11576
271.885	33397
271.946	46487
272.006	17532
272.066	21133
272.127	35377
272.187	14469
272.248	8513
272.308	8363
272.369	23094
272.429	15040
272.489	10052
272.550	12170
272.610	12296
272.671	9788
272.731	7253
272.791	11182
272.852	8390
272.912	7908
272.972	4321
273.033	5026
273.093	6663
273.153	7326
273.214	5669
273.274	6109
273.334	16824
273.394	34793
273.455	15678
273.515	14048
273.575	29650
273.635	15325
273.696	16955
273.756	31950
273.816	15719
273.876	9313
273.936	12618
273.997	22893
274.057	8143
274.117	6743
274.177	10722
274.237	37612
274.297	34413
274.358	20959
274.418	26575
274.478	21114
274.538	9897
274.598	6907
274.658	16518
274.718	22747
274.778	10815
274.838	6647
274.898	9465
274.958	28824
275.018	30487
275.078	21729
275.138	10012
275.198	6453
275.258	5590
275.318	6375
275.378	11096
275.438	13064
275.498	9333
275.558	14318
275.618	29198
275.678	23270
275.738	15807
275.798	12094
275.858	7260
275.918	4875
275.978	6108
276.038	6401
276.098	4924
276.157	8920
276.217	25980
276.277	13432
276.337	9282
276.397	5191
276.457	7218
276.517	5773
276.576	3927
276.636	4338
276.696	6421
276.756	15107
276.815	12622
276.875	6385
276.935	6874
276.995	6784
277.055	5145
277.114	5531
277.174	6168
277.234	20419
277.293	10144
277.353	5932
277.413	4955
277.472	5839
277.532	5343
277.592	6511
277.651	17580
277.711	35270
277.771	13728
277.830	37928
277.890	35102
277.950	21315
278.009	58596
278.069	25889
278.128	23908
278.188	37591
278.248	17077
278.307	37573
278.367	25048
278.426	8270
278.486	6742
278.545	5541
278.605	5321
278.664	5519
278.724	6014
278.783	13050
278.843	32655
278.902	12367
278.962	7691
279.021	8832
279.081	8993
279.140	9557
279.199	9536
279.259	8964
279.318	9784
279.378	11202
279.437	18857
279.496	58406
279.556	133922
279.615	115750
279.675	36249
279.734	22504
279.793	30847
279.853	46452
279.912	20383
279.971	11752
280.031	11733
280.090	18040
280.149	32884
280.208	25640
280.268	86819
280.327	100032
280.386	27954
280.445	20753
280.505	20896
280.564	10764
280.623	8489
280.682	12147
280.742	18603
280.801	7737
280.860	6438
280.919	5896
280.978	5307
281.037	5115
281.097	4145
281.156	5232
281.215	4753
281.274	6322
281.333	20747
281.392	17696
281.451	5472
281.510	4842
281.569	4505
281.628	4147
281.688	3454
281.747	5279
281.806	5298
281.865	4237
281.924	3570
281.983	4820
282.042	3099
282.101	3209
282.160	4211
282.219	3824
282.278	3906
282.337	13720
282.396	10169
282.454	4626
282.513	6034
282.572	20362
282.631	14073
282.690	5064
282.749	4634
282.808	6150
282.867	5563
282.926	6058
282.985	4354
283.043	3575
283.102	4217
283.161	4844
283.220	9665
283.279	22213
283.338	8718
283.396	4978
283.455	5329
283.514	6154
283.573	9377
283.631	6892
283.690	5263
283.749	5339
283.808	9810
283.866	13112
283.925	5559
283.984	6333
284.043	7558
284.101	8228
284.160	6019
284.219	7805
284.277	7896
284.336	11363
284.395	28723
284.453	26089
284.512	12396
284.570	14895
284.629	14458
284.688	14132
284.746	15138
284.805	18651
284.863	22619
284.922	28572
284.981	36463
285.039	51511
285.098	80210
285.156	140398
285.215	159868
285.273	154982
285.332	153416
285.390	101318
285.449	65806
285.507	45210
285.566	33468
285.624	26817
285.683	21086
285.741	16770
285.799	14171
285.858	13401
285.916	11811
285.975	9603
286.033	9093
286.091	8242
286.150	6911
286.208	6911
286.267	6726
286.325	8469
286.383	10938
286.442	10284
286.500	5383
286.558	5441
286.616	5066
286.675	7467
286.733	7330
286.791	5935
286.850	6670
286.908	8548
286.966	13012
287.024	6771
287.083	5214
287.141	4744
287.199	5917
287.257	8007
287.315	5390
287.374	6672
287.432	13042
287.490	10767
287.548	5448
287.606	5285
287.664	5273
287.723	6227
287.781	8830
287.839	5764
287.897	6778
287.955	7845
288.013	11827
288.071	27192
288.129	81391
288.187	201297
288.245	109591
288.303	38542
288.361	22208
288.419	16119
288.477	11900
288.535	9144
288.593	6848
288.651	5676
288.709	4067
288.767	5056
288.825	4784
288.883	3718
288.941	3614
288.999	3902
289.057	2871
289.115	3426
289.173	2403
289.231	4320
289.289	4053
289.346	3451
289.404	4476
289.462	7743
289.520	7763
289.578	4766
289.636	3049
289.694	3043
289.751	2908
289.809	3077
289.867	2957
289.925	4551
289.983	5829
290.040	3497
290.098	2944
290.156	4134
290.214	5142
290.271	3339
290.329	3171
290.387	3083
290.444	2219
290.502	1912
290.560	2281
290.617	2809
290.675	3484
290.733	3297
290.790	3966
290.848	2967
290.906	3790
290.963	2999
291.021	2870
291.078	3301
291.136	3320
291.194	8762
291.251	22086
291.309	7895
291.366	3905
291.424	3362
291.481	3117
291.539	3582
291.596	3797
291.654	2198
291.711	2740
291.769	4082
291.826	7012
291.884	5795
291.941	2716
291.999	3237
292.056	3381
292.114	4516
292.171	3173
292.228	3940
292.286	4541
292.343	8608
292.401	10495
292.458	5869
292.515	3965
292.573	5530
292.630	5419
292.687	5061
292.745	3776
292.802	5030
292.859	11317
292.917	22884
292.974	15368
293.031	6248
293.089	4506
293.146	3520
293.203	2668
293.260	2790
293.318	3842
293.375	6069
293.432	3642
293.489	3126
293.546	3563
293.604	5572
293.661	13729
293.718	36191
293.775	20779
293.832	10536
293.889	8512
293.947	8569
294.004	6574
294.061	7188
294.118	10880
294.175	22897
294.232	26914
294.289	12638
294.346	6212
294.403	6819
294.460	5924
294.517	4207
294.574	3206
294.631	4256
294.688	4792
294.745	11635
294.802	37240
294.859	43941
294.916	17875
294.973	10863
295.030	8539
295.087	7854
295.144	6043
295.201	5513
295.258	4638
295.315	6119
295.372	15101
295.429	30264
295.486	14728
295.542	8557
295.599	16317
295.656	30092
295.713	19930
295.770	27116
295.827	12545
295.883	6871
295.940	6455
295.997	10328
296.054	9820
296.111	6074
296.167	4540
296.224	3252
296.281	3066
296.338	4050
296.394	3496
296.451	4837
296.508	12048
296.564	25785
296.621	18146
296.678	32311
296.734	49223
296.791	20529
296.848	11085
296.904	11629
296.961	22727
297.018	32512
297.074	25413
297.131	11668
297.187	8705
297.244	12318
297.301	28611
297.357	54772
297.414	22448
297.470	9305
297.527	6422
297.583	6549
297.640	6298
297.696	5730
297.753	3714
297.809	3646
297.866	2883
297.922	4030
297.979	3068
298.035	4040
298.092	7636
298.148	18809
298.204	20442
298.261	10816
298.317	14954
298.374	38866
298.430	26291
298.486	11208
298.543	8137
298.599	7438
298.656	9896
298.712	15369
298.768	34616
298.824	27294
298.881	9591
298.937	6641
298.993	5407
299.050	7013
299.106	6657
299.162	6033
299.218	5756
299.275	4874
299.331	5938
299.387	11312
299.443	34096
299.500	43263
299.556	19927
299.612	9541
299.668	9609
299.724	11749
299.780	14309
299.837	8734
299.893	10206
299.949	30909
300.005	42382
300.061	31921
300.117	51254
300.173	27812
300.229	13353
300.285	15195
300.341	18468
300.397	10593
300.453	5519
300.510	5198
300.566	6631
300.622	9439
300.678	22804
300.734	42620
300.790	33785
300.845	37158
300.901	27516
300.957	36221
301.013	29200
301.069	12118
301.125	8325
301.181	8617
301.237	7922
301.293	4524
301.349	5525
301.405	4721
301.461	4586
301.516	6244
301.572	6768
301.628	10931
301.684	10104
301.740	13893
301.796	23456
301.851	16673
301.907	26266
301.963	29388
302.019	36982
302.074	89409
302.130	97132
302.186	50131
302.242	21208
302.297	14223
302.353	12972
302.409	22468
302.464	22268
302.520	17256
302.576	34836
302.631	44522
302.687	27356
302.743	11824
302.798	7343
302.854	6072
302.910	6044
302.965	7988
303.021	13583
303.076	14110
303.132	15877
303.187	21067
303.243	11745
303.299	6344
303.354	4728
303.410	5112
303.465	4841
303.521	4626
303.576	5483
303.632	6689
303.687	11319
303.743	29543
303.798	29920
303.853	13193
303.909	7362
303.964	6729
304.020	10597
304.075	15969
304.130	14566
304.186	23906
304.241	25809
304.297	21001
304.352	11825
304.358	11427
304.407	8203
304.449	7897
304.463	7794
304.518	8249
304.539	7715
304.573	6873
304.629	6818
304.630	6875
304.684	9772
304.720	18565
304.739	22910
304.794	38890
304.811	33541
304.850	20585
304.902	10404
304.905	9765
304.960	6611
304.992	6822
305.015	7025
305.071	6328
305.083	6478
305.126	6859
305.173	5452
305.181	5244
305.236	3728
305.264	4290
305.292	4877
305.347	6187
305.354	6299
305.402	7053
305.445	7714
305.457	7887
305.512	8887
305.535	9089
305.567	9370
305.622	10101
305.626	10319
305.678	16213
305.716	28698
305.733	32877
305.788	41220
305.807	35737
305.843	26805
305.897	32063
305.898	32088
305.953	34851
305.988	23594
306.008	17615
306.063	12289
306.078	11249
306.118	8670
306.168	5900
306.173	5699
306.228	4735
306.259	4613
306.283	4575
306.338	4812
306.349	4851
306.393	5134
306.440	5753
306.448	5827
306.503	6555
306.530	6596
306.558	7918
306.613	15711
306.620	16872
306.668	25288
306.711	34617
306.723	35389
306.778	29819
306.801	23204
306.833	15933
306.888	8618
306.892	8314
306.943	6166
306.982	6505
306.997	6625
307.052	5278
307.072	5194
307.107	5410
307.162	6068
307.163	6080
307.217	7560
307.253	8850
307.272	9364
307.327	10218
307.343	10173
307.381	9934
307.434	9635
307.436	9860
307.491	16849
307.524	24133
307.546	26437
307.600	31207
307.614	28718
307.655	18945
307.704	10427
307.710	10029
307.765	10180
307.795	11520
307.819	12748
307.874	18526
307.885	18638
307.929	17640
307.975	16309
307.984	17046
308.038	25612
308.065	31969
308.093	52930
308.148	104041
308.156	115044
308.202	167490
308.246	204545
308.257	200236
308.312	119633
308.336	87402
308.366	66689
308.421	42312
308.426	40139
308.475	27288
308.517	19379
308.530	18123
308.585	15380
308.607	14545
308.639	14199
308.694	14859
308.697	14934
308.748	18797
308.787	23791
308.803	24164
308.857	21996
308.877	20287
308.912	19809
308.967	20872
308.967	20916
309.021	30680
309.058	38456
309.076	48504
309.130	84970
309.148	98559
309.185	155582
309.238	247706
309.239	248421
309.293	268042
309.328	255000
309.348	226750
309.402	125831
309.418	100058
309.457	72509
309.508	46021
309.511	45489
309.566	42373
309.598	42167
309.620	47960
309.674	66220
309.688	71219
309.729	69328
309.778	60442
309.783	59288
309.837	42962
309.868	35183
309.892	38854
309.946	50310
309.959	54344
310.001	66576
310.049	77324
310.055	74859
310.109	45811
310.139	28992
310.163	23258
310.218	14414
310.229	12939
310.272	10824
310.319	9235
310.326	9019
310.381	7238
310.409	6595
310.435	6480
310.489	6258
310.499	6262
310.543	6393
310.589	6263
310.598	6228
310.652	6447
310.679	6423
310.706	6186
310.760	5574
310.769	5502
310.814	5403
310.859	5404
310.868	5452
310.923	5473
310.948	5536
310.977	6025
311.031	6995
311.038	7142
311.085	6687
311.128	5930
311.139	5882
311.193	5788
311.218	5713
311.247	5689
311.301	5637
311.308	5619
311.356	5698
311.398	5842
311.410	5872
311.464	5925
311.488	5906
311.518	5823
311.572	5743
311.578	5724
311.626	8561
311.668	11148
311.680	10690
311.734	8306
311.758	7245
311.788	7375
311.842	7617
311.847	7636
311.896	9336
311.937	10812
311.950	10754
312.004	10393
312.027	10212
312.058	9127
312.112	7159
312.117	6952
312.165	6426
312.207	5963
312.297	8142
312.386	6742
312.476	7199
312.566	15845
312.656	7619
312.745	5880
312.835	6182
312.925	6636
313.015	5647
313.104	6060
313.194	6198
313.284	6730
313.374	10130
313.463	9789
313.553	5945
313.643	6155
313.732	5470
313.822	6137
313.912	7300
314.001	7752
314.091	7406
314.180	9811
314.270	10377
314.360	9904
314.449	9075
314.539	7008
314.628	6842
314.718	7870
314.808	8274
314.897	6772
314.987	7746
315.076	9693
315.166	10539
315.255	8834
315.345	9959
315.434	9534
315.524	8704
315.613	10258
315.703	13332
315.792	19291
315.881	47428
315.971	19443
316.060	16080
316.150	15820
316.239	13718
316.328	8135
316.418	8385
316.507	7802
316.597	10233
316.686	9382
316.775	9853
316.865	13501
316.954	6515
317.043	5744
317.133	6618
317.222	6645
317.311	6977
317.400	5826
317.490	9991
317.579	10926
317.668	8071
317.757	13534
317.847	28345
317.936	81972
318.025	37888
318.114	24657
318.203	15608
318.293	22602
318.382	45548
318.471	32913
318.560	38085
318.649	48878
318.738	12354
318.828	11039
318.917	10866
319.006	11494
319.095	20864
319.184	62455
319.273	39980
319.362	25593
319.451	10089
319.540	9322
319.629	19562
319.718	31766
319.807	15164
319.896	24680
319.985	76915
320.074	30641
320.163	9735
320.252	12743
320.341	11378
320.430	10884
320.519	17364
320.608	10563
320.697	9970
320.786	10891
320.875	12457
320.964	17161
321.053	25216
321.142	32822
321.230	34203
321.319	25584
321.408	55183
321.497	25399
321.586	24674
321.675	19106
321.764	19679
321.852	15713
321.941	32846
322.030	23064
322.119	23956
322.207	54511
322.296	26974
322.385	19128
322.474	27192
322.562	69802
322.651	34677
322.740	26840
322.829	33371
322.917	22412
323.006	18976
323.095	19078
323.183	12449
323.272	18541
323.361	26192
323.449	49921
323.538	19937
323.626	39278
323.715	23033
323.804	12858
323.892	32425
323.981	23446
324.069	9644
324.158	16308
324.246	15265
324.335	13585
324.424	21836
324.512	10285
324.601	15934
324.689	31381
324.778	55394
324.866	19578
324.954	8385
325.043	8254
325.131	10922
325.220	14978
325.308	15097
325.397	14133
325.485	9605
325.574	6769
325.662	6637
325.750	6872
325.839	6424
325.927	5788
326.015	7931
326.104	8044
326.192	7868
326.280	6264
326.369	6273
326.457	11333
326.545	18862
326.634	8568
326.722	5602
326.810	6789
326.898	6453
326.987	8925
327.075	15729
327.163	14484
327.251	9490
327.340	25692
327.428	35804
327.516	9103
327.604	7203
327.692	6562
327.781	5228
327.869	7888
327.957	6638
328.045	7993
328.133	5465
328.221	5322
328.309	6634
328.397	6810
328.485	8629
328.574	12928
328.662	38538
328.750	17232
328.838	6944
328.926	6076
329.014	6053
329.102	9320
329.190	18648
329.278	13956
329.366	5537
329.454	5220
329.542	4978
329.630	5423
329.718	6296
329.806	9822
329.893	10073
329.981	13950
330.069	26866
330.157	94081
330.245	231312
330.333	127392
330.421	26264
330.509	17737
330.597	46393
330.684	27724
330.772	10273
330.860	10103
330.948	12666
331.036	7973
331.123	4737
331.211	5240
331.299	6680
331.387	12437
331.475	19613
331.562	7187
331.650	5133
331.738	5585
331.825	5943
331.913	4199
332.001	5425
332.089	6765
332.176	9375
332.264	16213
332.352	13212
332.439	8488
332.527	5732
332.614	4701
332.702	5549
332.790	6065
332.877	9801
332.965	17779
333.052	11005
333.140	11729
333.228	25144
333.315	9007
333.403	6574
333.490	11604
333.578	15029
333.665	35421
333.753	17435
333.840	7059
333.928	8505
334.015	14269
334.103	23915
334.190	67011
334.278	22086
334.365	15176
334.452	13780
334.540	10824
334.627	10390
334.715	15068
334.802	23587
334.889	66251
334.977	65215
335.064	23535
335.151	13460
335.239	10899
335.326	13430
335.413	41843
335.501	51477
335.588	12606
335.675	11022
335.762	13513
335.850	19561
335.937	22459
336.024	37785
336.111	87433
336.199	51064
336.286	20568
336.373	12178
336.460	7989
336.547	8807
336.635	9763
336.722	8898
336.809	7400
336.896	10466
336.983	27033
337.070	55514
337.157	74769
337.245	38292
337.332	24756
337.419	7127
337.506	6293
337.593	7356
337.680	19813
337.767	49706
337.854	17148
337.941	17023
338.028	17183
338.115	7998
338.202	9130
338.289	14276
338.376	35534
338.463	15300
338.550	31136
338.637	31154
338.724	9556
338.811	10692
338.898	5426
338.984	5323
339.071	7046
339.158	7916
339.245	22061
339.332	13025
339.419	11276
339.506	9663
339.593	4643
339.679	5884
339.766	6319
339.853	7063
339.940	16616
340.027	5959
340.113	7896
340.200	9710
340.287	6501
340.374	9547
340.460	15849
340.547	8171
340.634	13309
340.720	42369
340.807	23397
340.894	5916
340.980	6501
341.067	4903
341.154	7257
341.240	11930
341.327	23121
341.414	10231
341.500	10925
341.587	6619
341.674	7049
341.760	15215
341.847	18353
341.933	6219
342.020	3448
342.106	4579
342.193	7259
342.279	12222
342.366	10266
342.452	15749
342.539	9149
342.625	20707
342.712	45835
342.798	19966
342.885	8467
342.971	4299
343.058	4304
343.144	5220
343.230	5103
343.317	6171
343.403	5726
343.490	3867
343.576	4711
343.662	6027
343.749	6923
343.835	8177
343.921	16424
344.008	80377
344.094	160017
344.180	36841
344.267	17684
344.353	47221
344.439	43588
344.525	22078
344.612	11219
344.698	9270
344.784	6145
344.870	5125
344.957	5903
345.043	9446
345.129	7613
345.215	15654
345.301	10341
345.387	7391
345.474	4517
345.560	4022
345.646	5065
345.732	4789
345.818	8458
345.904	6451
345.990	6027
346.076	6428
346.162	9904
346.249	7161
346.335	4968
346.421	6779
346.507	22133
346.593	64291
346.679	16148
346.765	6863
346.851	7728
346.937	7140
347.023	6773
347.108	7602
347.194	6992
347.280	5753
347.366	8914
347.452	26088
347.538	83699
347.624	59545
347.710	45415
347.796	9175
347.882	5621
347.967	4545
348.053	5870
348.139	5121
348.225	4457
348.311	5852
348.397	4691
348.482	7382
348.568	8830
348.654	5361
348.740	13002
348.825	15245
348.911	13875
348.997	40219
349.083	65535
349.168	12181
349.254	7989
349.340	8357
349.425	6041
349.511	8150
349.597	8052
349.682	17215
349.768	52817
349.854	23001
349.939	6234
350.025	4649
350.110	5493
350.196	5397
350.282	4777
350.367	4620
350.453	6005
350.538	6489
350.624	7693
350.709	7566
350.795	4551
350.880	4908
350.966	7515
351.051	6955
351.137	5055
351.222	7589
351.308	19567
351.393	46932
351.479	14896
351.564	6705
351.649	6252
351.735	4584
351.820	4418
351.906	5803
351.991	7705
352.076	30346
352.162	44655
352.247	10178
352.332	8631
352.418	16745
352.503	20926
352.588	71938
352.673	54627
352.759	13198
352.844	6890
352.929	9129
353.014	10834
353.100	8897
353.185	17265
353.270	19012
353.355	17342
353.441	6651
353.526	6441
353.611	16625
353.696	17196
353.781	12054
353.866	6496
353.952	7979
354.037	16829
354.122	33564
354.207	29834
354.292	11695
354.377	6873
354.462	5628
354.547	9403
354.632	7233
354.717	11393
354.802	17643
354.887	7771
354.972	5420
355.057	4771
355.142	4379
355.227	7402
355.312	11323
355.397	24278
355.482	52158
355.567	25454
355.652	19796
355.737	21428
355.822	58286
355.907	44396
355.991	9293
356.076	5354
356.161	6547
356.246	5106
356.331	6549
356.416	16277
356.501	86449
356.585	82510
356.670	17113
356.755	11939
356.840	17586
356.924	72705
357.009	202933
357.094	76615
357.179	19893
357.263	13920
357.348	13863
357.433	12606
357.517	13001
357.602	10839
357.687	9657
357.771	18069
357.856	50806
357.941	31021
358.025	54762
358.110	199440
358.195	92646
358.279	18723
358.364	15076
358.448	44960
358.533	113233
358.617	82071
358.702	77309
358.787	29605
358.871	19493
358.956	16354
359.040	7379
359.125	5788
359.209	8129
359.294	25642
359.378	40554
359.462	18255
359.547	9834
359.631	6139
359.716	4978
359.800	6831
359.885	8998
359.969	6233
360.053	6746
360.138	6844
360.222	9603
360.306	18041
360.391	14833
360.475	28798
360.559	55936
360.644	44897
360.728	31889
360.812	52582
360.896	123445
360.981	54106
361.065	28840
361.149	10450
361.233	9179
361.318	8721
361.402	9667
361.486	8610
361.570	8022
361.654	9996
361.739	23930
361.823	88820
361.907	122556
361.991	27369
362.075	18739
362.159	37038
362.243	31826
362.327	43252
362.411	54096
362.495	25491
362.580	13902
362.664	11939
362.748	12989
362.832	19584
362.916	36595
363.000	99020
363.084	184250
363.168	169458
363.252	45952
363.336	20492
363.420	22608
363.503	60118
363.587	61931
363.671	17215
363.755	14497
363.839	20334
363.923	12218
364.007	24705
364.091	26632
364.175	37474
364.258	114971
364.342	136874
364.426	194051
364.510	102408
364.594	40121
364.677	38433
364.761	116035
364.845	78312
364.929	34769
365.013	26658
365.096	22333
365.180	25061
365.264	28267
365.347	85499
365.431	35144
365.515	12238
365.598	8246
365.682	9498
365.766	11528
365.849	13469
365.933	9213
366.017	11649
366.100	8221
366.184	5635
366.267	6398
366.351	6730
366.435	6116
366.518	6301
366.602	4964
366.685	6928
366.769	7985
366.852	12100
366.936	20440
367.019	13517
367.103	9674
367.186	14659
367.270	7012
367.353	5546
367.436	7460
367.520	6533
367.603	10419
367.687	12996
367.770	21448
367.853	14134
367.937	39923
368.020	58757
368.104	15562
368.187	16744
368.270	24434
368.353	21566
368.437	18597
368.520	24657
368.603	23809
368.687	45317
368.770	78253
368.853	20563
368.936	19969
369.020	17222
369.103	8432
369.186	7675
369.269	7996
369.352	14748
369.436	17782
369.519	13283
369.602	7942
369.685	9230
369.768	7776
369.851	7868
369.934	6079
370.018	8632
370.101	16816
370.184	14801
370.267	11306
370.350	21812
370.433	27952
370.516	66799
370.599	77625
370.682	29083
370.765	50651
370.848	57384
370.931	90886
371.014	34027
371.097	10299
371.180	9705
371.263	6890
371.346	5886
371.429	7635
371.511	7339
371.594	13604
371.677	19133
371.760	19350
371.843	22165
371.926	88629
372.009	179787
372.091	63733
372.174	44069
372.257	85202
372.340	35846
372.423	27590
372.505	27034
372.588	15091
372.671	34376
372.754	94624
372.836	45399
372.919	31030
373.002	52418
373.085	21372
373.167	22264
373.250	47549
373.332	90234
373.415	121815
373.498	225267
373.580	89492
373.663	126248
373.746	151829
373.828	39230
373.911	18741
373.993	18983
374.076	50054
374.159	44924
374.241	27842
374.324	83617
374.406	54028
374.489	74411
374.571	184935
374.654	76119
374.736	43347
374.819	117163
374.901	164782
374.983	157501
375.066	32812
375.148	16219
375.231	43960
375.313	75673
375.395	30557
375.478	10916
375.560	9037
375.643	12927
375.725	38878
375.807	139785
375.890	90567
375.972	30248
376.054	21802
376.136	21280
376.219	14325
376.301	44886
376.383	117141
376.465	44798
376.548	33113
376.630	39081
376.712	103868
376.794	45871
376.877	8980
376.959	6376
377.041	7852
377.123	12382
377.205	13035
377.287	6007
377.369	6615
377.452	6915
377.534	6257
377.616	6709
377.698	5819
377.780	5869
377.862	7720
377.944	7798
378.026	4888
378.108	6057
378.190	6058
378.272	5740
378.354	4506
378.436	4495
378.518	8965
378.600	24689
378.682	25544
378.764	61813
378.846	44982
378.928	15085
379.010	23166
379.091	12542
379.173	7434
379.255	6149
379.337	9309
379.419	31605
379.501	81863
379.583	31815
379.664	11294
379.746	22184
379.828	62412
379.910	82758
379.991	67323
380.073	13653
380.155	9534
380.237	7732
380.318	6648
380.400	7624
380.482	15276
380.564	21797
380.645	23454
380.727	22502
380.809	14216
380.890	10733
380.972	9686
381.053	8116
381.135	9580
381.217	23628
381.298	64831
381.380	31715
381.461	27310
381.543	107216
381.624	119970
381.706	26709
381.787	16166
381.869	18732
381.951	53469
382.032	173314
382.113	105984
382.195	29155
382.276	22975
382.358	45056
382.439	101657
382.521	111561
382.602	159766
382.684	82464
382.765	147777
382.846	184073
382.928	279886
383.009	157055
383.090	128636
383.172	389190
383.253	496997
383.334	187726
383.416	162802
383.497	89218
383.578	60167
383.659	111739
383.741	347599
383.822	688267
383.903	358403
383.984	145461
384.066	196794
384.147	118579
384.228	32505
384.309	25951
384.390	20969
384.471	18218
384.553	17279
384.634	20284
384.715	20885
384.796	13845
384.877	17684
384.958	58401
385.039	69067
385.120	28705
385.201	15403
385.282	15488
385.363	14628
385.444	15190
385.525	30230
385.606	84361
385.687	65005
385.768	20169
385.849	25402
385.930	94901
386.011	147291
386.092	42740
386.173	13713
386.254	10786
386.335	11667
386.416	13420
386.496	41820
386.577	62005
386.658	21781
386.739	15361
386.820	13571
386.901	10418
386.981	11175
387.062	10182
387.143	18060
387.224	62476
387.304	55879
387.385	23406
387.466	16312
387.547	19366
387.627	17026
387.708	28787
387.789	103575
387.869	117231
387.950	32695
388.031	10452
388.111	7854
388.192	16274
388.273	20583
388.353	14625
388.434	12460
388.514	24588
388.595	91267
388.676	116890
388.756	60805
388.837	59468
388.917	35197
388.998	9176
389.078	10228
389.159	9007
389.239	7951
389.320	14086
389.400	11347
389.480	25004
389.561	62170
389.641	31356
389.722	13851
389.802	21714
389.883	28162
389.963	70472
390.043	38572
390.124	13816
390.204	26019
390.284	71560
390.365	42177
390.445	41493
390.525	106490
390.605	97902
390.686	40316
390.766	16470
390.846	10757
390.927	8353
391.007	8606
391.087	10013
391.167	11343
391.247	9226
391.328	10477
391.408	14200
391.488	10804
391.568	6757
391.648	12115
391.728	17288
391.808	15825
391.888	17683
391.969	38120
392.049	59803
392.129	25200
392.209	31225
392.289	71607
392.369	38186
392.449	27988
392.529	21965
392.609	21646
392.689	27954
392.769	73501
392.849	62135
392.929	49889
393.009	104505
393.089	92539
393.169	108594
393.248	299409
393.328	764173
393.408	744826
393.488	283021
393.568	99653
393.648	53319
393.728	34467
393.807	25817
393.887	22770
393.967	20276
394.047	21859
394.127	24715
394.206	37088
394.286	116181
394.366	410723
394.446	412285
394.525	114543
394.605	35402
394.685	25456
394.764	39527
394.844	63241
394.924	50158
395.003	22223
395.083	14945
395.163	14347
395.242	13117
395.322	13943
395.402	11212
395.481	15291
395.561	31853
395.640	79112
395.720	81976
395.799	83837
395.879	62030
395.958	53021
396.038	170455
396.117	523751
396.197	534924
396.276	189243
396.356	71332
396.435	49120
396.515	40933
396.594	50676
396.673	93127
396.753	291977
396.832	698371
396.912	516546
396.991	156673
397.070	53811
397.150	30748
397.229	25187
397.308	39161
397.388	70739
397.467	36172
397.546	14941
397.625	10395
397.705	14508
397.784	14999
397.863	10222
397.942	8254
398.022	7973
398.101	21962
398.180	54163
398.259	27471
398.338	11641
398.417	9460
398.497	7487
398.576	8262
398.655	5852
398.734	6473
398.813	6169
398.892	19987
398.971	60343
399.050	29035
399.129	5992
399.208	5610
399.287	5423
399.366	4289
399.445	4747
399.524	5391
399.603	5398
399.682	10723
399.761	25407
399.840	66755
399.919	46334
399.998	8753
400.077	4834
400.156	4054
400.235	6489
400.313	4724
400.392	7115
400.471	34427
400.550	52266
400.629	14844
400.708	8029
400.786	6135
400.865	12852
400.944	14770
401.023	10341
401.102	3506
401.180	3190
401.259	4085
401.338	4384
401.416	7825
401.495	6051
401.574	4780
401.652	4682
401.731	7767
401.810	7134
401.888	4503
401.967	3235
402.046	5717
402.124	6732
402.203	8411
402.281	6077
402.360	8556
402.438	18195
402.517	11234
402.596	5115
402.674	4928
402.753	3659
402.831	4011
402.910	6515
402.988	26425
403.066	84533
403.145	47462
403.223	31085
403.302	76995
403.380	57856
403.459	59835
403.537	23717
403.615	8666
403.694	2905
403.772	5056
403.850	4058
403.929	3465
404.007	3941
404.085	12841
404.164	14641
404.242	5554
404.320	6822
404.398	13436
404.477	33812
404.555	133097
404.633	106392
404.711	19955
404.789	8737
404.868	7160
404.946	4479
405.024	3371
405.102	2877
405.180	3193
405.258	2381
405.336	4681
405.415	3451
405.493	9342
405.571	10667
405.649	4245
405.727	3530
405.805	6936
405.883	7361
405.961	6732
406.039	6170
406.117	4370
406.195	8647
406.273	35598
406.351	115455
406.429	62160
406.507	10295
406.585	5063
406.663	5293
406.740	7847
406.818	6108
406.896	4503
406.974	5383
407.052	12777
407.130	72611
407.208	91986
407.285	19109
407.363	5063
407.441	4723
407.519	4506
407.596	4987
407.674	10081
407.752	20857
407.830	20908
407.907	12154
407.985	6103
408.063	4010
408.141	3660
408.218	6702
408.296	8573
408.373	6684
408.451	7871
408.529	5182
408.606	3785
408.684	3967
408.762	3132
408.839	2841
408.917	4012
408.994	4337
409.072	5205
409.149	5496
409.227	10068
409.304	13341
409.382	12471
409.459	12700
409.537	18854
409.614	16530
409.692	12335
409.769	11527
409.846	18559
409.924	23096
410.001	18788
410.079	13565
410.156	10638
410.233	8556
410.311	7680
410.388	5975
410.465	8549
410.543	8793
410.620	6238
410.697	5682
410.775	7273
410.852	3425
410.929	8626
411.006	9765
411.083	7882
411.161	15867
411.238	15832
411.315	6946
411.392	5366
411.469	8762
411.547	9928
411.624	5388
411.701	6004
411.778	6227
411.855	10925
411.932	5941
412.009	4174
412.086	3632
412.163	5186
412.240	4210
412.317	7806
412.394	6564
412.471	3723
412.548	3130
412.625	3763
412.702	5635
412.779	10316
412.856	6636
412.933	3148
413.010	3361
413.087	7614
413.164	33319
413.241	45399
413.318	11947
413.395	7551
413.471	11550
413.548	6132
413.625	4378
413.702	3960
413.779	3176
413.855	2748
413.932	1865
414.009	2253
414.086	2893
414.162	3892
414.239	5763
414.316	30240
414.393	66897
414.469	23215
414.546	3846
414.623	3526
414.699	2714
414.776	6001
414.853	3116
414.929	3881
415.006	3300
415.082	3895
415.159	2482
415.236	3528
415.312	4032
415.389	7669
415.465	9677
415.542	5011
415.618	3868
415.695	7206
415.771	4844
415.848	4420
415.924	3445
416.000	3074
416.077	3090
416.153	1399
416.230	1299
416.306	2048
416.383	1732
416.459	2574
416.535	1581
416.612	1852
416.688	2300
416.764	2302
416.841	2380
416.917	2367
416.993	2866
417.069	3922
417.146	4778
417.222	8982
417.298	5176
417.374	2286
417.451	4530
417.527	5659
417.603	5454
417.679	3921
417.755	3655
417.831	1993
417.908	2466
417.984	2745
418.060	2194
418.136	8936
418.212	11460
418.288	5353
418.364	2725
418.440	2950
418.516	6211
418.592	6544
418.668	14559
418.744	23161
418.820	15148
418.896	4523
418.972	2447
419.048	3691
419.124	10555
419.200	8154
419.276	2813
419.352	2604
419.428	2553
419.504	3844
419.579	5778
419.655	4731
419.731	4700
419.807	14919
419.883	24852
419.959	16936
420.034	5678
420.110	11991
420.186	44557
420.262	32512
420.337	7390
420.413	6449
420.489	4209
420.565	5467
420.640	4303
420.716	5876
420.792	4345
420.867	5324
420.943	4455
421.019	10302
421.094	8038
421.170	5858
421.245	5493
421.321	6601
421.397	6173
421.472	10516
421.548	15754
421.623	16573
421.699	12488
421.774	13040
421.850	13382
421.925	18059
422.001	18894
422.076	20171
422.152	25098
422.227	36570
422.302	46265
422.378	69548
422.453	124299
422.529	260998
422.604	485026
422.679	527724
422.755	469887
422.830	272100
422.905	133118
422.981	77192
423.056	51276
423.131	37438
423.207	28950
423.282	24967
423.357	28609
423.432	20969
423.508	19750
423.583	31744
423.658	22941
423.733	12572
423.808	11370
423.883	12507
423.959	13211
424.034	11169
424.109	10580
424.184	7894
424.259	6181
424.334	6326
424.409	4080
424.484	4927
424.559	5195
424.634	4804
424.709	6507
424.784	8327
424.859	5777
424.934	8108
425.009	31928
425.084	51042
425.159	18196
425.234	5388
425.309	3915
425.384	14995
425.459	22941
425.534	7887
425.609	2936
425.683	3788
425.758	3982
425.833	4356
425.908	6361
425.983	18935
426.058	51385
426.132	21841
426.207	5756
426.282	7023
426.357	4773
426.431	4079
426.506	3214
426.581	4214
426.655	3654
426.730	3526
426.805	3351
426.879	5341
426.954	3342
427.029	9010
427.103	46260
427.178	103631
427.253	41634
427.327	7682
427.402	9114
427.476	23805
427.551	11622
427.625	4492
427.700	4086
427.774	2537
427.849	3768
427.923	2853
427.998	3243
428.072	4342
428.147	12384
428.221	54444
428.296	151440
428.370	76203
428.444	12212
428.519	8786
428.593	13159
428.667	11852
428.742	14724
428.816	22078
428.890	95565
428.965	146351
429.039	40932
429.113	16590
429.188	6743
429.262	4505
429.336	9018
429.410	25872
429.485	15003
429.559	11208
429.633	9307
429.707	6571
429.781	18970
429.855	97614
429.930	140089
430.004	52410
430.078	60801
430.152	76279
430.226	194761
430.300	178575
430.374	34097
430.448	11936
430.522	22394
430.596	56212
430.670	48015
430.744	151156
430.818	182369
430.892	35602
430.966	7819
431.040	4822
431.114	1697
431.188	3453
431.262	2530
431.336	2729
431.410	7011
431.484	17558
431.557	12927
431.631	5111
431.705	6724
431.779	34619
431.853	136424
431.927	87743
432.000	11799
432.074	3906
432.148	3328
432.222	3216
432.295	2178
432.369	2241
432.443	6314
432.516	41546
432.590	98518
432.664	33414
432.737	5012
432.811	1141
432.885	885
432.958	2925
433.032	1673
433.106	799
433.179	1229
433.253	1953
433.326	1903
433.400	1367
433.473	1850
433.547	1668
433.620	2013
433.694	6301
433.767	5732
433.841	1740
433.914	1239
433.988	1872
434.061	2327
434.134	1947
434.208	1646
434.281	877
434.355	655
434.428	2196
434.501	1628
434.575	918
434.648	1517
434.721	1119
434.795	829
434.868	1243
434.941	1101
435.014	1559
435.088	2792
435.161	4114
435.234	7317
435.307	8444
435.381	4557
435.454	5012
435.527	8167
435.600	9073
435.673	7956
435.746	5743
435.819	4425
435.892	3443
435.966	3553
436.039	2327
436.112	1920
436.185	1548
436.258	1310
436.331	848
436.404	724
436.477	1719
436.550	1039
436.623	1947
436.696	1206
436.769	2196
436.842	2309
436.915	1925
436.987	3938
437.060	2170
437.133	1054
437.206	731
437.279	2065
437.352	1453
437.425	1159
437.498	3218
437.570	8139
437.643	7553
437.716	1942
437.789	1340
437.861	6836
437.934	20379
438.007	8263
438.080	2550
438.152	2988
438.225	9288
438.298	54968
438.370	133854
438.443	55297
438.516	17288
438.588	3309
438.661	1640
438.734	1986
438.806	2218
438.879	3434
438.951	5066
439.024	9533
439.096	3188
439.169	1085
439.241	1759
439.314	1169
439.386	2324
439.459	5054
439.531	7522
439.604	3422
439.676	1703
439.749	554
439.821	1184
439.893	913
439.966	1629
440.038	3028
440.110	3691
440.183	1536
440.255	1120
440.327	4773
440.400	22938
440.472	89073
440.544	53479
440.617	8042
440.689	7647
440.761	10270
440.833	15601
440.905	8966
440.978	2308
441.050	1398
441.122	1788
441.194	1303
441.266	1920
441.338	1993
441.411	5521
441.483	32667
441.555	44200
441.627	9239
441.699	5059
441.771	4008
441.843	3133
441.915	1201
441.987	1799
442.059	2320
442.131	3261
442.203	5709
442.275	7027
442.347	7910
442.419	17072
442.491	85210
442.563	181549
442.635	67104
442.706	26211
442.778	18730
442.850	5743
442.922	3644
442.994	5819
443.066	6610
443.137	6828
443.209	6515
443.281	11279
443.353	26917
443.425	101929
443.496	307131
443.568	290656
443.640	105166
443.711	21235
443.783	9517
443.855	6522
443.926	3622
443.998	3880
444.070	4674
444.141	4458
444.213	7121
444.285	8122
444.356	5522
444.428	4912
444.499	3052
444.571	2290
444.642	2212
444.714	3887
444.785	6777
444.857	6880
444.928	11270
445.000	8175
445.071	10019
445.143	13460
445.214	13604
445.285	22271
445.357	60140
445.428	206763
445.500	388530
445.571	261200
445.642	147745
445.714	47771
445.785	26026
445.856	10917
445.928	10607
445.999	9222
446.070	6923
446.141	7995
446.213	8677
446.284	4900
446.355	3720
446.426	2657
446.497	2654
446.569	4349
446.640	7310
446.711	6729
446.782	1810
446.853	2923
446.924	3443
446.995	2816
447.066	2852
447.138	4479
447.209	3017
447.280	1164
447.351	1059
447.422	1099
447.493	2313
447.564	3867
447.635	5675
447.706	2541
447.777	630
447.847	1800
447.918	604
447.989	2445
448.060	3139
448.131	6628
448.202	8402
448.273	6782
448.344	2710
448.414	1156
448.485	1605
448.556	1243
448.627	766
448.698	1333
448.768	1088
448.839	1667
448.910	2987
448.981	4499
449.051	1522
449.122	2105
449.193	1087
449.263	891
449.334	210
449.405	3538
449.475	8148
449.546	5598
449.616	4668
449.687	5143
449.758	2480
449.828	1420
449.899	1427
449.969	1519
450.040	1942
450.110	2306
450.181	2305
450.251	1753
450.322	1072
450.392	1756
450.463	1981
450.533	546
450.604	1014
450.674	1551
450.744	1365
450.815	1420
450.885	1690
450.955	1646
451.026	1426
451.096	1721
451.166	1477
451.237	5208
451.307	11079
451.377	5383
451.447	1757
451.518	1460
451.588	917
451.658	2496
451.728	3151
451.799	12310
451.869	12337
451.939	3230
452.009	1259
452.079	635
452.149	2421
452.219	3069
452.289	13870
452.360	9751
452.430	3286
452.500	2686
452.570	4127
452.640	8128
452.710	19998
452.780	26545
452.850	18991
452.920	15649
452.990	5764
453.060	3868
453.129	4871
453.199	6106
453.269	16922
453.339	33359
453.409	49842
453.479	51034
453.549	72272
453.619	74455
453.688	29102
453.758	4563
453.828	2016
453.898	1709
453.968	1444
454.037	2341
454.087	1408
454.107	1006
454.168	827
454.177	773
454.247	1812
454.249	1798
454.316	1060
454.330	1436
454.386	2751
454.411	4072
454.456	5833
454.492	8167
454.525	10268
454.574	6073
454.595	4266
454.655	1971
454.665	1619
454.734	2796
454.736	2903
454.804	4898
454.817	6762
454.873	13317
454.898	13831
454.943	14426
454.979	9511
455.013	5282
455.060	3206
455.082	2546
455.141	4327
455.152	4467
455.221	10465
455.222	10640
455.291	16285
455.303	14663
455.360	7868
455.384	7448
455.430	7166
455.465	7307
455.499	6892
455.546	10694
455.569	11929
455.627	8557
455.638	8090
455.707	2983
455.708	2999
455.777	1666
455.789	1810
455.846	2302
455.869	1899
455.916	1281
455.950	1906
455.985	2253
456.031	2021
456.054	1880
456.112	2007
456.124	2075
456.193	1935
456.193	1908
456.262	2591
456.274	2768
456.332	3357
456.355	3484
456.401	3397
456.436	2592
456.470	1852
456.516	2062
456.540	2123
456.597	1536
456.609	1443
456.678	2042
456.678	2022
456.747	1926
456.759	1813
456.817	1437
456.840	1589
456.886	1662
456.920	1634
456.955	1899
457.001	2092
457.024	2171
457.082	2968
457.093	3092
457.162	4483
457.163	4517
457.232	4810
457.243	4548
457.301	2931
457.324	2454
457.370	2353
457.405	2731
457.439	2940
457.485	3167
457.508	3258
457.566	3740
457.577	3959
457.646	5497
457.647	5544
457.715	9525
457.727	10448
457.784	16732
457.808	22084
457.853	29166
457.889	33600
457.922	33724
457.969	22343
457.991	21445
458.050	26935
458.060	27882
458.129	46298
458.130	46835
458.198	50443
458.211	45463
458.267	23435
458.292	16626
458.336	10923
458.372	10061
458.405	13350
458.453	19839
458.474	24804
458.533	45430
458.543	47365
458.611	79324
458.614	79628
458.680	51443
458.694	41497
458.749	18022
458.775	12976
458.818	8162
458.855	6485
458.887	5645
458.936	5024
458.955	4679
459.016	4314
459.024	4351
459.093	4949
459.097	4985
459.162	5062
459.177	5135
459.230	5801
459.257	6323
459.299	6709
459.338	6741
459.368	6619
459.418	7673
459.437	7705
459.499	5666
459.505	5594
459.574	5462
459.579	5470
459.643	4539
459.659	4369
459.711	4437
459.740	4532
459.780	4689
459.820	5142
459.849	5476
459.900	5995
459.917	5971
459.981	6027
459.986	6028
460.054	5373
460.061	5365
460.123	6707
460.141	7040
460.191	8123
460.222	9391
460.260	10454
460.302	11581
460.328	10955
460.382	8661
460.397	8396
460.462	6669
460.465	6690
460.534	8465
460.543	8715
460.602	18645
460.623	22445
460.671	32586
460.703	42677
460.739	41004
460.783	32877
460.808	26615
460.864	8033
460.876	6777
460.944	5836
460.945	5829
461.013	5694
461.024	5820
461.081	6455
461.104	6712
461.150	6193
461.184	5793
461.218	5730
461.264	5246
461.286	5308
461.345	5882
461.355	5824
461.423	5122
461.425	5112
461.491	5483
461.505	5659
461.559	9523
461.585	11225
461.628	16848
461.665	22550
461.696	24676
461.745	29516
461.764	26116
461.825	9769
461.832	9493
461.901	7290
461.905	7286
461.969	6036
461.985	5763
462.037	6526
462.065	6772
462.105	6909
462.145	7360
462.173	9335
462.225	12768
462.241	13849
462.305	20031
462.310	19623
462.378	12051
462.385	10945
462.446	7917
462.465	7228
462.514	7006
462.545	7194
462.582	7082
462.625	7026
462.650	6818
462.705	6073
462.718	6239
462.785	7023
462.786	7054
462.854	9316
462.865	9610
462.922	10784
462.945	11548
462.990	9831
463.025	7781
463.058	7334
463.104	6657
463.126	6381
463.184	6040
463.194	6163
463.262	7169
463.264	7200
463.330	7086
463.344	7036
463.398	7903
463.424	8204
463.466	7614
463.504	7297
463.533	7632
463.583	8112
463.601	8295
463.663	8565
463.669	8740
463.737	11379
463.743	11578
463.805	15808
463.823	16991
463.873	23328
463.903	27545
463.940	28983
463.982	30857
464.008	25472
464.062	12471
464.076	11811
464.142	7971
464.144	7944
464.211	7797
464.221	7748
464.279	7960
464.301	8230
464.347	9141
464.381	9550
464.414	9767
464.461	10382
464.482	10673
464.540	11194
464.550	11045
464.617	9945
464.620	9893
464.685	12302
464.699	12809
464.753	14577
464.779	15449
464.820	16492
464.859	17567
464.888	16899
464.938	15446
464.956	15657
465.018	16234
465.023	16066
465.091	13596
465.098	13324
465.158	13582
465.177	13693
465.226	13729
465.257	13620
465.293	14242
465.336	14993
465.361	15944
465.416	18061
465.428	18729
465.495	22386
465.496	22481
465.563	31646
465.575	33249
465.631	40353
465.654	43464
465.698	29648
465.734	17435
465.765	15894
465.813	13545
465.833	13349
465.893	13152
465.900	13279
465.968	14395
465.972	14436
466.035	14438
466.052	14403
466.102	14269
466.131	14194
466.170	14282
466.210	14373
466.237	15073
466.290	16247
466.304	16260
466.369	16201
466.372	16280
466.439	17794
466.449	17984
466.506	18283
466.528	18326
466.573	23757
466.607	27803
466.641	37228
466.687	50225
466.708	54569
466.766	66518
466.775	62435
466.842	30630
466.845	29063
466.909	22250
466.925	20629
466.977	20127
467.004	19868
467.044	21040
467.083	22126
467.111	23424
467.163	25769
467.178	26479
467.242	29184
467.245	29078
467.312	25724
467.321	25231
467.379	23886
467.400	23327
467.446	24528
467.480	25314
467.559	23013
467.638	20967
467.717	21006
467.796	22832
467.875	25317
467.955	23004
468.034	29741
468.113	55066
468.192	76834
468.271	29234
468.350	23531
468.429	25353
468.508	26930
468.588	22009
468.667	19863
468.746	19880
468.825	18802
468.904	17676
468.983	19732
469.062	25167
469.141	30468
469.220	17144
469.299	17733
469.378	19049
469.456	24082
469.535	21636
469.614	20588
469.693	20685
469.772	23859
469.851	29122
469.930	23492
470.009	20110
470.088	22143
470.166	25298
470.245	36886
470.324	43295
470.403	29648
470.482	22317
470.560	19427
470.639	20332
470.718	23082
470.797	19478
470.875	21272
470.954	25227
471.033	26878
471.111	15480
471.190	15788
471.269	14184
471.347	15507
471.426	16260
471.505	18051
471.583	20161
471.662	19661
471.740	16706
471.819	17195
471.898	16327
471.976	17288
472.055	15677
472.133	17224
472.212	21466
472.290	20778
472.369	16833
472.447	15505
472.526	15000
472.604	17306
472.683	17184
472.761	19014
472.839	16515
472.918	16347
472.996	16275
473.075	18543
473.153	17315
473.231	15699
473.310	18465
473.388	17785
473.466	16038
473.545	19568
473.623	24913
473.701	26330
473.780	16607
473.858	15661
473.936	18571
474.014	16167
474.093	18232
474.171	22571
474.249	26917
474.327	20551
474.405	15118
474.484	14804
474.562	15042
474.640	14737
474.718	15068
474.796	16224
474.874	15341
474.952	14382
475.030	14373
475.108	15946
475.187	18618
475.265	19859
475.343	28409
475.421	31992
475.499	16158
475.577	17256
475.655	18028
475.733	29976
475.811	45680
475.889	43162
475.966	30823
476.044	15893
476.122	20252
476.200	26273
476.278	21426
476.356	14003
476.434	15443
476.512	19336
476.590	24121
476.667	21664
476.745	14220
476.823	15409
476.901	14175
476.979	13710
477.056	14180
477.134	15162
477.212	15204
477.290	15377
477.367	13349
477.445	13660
477.523	12807
477.601	13908
477.678	12856
477.756	15977
477.834	15319
477.911	13442
477.989	13622
478.066	13287
478.144	14477
478.222	19266
478.299	29759
478.377	28383
478.454	13111
478.532	12598
478.609	14064
478.687	16134
478.764	12270
478.842	14567
478.919	14253
478.997	13823
479.074	11780
479.152	13488
479.229	15857
479.307	13011
479.384	10999
479.461	11968
479.539	11356
479.616	13692
479.694	12276
479.771	12352
479.848	12550
479.926	15764
480.003	18651
480.080	13252
480.157	11342
480.235	11083
480.312	10940
480.389	12417
480.467	17295
480.544	22851
480.621	14208
480.698	14117
480.775	15018
480.853	14149
480.930	12505
481.007	13577
481.084	12108
481.161	15045
481.238	14956
481.315	11725
481.392	11591
481.470	12198
481.547	12463
481.624	11770
481.701	12106
481.778	12952
481.855	12945
481.932	18458
482.009	27179
482.086	22189
482.163	13367
482.240	22297
482.317	38198
482.393	31042
482.470	13966
482.547	12951
482.624	12231
482.701	13491
482.778	12458
482.855	10976
482.932	12022
483.009	10499
483.085	13691
483.162	16146
483.239	15675
483.316	12999
483.393	12813
483.469	12629
483.546	13120
483.623	14824
483.699	11740
483.776	12978
483.853	13730
483.930	18670
484.006	42654
484.083	67729
484.160	47496
484.236	70839
484.313	56848
484.389	42979
484.466	37216
484.543	36161
484.619	36764
484.696	40293
484.772	37912
484.849	38672
484.925	33265
485.002	33398
485.078	34242
485.155	35290
485.231	31036
485.308	30611
485.384	31000
485.461	35442
485.537	50077
485.614	57508
485.690	32887
485.766	30501
485.843	31721
485.919	43723
485.995	45960
486.072	28451
486.148	27126
486.224	28715
486.301	29272
486.377	32979
486.453	32872
486.530	33670
486.606	43071
486.682	47354
486.758	48959
486.835	53169
486.911	44479
486.987	63285
487.063	81577
487.139	106196
487.215	74257
487.292	40442
487.368	35026
487.444	39882
487.520	45384
487.596	47078
487.672	69650
487.748	177192
487.824	273754
487.900	118665
487.976	47912
488.052	39023
488.128	42930
488.204	37480
488.280	30463
488.356	33520
488.432	53306
488.508	77682
488.584	36464
488.660	29422
488.736	29395
488.812	31621
488.888	39591
488.964	49719
489.039	100445
489.115	150637
489.191	90423
489.267	30838
489.343	27895
489.418	25968
489.494	24397
489.570	22877
489.646	26031
489.722	24887
489.797	24450
489.873	32880
489.949	57171
490.024	51992
490.100	24393
490.176	23231
490.251	28751
490.327	38550
490.403	24792
490.478	22553
490.554	19578
490.629	22096
490.705	20181
490.781	23552
490.856	20935
490.932	24923
491.007	23697
491.083	23651
491.158	21352
491.234	25460
491.309	44420
491.385	46990
491.460	23432
491.536	23609
491.611	23217
491.686	24764
491.762	31736
491.837	64530
491.913	101178
491.988	140009
492.063	182168
492.139	48484
492.214	28695
492.289	20488
492.365	18289
492.440	22058
492.515	21560
492.590	20102
492.666	16948
492.741	21226
492.816	28324
492.891	19649
492.967	17492
493.042	16322
493.117	15203
493.192	15967
493.267	18006
493.342	25372
493.418	26114
493.493	16455
493.568	15215
493.643	15783
493.718	19475
493.793	26372
493.868	34567
493.943	23212
494.018	17658
494.093	15833
494.168	16275
494.243	14799
494.318	14483
494.393	15058
494.468	15123
494.543	15501
494.618	18685
494.693	16626
494.768	14871
494.842	17191
494.917	14259
494.992	15773
495.067	14798
495.142	14379
495.217	15602
495.292	17515
495.366	19261
495.441	24041
495.516	29199
495.591	39537
495.665	129125
495.740	309536
495.815	131446
495.890	25661
495.964	18385
496.039	22473
496.114	20603
496.188	20666
496.263	21364
496.338	19045
496.412	20511
496.487	24586
496.561	24486
496.636	27814
496.710	21466
496.785	23228
496.860	26146
496.934	22733
497.009	21421
497.083	24639
497.158	24903
497.232	28870
497.307	31639
497.381	29823
497.455	32798
497.530	38218
497.604	32896
497.679	35967
497.753	47585
497.827	64179
497.902	63190
497.976	68954
498.050	118072
498.125	395122
498.199	412442
498.273	98603
498.348	77715
498.422	65546
498.496	60077
498.570	54497
498.645	42108
498.719	38369
498.793	40801
498.867	51999
498.941	60433
499.016	153462
499.090	405349
499.164	160427
499.238	29192
499.312	25067
499.386	30848
499.460	28419
499.534	24990
499.609	30353
499.683	38346
499.757	35020
499.831	66801
499.905	255749
499.979	251464
500.053	43624
500.127	43751
500.201	37886
500.275	25239
500.349	24162
500.422	26499
500.496	37133
500.570	73151
500.644	155431
500.718	270229
500.792	68648
500.866	22057
500.940	25642
501.013	22356
501.087	23153
501.161	40728
501.235	49195
501.309	80224
501.382	225858
501.456	206943
501.530	49221
501.603	72765
501.677	34515
501.751	16793
501.825	21800
501.898	31838
501.972	89539
502.046	60688
502.119	20946
502.193	43016
502.266	96376
502.340	51649
502.413	43089
502.487	81477
502.561	48771
502.634	19941
502.708	19640
502.781	15797
502.855	14895
502.928	11610
503.002	12352
503.075	11357
503.149	14205
503.222	13366
503.295	14842
503.369	18915
503.442	22573
503.516	62294
503.589	161766
503.662	106719
503.736	38018
503.809	76670
503.882	69070
503.956	97370
504.029	103453
504.102	105614
504.175	150780
504.249	66209
504.322	32103
504.395	23719
504.468	16772
504.542	14801
504.615	13111
504.688	13131
504.761	12141
504.834	15489
504.907	20313
504.980	32397
505.053	17923
505.127	20833
505.200	25457
505.273	17057
505.346	13066
505.419	10161
505.492	11119
505.565	8615
505.638	9451
505.711	9961
505.784	9566
505.857	8789
505.930	11491
506.003	10218
506.076	12831
506.149	13995
506.221	16272
506.294	16246
506.367	35664
506.440	121933
506.513	71308
506.586	18391
506.659	12118
506.731	11333
506.804	13994
506.877	20213
506.950	14117
507.022	10839
507.095	11992
507.168	15948
507.241	12612
507.313	10221
507.386	11995
507.459	17875
507.531	12308
507.604	9347
507.677	11402
507.749	8585
507.822	15092
507.894	27696
507.967	36331
508.040	20502
508.112	19320
508.185	15660
508.257	15993
508.330	24244
508.402	16731
508.475	14370
508.547	15164
508.620	14136
508.692	21409
508.765	15278
508.837	12017
508.909	12706
508.982	13193
509.054	14440
509.127	14309
509.199	12415
509.271	11877
509.344	10306
509.416	11541
509.488	12043
509.560	13286
509.633	13209
509.705	15808
509.777	14476
509.849	21327
509.922	14841
509.994	12247
510.066	13270
510.138	14510
510.210	29542
510.283	26401
510.355	21361
510.427	20187
510.499	18508
510.571	18441
510.643	18042
510.715	28837
510.787	25221
510.859	19911
510.931	20082
511.003	27326
511.076	26275
511.148	14570
511.219	15365
511.291	21627
511.363	23631
511.435	15370
511.507	14704
511.579	14149
511.651	15730
511.723	14331
511.795	13402
511.867	14575
511.939	16970
512.010	26203
512.082	23930
512.154	16362
512.226	16578
512.298	24267
512.369	35679
512.441	27761
512.513	26786
512.585	20435
512.656	21155
512.728	22650
512.800	19230
512.871	17500
512.943	17412
513.015	15647
513.086	17906
513.158	19326
513.230	18503
513.301	26617
513.373	31264
513.444	19701
513.516	15838
513.588	17145
513.659	18262
513.731	23048
513.802	19874
513.874	38475
513.945	67418
514.016	25945
514.088	17502
514.159	18840
514.231	25131
514.302	32996
514.374	24944
514.445	21717
514.516	33403
514.588	27843
514.659	20517
514.730	33148
514.802	29985
514.873	26673
514.944	29063
515.016	25610
515.087	25990
515.158	29295
515.229	34936
515.301	29706
515.372	40334
515.443	29853
515.514	21807
515.585	17951
515.656	19374
515.728	18352
515.799	16269
515.870	19310
515.941	18695
516.012	19364
516.083	25576
516.154	28527
516.225	34873
516.296	35439
516.367	32309
516.438	38078
516.509	46412
516.580	65535
516.651	193824
516.722	710472
516.793	332403
516.864	69452
516.935	62730
517.006	69917
517.077	88240
517.148	195927
517.219	743738
517.289	1189069
517.360	282861
517.431	84506
517.502	34084
517.573	31101
517.643	29231
517.714	33220
517.785	34536
517.856	37275
517.926	46449
517.997	54605
518.068	69846
518.138	89476
518.209	129299
518.280	464350
518.350	1701181
518.421	724822
518.492	99435
518.562	53224
518.633	47451
518.703	47733
518.774	77472
518.845	177273
518.915	189267
518.986	72084
519.056	46254
519.127	62554
519.197	84102
519.268	153894
519.338	97628
519.408	32556
519.479	41196
519.549	31907
519.620	22660
519.690	18151
519.760	17867
519.831	18570
519.901	19142
519.971	16117
520.042	16000
520.112	17943
520.182	22914
520.253	25376
520.323	17793
520.393	23052
520.463	36055
520.534	23886
520.604	42202
520.674	25469
520.744	21899
520.814	45226
520.885	49557
520.955	46384
521.025	159117
521.095	68595
521.165	18097
521.235	17511
521.305	14859
521.375	15408
521.445	18440
521.515	22120
521.585	26475
521.655	25459
521.725	21870
521.795	21024
521.865	13039
521.935	20730
522.005	18400
522.075	14803
522.145	16089
522.215	16408
522.285	21308
522.355	26158
522.424	43401
522.494	39747
522.564	26238
522.634	50692
522.704	155108
522.774	66252
522.843	19525
522.913	17217
522.983	21756
523.053	17723
523.122	18148
523.192	23041
523.262	79383
523.331	80015
523.401	19865
523.471	13596
523.540	14313
523.610	11760
523.680	12324
523.749	12372
523.819	15606
523.888	15373
523.958	11280
524.027	13805
524.097	13891
524.166	13415
524.236	14368
524.305	17464
524.375	12452
524.444	11901
524.514	15081
524.583	13750
524.653	15870
524.722	18191
524.791	11901
524.861	14691
524.930	12619
524.999	14001
525.069	19345
525.138	16017
525.207	17001
525.277	14749
525.346	15321
525.415	14615
525.484	15787
525.554	17607
525.623	18579
525.692	18005
525.761	20526
525.830	23811
525.900	28354
525.969	41411
526.038	63596
526.107	121018
526.176	374134
526.245	354956
526.314	115998
526.383	184199
526.452	284593
526.522	403212
526.591	483597
526.660	137358
526.729	69587
526.797	68826
526.867	121701
526.935	500338
527.004	914687
527.073	600934
527.142	76583
527.211	31288
527.280	26424
527.349	24374
527.418	14944
527.487	15067
527.555	12572
527.624	12556
527.693	11272
527.762	13516
527.831	10843
527.899	12477
527.968	11432
528.037	11944
528.106	14815
528.174	26703
528.243	20770
528.312	26823
528.380	36648
528.449	14441
528.518	12464
528.586	9561
528.655	10872
528.723	10553
528.792	9759
528.861	10709
528.929	8833
528.998	10709
529.066	9313
529.135	10330
529.203	8892
529.272	9052
529.340	11772
529.409	12731
529.477	9599
529.545	12973
529.614	15315
529.682	13723
529.751	15735
529.819	18198
529.887	12364
529.956	10855
530.024	12674
530.092	11381
530.161	13436
530.229	21127
530.297	13119
530.365	12063
530.434	10185
530.502	10070
530.570	10519
530.638	9391
530.707	11882
530.775	13001
530.843	10305
530.911	11203
530.979	10746
531.047	10687
531.115	11967
531.183	10464
531.252	10199
531.320	11653
531.388	9438
531.456	11054
531.524	9875
531.592	11951
531.660	13194
531.728	10543
531.796	10291
531.864	11237
531.932	12227
532.000	11947
532.067	12513
532.135	14294
532.203	17133
532.271	15930
532.339	25515
532.407	66867
532.475	43128
532.542	22252
532.610	23787
532.678	29876
532.746	117053
532.814	318516
532.881	86145
532.949	19419
533.017	15275
533.084	12925
533.152	12351
533.220	12678
533.287	13849
533.355	12891
533.423	11983
533.490	11098
533.558	11731
533.625	14003
533.693	14533
533.761	13521
533.828	14642
533.896	13202
533.963	24077
534.031	29559
534.098	44891
534.166	23704
534.233	13860
534.300	15569
534.368	15496
534.435	15144
534.503	15690
534.570	17924
534.637	19113
534.705	20919
534.772	24067
534.840	37700
534.907	158734
534.974	255841
535.041	42721
535.109	21032
535.176	14652
535.243	14066
535.310	15102
535.378	14431
535.445	12771
535.512	13679
535.579	13808
535.646	12601
535.714	14352
535.781	17212
535.848	16385
535.915	16378
535.982	14690
536.049	14378
536.116	15888
536.183	14349
536.250	14784
536.317	15641
536.384	18198
536.451	23598
536.518	25906
536.585	18520
536.652	23192
536.719	31327
536.786	25827
536.853	21927
536.920	28630
536.987	42067
537.053	41778
537.120	155842
537.187	146752
537.254	22906
537.321	16525
537.388	17942
537.454	14389
537.521	15041
537.588	14119
537.654	17735
537.721	19653
537.788	19257
537.855	15760
537.921	17388
537.988	16546
538.055	17182
538.121	16095
538.188	17751
538.254	22994
538.321	43393
538.388	28622
538.454	18174
538.521	17318
538.587	16242
538.654	15726
538.720	15276
538.787	14308
538.853	16650
538.920	18150
538.986	19454
539.053	16746
539.119	17874
539.185	17869
539.252	19898
539.318	30032
539.385	24733
539.451	22132
539.517	23550
539.583	24550
539.650	46487
539.716	123693
539.782	43126
539.849	18684
539.915	18662
539.981	18718
540.047	22444
540.114	20047
540.180	21548
540.246	19881
540.312	26298
540.378	44251
540.444	44146
540.510	49137
540.576	139492
540.643	52572
540.709	19306
540.775	17787
540.841	17970
540.907	20967
540.973	29144
541.039	28146
541.105	29479
541.171	19824
541.237	19298
541.303	19792
541.369	21911
541.435	25201
541.500	39320
541.566	25124
541.632	16670
541.698	16042
541.764	17869
541.830	15960
541.896	16631
541.961	17630
542.027	18195
542.093	18607
542.159	20149
542.224	19672
542.290	26904
542.356	38650
542.421	44471
542.487	24463
542.553	20334
542.618	20891
542.684	20668
542.750	19978
542.815	23463
542.881	33986
542.947	117436
543.012	96770
543.078	22047
543.143	17991
543.209	20223
543.274	19089
543.340	23409
543.405	46564
543.471	79865
543.536	24073
543.602	18957
543.667	17094
543.732	18699
543.798	16270
543.863	18837
543.928	17116
543.994	17154
544.059	17861
544.124	18219
544.190	18305
544.255	19692
544.320	20061
544.386	19974
544.451	26028
544.516	29013
544.581	27796
544.646	74217
544.712	123997
544.777	33040
544.842	22502
544.907	22436
544.972	20123
545.037	21073
545.102	22462
545.168	23138
545.233	24058
545.298	24309
545.363	26738
545.428	30396
545.493	46083
545.558	100777
545.623	48698
545.688	25217
545.753	23749
545.818	23083
545.883	24587
545.947	23854
546.012	25475
546.077	25073
546.142	26177
546.207	26230
546.272	31634
546.337	31979
546.401	28456
546.466	28493
546.531	27751
546.596	30491
546.661	31156
546.725	30989
546.790	29293
546.855	32440
546.919	32423
546.984	35597
547.049	37767
547.113	44582
547.178	43617
547.243	50335
547.307	57269
547.372	64393
547.436	64423
547.501	62438
547.565	66906
547.630	67909
547.695	64854
547.759	65068
547.823	62505
547.888	61645
547.952	62379
548.017	65169
548.081	69938
548.146	71986
548.210	70649
548.274	70600
548.339	72059
548.403	66644
548.468	61132
548.532	61063
548.596	61521
548.660	62094
548.725	67688
548.789	75904
548.853	74585
548.917	69089
548.982	70668
549.046	67546
549.110	56317
549.174	56848
549.238	62701
549.303	69867
549.367	70826
549.431	68882
549.495	65540
549.559	64065
549.623	72965
549.687	83110
549.751	91558
549.815	94627
549.879	94423
549.943	90498
550.007	93294
550.071	94716
550.135	93256
550.199	84257
550.263	80732
550.327	77605
550.391	81437
550.455	85515
550.519	88271
550.582	97188
550.646	114284
550.710	118954
550.774	106805
550.838	106469
550.901	109726
550.965	116897
551.029	119538
551.093	132096
551.156	143972
551.220	175928
551.284	195952
551.347	145168
551.411	145960
551.475	145603
551.538	117291
551.602	108581
551.666	101155
551.729	95513
551.793	91655
551.856	90163
551.920	87387
551.983	89907
552.047	86908
552.110	87985
552.174	87990
552.237	91293
552.301	85601
552.364	82188
552.428	79580
552.491	83356
552.554	85772
552.618	84872
552.681	88009
552.745	87476
552.808	108499
552.871	128147
552.934	101976
552.998	88023
553.061	84875
553.124	80614
553.187	79075
553.251	82308
553.314	81661
553.377	81212
553.440	86408
553.503	93510
553.567	100066
553.630	87869
553.693	83569
553.756	85470
553.819	83828
553.882	79423
553.945	80269
554.008	79650
554.071	79534
554.134	81956
554.197	76864
554.260	74596
554.323	77009
554.386	78854
554.449	80181
554.512	81234
554.575	77217
554.638	77743
554.701	76120
554.764	74453
554.827	73227
554.889	71061
554.952	66847
555.015	64709
555.078	66190
555.141	67860
555.203	65142
555.266	65344
555.329	66086
555.391	64656
555.454	63638
555.517	63175
555.580	59371
555.642	57806
555.705	57394
555.768	56972
555.830	55176
555.893	53463
555.955	52308
556.018	52054
556.080	52189
556.143	52990
556.206	52653
556.268	52889
556.330	52361
556.393	52170
556.455	49872
556.518	54929
556.580	55182
556.643	45590
556.705	45651
556.767	44772
556.830	45783
556.892	47049
556.955	56046
557.017	49254
557.079	43672
557.142	42633
557.204	45479
557.266	63477
557.328	56309
557.391	39642
557.453	37209
557.515	38650
557.577	42284
557.639	43120
557.701	38934
557.764	39273
557.826	40280
557.888	43884
557.950	44329
558.012	47454
558.074	57659
558.136	115680
558.198	309706
558.260	141982
558.322	54025
558.384	51377
558.446	57852
558.508	64843
558.570	75982
558.632	103141
558.694	136353
558.756	160691
558.818	454031
558.880	1186121
558.942	470477
559.003	337263
559.065	195623
559.127	75701
559.189	69659
559.251	74770
559.312	98541
559.374	223382
559.436	784108
559.498	471765
559.559	92479
559.621	71221
559.683	74260
559.744	114177
559.806	356943
559.868	623252
559.929	150872
559.991	74069
560.052	100433
560.114	287987
560.176	215969
560.237	159158
560.299	295991
560.360	83760
560.422	36151
560.483	31684
560.545	27915
560.606	26999
560.667	25931
560.729	25127
560.790	24339
560.852	24940
560.913	23712
560.974	23805
561.036	23630
561.097	24156
561.158	24887
561.220	25146
561.281	23830
561.342	24572
561.403	26748
561.465	31133
561.526	60139
561.587	77347
561.648	29689
561.709	24091
561.771	22636
561.832	22541
561.893	22666
561.954	22692
562.015	21480
562.076	22076
562.137	22871
562.198	21947
562.259	21508
562.320	21618
562.381	24477
562.442	31002
562.503	27219
562.564	22384
562.625	20993
562.686	21183
562.747	22871
562.808	23003
562.869	21276
562.930	24611
562.991	23095
563.051	23342
563.112	22436
563.173	22226
563.234	19664
563.294	20900
563.355	21566
563.416	21924
563.477	21156
563.537	22015
563.598	21133
563.659	22355
563.720	20743
563.780	21854
563.841	22476
563.901	21255
563.962	20896
564.023	21818
564.083	21540
564.144	22190
564.204	20832
564.265	21572
564.325	23155
564.386	32604
564.446	30078
564.507	20541
564.567	20819
564.628	21758
564.688	20295
564.749	21260
564.809	22449
564.869	24029
564.930	21056
564.990	21483
565.050	21135
565.111	21665
565.171	20216
565.231	21506
565.292	21603
565.352	20688
565.412	21790
565.472	22504
565.532	23127
565.593	22090
565.653	21194
565.713	23042
565.773	23183
565.833	26814
565.893	30428
565.953	24434
566.013	23085
566.074	24411
566.134	26662
566.194	34680
566.254	35785
566.314	28736
566.374	24853
566.434	26181
566.494	25732
566.554	26273
566.614	27653
566.673	28438
566.733	28975
566.793	31495
566.853	32170
566.913	31670
566.973	32737
567.033	34327
567.092	33964
567.152	31836
567.212	33233
567.272	33085
567.331	34890
567.391	36259
567.451	38283
567.511	43177
567.570	43131
567.630	35814
567.690	33282
567.749	34258
567.809	36687
567.868	41410
567.928	45161
567.988	51436
568.047	57801
568.107	70784
568.166	94751
568.226	144571
568.285	206669
568.345	185317
568.404	149601
568.464	127807
568.523	117973
568.582	117349
568.642	125275
568.701	151654
568.761	214697
568.820	335833
568.879	348339
568.939	262389
568.998	196404
569.057	152207
569.116	120732
569.176	98336
569.235	80812
569.294	71269
569.353	60674
569.413	55751
569.472	49234
569.531	44030
569.590	40618
569.649	38604
569.708	34813
569.767	34726
569.827	36597
569.886	33416
569.945	29147
570.004	29531
570.063	27881
570.122	28640
570.181	28746
570.240	28548
570.299	27654
570.358	29902
570.417	26050
570.475	24406
570.534	23340
570.593	23989
570.652	24369
570.711	24819
570.770	23202
570.829	23964
570.887	24610
570.946	25292
571.005	22360
571.064	21844
571.122	23402
571.181	23773
571.240	21420
571.299	20130
571.357	20804
571.416	20779
571.475	22270
571.533	23111
571.592	20049
571.650	20872
571.709	19763
571.768	21450
571.826	20889
571.885	20425
571.943	18882
572.002	18559
572.060	19302
572.119	18349
572.177	18872
572.236	17702
572.294	18283
572.352	18870
572.411	18851
572.469	18999
572.528	17717
572.586	19228
572.644	19618
572.703	24137
572.761	19539
572.819	18729
572.877	16749
572.936	16840
572.994	17481
573.052	16681
573.110	18590
573.169	18322
573.227	16979
573.285	17458
573.343	17210
573.401	17373
573.459	17466
573.517	17530
573.576	17811
573.634	17616
573.692	18562
573.750	17476
573.808	16422
573.866	16895
573.924	18706
573.982	19326
574.040	16414
574.098	17241
574.155	16039
574.213	16997
574.271	15979
574.329	17484
574.387	16667
574.445	16163
574.503	14657
574.560	14568
574.618	15905
574.676	15232
574.734	15131
574.792	15440
574.849	15135
574.907	13626
574.965	14497
575.022	14839
575.080	15011
575.138	15671
575.195	15295
575.253	15490
575.311	17096
575.368	16239
575.426	14346
575.483	14197
575.541	14881
575.598	14901
575.656	15247
575.713	15404
575.771	15426
575.828	15389
575.886	14909
575.943	15951
576.001	15236
576.058	15477
576.115	15812
576.173	18447
576.230	18770
576.287	20478
576.345	17038
576.402	15442
576.459	17213
576.517	16989
576.574	16346
576.631	17560
576.688	16571
576.746	15287
576.803	14667
576.860	14833
576.917	15679
576.974	16049
577.031	14424
577.089	14376
577.146	15124
577.203	16751
577.260	15984
577.317	16864
577.374	16856
577.431	16273
577.488	15680
577.545	14752
577.602	14964
577.659	15860
577.716	14190
577.773	14553
577.830	14715
577.886	15183
577.943	14427
578.000	14391
578.057	15696
578.114	15004
578.171	15281
578.227	15238
578.284	14700
578.341	16073
578.398	15088
578.454	16151
578.511	16649
578.568	18048
578.625	15732
578.681	14931
578.738	14371
578.794	14368
578.851	15198
578.908	15926
578.964	16973
579.021	16601
579.077	15618
579.134	15879
579.190	15347
579.247	16014
579.303	14500
579.360	14729
579.416	15351
579.473	15008
579.529	14885
579.586	14560
579.642	15865
579.698	15341
579.755	16085
579.811	15354
579.867	15528
579.924	15268
579.980	14968
580.036	15454
580.093	15398
580.149	15703
580.205	16580
580.261	16151
580.317	16679
580.374	16972
580.430	16795
580.486	18390
580.542	16502
580.598	16790
580.619	16978
580.654	17320
580.692	16769
580.710	16520
580.765	16768
580.767	16790
580.823	17439
580.838	17084
580.879	16165
580.911	16864
580.935	17415
580.984	16601
580.991	16503
581.047	16940
581.057	16796
581.103	16230
581.130	17274
581.159	18350
581.203	17578
581.215	17404
581.270	16661
581.276	16583
581.326	15838
581.349	16193
581.382	16802
581.422	16809
581.438	16805
581.494	17625
581.494	17615
581.550	17438
581.567	17709
581.606	18255
581.640	17805
581.661	17584
581.713	18117
581.717	18160
581.773	17267
581.786	17426
581.829	18038
581.859	17611
581.885	17248
581.932	18230
581.940	18404
581.996	17699
582.004	17754
582.052	18085
582.077	18094
582.107	18190
582.150	18005
582.163	17909
582.219	16900
582.223	17028
582.274	18811
582.296	18682
582.330	18405
582.368	18544
582.386	18665
582.441	17989
582.441	17989
582.497	18726
582.514	18743
582.552	18889
582.587	18455
582.608	18142
582.659	19327
582.663	19436
582.719	19891
582.732	19700
582.774	19051
582.805	19487
582.830	19831
582.877	19864
582.885	19851
582.941	19458
582.950	19401
582.996	19270
583.023	19731
583.052	20354
583.095	20254
583.107	20157
583.162	20236
583.168	20245
583.218	20438
583.240	20352
583.273	20165
583.313	20540
583.328	20738
583.384	20626
583.385	20640
583.439	20753
583.458	20694
583.494	20611
583.531	20079
583.549	19932
583.603	21180
583.605	21205
583.660	20521
583.676	20708
583.715	21569
583.748	21974
583.770	22132
583.820	22051
583.825	22039
583.881	21833
583.893	21915
583.936	22316
583.965	22260
583.991	22187
584.038	22561
584.046	22609
584.101	22361
584.110	22400
584.156	22776
584.183	22802
584.211	22729
584.255	23281
584.266	23469
584.321	23272
584.328	23324
584.376	23777
584.400	23957
584.431	24284
584.472	24963
584.486	25127
584.541	25637
584.545	25631
584.596	25636
584.617	25671
584.651	25983
584.689	27443
584.706	27955
584.761	27436
584.762	27431
584.816	27544
584.834	27890
584.871	28869
584.906	29443
584.926	29665
584.978	29945
584.980	29983
585.035	31211
585.051	31883
585.090	33659
585.123	35117
585.145	36127
585.195	37752
585.200	37960
585.254	40416
585.267	41299
585.309	44501
585.340	47031
585.364	49198
585.412	52785
585.419	53466
585.473	60790
585.484	62489
585.528	73973
585.556	85156
585.583	110643
585.628	169031
585.637	192719
585.692	382896
585.700	417923
585.747	538500
585.772	487629
585.801	330548
585.845	130469
585.856	107624
585.910	66386
585.917	62327
585.965	53870
585.989	50655
586.019	48936
586.061	47726
586.074	47435
586.128	46802
586.133	46761
586.183	47434
586.205	47494
586.237	47660
586.277	47989
586.292	48234
586.346	49366
586.349	49379
586.401	49473
586.421	49528
586.455	50429
586.493	51879
586.509	53151
586.564	58226
586.565	58394
586.618	69698
586.637	71125
586.672	68628
586.709	64280
586.727	63494
586.781	65612
586.781	65663
586.835	63084
586.853	62553
586.889	62221
586.925	61621
586.944	61995
586.996	64182
586.998	64294
587.052	66051
587.068	66725
587.106	68899
587.140	69868
587.161	70483
587.212	73216
587.215	73489
587.269	78226
587.284	79233
587.323	81056
587.356	82535
587.377	84231
587.427	88536
587.431	88922
587.485	92823
587.499	94169
587.539	98277
587.571	100680
587.593	103157
587.643	109157
587.648	109932
587.702	117602
587.715	119586
587.755	125886
587.786	130393
587.810	134479
587.858	142971
587.864	144260
587.917	156568
587.930	159262
587.971	170982
588.001	180376
588.025	188432
588.073	203277
588.079	205817
588.133	229299
588.145	234633
588.187	256075
588.217	271260
588.241	287691
588.288	321514
588.295	327336
588.348	375593
588.360	386380
588.402	432824
588.431	465812
588.456	501626
588.503	574336
588.510	588607
588.564	706172
588.575	731696
588.617	865243
588.646	962239
588.671	1082122
588.718	1320991
588.725	1372895
588.778	1779008
588.789	1861007
588.832	2177144
588.861	2369810
588.886	2343987
588.932	2178992
588.939	2152554
588.993	1900146
589.004	1886302
589.047	2261181
589.075	2459047
589.100	2337745
589.147	2018862
589.154	1972371
589.207	1583746
589.218	1506853
589.261	1386091
589.290	1315850
589.314	1345489
589.361	1421690
589.368	1459327
589.421	1781278
589.433	1850361
589.475	2124646
589.504	2287502
589.528	2229578
589.576	2011034
589.582	2019191
589.635	2177053
589.647	2193902
589.689	1894622
589.718	1640848
589.742	1426589
589.790	1003043
589.795	977183
589.849	742309
589.861	689799
589.902	587949
589.932	514342
589.955	476770
590.004	400035
590.009	395339
590.062	343609
590.075	330810
590.115	301378
590.146	278508
590.168	267534
590.218	243362
590.222	242046
590.275	221325
590.289	215737
590.328	203983
590.360	193779
590.381	188225
590.431	174723
590.435	174380
590.488	164190
590.503	161266
590.541	155758
590.574	150278
590.594	147427
590.645	139814
590.647	139782
590.700	132431
590.716	130078
590.753	127738
590.787	124936
590.806	123274
590.859	118504
590.859	118673
590.912	115181
590.930	113941
590.965	112426
591.001	110254
591.018	109676
591.071	107503
591.072	107260
591.124	103840
591.143	102266
591.177	101321
591.214	99846
591.230	99231
591.283	96894
591.285	96586
591.336	95988
591.356	95591
591.389	94736
591.427	92934
591.442	92104
591.495	88489
591.498	88029
591.547	87019
591.569	86351
591.600	86060
591.640	85131
591.653	85065
591.706	83921
591.711	83612
591.759	84474
591.782	84715
591.811	85302
591.853	85498
591.864	85328
591.917	83392
591.924	82913
591.969	81647
591.995	80643
592.022	80905
592.066	80779
592.075	81091
592.127	81880
592.137	81831
592.180	82770
592.208	82968
592.233	81899
592.279	79281
592.285	79341
592.338	78246
592.350	77798
592.390	77629
592.421	77159
592.443	77490
592.491	77608
592.495	77777
592.548	77360
592.562	77048
592.600	76946
592.633	76489
592.653	76176
592.704	74425
592.705	74865
592.775	75453
592.846	74473
592.916	76313
592.987	77134
593.058	74700
593.128	73181
593.199	73901
593.270	74074
593.341	72686
593.411	72869
593.482	74537
593.553	74124
593.623	74222
593.694	75792
593.764	74995
593.835	73435
593.906	74355
593.976	72732
594.047	75560
594.117	78992
594.188	80026
594.258	76586
594.329	75198
594.399	77141
594.470	77853
594.540	77768
594.611	79303
594.681	79419
594.751	78627
594.822	80897
594.892	84045
594.963	84523
595.033	84665
595.103	85729
595.174	88701
595.244	93994
595.314	100633
595.384	89602
595.455	89969
595.525	93568
595.595	96533
595.665	95380
595.736	93690
595.806	94219
595.876	95480
595.946	94614
596.016	96595
596.087	100241
596.157	99560
596.227	98985
596.297	104525
596.367	109263
596.437	113464
596.507	119009
596.577	121068
596.647	116845
596.717	119424
596.787	122396
596.857	121532
596.927	121432
596.997	121395
597.067	122060
597.137	124773
597.207	125820
597.277	125706
597.347	121361
597.417	118512
597.487	119167
597.557	122132
597.626	123690
597.696	125980
597.766	126665
597.836	126072
597.906	113556
597.975	110849
598.045	111187
598.115	115963
598.185	122364
598.254	134831
598.324	145837
598.394	148373
598.464	144161
598.533	140815
598.603	133275
598.672	129535
598.742	131934
598.812	131364
598.881	133995
598.951	133510
599.020	134512
599.090	139195
599.159	140599
599.229	134731
599.299	130496
599.368	134734
599.437	134181
599.507	126230
599.576	121782
599.646	119947
599.715	118116
599.785	117804
599.854	116191
599.924	116031
599.993	113581
600.062	115974
600.132	118123
600.201	124896
600.270	141682
600.340	147789
600.409	143471
600.478	142348
600.547	146593
600.617	135954
600.686	111200
600.755	104901
600.824	99826
600.894	97541
600.963	96701
601.032	95268
601.101	93623
601.170	89530
601.239	88521
601.308	90662
601.378	90301
601.447	88411
601.516	89250
601.585	93247
601.654	95867
601.723	92693
601.792	94017
601.861	95788
601.930	99816
601.999	101806
602.068	100769
602.137	106033
602.206	105129
602.275	103588
602.343	107097
602.412	107811
602.481	104191
602.550	105140
602.619	107033
602.688	107709
602.756	107682
602.825	108741
602.894	111456
602.963	114108
603.032	115667
603.100	114212
603.169	114997
603.238	116173
603.307	115849
603.375	117265
603.444	118904
603.513	119375
603.581	121810
603.650	123825
603.719	119444
603.787	121701
603.856	124635
603.924	128628
603.993	132990
604.061	135827
604.130	141467
604.198	145232
604.267	144521
604.335	146618
604.404	149892
604.472	151880
604.541	152931
604.609	153160
604.678	153400
604.746	156106
604.815	160790
604.883	162290
604.951	162978
605.020	165126
605.088	166414
605.156	167907
605.225	171244
605.293	172343
605.361	173629
605.429	172342
605.498	177464
605.566	182632
605.634	190520
605.702	196634
605.771	200263
605.839	200307
605.907	196415
605.975	190623
606.043	186832
606.111	187318
606.180	187167
606.248	181605
606.316	180881
606.384	182760
606.452	185503
606.520	195970
606.588	194957
606.656	192971
606.724	187397
606.792	178913
606.860	159507
606.928	147234
606.996	143294
607.064	141509
607.132	144091
607.200	150936
607.267	157324
607.335	160345
607.403	161714
607.471	157234
607.539	152270
607.607	154465
607.674	137535
607.742	139041
607.810	137972
607.878	136939
607.946	140439
608.013	146029
608.081	149396
608.149	150986
608.216	153150
608.284	157870
608.352	158013
608.419	156783
608.487	157574
608.555	153788
608.622	155242
608.690	165566
608.757	181268
608.825	186062
608.893	183263
608.960	174922
609.028	171664
609.095	168533
609.163	164644
609.230	146903
609.298	135412
609.365	143316
609.432	153649
609.500	169629
609.567	191140
609.635	216569
609.702	226404
609.769	218484
609.837	171792
609.904	152223
609.971	160845
610.039	186999
610.106	249738
610.173	494488
610.241	1117483
610.308	781024
610.375	347050
610.442	191170
610.509	162587
610.577	160478
610.644	156977
610.711	163201
610.778	166616
610.845	170070
610.912	180151
610.980	186837
611.047	187659
611.114	185448
611.181	177598
611.248	176818
611.315	186112
611.382	190287
611.449	196570
611.516	200157
611.583	197524
611.650	199073
611.717	202153
611.784	208794
611.851	219499
611.918	240965
611.984	284262
612.051	411292
612.118	825380
612.185	1902210
612.252	1217237
612.319	353969
612.386	273675
612.452	246123
612.519	231456
612.586	228243
612.653	228962
612.719	233441
612.786	225417
612.853	206713
612.919	204251
612.986	208411
613.053	194164
613.120	183269
613.186	177661
613.253	179522
613.319	177853
613.386	180898
613.453	183719
613.519	187797
613.586	192354
613.652	205978
613.719	195454
613.785	193265
613.852	186092
613.918	184666
613.985	186568
614.051	193996
614.118	193264
614.184	186419
614.250	184491
614.317	187355
614.383	184201
614.449	186836
614.516	187160
614.582	187716
614.648	185467
614.715	182652
614.781	179381
614.847	179933
614.914	180604
614.980	176782
615.046	175727
615.112	184143
615.179	184088
615.245	193055
615.311	198593
615.377	232464
615.443	243360
615.509	207808
615.575	201163
615.642	197797
615.708	205226
615.774	216809
615.840	234655
615.906	264405
615.972	350250
616.038	577209
616.104	1078024
616.170	2201528
616.236	1850038
616.302	526350
616.368	372933
616.434	273161
616.500	243203
616.565	269309
616.631	333219
616.697	275794
616.763	286583
616.829	426640
616.895	748884
616.961	713943
617.026	314522
617.092	216095
617.158	198379
617.224	192898
617.289	178517
617.355	170361
617.421	167072
617.487	166066
617.552	159010
617.618	157150
617.684	155290
617.749	159278
617.815	151878
617.880	149019
617.946	150086
618.012	153764
618.077	154021
618.143	149147
618.208	149681
618.274	160143
618.339	160497
618.405	135460
618.470	134315
618.536	135025
618.601	135275
618.667	126378
618.732	121031
618.798	119404
618.863	119159
618.928	118973
618.994	120598
619.059	124690
619.124	135539
619.190	124822
619.255	117451
619.320	117505
619.386	117901
619.451	116138
619.516	113249
619.581	115055
619.647	119550
619.712	117612
619.777	113469
619.842	116635
619.907	118259
619.972	119102
620.038	117520
620.103	113237
620.168	113093
620.233	114375
620.298	115534
620.363	116240
620.428	121129
620.493	122555
620.558	123843
620.623	125312
620.688	124052
620.753	122672
620.818	125840
620.883	125973
620.948	124801
621.013	124848
621.078	122533
621.143	123481
621.207	125807
621.272	123599
621.337	123648
621.402	121937
621.467	125514
621.532	124794
621.596	122448
621.661	117911
621.726	115870
621.791	117711
621.855	119977
621.920	118587
621.985	119592
622.049	124401
622.114	121764
622.179	123131
622.243	126845
622.308	128567
622.373	135320
622.437	132068
622.502	123083
622.566	122654
622.631	121152
622.695	124134
622.760	124386
622.824	123332
622.889	125360
622.953	128922
623.018	149176
623.082	146359
623.147	130337
623.211	128105
623.276	128717
623.340	121937
623.404	118116
623.469	120624
623.533	121086
623.597	116595
623.662	116055
623.726	109555
623.790	103640
623.854	102057
623.919	104401
623.983	105970
624.047	107529
624.111	107697
624.176	108773
624.240	114126
624.304	118933
624.368	109198
624.432	108485
624.496	111457
624.560	118654
624.625	122247
624.689	116079
624.753	119284
624.817	112708
624.881	111593
624.945	101124
625.009	99841
625.073	102226
625.137	109471
625.201	118138
625.265	116654
625.329	104115
625.393	107560
625.456	106891
625.520	110118
625.584	111352
625.648	118071
625.712	127525
625.776	156407
625.839	157256
625.903	106298
625.967	90783
626.031	105914
626.095	130675
626.158	102648
626.222	81360
626.286	77182
626.349	74879
626.413	70341
626.477	73322
626.540	72137
626.604	70182
626.668	69130
626.731	67527
626.795	68892
626.858	69624
626.922	67993
626.986	67811
627.049	66966
627.113	69950
627.176	67285
627.240	66164
627.303	66175
627.366	65613
627.430	68068
627.493	66940
627.557	64791
627.620	66779
627.684	67901
627.747	67648
627.810	62917
627.874	59561
627.937	56130
628.000	61228
628.064	58768
628.127	51049
628.190	51744
628.253	51123
628.317	50392
628.380	48708
628.443	48244
628.506	47640
628.569	45800
628.632	43665
628.696	43415
628.759	42987
628.822	42290
628.885	41056
628.948	41234
629.011	41212
629.074	40427
629.137	39262
629.200	38676
629.263	41113
629.326	37298
629.389	36706
629.452	37291
629.515	38352
629.578	37108
629.641	38796
629.704	38361
629.767	38521
629.830	36683
629.892	35171
629.955	35740
630.018	38406
630.081	38985
630.144	42276
630.207	37901
630.269	38250
630.332	35591
630.395	34523
630.458	33737
630.520	33205
630.583	34612
630.646	33547
630.708	32842
630.771	33707
630.834	35974
630.896	33895
630.959	34444
631.021	32570
631.084	33611
631.146	34722
631.209	36601
631.272	32607
631.334	35339
631.397	34936
631.459	35608
631.522	37259
631.584	37953
631.646	40616
631.709	42319
631.771	45605
631.834	41983
631.896	37351
631.958	35543
632.021	35397
632.083	32527
632.145	33340
632.208	32295
632.270	32822
632.332	31513
632.395	31269
632.457	33436
632.519	31537
632.581	32401
632.643	29961
632.706	31449
632.768	31304
632.830	30275
632.892	31833
632.954	32303
633.016	32591
633.078	31064
633.141	31527
633.203	31359
633.265	32079
633.327	31466
633.389	30435
633.451	34320
633.513	36864
633.575	35398
633.637	34454
633.698	35053
633.760	34771
633.822	34618
633.884	35237
633.946	36608
634.008	36424
634.070	37610
634.132	40028
634.193	42766
634.255	46249
634.317	45569
634.379	45633
634.441	41531
634.502	38697
634.564	35960
634.626	33352
634.687	32221
634.749	30521
634.811	31069
634.873	29031
634.934	31201
634.996	30977
635.057	30805
635.119	30426
635.181	31744
635.242	31451
635.304	29857
635.365	33427
635.427	30925
635.488	32879
635.550	29434
635.611	31714
635.673	30803
635.734	35490
635.796	35768
635.857	39571
635.918	39439
635.980	44154
636.041	46552
636.102	50578
636.164	49573
636.225	48365
636.286	40382
636.348	37977
636.409	33562
636.470	33032
636.531	30949
636.593	30799
636.654	29753
636.715	28738
636.776	27682
636.838	25569
636.899	26967
636.960	26346
637.021	24412
637.082	25609
637.143	26670
637.204	24013
637.265	25117
637.326	25583
637.387	25857
637.448	24606
637.509	25731
637.570	25200
637.631	25788
637.692	24347
637.753	22673
637.814	24285
637.875	23268
637.936	25132
637.997	24097
638.058	24300
638.119	24551
638.179	23539
638.240	23181
638.301	22511
638.362	21691
638.423	21725
638.483	23364
638.544	20486
638.605	21844
638.666	20744
638.726	22994
638.787	23334
638.848	22694
638.908	22452
638.969	22126
639.030	21609
639.090	20855
639.151	21196
639.211	23803
639.272	26396
639.332	36412
639.393	26413
639.453	23079
639.514	24685
639.574	21717
639.635	20515
639.695	21330
639.756	20427
639.816	22469
639.877	24178
639.937	32975
639.997	36659
640.058	21682
640.118	19835
640.178	20784
640.239	18855
640.299	20272
640.359	19230
640.420	21733
640.480	23193
640.540	26122
640.600	26904
640.661	24304
640.721	23081
640.781	26843
640.841	21686
640.901	21110
640.961	21595
641.021	22967
641.082	24355
641.142	28772
641.202	23027
641.262	17780
641.322	19965
641.382	18092
641.442	19179
641.502	19075
641.562	19500
641.622	19483
641.682	22023
641.742	24122
641.802	21612
641.861	20054
641.921	20206
641.981	20819
642.041	20820
642.101	24213
642.161	18961
642.221	18363
642.280	16933
642.340	17245
642.400	17570
642.460	19053
642.519	18585
642.579	18113
642.639	19008
642.698	15761
642.758	21162
642.818	19164
642.877	19165
642.937	19378
642.997	22247
643.056	26194
643.116	19654
643.175	20841
643.235	19755
643.294	19853
643.354	21961
643.414	24187
643.473	28665
643.532	34841
643.592	47637
643.651	74542
643.711	133790
643.770	266038
643.830	634801
643.889	1243541
643.948	307396
644.008	61548
644.067	37996
644.126	29224
644.186	25517
644.245	23694
644.304	20088
644.363	22669
644.423	19211
644.482	21174
644.541	21588
644.600	21679
644.659	27843
644.719	33964
644.778	51127
644.837	88712
644.896	182133
644.955	414243
645.014	128900
645.073	33179
645.132	24354
645.191	23793
645.250	20869
645.309	23253
645.368	23868
645.427	32554
645.486	52348
645.545	87946
645.604	29001
645.663	19826
645.722	20244
645.781	22490
645.840	25266
645.898	31488
645.957	46094
646.016	69772
646.075	127041
646.134	252737
646.192	673308
646.251	926250
646.310	147421
646.369	45626
646.427	36950
646.486	26909
646.545	21745
646.603	19881
646.662	19288
646.721	18427
646.779	18488
646.838	19254
646.896	26090
646.955	31700
647.014	52945
647.072	101363
647.131	272989
647.189	123130
647.248	22401
647.306	18872
647.365	16368
647.423	13999
647.481	15719
647.540	13027
647.598	14457
647.657	13948
647.715	14401
647.773	12410
647.832	13958
647.890	11865
647.948	12764
648.007	13514
648.065	12128
648.123	12346
648.181	13318
648.240	12778
648.298	11752
648.356	11811
648.414	13306
648.472	12151
648.531	11663
648.589	12005
648.647	11629
648.705	11626
648.763	13008
648.821	13325
648.879	13583
648.937	15535
648.995	18371
649.053	23203
649.111	36531
649.169	60132
649.227	108279
649.285	229042
649.343	641496
649.401	289032
649.459	59035
649.516	34706
649.574	19159
649.632	20899
649.690	22619
649.748	26573
649.806	36741
649.863	69409
649.921	191053
649.979	119549
650.037	19772
650.094	12272
650.152	13326
650.210	11137
650.268	11295
650.325	9956
650.383	10497
650.440	9715
650.498	10613
650.556	9731
650.613	9237
650.671	9945
650.728	9764
650.786	10482
650.843	13830
650.901	10226
650.958	10282
651.016	8214
651.073	8725
651.131	7964
651.188	8187
651.246	9502
651.303	7630
651.360	8391
651.418	8292
651.475	8785
651.532	7532
651.590	8344
651.647	7591
651.704	9038
651.762	7932
651.819	8806
651.876	7317
651.933	7596
651.990	9058
652.048	6565
652.105	7516
652.162	8522
652.219	7525
652.276	8522
652.333	7708
652.390	7810
652.448	7614
652.505	8015
652.562	7657
652.619	7384
652.676	6755
652.733	8741
652.790	6500
652.847	6580
652.904	8067
652.961	6308
653.017	6415
653.074	7833
653.131	7456
653.188	6358
653.245	6141
653.302	7488
653.359	6815
653.415	6920
653.472	6341
653.529	7854
653.586	5937
653.642	6779
653.699	7605
653.756	6757
653.813	6842
653.869	7978
653.926	5573
653.983	7066
654.039	7097
654.096	6241
654.152	6989
654.209	5940
654.266	6714
654.322	6702
654.379	7279
654.435	8087
654.492	8175
654.548	10742
654.605	14028
654.661	9759
654.717	7074
654.774	7669
654.830	7190
654.887	6746
654.943	6952
655.000	7582
655.056	7458
655.112	6985
655.168	6149
655.225	7064
655.281	7840
655.337	7956
655.394	10258
655.450	8487
655.506	8032
655.562	10609
655.618	9098
655.675	5849
655.731	6620
655.787	7103
655.843	6728
655.899	6394
655.955	6781
656.011	7607
656.067	5108
656.123	7514
656.179	6320
656.235	8228
656.291	5419
656.347	8063
656.403	6544
656.459	6384
656.515	7206
656.571	7233
656.627	6271
656.683	7681
656.739	6937
656.795	6899
656.850	7234
656.906	8109
656.962	7760
657.018	6541
657.074	7986
657.129	9324
657.185	14097
657.241	26543
657.297	15195
657.352	8335
657.408	6996
657.464	7892
657.519	6050
657.575	5423
657.630	6569
657.686	5959
657.742	5940
657.797	6533
657.853	5288
657.908	7501
657.964	5085
658.019	6922
658.075	6000
658.130	6566
658.186	5186
658.241	6105
658.297	5506
658.352	5794
658.407	6433
658.463	5595
658.518	6894
658.573	5892
658.629	4694
658.684	5347
658.739	6522
658.795	6155
658.850	6276
658.905	5079
658.960	5452
659.016	6004
659.071	6212
659.126	7139
659.181	6929
659.236	11092
659.291	11104
659.346	7147
659.401	6799
659.457	7073
659.512	5361
659.567	6352
659.622	5331
659.677	5483
659.732	5317
659.787	5687
659.842	6256
659.897	7061
659.952	6229
660.007	6571
660.061	5904
660.116	4921
660.171	5328
660.226	5540
660.281	5626
660.336	4735
660.391	6248
660.445	5238
660.500	6146
660.555	5720
660.610	5000
660.664	6021
660.719	5199
660.774	5645
660.828	6057
660.883	5932
660.938	5664
660.992	4916
661.047	5320
661.101	5128
661.156	5715
661.211	4931
661.265	5238
661.320	5666
661.374	5526
661.429	5212
661.483	6220
661.538	4995
661.592	5555
661.647	5524
661.701	5538
661.755	4958
661.810	5143
661.864	5893
661.919	4606
661.973	5629
662.027	5497
662.081	5015
662.136	5758
662.190	5465
662.244	5461
662.299	4664
662.353	5550
662.407	6055
662.461	5387
662.515	5831
662.569	5866
662.624	5882
662.678	5281
662.732	5359
662.786	4222
662.840	6078
662.894	5366
662.948	5343
663.002	4664
663.056	4849
663.110	4623
663.164	5702
663.218	5225
663.272	5825
663.326	6150
663.380	5960
663.434	5847
663.488	6238
663.542	5554
663.595	5714
663.649	4684
663.703	5457
663.757	6084
663.811	5213
663.864	4597
663.918	5557
663.972	5191
664.026	5215
664.079	5482
664.133	5947
664.187	4605
664.240	5809
664.294	4741
664.348	6344
664.401	5561
664.455	4986
664.508	5057
664.562	5641
664.615	5461
664.669	4664
664.722	4983
664.776	4481
664.829	5271
664.883	5311
664.936	5411
664.990	5803
665.043	5811
665.097	6083
665.150	5787
665.203	5122
665.257	6012
665.310	6092
665.363	5767
665.417	5641
665.470	5575
665.523	6221
665.576	5407
665.630	5217
665.683	5084
665.736	6602
665.789	5932
665.842	5427
665.895	5417
665.949	6074
666.002	5318
666.055	5750
666.108	6717
666.161	5748
666.214	5861
666.267	6478
666.320	7737
666.373	6191
666.426	6200
666.479	5947
666.532	6714
666.585	6443
666.638	7270
666.691	5586
666.744	6875
666.796	5648
666.849	6012
666.902	5851
666.955	4962
667.008	5609
667.060	5122
667.113	4764
667.166	5736
667.219	5779
667.271	5750
667.324	5330
667.377	5448
667.430	5241
667.482	5492
667.535	4712
667.587	5683
667.640	6772
667.693	6954
667.745	11115
667.798	10680
667.850	6462
667.903	5617
667.955	6232
668.008	4795
668.060	5924
668.113	6109
668.165	6231
668.218	6082
668.270	6348
668.322	6352
668.375	5893
668.427	5795
668.479	5722
668.532	5922
668.584	5627
668.636	5921
668.689	6064
668.741	5491
668.793	6694
668.845	5095
668.898	5896
668.950	5233
669.002	6414
669.054	5647
669.106	6126
669.158	6070
669.211	5889
669.263	5760
669.315	6014
669.367	5819
669.419	6535
669.471	7166
669.523	7841
669.575	9236
669.627	8338
669.679	7164
669.731	6934
669.783	7494
669.835	8594
669.886	7809
669.938	8175
669.990	6712
670.042	7967
670.094	8222
670.146	8895
670.197	10274
670.249	13541
670.301	16135
670.353	22438
670.404	30207
670.456	44236
670.508	66947
670.560	104913
670.611	169145
670.663	295622
670.715	628670
670.766	884530
670.818	367418
670.869	83434
670.921	39857
670.972	27512
671.024	20130
671.075	16965
671.127	13381
671.178	11762
671.230	11862
671.281	10955
671.333	10194
671.384	10115
671.436	11237
671.487	14734
671.538	18449
671.590	25637
671.641	39736
671.692	67890
671.744	122910
671.795	81659
671.846	29562
671.897	15797
671.949	11493
672.000	9372
672.051	8792
672.102	7924
672.153	7153
672.204	6870
672.256	7336
672.307	6732
672.358	6576
672.409	6344
672.460	5951
672.511	5575
672.562	5589
672.613	5702
672.664	5039
672.715	5466
672.766	5035
672.817	5001
672.868	5148
672.919	5281
672.970	5075
673.021	5457
673.071	4135
673.122	4520
673.173	4632
673.224	5075
673.275	4960
673.326	5078
673.376	4981
673.427	3927
673.478	4705
673.528	5408
673.579	4882
673.630	6201
673.680	4916
673.731	4501
673.782	4221
673.832	5293
673.883	4500
673.934	5044
673.984	3547
674.035	4304
674.085	4995
674.136	5189
674.186	4919
674.237	5827
674.287	6828
674.338	4934
674.388	4257
674.438	5134
674.489	4433
674.539	5251
674.589	4864
674.640	5901
674.690	4400
674.740	5006
674.791	5137
674.841	5437
674.891	5511
674.942	4617
674.992	4654
675.042	4351
675.092	4323
675.142	4524
675.193	3976
675.243	4666
675.293	4836
675.343	4228
675.393	4378
675.443	4971
675.493	3547
675.543	4224
675.593	4298
675.643	3960
675.693	4127
675.743	4456
675.793	4074
675.843	2876
675.893	3877
675.943	4811
675.993	3884
676.043	4140
676.093	4036
676.142	3600
676.192	4357
676.242	3680
676.292	3508
676.341	3885
676.391	3965
676.441	3946
676.491	3579
676.540	3837
676.590	4640
676.640	4326
676.689	3564
676.739	3717
676.789	3464
676.838	2910
676.888	3461
676.937	3549
676.987	3556
677.037	2797
677.086	3043
677.136	4409
677.185	3390
677.235	3640
677.284	3422
677.333	3528
677.383	2889
677.432	2932
677.482	3380
677.531	3526
677.580	2591
677.630	3344
677.679	3009
677.728	3629
677.778	3110
677.827	3067
677.876	3405
677.925	3840
677.975	3523
678.024	4285
678.073	3609
678.122	3878
678.171	3651
678.220	3781
678.269	3774
678.319	4547
678.368	4864
678.417	4210
678.466	4716
678.515	3538
678.564	3665
678.613	3181
678.662	3274
678.711	3068
678.760	2882
678.809	3314
678.857	3423
678.906	3436
678.955	3189
679.004	4128
679.053	3019
679.102	3268
679.151	3648
679.199	3713
679.248	2893
679.297	3924
679.346	3501
679.394	3524
679.443	3102
679.492	3414
679.540	3428
679.589	3502
679.638	2956
679.686	3333
679.735	3623
679.784	3921
679.832	3900
679.881	3956
679.929	2720
679.978	1932
680.026	3246
680.075	3721
680.123	2884
680.172	2411
680.220	2757
680.268	2554
680.317	1980
680.365	3026
680.414	2537
680.462	2855
680.510	3163
680.559	2673
680.607	2557
680.655	2602
680.703	2301
680.752	2655
680.800	2342
680.848	2883
680.896	2396
680.945	3021
680.993	2732
681.041	2740
681.089	2875
681.137	2681
681.185	1915
681.233	2177
681.258	2379
681.281	2553
681.329	1146
681.377	2879
681.380	2906
681.425	3102
681.473	2637
681.502	2802
681.521	2878
681.569	2470
681.617	3476
681.624	3477
681.665	3374
681.713	3101
681.745	3572
681.761	3768
681.809	2994
681.857	2884
681.867	2874
681.904	2774
681.952	2909
681.989	3236
682.000	3315
682.048	3876
682.096	3915
682.111	3511
682.143	2595
682.191	2623
682.233	4093
682.239	4294
682.286	4161
682.334	3418
682.354	3239
682.382	2972
682.430	3655
682.476	3355
682.477	3333
682.525	2850
682.572	2901
682.598	3108
682.620	3275
682.667	3406
682.715	2819
682.720	2926
682.763	3758
682.810	3836
682.841	3906
682.857	3899
682.905	3617
682.952	3648
682.963	3694
683.000	3802
683.047	3592
683.085	4108
683.095	4232
683.142	3536
683.190	3660
683.206	3809
683.237	4045
683.284	3738
683.328	4046
683.332	4057
683.379	3590
683.426	3861
683.449	3974
683.473	4049
683.521	3993
683.568	3813
683.571	3839
683.615	4019
683.662	4489
683.693	3763
683.709	3360
683.757	3227
683.804	3746
683.814	3738
683.851	3655
683.898	4463
683.936	4496
683.945	4495
683.992	4467
684.039	3994
684.057	4386
684.086	4986
684.133	5082
684.179	4693
684.180	4667
684.227	5057
684.274	5371
684.300	5269
684.321	5193
684.368	4599
684.415	4436
684.422	4517
684.462	4773
684.509	4531
684.543	4363
684.556	4334
684.603	4137
684.649	4424
684.665	4466
684.696	4560
684.743	4569
684.786	5220
684.790	5263
684.837	5103
684.883	5512
684.908	5642
684.930	5643
684.977	5771
685.023	5143
685.029	5108
685.070	4916
685.117	4691
685.150	4850
685.164	4911
685.210	5675
685.257	5558
685.272	5721
685.303	6043
685.350	5675
685.393	5474
685.396	5454
685.443	5182
685.490	6699
685.514	6316
685.536	5911
685.583	6673
685.629	6078
685.636	6115
685.675	6242
685.722	5692
685.757	5929
685.768	6019
685.815	6342
685.861	6268
685.878	6113
685.908	5839
685.954	6072
686.000	5941
686.000	5938
686.047	7011
686.093	6934
686.121	7580
686.139	7733
686.185	6865
686.232	6293
686.242	6164
686.278	5853
686.324	5955
686.363	5742
686.370	5718
686.416	5604
686.463	6737
686.484	6343
686.509	5909
686.555	5992
686.601	5983
686.606	6013
686.647	6224
686.693	6158
686.727	6032
686.739	6012
686.785	6373
686.831	5824
686.848	5954
686.877	6020
686.923	5399
686.969	5934
686.969	5939
687.015	5653
687.061	6156
687.090	6690
687.107	6795
687.153	6775
687.199	6024
687.211	5996
687.245	6270
687.291	6436
687.332	6891
687.336	6903
687.382	6735
687.428	6917
687.453	6784
687.474	6749
687.520	6707
687.565	6325
687.574	6343
687.611	6262
687.657	5968
687.695	5848
687.702	5893
687.748	6881
687.794	7530
687.816	7207
687.839	6713
687.885	6875
687.931	6866
687.937	6823
687.976	6646
688.022	6780
688.058	6957
688.067	7006
688.113	6086
688.158	6584
688.179	6647
688.204	6750
688.249	6816
688.295	7282
688.300	7239
688.340	6944
688.386	7356
688.421	7306
688.431	7323
688.477	6949
688.522	7837
688.542	7678
688.567	7426
688.613	7097
688.658	7572
688.663	7551
688.703	7399
688.749	7826
688.784	7313
688.794	7171
688.839	7419
688.884	7499
688.905	7452
688.930	7406
688.975	7254
689.020	6959
689.026	7014
689.065	7464
689.110	7302
689.146	7533
689.155	7594
689.201	6958
689.246	7127
689.267	7169
689.291	7288
689.336	7816
689.381	7552
689.388	7511
689.426	7315
689.471	7662
689.509	7714
689.516	7693
689.561	7406
689.606	7259
689.630	7120
689.651	7161
689.696	7272
689.741	7352
689.750	7527
689.785	8067
689.830	7101
689.871	7294
689.875	7328
689.920	7049
689.965	7411
689.992	7219
690.010	7162
690.054	7671
690.099	7928
690.112	7994
690.144	7958
690.189	7622
690.233	7407
690.233	7416
690.278	7284
690.323	7580
690.354	7250
690.367	7162
690.412	7601
690.457	7931
690.474	7805
690.501	7403
690.546	7354
690.590	6949
690.595	6908
690.635	7001
690.680	7142
690.716	7061
690.724	7051
690.769	7353
690.813	7438
690.836	7353
690.857	7401
690.902	7894
690.946	8201
690.957	8235
690.991	8241
691.035	8670
691.077	8729
691.080	8745
691.124	8815
691.168	8897
691.198	8854
691.213	8859
691.257	9023
691.301	9072
691.318	9116
691.346	8891
691.390	8828
691.434	8055
691.439	7990
691.478	7977
691.522	8597
691.559	8086
691.567	8043
691.611	8488
691.655	8571
691.680	8772
691.699	8786
691.743	8812
691.787	8707
691.800	8656
691.831	8745
691.875	8479
691.919	8998
691.921	8978
691.964	8958
692.008	9529
692.041	9621
692.052	9629
692.096	9817
692.139	10013
692.162	9938
692.183	9610
692.227	8820
692.271	8338
692.282	8214
692.315	8579
692.359	9340
692.402	9500
692.403	9515
692.447	9692
692.490	9209
692.523	9101
692.534	9128
692.578	9314
692.622	9448
692.643	9436
692.666	9332
692.709	9292
692.753	8890
692.763	8898
692.797	9148
692.840	8871
692.884	8919
692.884	8936
692.928	9000
692.971	8822
693.004	8547
693.015	8547
693.059	8900
693.102	8986
693.124	9139
693.146	9318
693.189	8980
693.233	8992
693.245	9078
693.276	9323
693.320	9288
693.363	9210
693.365	9193
693.407	9387
693.450	9276
693.485	9594
693.493	9676
693.537	9869
693.580	9793
693.605	9730
693.624	9725
693.667	9825
693.710	9919
693.725	9958
693.753	10239
693.797	10596
693.840	11052
693.845	11043
693.883	10591
693.926	10184
693.966	9988
693.970	9994
694.013	9380
694.056	9298
694.086	8957
694.099	8949
694.142	9182
694.185	9148
694.206	9112
694.229	9362
694.272	9986
694.315	10650
694.326	10774
694.358	10803
694.401	10805
694.444	10870
694.446	10837
694.487	10620
694.530	10481
694.566	10322
694.573	10274
694.616	10020
694.659	9659
694.686	9336
694.702	9344
694.745	9378
694.787	9460
694.806	9463
694.830	9456
694.873	9378
694.916	9437
694.926	9390
694.959	9482
695.002	9698
695.044	9960
695.046	9934
695.087	9827
695.130	10126
695.166	10140
695.172	10146
695.215	10072
695.258	10054
695.286	9950
695.301	9881
695.343	9481
695.386	9437
695.406	9298
695.428	9535
695.471	10028
695.514	10444
695.526	10570
695.556	10618
695.599	10589
695.641	10454
695.646	10427
695.684	10323
695.726	10284
695.766	9910
695.769	9932
695.811	10062
695.854	10317
695.886	10402
695.896	10488
695.938	10694
695.981	10920
696.005	11094
696.023	11176
696.065	11279
696.108	11373
696.125	11354
696.150	11338
696.192	11276
696.235	11321
696.245	11257
696.277	11190
696.319	11185
696.361	11233
696.365	11196
696.404	11009
696.446	10816
696.485	10852
696.488	10899
696.530	10891
696.572	11021
696.604	11117
696.614	11139
696.656	10970
696.698	10777
696.724	10763
696.740	10658
696.783	10263
696.825	9728
696.844	9521
696.867	9897
696.909	10438
696.951	11032
696.964	11207
696.992	11256
697.034	11216
697.076	11219
697.083	11197
697.118	11496
697.160	11728
697.202	12012
697.203	11990
697.244	11826
697.286	11579
697.323	11318
697.327	11330
697.369	11247
697.411	11082
697.442	10965
697.453	11070
697.494	11461
697.536	11687
697.562	11823
697.578	11974
697.620	12324
697.661	12766
697.682	12869
697.703	12852
697.744	12888
697.786	12901
697.801	12888
697.828	13153
697.869	13340
697.911	13673
697.921	13710
697.952	13304
697.994	12705
698.035	12183
698.040	12085
698.077	11777
698.118	11342
698.160	10967
698.160	10936
698.201	11399
698.243	11902
698.279	12307
698.284	12330
698.325	12245
698.367	12144
698.399	12031
698.408	12037
698.449	11929
698.491	11811
698.518	11713
698.532	11835
698.573	12121
698.614	12391
698.638	12497
698.656	12571
698.697	12703
698.738	12832
698.757	12851
698.779	12881
698.820	12884
698.862	12894
698.877	12864
698.903	13086
698.944	13390
698.985	13693
698.996	13744
699.026	13407
699.067	12895
699.116	12255
699.235	12538
699.354	13009
699.474	13371
699.593	14366
699.713	13156
699.832	12623
699.951	13352
700.070	12007
700.190	11741
700.309	12056
700.428	12619
700.547	11649
700.667	12275
700.786	12683
700.905	11171
701.024	13060
701.143	11614
701.262	12394
701.381	11889
701.500	12495
701.619	13421
701.738	11979
701.857	11362
701.976	10703
702.095	10886
702.214	13343
702.333	12911
702.452	12527
702.571	11514
702.690	11346
702.809	11110
702.928	10697
703.047	11432
703.165	11907
703.284	10907
703.403	10687
703.522	11896
703.640	11376
703.759	12989
703.878	17084
703.997	11275
704.115	11052
704.234	10447
704.353	10233
704.471	10531
704.590	10355
704.708	10081
704.827	10012
704.946	10328
705.064	10680
705.183	10441
705.301	11488
705.420	14681
705.538	13856
705.656	11912
705.775	11138
705.893	12836
706.012	13154
706.130	11739
706.249	13160
706.367	12098
706.485	12957
706.604	12165
706.722	13016
706.840	14289
706.958	14621
707.077	11831
707.195	12047
707.313	11458
707.431	11336
707.549	10541
707.668	11284
707.786	11865
707.904	11137
708.022	11385
708.140	10424
708.258	10566
708.376	11874
708.494	10686
708.612	12845
708.730	15649
708.848	15045
708.966	13730
709.084	13483
709.202	13361
709.320	13579
709.438	13124
709.556	13683
709.674	12983
709.791	13345
709.909	12201
710.027	13010
710.145	11924
710.263	13111
710.380	11729
710.498	12521
710.616	12535
710.733	12602
710.851	12445
710.969	12476
711.086	11832
711.204	11882
711.322	11029
711.439	12766
711.557	13269
711.674	12965
711.792	11138
711.909	11628
712.027	11065
712.144	11751
712.262	11636
712.379	13216
712.497	16136
712.614	15994
712.732	14075
712.849	13831
712.966	14615
713.084	18380
713.201	14208
713.318	14372
713.436	14490
713.553	13974
713.670	15092
713.787	16334
713.905	15063
714.022	14403
714.139	14183
714.256	17149
714.373	22086
714.490	39316
714.608	101752
714.725	424758
714.842	320396
714.959	28004
715.076	17221
715.193	15943
715.310	14449
715.427	14056
715.544	12727
715.661	13230
715.778	12693
715.895	13794
716.011	13598
716.128	12685
716.245	12712
716.362	13891
716.479	13415
716.596	12324
716.713	11541
716.829	12127
716.946	12053
717.063	11122
717.180	10655
717.296	10209
717.413	10682
717.530	11611
717.646	10623
717.763	10828
717.880	9805
717.996	9792
718.113	10194
718.229	10400
718.346	9205
718.462	10756
718.579	14120
718.695	20655
718.812	15262
718.928	14260
719.045	10580
719.161	10561
719.277	10520
719.394	10535
719.510	10845
719.626	11414
719.743	14450
719.859	19199
719.975	34746
720.092	134099
720.208	231784
720.324	27437
720.440	12650
720.557	12902
720.673	17952
720.789	22114
720.905	39751
721.021	14661
721.137	10620
721.253	10161
721.369	10028
721.486	11957
721.602	14703
721.718	10116
721.834	8480
721.950	9284
722.066	9642
722.181	8767
722.297	8979
722.413	9173
722.529	7994
722.645	9368
722.761	8189
722.877	8112
722.993	7887
723.108	9939
723.224	9183
723.340	8651
723.456	8485
723.571	8436
723.687	7098
723.803	8857
723.918	7433
724.034	9348
724.150	8436
724.265	9095
724.381	16377
724.497	19448
724.612	7010
724.728	6966
724.843	7283
724.959	8542
725.074	16797
725.190	17634
725.305	9080
725.421	8595
725.536	7071
725.651	7525
725.767	7451
725.882	8029
725.997	7240
726.113	7788
726.228	6447
726.343	6737
726.459	7241
726.574	7873
726.689	6489
726.804	7955
726.920	7207
727.035	7423
727.150	8479
727.265	6582
727.380	7201
727.495	7377
727.610	5501
727.725	7114
727.841	6940
727.956	7111
728.071	8089
728.186	6448
728.301	5834
728.416	7477
728.531	6349
728.645	6572
728.760	6644
728.875	6986
728.990	6801
729.105	7181
729.220	6390
729.335	6747
729.449	6726
729.564	5991
729.679	6972
729.794	6978
729.908	6842
730.023	7331
730.138	5777
730.253	6754
730.367	6023
730.482	6059
730.596	6603
730.711	6997
730.826	7523
730.940	6717
731.055	7985
731.169	7101
731.284	6623
731.398	6548
731.513	6741
731.627	7430
731.742	8654
731.856	8865
731.970	7581
732.085	9960
732.199	12421
732.313	21513
732.428	57565
732.542	156052
732.656	70417
732.771	15045
732.885	9970
732.999	9663
733.113	9909
733.227	9893
733.342	7868
733.456	8651
733.570	7764
733.684	7855
733.798	9336
733.912	8136
734.026	7684
734.140	7320
734.254	8100
734.368	11765
734.482	13635
734.596	7463
734.710	6890
734.824	6927
734.938	7621
735.052	7704
735.166	8184
735.280	7685
735.393	6528
735.507	7085
735.621	8372
735.735	12720
735.849	7879
735.962	7101
736.076	7975
736.190	7942
736.303	8225
736.417	11149
736.531	6413
736.644	6567
736.758	6220
736.872	6498
736.985	5959
737.099	6950
737.212	6597
737.326	6587
737.439	5742
737.553	6745
737.666	6475
737.780	6339
737.893	5806
738.007	6370
738.120	5529
738.233	6287
738.347	5672
738.460	5906
738.573	6779
738.687	6492
738.800	6408
738.913	8677
739.026	6721
739.140	6357
739.253	6209
739.366	5682
739.479	5298
739.592	6127
739.705	6157
739.818	6857
739.932	4964
740.045	5151
740.158	5348
740.271	5946
740.384	4811
740.497	6504
740.610	5658
740.723	6284
740.836	5698
740.949	7310
741.062	8352
741.174	6921
741.287	6310
741.400	5921
741.513	5933
741.626	7064
741.739	5152
741.851	5804
741.964	5711
742.077	4557
742.189	5239
742.302	6706
742.415	5063
742.527	5509
742.640	5241
742.753	4871
742.865	6020
742.978	5429
743.090	5254
743.203	4992
743.316	4386
743.428	4703
743.541	4656
743.653	4624
743.766	4556
743.878	5422
743.990	5854
744.103	6119
744.215	3901
744.327	5566
744.440	6035
744.552	9162
744.664	5103
744.777	4832
744.889	4740
745.001	4995
745.113	4815
745.226	5047
745.338	4907
745.450	5723
745.562	4663
745.674	4351
745.786	4755
745.898	4710
746.010	3902
746.122	4071
746.234	4143
746.347	5503
746.459	4826
746.570	5174
746.682	5049
746.794	5387
746.906	4084
747.018	4724
747.130	4121
747.242	4198
747.354	3928
747.466	5723
747.577	3369
747.689	5256
747.801	4728
747.913	4573
748.024	3324
748.136	4287
748.248	4648
748.359	3410
748.471	4333
748.583	3395
748.694	3249
748.806	4626
748.918	5147
749.029	4482
749.141	4666
749.252	5228
749.364	5130
749.475	9288
749.587	5726
749.698	4329
749.809	3758
749.921	3467
750.032	3355
750.144	3551
750.255	2943
750.366	3693
750.478	3754
750.589	3810
750.700	4179
750.811	4413
750.923	5758
751.034	11556
751.145	9157
751.256	4938
751.367	4188
751.479	3974
751.590	3532
751.701	3920
751.812	3188
751.923	3927
752.034	3396
752.145	3858
752.256	4038
752.367	3548
752.478	3142
752.589	3946
752.700	2744
752.811	4307
752.922	3175
753.032	3380
753.143	3530
753.254	2892
753.365	4142
753.476	3778
753.586	2634
753.697	3049
753.808	3294
753.919	3890
754.029	2508
754.140	3901
754.251	3138
754.361	3864
754.472	3846
754.582	2829
754.693	3451
754.804	3075
754.914	2278
755.025	3381
755.135	2574
755.246	3778
755.356	2823
755.466	4005
755.577	3983
755.687	3144
755.798	3190
755.908	2403
756.018	2982
756.129	3244
756.239	3684
756.349	3533
756.460	3449
756.570	3968
756.680	3472
756.790	3561
756.900	3719
757.011	3304
757.121	2071
757.231	3768
757.341	2131
757.451	3717
757.561	1917
757.671	3163
757.781	3022
757.891	3378
758.001	2673
758.111	4112
758.221	3587
758.331	4463
758.441	3954
758.551	5213
758.661	4127
758.771	4270
758.880	3433
758.990	3851
759.100	3343
759.210	3349
759.320	3571
759.429	3695
759.539	3092
759.649	3380
759.758	3339
759.868	5053
759.978	3705
760.087	6077
760.197	4071
760.307	4422
760.416	3762
760.526	3745
760.635	3379
760.745	4247
760.854	4060
760.964	6539
761.073	4982
761.182	4851
761.292	3952
761.401	4971
761.511	3325
761.620	3421
761.729	3442
761.839	3629
761.948	3405
762.057	3052
762.166	3734
762.276	2220
762.385	3525
762.494	3067
762.603	3296
762.712	3630
762.822	2885
762.931	3925
763.040	2565
763.149	2412
763.258	2755
763.367	3627
763.476	3471
763.585	4124
763.694	4111
763.803	2948
763.912	3988
764.021	4246
764.130	3197
764.238	4281
764.347	2890
764.456	3807
764.565	4215
764.674	3716
764.783	2871
764.891	3546
765.000	4170
765.109	3796
765.217	4038
765.326	5602
765.435	4983
765.543	6266
765.652	4980
765.761	6507
765.869	9421
765.978	15402
766.086	27928
766.195	61606
766.303	182960
766.412	502006
766.520	276421
766.629	48190
766.737	19856
766.846	13141
766.954	10260
767.062	8051
767.171	6574
767.279	5982
767.387	5028
767.496	4960
767.604	4308
767.712	4611
767.820	4175
767.928	3607
768.037	3620
768.145	4877
768.253	4255
768.361	3857
768.469	4419
768.577	3854
768.685	4736
768.793	4701
768.901	3165
769.009	4331
769.117	4784
769.225	5361
769.333	8980
769.441	12292
769.549	25853
769.657	64837
769.765	230841
769.873	352823
769.981	66078
770.088	14764
770.196	8597
770.304	8256
770.412	6691
770.519	6053
770.627	4852
770.735	5094
770.842	3954
770.950	5436
771.058	4421
771.165	4593
771.273	3861
771.380	5260
771.488	5543
771.595	5981
771.703	4497
771.810	5139
771.918	4938
772.025	5000
772.133	5331
772.240	5983
772.348	6189
772.455	5776
772.562	5006
772.670	4737
772.777	5405
772.884	4589
772.991	4886
773.099	4958
773.206	4375
773.313	5613
773.420	4919
773.528	5022
773.635	4317
773.742	4640
773.849	4718
773.956	4413
774.063	3977
774.170	4623
774.277	4853
774.384	4400
774.491	3652
774.598	5374
774.705	4183
774.812	5710
774.919	5709
775.026	4905
775.133	3907
775.239	4528
775.346	4249
775.453	3994
775.560	4522
775.667	3910
775.773	3779
775.880	5508
775.987	4100
776.093	5398
776.200	3492
776.307	4153
776.413	4715
776.520	3864
776.627	3744
776.733	4772
776.840	3001
776.946	5680
777.053	3719
777.159	5409
777.266	3301
777.372	5273
777.478	4909
777.585	4386
777.691	3854
777.798	4606
777.904	4070
778.010	6548
778.117	5107
778.223	3323
778.329	2944
778.435	3976
778.542	4700
778.648	3578
778.754	3031
778.860	4875
778.966	3985
779.072	3572
779.178	3575
779.284	3671
779.391	3255
779.497	3019
779.603	5219
779.708	3233
779.815	5282
779.920	11164
780.026	9749
780.132	3706
780.238	2736
780.344	3395
780.450	3771
780.556	3106
780.661	3914
780.767	3846
780.873	3235
780.979	3115
781.085	2693
781.190	3344
781.296	2927
781.402	2928
781.507	3480
781.613	3475
781.719	2821
781.824	3301
781.930	3416
782.035	3503
782.141	3073
782.246	3436
782.352	3270
782.457	2813
782.563	2848
782.668	2755
782.773	3463
782.879	2711
782.984	3997
783.090	4350
783.195	5059
783.300	4256
783.405	3033
783.511	2668
783.616	3116
783.721	3460
783.826	2756
783.932	3351
784.037	3007
784.142	2880
784.247	1939
784.352	2693
784.457	2426
784.562	3679
784.667	2503
784.772	2759
784.877	2492
784.982	3480
785.087	2716
785.192	3756
785.297	2102
785.402	2876
785.507	2128
785.611	3026
785.716	2923
785.821	2386
785.926	1784
786.031	2644
786.135	2332
786.240	2728
786.345	1345
786.450	2855
786.554	2606
786.659	1929
786.763	774
786.868	2829
786.973	2990
787.077	2518
787.182	2015
787.286	2544
787.391	2033
787.495	1689
787.600	1506
787.704	1533
787.809	2360
787.913	2175
788.017	1821
788.122	2623
788.226	1832
788.330	1960
788.435	2260
788.539	2115
788.643	1803
788.747	1862
788.852	1690
788.956	2133
789.060	2701
789.164	2616
789.268	1111
789.372	2739
789.476	1790
789.580	1383
789.684	1819
789.788	2663
789.892	2226
789.996	1943
790.100	1875
790.204	2690
790.308	1860
790.412	1498
790.516	1433
790.620	1554
790.724	2413
790.828	2910
790.931	1069
791.035	2453
791.139	2043
791.242	1383
791.346	3049
791.450	2415
791.554	1446
791.657	1125
791.761	2280
791.864	2891
791.968	1956
792.072	2104
792.175	1623
792.279	2455
792.382	1844
792.486	2259
792.589	727
792.693	1850
792.796	485
792.899	2001
793.003	1787
793.106	1238
793.209	1643
793.313	3839
793.416	545
793.519	3073
793.623	4232
793.726	4511
793.829	2511
793.932	1961
794.035	877
794.138	2568
794.242	2093
794.345	2033
794.448	2436
794.551	3366
794.654	6362
794.757	4355
794.860	2190
794.963	2285
795.066	954
795.169	1945
795.272	435
795.375	2472
795.477	536
795.580	2013
795.683	-115
795.786	1509
795.889	451
795.991	2085
796.094	2390
796.197	878
796.300	2546
796.402	1282
796.505	994
796.608	781
796.710	1760
796.813	1688
796.915	853
797.018	1870
797.120	1630
797.223	1020
797.326	2943
797.428	1218
797.530	382
797.633	1647
797.735	3029
797.838	3207
797.940	3383
798.042	1392
798.145	758
798.247	1469
798.349	-59
798.452	1866
798.554	931
798.656	81
798.758	2112
798.860	1778
798.962	1298
799.065	1893
799.167	158
799.269	2527
799.371	2036
799.473	2034
799.575	2137
799.677	1781
799.779	3040
799.881	2711
799.983	1455
800.085	2086
800.187	1208
800.289	544
800.390	121
800.492	1795
800.594	1853
800.696	611
800.798	530
800.899	1525
801.001	636
801.103	1102
801.205	383
801.306	1800
801.408	320
801.509	772
801.611	1013
801.713	2029
801.814	898
801.916	1104
802.017	1516
802.119	517
802.220	872
802.322	107
802.423	3521
802.525	46
802.626	691
802.727	1306
802.829	879
802.930	-279
803.031	1491
803.133	981
803.234	665
803.335	1347
803.436	-298
803.538	1019
803.639	-638
803.740	1672
803.841	709
803.942	1330
804.043	1112
804.144	624
804.245	-57
804.346	846
804.447	644
804.548	2250
804.649	2640
804.750	573
804.851	1250
804.952	700
805.053	-111
805.154	643
805.255	881
805.355	1303
805.456	526
805.557	1013
805.658	-643
805.758	1311
805.859	439
805.960	873
806.061	832
806.161	721
806.262	1040
806.362	562
806.463	1109
806.564	1499
806.664	1174
806.765	1470
806.865	1280
806.966	442
807.066	38
807.166	1385
807.267	368
807.367	738
807.468	825
807.568	-453
807.668	377
807.769	1427
807.869	-468
807.969	-86
808.069	652
808.170	763
808.270	499
808.370	1423
808.470	1043
808.570	895
808.670	540
808.770	430
808.870	-264
808.970	1238
809.070	-135
809.170	579
809.271	1136
809.370	360
809.470	650
809.570	1153
809.670	-124
809.770	334
809.870	211
809.970	905
810.070	809
810.169	884
810.269	-1159
810.369	1924
810.469	261
810.568	540
810.668	834
810.768	777
810.867	937
810.967	62
811.066	161
811.166	-15
811.265	903
811.365	-236
811.464	264
811.564	374
811.663	377
811.763	-134
811.862	918
811.962	1975
812.061	1364
812.160	72
812.260	1441
812.359	1490
812.458	3214
812.557	9428
812.657	9173
812.756	3478
812.855	516
812.954	921
813.053	771
813.153	479
813.252	-638
813.351	1129
813.450	909
813.549	84
813.648	829
813.747	478
813.846	1363
813.945	727
814.044	692
814.143	993
814.242	540
814.341	1033
814.439	1126
814.538	813
814.637	410
814.736	1038
814.835	607
814.933	555
815.032	824
815.131	2025
815.229	2681
815.328	3012
815.427	1757
815.525	2385
815.624	3062
815.722	2517
815.821	1732
815.919	2278
816.018	2139
816.116	2603
816.215	1594
816.313	2807
816.412	3639
816.510	3534
816.609	4543
816.707	3094
816.805	2627
816.904	3317
817.002	4132
817.100	5358
817.198	4406
817.296	4141
817.395	5540
817.493	6439
817.591	6330
817.689	9643
817.787	12268
817.885	21459
817.983	37389
818.081	82927
818.179	195518
818.277	396494
818.375	259212
818.473	78195
818.571	33822
818.669	23835
818.767	20950
818.865	21228
818.963	26091
819.061	40667
819.158	72188
819.256	150820
819.354	337021
819.452	543594
819.549	301124
819.647	102526
819.745	44159
819.842	29544
819.940	18829
820.038	13976
820.135	11330
820.233	10430
820.330	6787
820.428	7086
820.525	6625
820.623	5374
820.720	4156
820.818	5004
820.915	4129
821.012	4861
821.110	1752
821.207	4526
821.304	1672
821.402	3510
821.499	3206
821.596	3699
821.693	2218
821.791	3118
821.888	4245
821.985	6113
822.082	3137
822.179	3726
822.276	2170
822.373	2274
822.470	1751
822.567	2353
822.664	725
822.761	2792
822.858	1020
822.955	694
823.052	1273
823.149	2166
823.246	1892
823.343	1574
823.440	1259
823.536	1745
823.633	684
823.730	1248
823.827	1362
823.923	2009
824.020	2036
824.117	1474
824.213	1007
824.310	2036
824.407	1671
824.503	1452
824.600	871
824.696	466
824.793	1675
824.889	892
824.986	689
825.082	528
825.179	889
825.275	2011
825.371	674
825.468	1484
825.564	691
825.660	1790
825.757	238
825.853	1650
825.949	203
826.045	1142
826.142	32
826.238	1261
826.334	1262
826.430	597
826.526	841
826.622	642
826.718	1301
826.814	1044
826.910	779
827.006	790
827.102	-47
827.198	884
827.294	41
827.390	1275
827.486	494
827.582	788
827.678	-628
827.774	1599
827.869	-728
827.965	2068
828.061	-553
828.157	899
828.252	1068
828.348	11
828.444	846
828.539	506
828.635	664
828.731	1367
828.826	-122
828.922	1030
829.017	-89
829.113	1100
829.208	495
829.304	1036
829.399	1913
829.495	-43
829.590	884
829.685	148
829.781	675
829.876	938
829.971	-66
830.066	-175
830.162	684
830.257	792
830.352	38
830.447	1327
830.543	249
830.638	79
830.733	1341
830.828	274
830.923	994
831.018	1323
831.113	598
831.208	-205
831.303	-283
831.398	222
831.493	-399
831.588	855
831.683	-1366
831.778	848
831.873	400
831.967	1943
832.062	24
832.157	-185
832.252	832
832.346	445
832.441	1395
832.536	2102
832.631	3559
832.725	4024
832.820	230
832.914	952
833.009	21
833.104	791
833.198	1412
833.293	114
833.387	980
833.482	1055
833.576	212
833.670	999
833.765	218
833.859	338
833.954	53
834.048	622
834.142	638
834.237	-310
834.331	1059
834.425	598
834.519	-812
834.613	49
834.708	406
834.802	958
834.896	-226
834.990	-68
835.084	331
835.178	-358
835.272	-146
835.366	-74
835.460	323
835.554	322
835.648	-214
835.742	348
835.836	177
835.930	-809
836.024	-790
836.117	1537
836.211	104
836.305	850
836.399	1103
836.493	-395
836.586	586
836.680	359
836.774	-568
836.867	281
836.961	-711
837.055	127
837.148	-331
837.242	1109
837.335	-734
837.429	142
837.522	-1087
837.616	525
837.709	1644
837.803	826
837.896	703
837.989	76
838.083	960
838.176	2729
838.269	1199
838.363	823
838.456	-48
838.549	522
838.642	1914
838.735	4511
838.829	1459
838.922	242
839.015	-376
839.108	-846
839.201	-590
839.294	279
839.387	201
839.480	-520
839.573	764
839.666	1086
839.759	-818
839.852	-820
839.945	110
840.038	-5
840.131	-678
840.223	199
840.316	1025
840.409	150
840.502	115
840.594	880
840.687	-841
840.780	-558
840.873	-407
840.965	381
841.058	599
841.150	1912
841.243	658
841.336	498
841.428	-1021
841.521	-695
841.613	-209
841.706	-320
841.798	-792
841.890	245
841.983	-884
842.075	880
842.167	-314
842.260	154
842.352	654
842.444	1771
842.537	1590
842.629	4476
842.721	297
842.813	-594
842.905	-1225
842.997	601
843.090	-85
843.182	798
843.274	1899
843.366	5616
843.458	11659
843.550	6984
843.642	949
843.734	348
843.826	-91
843.918	95
844.009	-472
844.101	-267
844.193	-137
844.285	263
844.377	-182
844.469	-54
844.560	-404
844.652	267
844.744	-634
844.835	-27
844.927	5
845.019	357
845.110	-395
845.202	152
845.293	-640
845.385	-354
845.476	137
845.568	454
845.659	-711
845.751	180
845.842	-247
845.934	-51
846.025	-840
846.116	-231
846.208	-72
846.299	-410
846.390	-337
846.482	-120
846.573	979
846.664	320
846.755	1458
846.846	1038
846.937	-2162
847.029	922
847.120	-468
847.211	-468
847.302	-93
847.393	-1296
847.484	645
847.575	-1123
847.666	-575
847.757	-458
847.847	277
847.938	385
848.029	-268
848.120	-371
848.211	-513
848.302	-17
848.392	-1004
848.483	395
848.574	-1887
848.664	-598
848.755	226
848.846	-560
848.936	-1004
849.027	211
849.118	-710
849.208	-413
849.299	617
849.389	1801
849.480	4235
849.570	10105
849.661	18775
849.751	31416
849.841	8576
849.932	745
850.022	-540
850.112	587
850.203	-958
850.293	-528
850.383	-611
850.474	-401
850.564	-258
850.654	-289
850.744	-529
850.834	70
850.924	-550
851.014	-454
851.104	-326
851.194	122
851.284	-244
851.374	-128
851.464	-470
851.554	-373
851.644	-368
851.734	806
851.824	-657
851.914	283
852.004	-56
852.094	-1196
852.183	-853
852.273	365
852.363	134
852.452	366
852.542	-432
852.632	-393
852.721	342
852.811	-71
852.901	-289
852.990	-80
853.080	272
853.169	141
853.259	20
853.348	-541
853.438	484
853.527	1758
853.617	2256
853.706	6653
853.795	12802
853.885	30224
853.974	55544
854.063	105724
854.152	152028
854.242	51096
854.331	7604
854.420	2540
854.509	1663
854.598	1936
854.687	828
854.777	1410
854.866	160
854.955	705
855.044	-149
855.133	-407
855.222	-786
855.311	-510
855.400	-365
855.488	183
855.577	-753
855.666	-444
855.755	-344
855.844	-965
855.933	-1391
856.021	-307
856.110	-762
856.199	-921
856.288	-1004
856.376	-571
856.465	-1385
856.554	-505
856.642	-970
856.731	-152
856.819	-886
856.908	-1172
856.996	-889
857.085	-888
857.173	-947
857.262	-708
857.350	-608
857.438	178
857.527	-797
857.615	-340
857.703	-501
857.792	-257
857.880	-63
857.968	-634
858.056	-1537
858.145	391
858.233	-1041
858.321	-632
858.409	350
858.497	-446
858.585	-1033
858.673	-10
858.761	-885
858.849	21
858.937	-1771
859.025	-657
859.113	37
859.201	-642
859.289	-722
859.377	-444
859.465	-489
859.552	-661
859.640	-933
859.728	521
859.816	-1577
859.903	218
859.991	-896
860.079	319
860.166	-1111
860.254	-474
860.342	-173
860.429	-578
860.517	-1217
860.604	275
860.692	-853
860.779	-873
860.867	-749
860.954	-1013
861.042	48
861.129	312
861.216	-781
861.304	-866
861.391	-967
861.478	-450
861.565	-613
861.653	-105
861.740	-1216
861.827	-1060
861.914	-919
862.001	-201
862.089	47
862.176	-155
862.263	-1178
862.350	-212
862.437	-501
862.524	-1189
862.611	-627
862.698	437
862.785	-728
862.871	-221
862.958	-1229
863.045	-562
863.132	-946
863.219	-527
863.306	-933
863.392	-252
863.479	-417
863.566	-1097
863.652	-1104
863.739	-334
863.826	-446
863.912	-386
863.999	-675
864.086	-619
864.172	-427
864.259	-788
864.345	-670
864.432	-200
864.518	-481
864.604	-461
864.691	-439
864.777	387
864.863	698
864.950	853
865.036	25
865.122	1317
865.209	915
865.295	1341
865.381	922
865.467	1785
865.553	2730
865.639	3138
865.726	5881
865.812	14953
865.898	27525
865.984	43364
866.070	83475
866.156	80472
866.242	19149
866.328	4902
866.414	1109
866.499	2008
866.585	1601
866.671	1281
866.757	1965
866.843	1431
866.928	-128
867.014	588
867.100	1136
867.186	247
867.271	1515
867.357	1671
867.442	773
867.528	749
867.614	-290
867.699	62
867.785	1079
867.870	496
867.956	612
868.041	1128
868.127	1581
868.212	738
868.297	87
868.383	704
868.468	1073
868.553	2485
868.639	2075
868.724	6503
868.809	4423
868.894	1306
868.979	63
869.065	1044
869.150	-617
869.235	1062
869.320	-88
869.405	-43
869.490	695
869.575	-142
869.660	540
869.745	645
869.830	246
869.915	-186
870.000	-163
870.085	-195
870.169	985
870.254	-198
870.339	-891
870.424	111
870.509	177
870.593	849
870.678	-318
870.763	456
870.847	498
870.932	-428
871.016	-167
871.101	750
871.186	-142
871.270	-27
871.355	-311
871.439	515
871.523	-437
871.608	781
871.692	-280
871.777	161
871.861	-244
871.945	4
872.030	-41
872.114	146
872.198	-636
872.282	-563
872.367	-575
872.451	503
872.535	137
872.619	-384
872.703	-75
872.787	69
872.871	-1381
872.955	-169
873.039	568
873.123	15
873.207	489
873.291	-116
873.375	-488
873.459	407
873.543	-1027
873.627	-177
873.711	-773
873.794	713
873.878	-516
873.962	-357
874.045	-56
874.129	-739
874.137	-697
874.213	-288
874.245	-456
874.296	-723
874.352	-615
874.380	-567
874.460	-566
874.464	-566
874.547	-500
874.568	-482
874.631	-464
874.676	-226
874.714	1
874.784	135
874.798	153
874.881	18
874.892	-28
874.965	-313
874.999	-92
875.048	180
875.107	-357
875.131	-552
875.215	-586
875.215	-586
875.298	-620
875.323	-584
875.381	-478
875.430	-259
875.465	-78
875.538	-253
875.548	-283
875.631	-563
875.646	-659
875.714	-1175
875.753	-639
875.798	95
875.861	203
875.881	171
875.964	612
875.968	566
876.047	-31
876.076	64
876.130	192
876.183	173
876.213	132
876.291	1089
876.296	1153
876.379	-326
876.398	-382
876.462	-461
876.506	-354
876.545	-296
876.613	-63
876.628	3
876.711	-217
876.721	-106
876.794	572
876.828	284
876.877	-84
876.935	180
876.960	314
877.043	-329
877.043	-328
877.125	158
877.150	423
877.208	711
877.258	149
877.291	-113
877.365	-253
877.374	-283
877.456	580
877.472	429
877.539	-58
877.579	428
877.622	879
877.687	97
877.704	-142
877.787	650
877.794	579
877.869	-22
877.901	-81
877.952	-171
878.008	180
878.034	299
878.115	350
878.117	360
878.199	9
878.222	113
878.282	19
878.329	347
878.364	707
878.437	406
878.447	337
878.529	-768
878.544	-576
878.611	582
878.651	582
878.694	453
878.758	159
878.776	143
878.858	575
878.865	609
878.941	461
878.972	-15
879.023	-429
879.078	48
879.105	302
879.185	147
879.187	138
879.269	548
879.292	424
879.351	160
879.399	73
879.433	105
879.506	535
879.516	565
879.598	401
879.613	320
879.680	375
879.720	847
879.762	1028
879.827	89
879.844	-100
879.926	396
879.933	393
880.007	119
880.040	-59
880.089	141
880.147	1125
880.171	1487
880.253	3430
880.254	3432
880.335	3370
880.360	3561
880.417	4950
880.467	8303
880.499	10533
880.574	12117
880.580	11871
880.662	3590
880.680	2577
880.744	1045
880.787	658
880.825	313
880.893	272
880.907	392
880.989	252
881.000	410
881.070	949
881.106	486
881.152	151
881.213	547
881.233	591
881.315	60
881.319	55
881.396	554
881.426	729
881.478	647
881.532	475
881.559	566
881.639	117
881.641	93
881.722	94
881.745	0
881.803	423
881.852	571
881.885	539
881.958	474
881.966	473
882.047	624
882.064	647
882.129	622
882.171	631
882.210	998
882.277	1848
882.291	1859
882.372	1299
882.383	1189
882.454	691
882.489	694
882.535	732
882.596	398
882.616	271
882.697	139
882.702	122
882.778	233
882.808	245
882.859	290
882.914	559
882.940	595
883.020	342
883.021	347
883.102	865
883.127	891
883.183	542
883.233	362
883.264	390
883.339	428
883.345	417
883.426	19
883.445	21
883.507	566
883.551	936
883.587	795
883.657	21
883.668	91
883.749	775
883.763	904
883.830	375
883.869	145
883.910	326
883.975	660
883.991	665
884.072	518
884.081	453
884.152	589
884.187	813
884.233	464
884.292	73
884.314	215
884.394	459
884.398	483
884.475	768
884.504	728
884.555	701
884.610	717
884.636	541
884.716	21
884.716	29
884.797	821
884.821	813
884.877	681
884.927	755
884.958	824
885.033	994
885.038	979
885.118	378
885.139	292
885.199	449
885.244	556
885.279	474
885.350	274
885.359	360
885.439	1100
885.456	1191
885.520	798
885.561	625
885.600	645
885.667	734
885.680	788
885.760	954
885.773	1007
885.840	1201
885.878	1248
885.920	1073
885.984	642
886.000	655
886.080	934
886.089	932
886.160	940
886.195	992
886.240	1152
886.300	1347
886.320	1155
886.400	487
886.406	426
886.480	887
886.511	1206
886.560	1456
886.616	1334
886.640	1225
886.720	1088
886.722	1080
886.800	667
886.827	504
886.879	566
886.932	499
886.959	744
887.038	1596
887.039	1600
887.119	1259
887.143	1183
887.198	1187
887.248	1066
887.278	1040
887.354	1129
887.358	1112
887.437	546
887.459	386
887.517	820
887.564	1162
887.596	987
887.669	545
887.676	559
887.755	679
887.774	696
887.835	789
887.880	975
887.914	1104
887.985	1193
887.994	1188
888.073	1041
888.090	1017
888.153	1276
888.195	1429
888.232	1485
888.300	1608
888.311	1528
888.391	815
888.405	693
888.470	601
888.510	527
888.549	992
888.615	1827
888.628	1742
888.708	1051
888.720	950
888.787	1425
888.825	1674
888.866	928
888.930	-259
888.945	7
889.024	1420
889.035	1607
889.103	1153
889.140	888
889.182	1220
889.245	1735
889.261	1563
889.340	674
889.349	572
889.419	981
889.454	1181
889.498	948
889.559	632
889.577	934
889.656	2233
889.664	2356
889.735	1108
889.768	505
889.814	1004
889.873	1661
889.978	846
890.083	2195
890.187	1218
890.292	1374
890.397	471
890.501	1813
890.606	1199
890.710	1697
890.815	1335
890.919	1732
891.024	919
891.128	1397
891.233	1089
891.337	1862
891.442	890
891.546	1566
891.650	702
891.755	2119
891.859	1814
891.963	1011
892.068	874
892.172	1490
892.276	563
892.380	1000
892.484	797
892.589	2040
892.693	926
892.797	1213
892.901	1085
893.005	838
893.109	770
893.213	1277
893.317	1720
893.421	1742
893.525	-239
893.629	1113
893.733	991
893.837	1059
893.941	494
894.045	2021
894.148	396
894.252	839
894.356	1301
894.460	2322
894.564	746
894.667	1116
894.771	535
894.875	225
894.978	1594
895.082	1628
895.186	679
895.289	1922
895.393	1469
895.496	1896
895.600	630
895.703	764
895.807	668
895.910	1269
896.014	1077
896.117	602
896.221	953
896.324	922
896.427	585
896.531	1239
896.634	756
896.737	1364
896.840	1023
896.944	1549
897.047	1047
897.150	1165
897.253	-36
897.356	863
897.460	442
897.563	1226
897.666	921
897.769	1341
897.872	940
897.975	851
898.078	504
898.181	1177
898.284	359
898.387	1112
898.490	864
898.593	1763
898.695	525
898.798	1736
898.901	492
899.004	1333
899.107	148
899.209	1147
899.312	635
899.415	626
899.518	523
899.620	516
899.723	1003
899.826	2476
899.928	1360
900.031	1269
900.133	720
900.236	1040
900.338	239
900.441	721
900.543	-54
900.646	864
900.748	173
900.851	2062
900.953	521
901.055	1730
901.158	237
901.260	862
901.362	1126
901.465	355
901.567	1184
901.669	1384
901.771	572
901.873	1309
901.976	289
902.078	1457
902.180	838
902.282	734
902.384	-328
902.486	1198
902.588	406
902.690	575
902.792	1116
902.894	1093
902.996	-136
903.098	820
903.200	847
903.302	707
903.404	707
903.505	657
903.607	1178
903.709	1410
903.811	560
903.913	1040
904.014	-25
904.116	989
904.218	-539
904.319	943
904.421	643
904.523	1009
904.624	-145
904.726	1062
904.827	-56
904.929	877
905.030	134
905.132	955
905.233	129
905.335	534
905.436	-46
905.537	709
905.639	1033
905.740	484
905.841	563
905.943	471
906.044	365
906.145	624
906.247	33
906.348	841
906.449	-1
906.550	888
906.651	1030
906.752	922
906.854	586
906.955	571
907.056	203
907.157	522
907.258	1330
907.359	767
907.460	968
907.561	-304
907.662	689
907.762	1200
907.863	429
907.964	1298
908.065	368
908.166	832
908.267	-55
908.367	983
908.468	180
908.569	642
908.670	885
908.770	1197
908.871	1339
908.971	1513
909.072	910
909.173	635
909.273	447
909.374	798
909.474	485
909.575	1042
909.675	212
909.776	1890
909.876	472
909.977	964
910.077	929
910.177	893
910.278	-368
910.378	961
910.478	205
910.579	521
910.679	272
910.779	553
910.879	940
910.980	1195
911.080	-93
911.180	274
911.280	35
911.380	816
911.480	-220
911.580	182
911.680	236
911.780	293
911.880	-92
911.980	1181
912.080	-48
912.180	1140
912.280	335
912.380	851
912.480	696
912.580	840
912.679	-62
912.779	1291
912.879	-155
912.979	808
913.078	371
913.178	365
913.278	-324
913.377	1072
913.477	474
913.577	-249
913.676	966
913.776	1417
913.875	896
913.975	1575
914.074	-138
914.174	439
914.273	-245
914.373	820
914.472	-426
914.572	209
914.671	508
914.770	667
914.870	391
914.969	885
915.068	613
915.167	1302
915.267	544
915.366	1216
915.465	-196
915.564	779
915.663	547
915.763	837
915.862	186
915.961	877
916.060	-201
916.159	145
916.258	581
916.357	1125
916.456	864
916.555	1788
916.654	39
916.752	848
916.851	412
916.950	247
917.049	408
917.148	619
917.247	430
917.345	1157
917.444	21
917.543	1303
917.642	468
917.740	1163
917.839	441
917.937	1905
918.036	747
918.135	1650
918.233	290
918.332	1059
918.430	234
918.529	720
918.627	-169
918.726	627
918.824	64
918.923	728
919.021	2
919.119	136
919.218	40
919.316	491
919.414	841
919.512	1775
919.611	224
919.709	443
919.807	73
919.905	1514
920.003	-52
920.102	891
920.200	716
920.298	435
920.396	889
920.494	778
920.592	-480
920.690	1604
920.788	442
920.886	611
920.984	1130
921.082	217
921.180	167
921.277	776
921.375	688
921.473	659
921.571	753
921.669	1425
921.766	315
921.864	1490
921.962	566
922.060	1072
922.157	985
922.255	1516
922.352	906
922.450	1765
922.548	1204
922.645	1852
922.743	1329
922.840	2643
922.938	2716
923.035	3287
923.133	2672
923.230	2421
923.327	3184
923.425	3048
923.522	3561
923.619	3594
923.717	1895
923.814	2771
923.911	2258
924.008	2863
924.106	2399
924.203	2121
924.300	2273
924.397	2630
924.494	2526
924.591	3368
924.688	1776
924.786	2320
924.883	2426
924.979	2517
925.077	1868
925.173	2892
925.270	2089
925.367	2405
925.464	2999
925.561	3158
925.658	2300
925.755	2418
925.852	2737
925.948	2736
926.045	3128
926.142	2028
926.239	2270
926.335	2611
926.432	2486
926.529	3167
926.625	2743
926.722	2243
926.818	2882
926.915	1732
927.011	1218
927.108	2083
927.204	2600
927.301	2690
927.397	2140
927.494	2401
927.590	1915
927.687	1823
927.783	2059
927.879	2497
927.976	1303
928.072	2364
928.168	2732
928.264	1955
928.361	1264
928.457	2465
928.553	2344
928.649	2071
928.745	1918
928.841	1731
928.937	2011
929.033	1655
929.129	1983
929.225	1357
929.321	1986
929.417	1290
929.513	1779
929.609	1627
929.705	1689
929.801	2539
929.897	288
929.993	1930
930.089	1878
930.184	1509
930.280	1619
930.376	2102
930.471	834
930.567	2011
930.663	1213
930.758	1839
930.854	903
930.950	1243
931.045	928
931.141	1395
931.236	1434
931.332	1204
931.427	1383
931.523	2049
931.618	738
931.714	1385
931.809	1133
931.905	2192
932.000	935
932.095	1883
932.191	1327
932.286	2203
932.381	677
932.476	1520
932.572	1511
932.667	1674
932.762	785
932.857	2735
932.952	950
933.047	1888
933.142	341
933.237	1566
933.332	1781
933.427	2310
933.522	626
933.617	937
933.712	1734
933.807	1828
933.902	1086
933.997	1416
934.092	526
934.187	1298
934.282	1245
934.376	1516
934.471	1170
934.566	963
934.661	334
934.755	1461
934.850	967
934.945	876
935.039	892
935.134	937
935.228	560
935.323	1732
935.417	219
935.512	1155
935.606	24
935.701	1902
935.795	772
935.890	1408
935.984	729
936.079	666
936.173	1600
936.267	1410
936.362	279
936.456	1254
936.550	898
936.644	668
936.738	782
936.833	827
936.927	-458
937.021	1026
937.115	1117
937.209	116
937.303	1380
937.397	374
937.491	928
937.585	2253
937.679	790
937.773	819
937.867	319
937.961	844
938.055	1203
938.149	1380
938.243	888
938.337	1153
938.430	245
938.524	1128
938.618	152
938.712	875
938.805	1184
938.899	821
938.993	1586
939.086	356
939.180	-18
939.274	782
939.367	706
939.461	1665
939.554	192
939.648	721
939.741	496
939.835	1167
939.928	1342
940.022	1182
940.115	-358
940.208	1357
940.302	1450
940.395	940
940.488	187
940.582	1036
940.675	-741
940.768	780
940.861	1438
940.954	1175
941.048	45
941.141	1950
941.234	-117
941.327	1300
941.420	1356
941.513	1249
941.606	-220
941.699	1601
941.792	141
941.885	619
941.978	763
942.071	724
942.164	-185
942.257	715
942.349	668
942.442	1162
942.535	-794
942.628	1644
942.721	-319
942.813	-209
942.906	1316
942.999	1134
943.091	165
943.184	706
943.277	-338
943.369	725
943.462	930
943.554	1328
943.647	-456
943.739	1061
943.832	-160
943.924	647
944.017	900
944.109	299
944.201	890
944.294	766
944.386	684
944.478	421
944.571	509
944.663	300
944.755	133
944.847	371
944.940	478
945.032	-257
945.124	-378
945.216	478
945.308	388
945.400	830
945.492	852
945.584	650
945.676	171
945.768	1169
945.860	974
945.952	117
946.044	981
946.136	743
946.228	327
946.320	352
946.412	137
946.503	199
946.595	221
946.687	414
946.779	-488
946.870	250
946.962	52
947.054	550
947.145	3
947.237	522
947.329	-671
947.420	366
947.512	-364
947.603	734
947.695	327
947.786	185
947.878	606
947.969	628
948.061	-426
948.152	-65
948.243	-620
948.335	1037
948.426	-510
948.517	276
948.609	517
948.700	195
948.791	-1071
948.882	613
948.973	404
949.065	394
949.156	487
949.247	-274
949.338	735
949.429	607
949.520	188
949.611	43
949.702	481
949.793	-57
949.884	-312
949.975	557
950.066	-1085
950.157	299
950.247	-918
950.338	389
950.429	-365
950.520	202
950.611	-744
950.701	-401
950.792	907
950.883	636
950.973	441
951.064	619
951.155	-352
951.245	1138
951.336	433
951.427	394
951.517	824
951.608	650
951.698	-386
951.788	101
951.879	-901
951.969	-10
952.060	-384
952.150	465
952.240	213
952.331	-734
952.421	1140
952.511	232
952.602	289
952.692	-218
952.782	-137
952.872	238
952.962	-428
953.052	202
953.143	-438
953.233	157
953.323	56
953.413	224
953.503	-1044
953.593	811
953.683	-406
953.773	-877
953.863	-113
953.953	362
954.042	379
954.132	254
954.222	-107
954.312	586
954.402	-519
954.492	611
954.581	1043
954.671	244
954.761	-661
954.850	703
954.940	-194
955.030	437
955.119	-2
955.209	-609
955.298	-62
955.388	890
955.477	623
955.567	-743
955.656	256
955.746	173
955.835	-996
955.925	-260
956.014	170
956.103	-285
956.193	559
956.282	61
956.371	-269
956.461	-80
956.550	-223
956.639	309
956.728	-932
956.817	234
956.906	-906
956.995	612
957.085	-271
957.174	687
957.263	-261
957.352	338
957.441	-554
957.530	625
957.619	-374
957.708	426
957.796	-611
957.885	410
957.974	9
958.063	417
958.152	-1111
958.241	297
958.329	-860
958.418	341
958.507	-666
958.596	1368
958.684	-1054
958.773	779
958.861	119
958.950	376
959.039	331
959.127	-633
959.216	223
959.304	25
959.393	-219
959.481	870
959.570	20
959.658	358
959.746	-904
959.835	454
959.923	957
960.011	-72
960.100	-487
960.188	1572
960.276	-811
960.365	150
960.453	-479
960.541	328
960.629	1055
960.717	-695
960.805	-1505
960.893	252
960.981	-1608
961.069	838
961.158	-799
961.245	-114
961.333	-702
961.421	89
961.509	121
961.597	761
961.685	-402
961.773	120
961.861	-699
961.949	322
962.036	-343
962.124	641
962.212	-877
962.299	-163
962.387	-821
962.475	9
962.562	-481
962.650	524
962.738	-351
962.825	-749
962.913	333
963.000	85
963.088	-431
963.175	-354
963.263	-728
963.350	-256
963.438	-319
963.525	455
963.612	21
963.700	1865
963.787	3514
963.874	1894
963.962	-311
964.049	840
964.136	-553
964.223	-1060
964.310	-476
964.398	-454
964.485	-1132
964.572	431
964.659	-248
964.746	450
964.833	-319
964.920	-670
965.007	-972
965.094	-557
965.181	-821
965.268	-337
965.355	183
965.441	569
965.528	-547
965.615	1358
965.702	-349
965.789	-383
965.875	-524
965.962	-550
966.049	-1003
966.136	281
966.222	-510
966.309	245
966.395	-872
966.482	729
966.569	-376
966.655	-96
966.742	-584
966.828	362
966.915	-852
967.001	-412
967.087	-1629
967.174	79
967.260	50
967.347	80
967.433	1362
967.519	3561
967.605	178
967.692	22
967.778	-244
967.864	-189
967.950	-628
968.036	-891
968.123	-500
968.209	-1558
968.295	-257
968.381	907
968.467	-557
968.553	-738
968.639	-135
968.725	-728
968.811	112
968.897	968
968.983	-407
969.069	-397
969.154	-150
969.240	609
969.326	-601
969.412	293
969.497	-1192
969.583	-812
969.669	225
969.755	73
969.840	-1134
969.926	-379
970.012	-15
970.097	1442
970.183	54
970.268	301
970.354	-77
970.439	113
970.525	1496
970.610	-179
970.696	426
970.781	-115
970.866	-893
970.952	473
971.037	-1054
971.122	-858
971.208	-718
971.293	-25
971.378	-1975
971.463	-655
971.549	-286
971.634	-165
971.719	-96
971.804	176
971.889	-36
971.974	58
972.059	-845
972.144	-118
972.229	-513
972.314	-1075
972.399	-149
972.484	-1312
972.569	-445
972.654	-675
972.739	1112
972.824	713
972.908	-1095
972.993	-767
973.078	-691
973.163	59
973.247	235
973.332	-1093
973.417	1131
973.501	-1254
973.586	-929
973.671	-180
973.755	-653
973.840	-98
973.924	-517
974.009	-56
974.093	-305
974.178	1090
974.262	-39
974.346	261
974.431	-530
974.515	-482
974.600	-1076
974.684	-20
974.768	-1032
974.852	1255
974.937	-2392
975.021	454
975.105	-1558
975.189	-44
975.273	-468
975.358	-607
975.442	-1076
975.526	395
975.610	-1291
975.694	-1215
975.778	-295
975.862	-225
975.946	-1665
976.030	1265
976.114	-569
976.198	300
976.281	-734
976.365	493
976.449	-1361
976.533	-484
976.617	-1132
976.700	51
976.784	-1416
976.868	-786
976.951	-791
977.035	-12
977.119	-632
977.202	-843
977.286	-736
977.369	243
977.453	-506
977.536	-419
977.620	-1218
977.703	-214
977.787	-718
977.870	284
977.953	-372
978.037	-1199
978.120	-103
978.203	-606
978.287	75
978.370	56
978.453	-897
978.536	-214
978.620	328
978.703	-220
978.786	-894
978.869	-1084
978.952	-1202
979.035	952
979.118	-76
979.201	-831
979.284	-435
979.367	-919
979.450	-39
979.533	-150
979.616	-1409
979.699	-486
979.782	-394
979.865	-245
979.948	-451
980.030	-280
980.113	-1078
980.196	-853
980.279	479
980.361	-149
980.444	-1192
980.526	-619
980.609	-366
980.692	-12
980.774	-232
980.857	-756
980.939	-472
981.022	-857
981.104	-291
981.187	-487
981.269	168
981.352	-507
981.434	-568
981.516	-1101
981.599	-578
981.681	-254
981.763	-293
981.846	-522
981.928	-1309
982.010	-796
982.092	-935
982.174	-229
982.256	-979
982.339	-580
982.421	-677
982.503	146
982.585	-1617
982.667	-212
982.749	-1472
982.831	-291
982.913	-1413
982.995	193
983.077	-723
983.158	-96
983.240	-899
983.322	-533
983.404	-1003
983.486	-952
983.568	-820
983.649	-498
983.731	-711
983.813	-467
983.894	-667
983.976	-174
984.058	-935
984.139	463
984.221	-1750
984.302	-705
984.384	-1025
984.465	-1199
984.547	-574
984.628	-724
984.710	-849
984.791	-459
984.872	-662
984.954	-809
985.035	-924
985.116	-1314
985.198	-563
985.279	1321
985.360	-803
985.441	-623
985.522	-435
985.604	-423
985.685	-2451
985.766	245
985.847	146
985.928	-392
986.009	-1096
986.090	-390
986.171	-478
986.252	-133
986.333	-383
986.414	-1519
986.495	-940
986.576	-541
986.656	-1328
986.737	-308
986.818	-801
986.899	-814
986.980	-1756
987.060	647
987.141	-939
987.222	-808
987.302	-486
987.383	18
987.464	-940
987.544	56
987.625	-1475
987.705	1043
987.786	-871
987.866	-348
987.947	-1314
988.027	301
988.108	-899
988.188	-145
988.268	-1285
988.349	-874
988.429	-661
988.509	-222
988.589	-1382
988.670	-1334
988.750	686
988.830	-448
988.910	-475
988.990	-96
989.070	-1067
989.151	-555
989.231	-1572
989.311	-242
989.391	-631
989.471	-1019
989.551	-877
989.631	-1195
989.711	-627
989.791	-1086
989.870	-1151
989.950	725
990.030	-1648
990.110	-933
990.190	-288
990.269	-665
990.349	-1244
990.429	367
990.509	-842
990.588	-988
990.668	-1673
990.747	-570
990.827	-1423
990.907	-96
990.986	-948
991.066	-297
991.145	-992
991.225	-83
991.304	-1335
991.383	-984
991.463	-1630
991.542	-53
991.622	-1106
991.701	-926
991.780	-1582
991.859	-396
991.939	-1555
992.018	-865
992.097	-1031
992.176	-579
992.256	-1257
992.335	-1436
992.414	-454
992.493	-822
992.572	-1201
992.651	689
992.730	-980
992.809	-238
992.888	-1336
992.967	-989
993.046	-1050
993.125	-1284
993.203	-1373
993.282	-800
993.361	-850
993.440	174
993.519	-1655
993.597	-490
993.676	-1349
993.755	-263
993.834	-1429
993.912	-1470
993.991	-640
994.069	-1029
994.148	-1103
994.226	-795
994.305	-1867
994.384	-1693
994.462	-882
994.540	-845
994.619	-1245
994.697	-871
994.776	-1254
994.854	-160
994.932	-1582
995.011	-700
995.089	-1304
995.167	-1221
995.245	-1777
995.324	-1010
995.402	-1245
995.480	-1544
995.558	-1355
995.636	-951
995.714	-1635
995.792	30
995.870	-1861
995.948	-1035
996.026	-1240
996.104	-1628
996.182	-617
996.260	-610
996.338	-972
996.416	-1391
996.494	-2047
996.572	71
996.649	-1653
996.727	-1274
996.805	-1408
996.883	-695
996.960	-1555
997.038	-1208
997.116	-1148
997.193	-1465
997.271	-1193
997.348	-666
997.426	-1361
997.504	-1505
997.581	-1284
997.658	-864
997.736	-2764
997.813	-1251
997.891	-640
997.968	-1126
998.046	-1276
998.123	-1092
998.200	-1537
998.277	-1369
998.355	-1552
998.432	-2183
998.509	-1283
998.586	-704
998.663	-1785
998.741	-832
998.818	-2257
998.895	-1930
998.972	-1451
999.049	-1416
999.126	-2492
999.203	-288
999.280	-1604
999.357	-1745
999.434	-1085
999.511	-1119
999.587	-588
999.664	-1650
999.741	-1503
999.818	-674
999.895	-1365
999.971	-191
1000.048	-1582
1000.125	-202
1000.202	-1798
1000.278	-1394
1000.355	-222
1000.431	-1077
1000.508	-1641
1000.584	-1615
1000.661	-1437
1000.738	-1857
1000.814	-1610
1000.890	-323
1000.967	-1508
1001.043	-1243
1001.120	-1991
1001.196	-807
1001.272	-1405
1001.349	-1425
1001.425	-342
1001.501	-720
1001.577	-2377
1001.654	-984
1001.730	-1608
1001.806	-185
1001.882	-1981
1001.958	-1306
1002.034	-2284
1002.110	-1205
1002.186	-2093
1002.262	-1387
1002.338	-2404
1002.414	-512
1002.490	-1159
1002.566	-1824
1002.642	-2513
1002.718	49
1002.794	-2362
1002.870	-1595
1002.945	-1550
1003.021	-688
1003.097	-1953
1003.173	-445
1003.248	-1924
1003.324	-830
1003.400	-1150
1003.475	-972
1003.551	-1437
1003.626	-804
1003.702	-2109
1003.777	-1492
1003.853	-1711
1003.928	-1431
1004.004	-1523
1004.079	-1187
1004.155	-1100
1004.230	-1792
1004.305	-713
1004.381	-1096
1004.456	-1800
1004.531	-1450
1004.607	-1339
1004.682	-1194
1004.757	-1488
1004.832	-1053
1004.907	-2804
1004.982	-1243
1005.057	-2113
1005.133	-1414
1005.208	-1701
1005.283	-1858
1005.358	-1319
1005.433	-1777
1005.508	-1855
1005.583	-2188
1005.657	-1581
1005.732	-1128
1005.807	-2355
1005.882	-1467
1005.957	-1432
1006.032	-792
1006.106	-986
1006.181	-521
1006.256	-1237
1006.331	-1868
1006.405	-2146
1006.480	-402
1006.554	-1928
1006.629	-739
1006.704	-1466
1006.778	-338
1006.853	-1226
1006.927	-1399
1007.002	-2567
1007.076	-860
1007.150	-1541
1007.225	-685
1007.299	-2136
1007.373	-1285
1007.448	-2575
1007.522	-358
1007.596	-2104
1007.671	-1083
1007.745	-1793
1007.819	-2275
1007.893	-1135
1007.967	-1410
1008.041	-2043
1008.115	-39
1008.190	-1970
1008.264	-845
1008.338	-1916
1008.412	-1004
1008.486	-1631
1008.560	-1041
1008.633	-2059
1008.707	-1054
1008.781	-808
1008.855	-1256
1008.929	-1352
1009.003	-954
1009.076	-1118
1009.150	-974
1009.224	-1409
1009.298	-1218
1009.371	-2249
1009.445	-611
1009.519	-1976
1009.592	-2133
1009.666	-1414
1009.739	-1596
1009.813	-2574
1009.886	-244
1009.960	-1677
1010.033	-480
1010.107	-1262
1010.180	-1723
1010.253	-1441
1010.327	-861
1010.400	-1137
1010.473	-1135
1010.547	440
1010.620	-910
1010.693	-1888
1010.766	-1220
1010.840	-1427
1010.913	-618
1010.986	-2173
1011.059	-580
1011.132	-2402
1011.205	-630
1011.278	-2231
1011.351	-684
1011.424	-1093
1011.497	-1780
1011.570	-1357
1011.643	-1506
1011.716	-1734
1011.789	-648
1011.862	-1193
1011.934	-255
1012.007	-2986
1012.080	-1016
1012.153	-1199
1012.225	-875
1012.298	-2121
1012.371	-1356
1012.443	-1877
1012.516	-2024
1012.588	-1621
1012.661	-1071
1012.733	-2744
1012.806	-287
1012.879	-1961
1012.951	-698
1013.023	-1939
1013.096	-997
1013.168	-2263
1013.241	-429
1013.313	-2098
1013.385	-1737
1013.458	-1913
1013.530	-1257
1013.602	-1536
1013.674	-883
1013.746	-1516
1013.819	-2281
1013.891	-739
1013.963	-1705
1014.035	-2076
1014.107	-1093
1014.179	-1421
1014.251	-1432
1014.323	-1596
1014.395	-1424
1014.467	-1534
1014.539	-656
1014.611	-2614
1014.683	-1710
1014.754	-1889
1014.826	-1544
1014.898	-1659
1014.970	-2152
1015.042	-626
1015.113	-1535
1015.185	-1369
1015.257	-1304
1015.328	-1095
1015.400	-1417
1015.471	-1958
1015.543	-1527
1015.615	-1699
1015.686	-514
1015.757	-1638
1015.829	-1158
1015.901	-2003
1015.972	-1993
1016.043	-1940
1016.115	-1292
1016.186	-2304
1016.257	-1686
1016.328	-1367
1016.400	-1382
1016.471	-1959
1016.542	-915
1016.613	-1826
1016.685	-1136
1016.756	-1547
1016.827	-2122
1016.898	-2842
1016.969	-688
1017.040	-1824
1017.111	-1598
1017.182	-1960
1017.253	-1702
1017.324	-1117
1017.395	-1429
1017.466	-1413
1017.537	-1177
1017.608	-1248
1017.678	-1141
1017.749	-2737
1017.820	-962
1017.891	-2439
1017.961	-1602
1018.032	-1615
1018.103	-1610
1018.173	-2108
1018.244	-1473
1018.315	-2062
1018.385	-272
1018.456	-1412
1018.526	-1781
1018.597	-2154
1018.667	-1574
1018.738	-2666
1018.808	-1472
1018.878	-1741
1018.949	-1187
1019.019	-2107
1019.089	-1382
1019.160	-2047
1019.230	-1476
1019.300	-836
1019.371	-1064
1019.441	-2084
1019.511	-1981
1019.581	-1377
1019.651	-1227
1019.721	-1800
1019.791	-1316
1019.861	-2254
1019.931	-2104
1020.001	-1443
1020.071	-1793
1020.141	-1836
1020.211	-1070
1020.281	-1821
1020.351	-1404
1020.421	-2393
1020.491	-1171
1020.560	-2831
1020.630	-793
1020.700	-1864
1020.770	-1331
1020.839	-2182
1020.909	-1377
1020.979	-2032
1021.048	-1011
1021.118	-2367
1021.187	-1739
1021.257	-1961
1021.326	-831
1021.396	-2505
1021.465	-728
1021.535	-1873
1021.604	-1719
1021.674	-1520
1021.743	-1237
1021.812	-2124
1021.882	-1272
1021.951	-1759
1022.020	-1096
1022.089	-611
1022.159	-1748
1022.228	-1397
1022.297	-1536
1022.366	-2573
1022.435	-879
1022.504	-2253
1022.573	-1615
1022.642	-2470
1022.711	-1557
1022.781	-1608
1022.849	-954
1022.918	-2618
1022.987	-683
1023.056	-1386
1023.125	-1748
1023.194	-2186
1023.263	-1138
1023.331	-1309
1023.400	-1708
1023.469	-1730
1023.538	-1060
1023.606	-1715
1023.675	-1305
1023.744	-2315
1023.812	-1911
1023.881	-2099
1023.949	-1270
1024.018	-2035
1024.086	-1932
1024.155	-1753
1024.223	-1406
1024.292	-2347
1024.360	-1260
1024.429	-2537
1024.497	-1871
1024.565	-1658
1024.634	-1062
1024.702	-1065
1024.770	-1296
1024.838	-2187
1024.907	-1438
1024.975	-2958
1025.043	-1533
1025.111	-2123
1025.179	-1489
1025.247	-2687
1025.315	-1660
1025.383	-2588
1025.451	-1635
1025.519	-2462
1025.587	-1315
1025.655	-1979
1025.723	-1401
1025.791	-2169
1025.859	-1721
1025.927	-1959
1025.995	-2270
1026.062	-1644
1026.130	-1951
1026.198	-2330
1026.266	-1628
1026.333	-1407
1026.401	-1179
1026.469	-1260
1026.536	-782
1026.604	-1729
1026.671	-977
1026.739	-3044
1026.806	-1511
1026.874	-1901
1026.941	-2182
1027.009	-2350
1027.076	-2125
1027.144	-1762
1027.211	-2231
1027.278	-2146
1027.345	-1302
1027.413	-2244
1027.480	-1839
1027.547	-1491
1027.614	-1488
1027.682	-2152
1027.749	-1708
1027.816	-1646
1027.883	-873
1027.950	-2774
1028.017	-1343
1028.084	-1694
1028.151	-2083
1028.218	-2184
1028.285	-1956
1028.352	-2166
1028.419	-1282
1028.486	-2257
1028.553	-2618
1028.619	-1678
1028.686	-1771
1028.753	-2079
1028.820	-2196
1028.886	-2115
1028.953	-1345
1029.020	-1509
1029.086	-1868
1029.153	-1883
1029.220	-1557
1029.286	-2176
1029.353	-1371
1029.419	-3542
1029.486	-1525
1029.552	-2159
1029.619	-1777
1029.685	-2103
1029.751	-2074
1029.818	-2225
1029.884	-1364
1029.951	-1121
1030.017	-1126
1030.083	-2018
1030.149	-1374
1030.216	-1877
1030.282	-1940
1030.348	-2616
1030.414	-2036
1030.480	-2221
1030.546	-1703
1030.612	-2508
1030.678	-2158
1030.744	-1328
1030.810	-1774
1030.876	-1223
1030.942	-2027
1031.008	-1912
1031.074	-2141
1031.140	-1942
1031.206	-1561
1031.272	-2212
1031.337	-1287
1031.403	-1057
1031.469	-1495
1031.534	-2608
1031.600	-1505
1031.666	-2739
1031.731	-1464
1031.797	-1638
1031.863	-1493
1031.928	-1687
1031.994	-1851
1032.059	-2962
1032.125	-1763
1032.190	-2995
1032.256	-1640
1032.321	-2205
1032.386	-2031
1032.452	-1982
1032.517	-1826
1032.582	-2551
1032.647	-1765
1032.713	-2675
1032.778	-2251
1032.843	-2656
1032.908	-1911
1032.974	-1679
1033.039	-2024
1033.104	-1040
1033.169	-2088
1033.234	-2107
1033.299	-1314
1033.364	-1831
1033.429	-1755
1033.494	-1387
1033.559	-1032
1033.624	-2390
1033.688	-1314
1033.753	-1978
1033.818	-1786
1033.883	-1644
1033.948	-1593
1034.013	-2428
1034.077	-1061
1034.142	-1081
1034.207	-932
1034.271	-1751
1034.336	186
1034.400	-86
1034.465	-1244
1034.530	-1381
1034.594	-1265
1034.658	-2307
1034.723	-2036
1034.787	-2089
1034.852	-2218
1034.916	-1841
1034.981	-1795
1035.045	-3037
1035.109	-1837
1035.173	-2064
1035.238	-2036
1035.302	-2050
1035.366	-1537
1035.430	-2372
1035.495	-1487
1035.559	-2334
1035.623	-1798
1035.687	-2104
1035.751	-1299
1035.815	-2150
1035.879	-2001
1035.943	-2963
1036.007	-2145
1036.071	-2293
1036.135	-1289
1036.198	-1902
1036.262	-1567
1036.326	-1917
1036.390	-1524
1036.454	-1937
1036.517	-1460
1036.581	-1419
1036.645	-1079
1036.709	-2315
1036.772	-1745
1036.836	-1446
1036.900	-2255
1036.963	-2331
1037.026	-2164
1037.090	-2163
1037.154	-2005
1037.217	-2396
1037.280	-2251
1037.344	-2100
1037.407	-1309
1037.471	-2254
1037.534	-2654
1037.597	-2393
1037.661	-1518
1037.724	-1470
1037.787	-1704
1037.850	-2438
1037.913	-1651
1037.977	-1765
1038.040	-2354
1038.103	-2087
1038.166	-2286
1038.229	-2261
1038.292	-2246
1038.355	-2606
1038.418	-2300
1038.481	-2132
1038.544	-1294
1038.607	-2530
1038.670	-2126
1038.732	-2739
1038.795	-1493
1038.858	-1987
1038.921	-1628
1038.984	-1472
1039.046	-1212
1039.109	-1776
1039.172	-1865
1039.234	-2398
1039.297	-2345
1039.360	-2093
1039.422	-1660
1039.485	-1942
1039.547	-2275
1039.610	-2541
1039.672	-2067
1039.734	-2016
1039.797	-1835
1039.859	-2508
1039.922	-2014
1039.984	-2548
1040.046	-1810
1040.109	-2453
1040.171	-1997
1040.233	-2017
1040.295	-1781
1040.358	-2745
1040.420	-2019
1040.482	-2316
1040.544	-1433
1040.606	-1698
1040.668	-985
1040.730	-1304
1040.792	-1944
1040.854	-2989
1040.916	-1866
1040.978	-3277
1041.040	-717
1041.102	-2045
1041.164	-2314
1041.225	-2785
1041.287	-1548
1041.349	-2501
1041.411	-1772
1041.472	-1425
1041.534	-2425
1041.596	-2139
1041.657	-2534
1041.719	-2694
1041.781	-1644
1041.842	-2459
1041.904	-1746
1041.965	-1893
1042.027	-1923
1042.088	-1943
1042.150	-1438
1042.211	-2044
1042.272	-1602
1042.334	-2689
1042.395	-1930
1042.456	-2285
1042.518	-1965
1042.579	-2466
1042.640	-1735
1042.701	-2489
1042.763	-2061
1042.824	-3081
1042.885	-1950
1042.946	-2681
1043.007	-2789
1043.068	-1665
1043.129	-1797
1043.190	-1791
1043.251	-1418
1043.312	-3577
1043.373	-2296
1043.434	-2829
1043.495	-1927
1043.556	-2683
1043.616	-2297
1043.677	-2137
1043.738	-1938
1043.799	-2169
1043.859	-1812
1043.920	-1808
1043.981	-1760
1044.041	-3094
1044.102	-1945
1044.162	-2056
1044.223	-2887
1044.284	-2846
1044.344	-1158
1044.405	-2571
1044.465	-2576
1044.525	-2612
1044.586	-1581
1044.646	-1812
1044.707	-1561
1044.767	-2599
1044.827	-1736
1044.887	-1913
1044.948	-2130
1045.008	-1944
1045.068	-2529
1045.128	-2472
1045.188	-1835
1045.249	-2290
1045.309	-2037
1045.369	-2540
1045.429	-1611
1045.489	-2406
1045.549	-1991
1045.609	-1957
1045.669	-2754
1045.729	-1956
1045.789	-1796
1045.848	-3002
1045.908	-1524
1045.968	-460
1046.028	-2315
1046.088	-1966
1046.147	-784
1046.207	-2242
1046.267	-2241
1046.326	-1676
1046.386	-1362
1046.446	-1236
1046.505	-1557
1046.565	-1371
1046.624	-473
1046.684	-1073
1046.743	-1419
1046.803	-1151
1046.862	-271
1046.922	0
