'Start Wavelength	183.907
'End Wavelength	1046.922
'Gate Delay	5.000
'Gate Width (ms)	1.050
'Laser Output Level	0.000
'X Position	0.000
'Y Position	0.000
'Z Position	0.000
'Grid Point Number	1.000
'Shot Number	100.000
183.907	380.000
183.977	96.000
184.047	-406
184.116	837
184.186	16
184.256	-63
184.325	-640
184.395	-459
184.465	324
184.534	295
184.604	-880
184.674	444
184.743	203
184.813	370
184.883	-421
184.952	346
185.022	740
185.092	494
185.161	-351
185.231	719
185.301	-51
185.370	267
185.440	-204
185.509	24
185.579	123
185.649	1226
185.718	987
185.788	232
185.857	372
185.927	20
185.996	-174
186.066	-288
186.136	-216
186.205	285
186.275	-851
186.344	-209
186.414	186
186.483	-638
186.553	607
186.622	474
186.692	-618
186.761	398
186.831	-192
186.900	-547
186.970	562
187.039	572
187.109	337
187.178	75
187.248	76
187.317	-248
187.387	-667
187.456	582
187.526	-125
187.595	447
187.664	581
187.734	748
187.803	716
187.873	284
187.942	120
188.012	1412
188.081	-353
188.150	-413
188.220	-187
188.289	-66
188.358	397
188.428	260
188.497	-835
188.567	903
188.636	-567
188.705	-566
188.775	69
188.844	-596
188.913	567
188.983	347
189.052	-16
189.121	67
189.191	360
189.260	830
189.329	310
189.399	998
189.468	293
189.537	-201
189.606	132
189.676	462
189.745	-234
189.814	1148
189.883	-317
189.953	270
190.022	474
190.091	361
190.161	1904
190.230	694
190.299	261
190.368	66
190.437	-10
190.507	-201
190.576	-449
190.645	257
190.714	-1042
190.783	13
190.853	358
190.922	239
190.991	-468
191.060	1154
191.129	-1039
191.198	234
191.268	290
191.337	615
191.406	768
191.475	345
191.544	-289
191.613	407
191.682	-73
191.752	375
191.821	-827
191.890	-519
191.959	99
192.028	501
192.097	-98
192.166	562
192.235	-18
192.304	935
192.373	-424
192.442	-100
192.511	440
192.580	65
192.650	33
192.719	659
192.788	313
192.857	361
192.926	-5
192.995	326
193.064	277
193.133	-8
193.202	501
193.271	1233
193.340	333
193.409	411
193.478	157
193.547	1469
193.615	1228
193.684	1672
193.753	942
193.822	1256
193.891	-253
193.960	1161
194.029	-124
194.098	360
194.167	-336
194.236	512
194.305	389
194.374	-173
194.443	-401
194.512	672
194.580	895
194.649	1114
194.718	246
194.787	603
194.856	-174
194.925	517
194.994	-209
195.062	583
195.131	326
195.200	4
195.269	576
195.338	475
195.407	340
195.475	490
195.544	985
195.613	-334
195.682	-184
195.751	-49
195.819	306
195.888	834
195.957	1390
196.026	1096
196.094	859
196.163	860
196.232	-3
196.301	175
196.369	615
196.438	444
196.507	927
196.576	462
196.644	116
196.713	986
196.782	-214
196.850	218
196.919	945
196.988	529
197.056	-19
197.125	437
197.194	537
197.262	601
197.331	127
197.400	17
197.468	-592
197.537	209
197.606	174
197.674	921
197.743	1466
197.812	1321
197.880	1392
197.949	1526
198.017	1453
198.086	1050
198.155	639
198.223	1344
198.292	1579
198.360	1609
198.429	402
198.497	688
198.566	1084
198.635	2177
198.703	447
198.772	949
198.840	1605
198.909	1945
198.977	536
199.046	555
199.114	898
199.183	116
199.251	464
199.320	182
199.388	-318
199.457	359
199.525	-87
199.594	367
199.662	256
199.731	796
199.799	466
199.867	851
199.936	377
200.004	1314
200.073	124
200.141	94
200.210	12
200.278	-20
200.346	265
200.415	1037
200.483	-130
200.552	431
200.620	666
200.688	27
200.757	-18
200.825	429
200.893	-515
200.962	870
201.030	-170
201.098	864
201.167	-284
201.235	954
201.303	82
201.372	1100
201.440	590
201.508	815
201.577	754
201.645	736
201.713	219
201.781	159
201.850	994
201.918	70
201.986	429
202.055	1089
202.123	312
202.191	-60
202.259	44
202.327	772
202.396	69
202.464	851
202.532	516
202.600	3198
202.669	1995
202.737	1125
202.805	-323
202.873	443
202.941	633
203.009	526
203.078	-417
203.146	1087
203.214	-239
203.282	266
203.350	661
203.418	1134
203.487	721
203.555	606
203.623	327
203.691	1124
203.759	-88
203.827	205
203.895	-172
203.963	542
204.031	347
204.099	788
204.168	483
204.236	1398
204.304	336
204.372	523
204.440	763
204.508	14
204.576	-235
204.644	909
204.712	-280
204.780	458
204.848	-175
204.916	-188
204.984	-20
205.052	310
205.120	-12
205.188	598
205.256	379
205.324	965
205.392	191
205.460	1195
205.528	903
205.596	757
205.664	-18
205.732	434
205.799	1741
205.867	4087
205.935	18
206.003	1593
206.071	771
206.139	345
206.207	171
206.275	560
206.343	185
206.411	763
206.478	125
206.546	354
206.614	443
206.682	747
206.750	304
206.818	1332
206.885	658
206.953	23
207.021	1011
207.089	685
207.157	-82
207.225	1132
207.292	-533
207.360	692
207.428	-87
207.496	507
207.563	463
207.631	1316
207.699	77
207.767	836
207.834	1061
207.902	677
207.970	-26
208.038	96
208.105	15
208.173	681
208.241	421
208.309	1396
208.376	476
208.444	1802
208.512	940
208.579	300
208.647	-210
208.715	1478
208.782	563
208.850	1089
208.918	-92
208.985	1571
209.053	248
209.120	364
209.188	531
209.256	902
209.323	-24
209.391	1599
209.459	1633
209.526	1476
209.594	-185
209.661	450
209.729	824
209.796	832
209.864	1224
209.932	116
209.999	1205
210.067	1007
210.134	173
210.202	1245
210.269	1116
210.337	1838
210.404	515
210.472	113
210.539	792
210.607	959
210.674	483
210.742	779
210.809	699
210.877	743
210.944	1038
211.012	73
211.079	1565
211.146	1174
211.214	-287
211.281	1038
211.349	1347
211.416	1579
211.484	706
211.551	458
211.618	1280
211.686	585
211.753	440
211.821	918
211.888	625
211.955	1280
212.023	-179
212.090	1299
212.157	1101
212.225	1126
212.292	2571
212.359	4623
212.427	10088
212.494	5567
212.561	1701
212.629	1355
212.696	719
212.763	1104
212.831	466
212.898	1521
212.965	23
213.032	1054
213.100	1028
213.167	1480
213.234	1851
213.301	1847
213.369	413
213.436	339
213.503	536
213.570	1487
213.638	1138
213.705	880
213.772	193
213.839	837
213.906	503
213.973	1679
214.041	325
214.108	1334
214.175	591
214.242	816
214.309	908
214.376	889
214.444	734
214.511	919
214.578	280
214.645	1514
214.712	784
214.779	1678
214.846	190
214.913	1967
214.980	1006
215.048	2311
215.115	1388
215.182	1691
215.249	581
215.316	822
215.383	710
215.450	1197
215.517	1195
215.584	968
215.651	1227
215.718	1306
215.785	1607
215.852	803
215.919	1273
215.986	1264
216.053	1314
216.120	351
216.187	810
216.254	1875
216.321	-87
216.388	388
216.455	971
216.522	1098
216.589	834
216.656	3220
216.722	2445
216.789	1199
216.856	2170
216.923	1681
216.990	1410
217.057	2365
217.124	1827
217.191	1748
217.258	2754
217.324	2085
217.391	3668
217.458	1794
217.525	1260
217.592	2021
217.659	-193
217.725	1640
217.792	1397
217.859	2857
217.926	-465
217.993	768
218.059	705
218.126	986
218.193	258
218.260	1000
218.327	427
218.393	-11
218.460	704
218.527	726
218.594	269
218.660	2171
218.727	2218
218.794	1061
218.860	427
218.927	411
218.994	410
219.061	570
219.127	1378
219.194	1763
219.261	1655
219.327	557
219.394	722
219.461	28
219.527	303
219.594	1744
219.661	45
219.727	10
219.794	306
219.860	70
219.927	1133
219.994	1214
220.060	3067
220.127	1876
220.193	1311
220.260	1273
220.326	1869
220.393	2856
220.460	4288
220.526	3044
220.593	1900
220.659	2262
220.726	1804
220.792	5650
220.859	4630
220.925	6504
220.992	7641
221.058	8275
221.125	7348
221.191	6786
221.258	1601
221.324	2240
221.391	1026
221.457	581
221.524	448
221.590	2122
221.657	5958
221.723	4853
221.789	3596
221.856	4054
221.922	1498
221.989	2666
222.055	1135
222.121	-147
222.188	1489
222.254	1101
222.321	-137
222.387	95
222.453	174
222.520	488
222.586	-485
222.652	896
222.719	-233
222.785	359
222.851	11
222.918	-227
222.984	997
223.050	423
223.116	-962
223.183	512
223.249	-33
223.315	795
223.382	296
223.448	571
223.514	480
223.580	156
223.647	-364
223.713	101
223.779	353
223.845	-347
223.911	472
223.978	36
224.044	677
224.110	489
224.176	510
224.242	191
224.309	-506
224.375	413
224.441	-707
224.507	117
224.573	-580
224.639	518
224.705	-293
224.772	1368
224.838	-175
224.904	735
224.970	404
225.036	669
225.102	82
225.168	1374
225.234	1146
225.300	388
225.366	598
225.432	854
225.499	-427
225.565	-34
225.631	173
225.697	973
225.763	1238
225.829	1198
225.895	495
225.961	2606
226.027	1624
226.093	696
226.159	1679
226.225	3681
226.291	7248
226.357	12721
226.423	6479
226.489	3771
226.554	2572
226.620	2003
226.686	2150
226.752	4341
226.818	6089
226.884	15797
226.950	14258
227.016	5939
227.082	3692
227.148	2351
227.214	2363
227.279	1954
227.345	1043
227.411	325
227.477	1369
227.543	3524
227.609	3368
227.674	2030
227.740	899
227.806	1367
227.872	613
227.938	1180
228.003	2430
228.069	471
228.135	570
228.201	906
228.267	249
228.332	1444
228.398	196
228.464	2165
228.530	-244
228.595	404
228.661	-131
228.727	785
228.792	2205
228.858	119
228.924	-730
228.990	2018
229.055	562
229.121	1102
229.187	494
229.252	288
229.318	90
229.384	1038
229.449	810
229.515	-631
229.581	-467
229.646	1679
229.712	603
229.777	2177
229.843	1935
229.909	1785
229.974	1601
230.040	1369
230.105	479
230.171	1120
230.236	1440
230.302	3331
230.368	2086
230.433	444
230.499	1560
230.564	1719
230.630	-185
230.695	665
230.761	1197
230.826	-703
230.892	2107
230.957	72
231.023	78
231.088	434
231.154	497
231.219	945
231.284	783
231.350	1587
231.415	-183
231.481	905
231.546	281
231.612	982
231.677	-138
231.742	-755
231.808	823
231.873	-229
231.939	-1234
232.004	2916
232.069	2144
232.135	884
232.200	357
232.265	1271
232.331	-7
232.396	-284
232.461	-636
232.527	388
232.592	-612
232.657	1276
232.723	1554
232.788	2715
232.853	217
232.918	39
232.984	-47
233.049	1212
233.114	516
233.179	1611
233.245	2976
233.310	4438
233.375	94
233.440	894
233.506	238
233.571	573
233.636	226
233.701	-14
233.766	1946
233.832	3852
233.897	812
233.962	324
234.027	1577
234.092	777
234.157	467
234.222	1522
234.288	1346
234.353	8484
234.418	7859
234.483	4260
234.548	1930
234.613	1939
234.678	981
234.743	901
234.808	8934
234.873	5607
234.938	2639
235.004	1442
235.069	993
235.134	1055
235.199	1306
235.264	1061
235.329	-581
235.394	1493
235.459	1984
235.524	1536
235.589	972
235.654	524
235.719	382
235.784	2250
235.849	998
235.913	3909
235.978	4929
236.043	6817
236.108	2524
236.173	1106
236.238	2472
236.303	1315
236.368	935
236.433	3449
236.498	5643
236.563	4237
236.627	5451
236.692	19945
236.757	17059
236.822	7396
236.887	5522
236.952	4300
237.017	1698
237.081	5007
237.146	3469
237.211	9497
237.276	18659
237.341	33190
237.405	17980
237.470	6430
237.535	5340
237.600	3864
237.664	2086
237.729	1338
237.794	1692
237.859	5906
237.923	4437
237.988	2751
238.053	4455
238.118	3995
238.182	10469
238.247	12566
238.312	4582
238.376	4546
238.441	1329
238.506	3332
238.570	200
238.635	1884
238.700	443
238.764	1326
238.829	4004
238.893	6518
238.958	2595
239.023	1231
239.087	1175
239.152	1853
239.216	-235
239.281	2223
239.346	1314
239.410	1664
239.475	1158
239.539	10205
239.604	8657
239.668	3256
239.733	492
239.797	2332
239.862	5178
239.926	10277
239.991	4473
240.055	1854
240.120	488
240.184	1337
240.249	197
240.313	1420
240.378	926
240.442	5960
240.507	11486
240.571	2767
240.635	3863
240.700	7015
240.764	1674
240.829	1560
240.893	-1194
240.957	2154
241.022	6160
241.086	12505
241.151	4178
241.215	1184
241.279	3009
241.344	6114
241.408	2782
241.472	753
241.537	1682
241.601	1423
241.665	-502
241.730	301
241.794	764
241.858	554
241.922	847
241.987	1720
242.051	80
242.115	582
242.179	850
242.244	126
242.308	1286
242.372	411
242.436	993
242.501	1696
242.565	-57
242.629	825
242.693	997
242.757	213
242.822	1043
242.886	1317
242.950	1207
243.014	738
243.078	2128
243.142	1722
243.206	986
243.271	1651
243.335	1081
243.399	3755
243.463	10537
243.527	34112
243.591	10645
243.655	3975
243.719	1677
243.783	2884
243.847	3912
243.911	6819
243.975	5475
244.040	4013
244.104	3280
244.168	1543
244.232	2489
244.296	4275
244.360	4727
244.424	1336
244.488	2174
244.552	2266
244.615	-363
244.679	1426
244.743	1876
244.807	1126
244.871	1341
244.935	1068
244.999	-281
245.063	1199
245.127	2146
245.191	3070
245.255	2418
245.319	2411
245.383	582
245.446	3704
245.510	436
245.574	1329
245.638	1473
245.702	844
245.766	5045
245.829	2988
245.893	910
245.957	1228
246.021	2220
246.085	1353
246.149	1319
246.212	6558
246.276	8756
246.340	4103
246.404	2498
246.467	3605
246.531	2665
246.595	4128
246.659	3096
246.722	1260
246.786	2741
246.850	3219
246.913	4198
246.977	1660
247.041	1420
247.104	2285
247.168	1987
247.232	4648
247.295	12237
247.359	6978
247.423	2205
247.486	5402
247.550	3484
247.614	2399
247.677	3166
247.741	2241
247.804	1017
247.868	1986
247.932	3475
247.995	12069
248.059	3630
248.122	1540
248.186	3002
248.249	4956
248.313	16515
248.376	19814
248.440	12710
248.503	3862
248.567	3542
248.630	5057
248.694	6757
248.757	9382
248.821	19814
248.884	12562
248.948	9727
249.011	15621
249.075	23729
249.138	20990
249.202	8255
249.265	4655
249.328	9121
249.392	3991
249.455	3979
249.519	3466
249.582	3770
249.645	7435
249.709	5014
249.772	3537
249.835	3825
249.899	4610
249.962	4041
250.025	2558
250.089	6920
250.152	11043
250.215	6054
250.279	4814
250.342	3780
250.405	4340
250.468	2966
250.532	4978
250.595	8213
250.658	26679
250.721	48698
250.785	18515
250.848	8757
250.911	5156
250.974	5538
251.038	5801
251.101	12823
251.164	8066
251.227	7003
251.290	6743
251.354	9899
251.417	39154
251.480	41659
251.543	27459
251.606	69861
251.669	58343
251.732	22298
251.795	19587
251.859	20539
251.922	46037
251.985	29262
252.048	11194
252.111	7261
252.174	6969
252.237	11505
252.300	24879
252.363	27974
252.426	59425
252.489	25938
252.552	13993
252.615	9471
252.678	9279
252.741	19222
252.804	25878
252.867	59913
252.930	37839
252.993	18186
253.056	11581
253.119	8702
253.182	6857
253.245	12213
253.308	9912
253.371	6894
253.434	8186
253.497	6633
253.559	12108
253.622	8928
253.685	10935
253.748	11206
253.811	5749
253.874	7722
253.937	6712
254.000	5147
254.062	8390
254.125	12428
254.188	12448
254.251	10267
254.314	4668
254.376	8483
254.439	11307
254.502	7506
254.565	7700
254.628	15547
254.690	9577
254.753	5374
254.816	4484
254.878	4440
254.941	8887
255.004	9583
255.067	5015
255.129	3467
255.192	2528
255.255	1286
255.317	2751
255.380	2509
255.443	1469
255.505	887
255.568	1312
255.631	1038
255.693	2185
255.756	564
255.819	2335
255.881	1229
255.944	2344
256.006	955
256.069	1260
256.132	957
256.194	2574
256.257	9904
256.319	7858
256.382	6770
256.444	3414
256.507	1905
256.569	1878
256.632	1130
256.694	3549
256.757	10278
256.819	32442
256.882	13339
256.944	5084
257.007	4234
257.069	4325
257.132	2031
257.194	2814
257.257	1315
257.319	2353
257.381	1699
257.444	7404
257.506	32902
257.569	41748
257.631	24303
257.693	10470
257.756	5705
257.818	4965
257.880	1808
257.943	3411
258.005	1603
258.067	1435
258.130	1503
258.192	2803
258.254	6063
258.317	3729
258.379	2577
258.441	7155
258.503	7652
258.566	10561
258.628	17433
258.690	4005
258.753	2820
258.815	5358
258.877	2666
258.939	1560
259.001	2118
259.064	2019
259.126	2910
259.188	4711
259.250	2469
259.312	3671
259.375	11873
259.437	7590
259.499	2191
259.561	1983
259.623	2115
259.685	1679
259.747	2783
259.809	10315
259.872	22780
259.934	30087
259.996	27425
260.058	6976
260.120	2452
260.182	2112
260.244	2040
260.306	1429
260.368	2027
260.430	1104
260.492	3571
260.554	9224
260.616	9263
260.678	13456
260.740	24287
260.802	5646
260.864	3677
260.926	2431
260.988	3112
261.050	2867
261.112	5179
261.174	19201
261.236	18784
261.298	4315
261.359	9327
261.421	16273
261.483	2650
261.545	3188
261.607	785
261.669	1750
261.731	4888
261.793	15751
261.854	4503
261.916	3430
261.978	2340
262.040	2952
262.102	2726
262.164	4490
262.225	4338
262.287	2171
262.349	4775
262.411	5099
262.472	2863
262.534	5144
262.596	15570
262.658	4869
262.719	1563
262.781	4560
262.843	13322
262.904	7092
262.966	2573
263.028	4889
263.090	22509
263.151	62771
263.213	19694
263.275	7437
263.336	4054
263.398	3764
263.459	383
263.521	2081
263.583	4773
263.644	3660
263.706	638
263.767	1502
263.829	1385
263.891	556
263.952	442
264.014	645
264.075	1246
264.137	5245
264.198	2678
264.260	658
264.321	288
264.383	2476
264.444	8300
264.506	2207
264.567	1606
264.629	2925
264.690	4730
264.752	2413
264.813	915
264.875	790
264.936	1312
264.998	388
265.059	-94
265.120	1024
265.182	2114
265.243	14659
265.305	15023
265.366	3679
265.427	2153
265.489	2104
265.550	14
265.611	1279
265.673	418
265.734	1659
265.795	725
265.857	412
265.918	25
265.979	3932
266.040	24166
266.102	23336
266.163	6241
266.224	4121
266.286	2158
266.347	1004
266.408	983
266.469	1787
266.530	497
266.592	120
266.653	2438
266.714	5784
266.775	1025
266.836	1008
266.898	464
266.959	1135
267.020	1431
267.081	1644
267.142	-287
267.203	1325
267.264	35
267.326	2070
267.387	657
267.448	206
267.509	312
267.570	806
267.631	-17
267.692	-114
267.753	819
267.814	404
267.875	1898
267.936	7638
267.997	1658
268.058	2234
268.119	1020
268.180	1667
268.241	117
268.302	519
268.363	-254
268.424	985
268.485	213
268.546	195
268.607	586
268.668	-4
268.729	-79
268.790	1000
268.851	1259
268.912	3356
268.972	4740
269.033	2045
269.094	0
269.155	342
269.216	-717
269.277	1680
269.338	545
269.398	1219
269.459	-41
269.520	1406
269.581	2688
269.642	3384
269.702	1872
269.763	611
269.824	261
269.885	1130
269.945	3738
270.006	1464
270.067	-301
270.128	1233
270.188	108
270.249	640
270.310	-215
270.370	457
270.431	-247
270.492	423
270.553	313
270.613	2651
270.674	7054
270.734	2539
270.795	974
270.856	2066
270.916	1300
270.977	522
271.038	1429
271.098	1684
271.159	2734
271.219	3343
271.280	182
271.340	992
271.401	708
271.462	7510
271.522	2815
271.583	1312
271.643	1003
271.704	1268
271.764	2044
271.825	5559
271.885	15613
271.946	24081
272.006	7248
272.066	9527
272.127	19274
272.187	5943
272.248	2144
272.308	2629
272.369	12180
272.429	7551
272.489	4439
272.550	5795
272.610	5113
272.671	3953
272.731	4608
272.791	8953
272.852	4002
272.912	4019
272.972	1538
273.033	2104
273.093	2997
273.153	3863
273.214	2780
273.274	2990
273.334	8602
273.394	21391
273.455	7480
273.515	7898
273.575	17630
273.635	8118
273.696	9748
273.756	20068
273.816	8749
273.876	4972
273.936	12015
273.997	27173
274.057	5288
274.117	3305
274.177	5630
274.237	21176
274.297	22958
274.358	18807
274.418	15529
274.478	12366
274.538	5129
274.598	4274
274.658	19716
274.718	27914
274.778	9711
274.838	4739
274.898	9506
274.958	39199
275.018	23599
275.078	14195
275.138	6264
275.198	4241
275.258	1758
275.318	3559
275.378	6227
275.438	6969
275.498	4504
275.558	14445
275.618	32490
275.678	15480
275.738	7704
275.798	6233
275.858	2077
275.918	2338
275.978	1581
276.038	3130
276.098	1352
276.157	3358
276.217	13177
276.277	6525
276.337	3673
276.397	2438
276.457	2786
276.517	2361
276.576	1710
276.636	1378
276.696	2845
276.756	8268
276.815	5794
276.875	3371
276.935	3408
276.995	2965
277.055	1298
277.114	2346
277.174	2352
277.234	10637
277.293	4719
277.353	3192
277.413	1623
277.472	1778
277.532	2248
277.592	4514
277.651	12544
277.711	30234
277.771	9328
277.830	28957
277.890	27757
277.950	16367
278.009	51159
278.069	21189
278.128	17673
278.188	29999
278.248	11665
278.307	30840
278.367	21316
278.426	5893
278.486	4202
278.545	3236
278.605	2618
278.664	2381
278.724	3171
278.783	7796
278.843	21995
278.902	7660
278.962	3683
279.021	5033
279.081	9899
279.140	10352
279.199	5446
279.259	5366
279.318	6697
279.378	9423
279.437	16647
279.496	51313
279.556	155117
279.615	147470
279.675	42880
279.734	22575
279.793	28093
279.853	42161
279.912	15924
279.971	9738
280.031	8158
280.090	13643
280.149	25005
280.208	25042
280.268	102594
280.327	126365
280.386	33046
280.445	18604
280.505	15700
280.564	8602
280.623	6480
280.682	8056
280.742	11938
280.801	4191
280.860	2907
280.919	2774
280.978	1902
281.037	2933
281.097	2026
281.156	2744
281.215	1794
281.274	3094
281.333	13632
281.392	12398
281.451	2686
281.510	2467
281.569	1312
281.628	1945
281.688	1577
281.747	1761
281.806	2300
281.865	1595
281.924	1359
281.983	2169
282.042	815
282.101	1016
282.160	1070
282.219	1013
282.278	1626
282.337	6697
282.396	4695
282.454	1717
282.513	2458
282.572	10133
282.631	6549
282.690	1453
282.749	1539
282.808	2390
282.867	1531
282.926	2518
282.985	865
283.043	928
283.102	232
283.161	1949
283.220	5099
283.279	13320
283.338	4577
283.396	1828
283.455	1668
283.514	1805
283.573	4331
283.631	2644
283.690	2461
283.749	1482
283.808	4188
283.866	6725
283.925	1655
283.984	2236
284.043	2953
284.101	3464
284.160	1455
284.219	3832
284.277	3340
284.336	5224
284.395	14809
284.453	15485
284.512	5032
284.570	6301
284.629	5705
284.688	6296
284.746	7459
284.805	9207
284.863	10764
284.922	14401
284.981	16601
285.039	24448
285.098	39973
285.156	86633
285.215	144296
285.273	143209
285.332	103257
285.390	55258
285.449	34834
285.507	24008
285.566	16671
285.624	12742
285.683	9932
285.741	7552
285.799	7097
285.858	5935
285.916	4833
285.975	3731
286.033	3029
286.091	3033
286.150	3325
286.208	3075
286.267	2779
286.325	3051
286.383	4305
286.442	4381
286.500	1577
286.558	2139
286.616	1583
286.675	2773
286.733	1310
286.791	2592
286.850	2968
286.908	3667
286.966	5615
287.024	1576
287.083	1370
287.141	1918
287.199	1844
287.257	3761
287.315	2211
287.374	2001
287.432	5529
287.490	4601
287.548	1673
287.606	2291
287.664	987
287.723	3021
287.781	3655
287.839	3045
287.897	2403
287.955	4273
288.013	7882
288.071	18854
288.129	60794
288.187	174380
288.245	89992
288.303	28119
288.361	14778
288.419	10482
288.477	7781
288.535	5614
288.593	3314
288.651	2740
288.709	1745
288.767	1947
288.825	2095
288.883	1063
288.941	1349
288.999	1359
289.057	821
289.115	453
289.173	311
289.231	1275
289.289	1234
289.346	862
289.404	1426
289.462	3767
289.520	3931
289.578	1556
289.636	1019
289.694	503
289.751	247
289.809	751
289.867	163
289.925	1916
289.983	248
290.040	822
290.098	66
290.156	687
290.214	1101
290.271	553
290.329	457
290.387	-187
290.444	-369
290.502	-357
290.560	120
290.617	862
290.675	20
290.733	560
290.790	786
290.848	769
290.906	943
290.963	1981
291.021	614
291.078	353
291.136	1125
291.194	3772
291.251	11606
291.309	3588
291.366	561
291.424	708
291.481	720
291.539	2
291.596	1987
291.654	159
291.711	-369
291.769	631
291.826	2722
291.884	1892
291.941	-148
291.999	227
292.056	233
292.114	928
292.171	-310
292.228	1052
292.286	1454
292.343	3729
292.401	4615
292.458	3927
292.515	1700
292.573	930
292.630	1724
292.687	2513
292.745	873
292.802	2368
292.859	5486
292.917	13348
292.974	9554
293.031	2217
293.089	1370
293.146	594
293.203	386
293.260	1186
293.318	466
293.375	3021
293.432	594
293.489	984
293.546	691
293.604	2332
293.661	8764
293.718	24758
293.775	12166
293.832	5718
293.889	5008
293.947	5640
294.004	3082
294.061	2731
294.118	5106
294.175	12084
294.232	13935
294.289	6082
294.346	1911
294.403	1863
294.460	2418
294.517	2285
294.574	1053
294.631	1100
294.688	2045
294.745	6131
294.802	22935
294.859	25859
294.916	10549
294.973	7278
295.030	3645
295.087	4335
295.144	2063
295.201	1381
295.258	1373
295.315	2786
295.372	8151
295.429	19643
295.486	9083
295.542	4029
295.599	7868
295.656	15879
295.713	11005
295.770	18765
295.827	7125
295.883	2985
295.940	2109
295.997	4941
296.054	4130
296.111	2213
296.167	905
296.224	1272
296.281	429
296.338	859
296.394	628
296.451	2669
296.508	6305
296.564	15832
296.621	10547
296.678	18063
296.734	30160
296.791	12075
296.848	4532
296.904	5773
296.961	11577
297.018	20928
297.074	18171
297.131	6411
297.187	3883
297.244	6793
297.301	18306
297.357	40555
297.414	15721
297.470	5647
297.527	3081
297.583	2677
297.640	2363
297.696	2027
297.753	763
297.809	1575
297.866	237
297.922	441
297.979	695
298.035	1285
298.092	3620
298.148	10972
298.204	12485
298.261	5763
298.317	7913
298.374	23921
298.430	16882
298.486	6903
298.543	4992
298.599	4307
298.656	5235
298.712	8494
298.768	23449
298.824	20851
298.881	6379
298.937	2913
298.993	2441
299.050	2629
299.106	2575
299.162	1695
299.218	2205
299.275	2161
299.331	2740
299.387	5854
299.443	20385
299.500	26416
299.556	11014
299.612	3857
299.668	3668
299.724	5831
299.780	6174
299.837	4612
299.893	4751
299.949	19065
300.005	27337
300.061	19191
300.117	31862
300.173	19373
300.229	7917
300.285	8755
300.341	9235
300.397	5597
300.453	1957
300.510	2321
300.566	2196
300.622	4288
300.678	11619
300.734	23309
300.790	19369
300.845	25475
300.901	16891
300.957	20876
301.013	18202
301.069	7735
301.125	4123
301.181	4220
301.237	3532
301.293	2199
301.349	1604
301.405	1645
301.461	2103
301.516	2940
301.572	3167
301.628	5051
301.684	4663
301.740	7601
301.796	14076
301.851	10674
301.907	13733
301.963	18082
302.019	22824
302.074	61209
302.130	69153
302.186	34628
302.242	13372
302.297	8303
302.353	7274
302.409	13665
302.464	13976
302.520	10739
302.576	22917
302.631	29978
302.687	17571
302.743	7339
302.798	2939
302.854	3379
302.910	3396
302.965	4219
303.021	7018
303.076	7942
303.132	7697
303.187	10335
303.243	6583
303.299	3125
303.354	1390
303.410	1437
303.465	1632
303.521	1725
303.576	1709
303.632	3306
303.687	6036
303.743	19704
303.798	19997
303.853	8299
303.909	2851
303.964	2791
304.020	4044
304.075	7893
304.130	5850
304.186	12579
304.241	14494
304.297	11409
304.352	5961
304.358	5649
304.407	3111
304.449	3324
304.463	3401
304.518	3421
304.539	3081
304.573	2528
304.629	3140
304.630	3186
304.684	5524
304.720	11293
304.739	14120
304.794	26177
304.811	22821
304.850	14578
304.902	5502
304.905	4930
304.960	3826
304.992	3630
305.015	3490
305.071	3643
305.083	3431
305.126	2633
305.173	1866
305.181	1755
305.236	1410
305.264	1832
305.292	2254
305.347	2354
305.354	2494
305.402	3428
305.445	3654
305.457	3692
305.512	5318
305.535	5038
305.567	4700
305.622	5381
305.626	5540
305.678	10644
305.716	20951
305.733	24190
305.788	32525
305.807	28490
305.843	21926
305.897	22547
305.898	22515
305.953	26101
305.988	17742
306.008	13366
306.063	8000
306.078	6964
306.118	4631
306.168	3007
306.173	2873
306.228	2734
306.259	2602
306.283	2609
306.338	2487
306.349	2626
306.393	3308
306.440	3499
306.448	3476
306.503	4146
306.530	4510
306.558	6413
306.613	12507
306.620	13607
306.668	20546
306.711	26650
306.723	26806
306.778	22421
306.801	17295
306.833	11999
306.888	5601
306.892	5412
306.943	4271
306.982	3398
306.997	3170
307.052	3601
307.072	3451
307.107	3809
307.162	5329
307.163	5346
307.217	8162
307.253	10512
307.272	10867
307.327	10337
307.343	9704
307.381	8671
307.434	7683
307.436	7950
307.491	16772
307.524	23853
307.546	24817
307.600	25456
307.614	23116
307.655	15216
307.704	7932
307.710	7800
307.765	9044
307.795	11096
307.819	13274
307.874	20977
307.885	21546
307.929	18133
307.975	12698
307.984	12869
308.038	17412
308.065	21458
308.093	39326
308.148	81968
308.156	91043
308.202	137940
308.246	177388
308.257	172802
308.312	96834
308.336	65092
308.366	48358
308.421	30474
308.426	28863
308.475	19119
308.517	13366
308.530	12395
308.585	10515
308.607	10047
308.639	10489
308.694	11850
308.697	11956
308.748	21040
308.787	30888
308.803	30464
308.857	23477
308.877	19990
308.912	17505
308.967	15802
308.967	15786
309.021	22791
309.058	28917
309.076	36329
309.130	62728
309.148	72680
309.185	131069
309.238	224937
309.239	225669
309.293	246611
309.328	235938
309.348	206671
309.402	104718
309.418	77882
309.457	54850
309.508	33942
309.511	33590
309.566	32967
309.598	33958
309.620	41021
309.674	62454
309.688	68552
309.729	65569
309.778	54187
309.783	52912
309.837	34842
309.868	26358
309.892	28561
309.946	35240
309.959	37920
310.001	47451
310.049	57037
310.055	55164
310.109	32830
310.139	20035
310.163	16227
310.218	10252
310.229	9250
310.272	7829
310.319	6767
310.326	6612
310.381	5416
310.409	5256
310.435	5465
310.489	5377
310.499	5377
310.543	5157
310.589	5044
310.598	5049
310.652	5209
310.679	5004
310.706	4442
310.760	3675
310.769	3540
310.814	3272
310.859	3024
310.868	3020
310.923	2940
310.948	3025
310.977	3552
311.031	4263
311.038	4397
311.085	4191
311.128	3735
311.139	3817
311.193	4312
311.218	4430
311.247	4089
311.301	3720
311.308	3646
311.356	3554
311.398	3480
311.410	3405
311.464	3069
311.488	2889
311.518	3059
311.572	3330
311.578	3363
311.626	4954
311.668	6332
311.680	6252
311.734	5800
311.758	5539
311.788	5301
311.842	4920
311.847	4870
311.896	6484
311.937	7869
311.950	7833
312.004	7610
312.027	7473
312.058	6427
312.112	4539
312.117	4346
312.165	4341
312.207	4331
312.297	5504
312.386	4386
312.476	5338
312.566	10750
312.656	5288
312.745	3173
312.835	3846
312.925	4365
313.015	3900
313.104	4446
313.194	3937
313.284	4382
313.374	5360
313.463	3847
313.553	3765
313.643	2700
313.732	3171
313.822	3142
313.912	4034
314.001	4766
314.091	4604
314.180	5654
314.270	5283
314.360	6629
314.449	6487
314.539	3296
314.628	3442
314.718	3447
314.808	5534
314.897	3793
314.987	3447
315.076	5172
315.166	6796
315.255	5666
315.345	6532
315.434	5554
315.524	5359
315.613	6878
315.703	8906
315.792	16007
315.881	51536
315.971	15881
316.060	12984
316.150	18356
316.239	19471
316.328	6631
316.418	3743
316.507	3951
316.597	6397
316.686	5428
316.775	8906
316.865	20135
316.954	5004
317.043	3650
317.133	4593
317.222	3185
317.311	3504
317.400	2840
317.490	6961
317.579	7330
317.668	5922
317.757	9386
317.847	25618
317.936	90913
318.025	32007
318.114	18350
318.203	10426
318.293	11379
318.382	21821
318.471	15788
318.560	20784
318.649	40223
318.738	9571
318.828	7386
318.917	7724
319.006	8712
319.095	22128
319.184	51585
319.273	29106
319.362	15783
319.451	5776
319.540	5176
319.629	12758
319.718	21635
319.807	9796
319.896	16293
319.985	66723
320.074	23082
320.163	7339
320.252	11560
320.341	8803
320.430	6502
320.519	11019
320.608	5980
320.697	5483
320.786	5676
320.875	7009
320.964	9813
321.053	14402
321.142	21813
321.230	22258
321.319	16475
321.408	37955
321.497	15680
321.586	15825
321.675	19019
321.764	17182
321.852	11683
321.941	22498
322.030	13250
322.119	14300
322.207	39797
322.296	28697
322.385	13839
322.474	16453
322.562	48667
322.651	23181
322.740	18249
322.829	24915
322.917	26800
323.006	14802
323.095	12728
323.183	9935
323.272	15331
323.361	27066
323.449	83408
323.538	26452
323.626	56202
323.715	34952
323.804	13568
323.892	51105
323.981	26772
324.069	9697
324.158	27425
324.246	25463
324.335	8461
324.424	13326
324.512	6076
324.601	7656
324.689	13978
324.778	27874
324.866	20407
324.954	5445
325.043	5355
325.131	11061
325.220	21021
325.308	24662
325.397	16523
325.485	10491
325.574	2556
325.662	3296
325.750	3684
325.839	3955
325.927	2704
326.015	5153
326.104	8380
326.192	13089
326.280	3580
326.369	4425
326.457	5477
326.545	11319
326.634	4754
326.722	3022
326.810	3895
326.898	3281
326.987	4633
327.075	9954
327.163	11158
327.251	5849
327.340	8794
327.428	12652
327.516	3776
327.604	3625
327.692	4463
327.781	4979
327.869	7990
327.957	5409
328.045	5333
328.133	3531
328.221	4553
328.309	4061
328.397	3282
328.485	4919
328.574	6839
328.662	25385
328.750	14104
328.838	5613
328.926	2789
329.014	3725
329.102	4953
329.190	12716
329.278	7762
329.366	2530
329.454	2167
329.542	2527
329.630	1525
329.718	3051
329.806	3709
329.893	4794
329.981	4142
330.069	8033
330.157	27080
330.245	76300
330.333	39385
330.421	8082
330.509	7990
330.597	29625
330.684	18559
330.772	5810
330.860	7896
330.948	9811
331.036	3776
331.123	2923
331.211	2651
331.299	3847
331.387	8495
331.475	15229
331.562	4793
331.650	3044
331.738	3486
331.825	5657
331.913	2871
332.001	3286
332.089	3430
332.176	9282
332.264	25362
332.352	18734
332.439	5728
332.527	4122
332.614	3623
332.702	5004
332.790	4251
332.877	12498
332.965	26828
333.052	8287
333.140	9062
333.228	23615
333.315	6684
333.403	5160
333.490	15724
333.578	15219
333.665	30049
333.753	13632
333.840	4195
333.928	5866
334.015	16529
334.103	23641
334.190	71772
334.278	17382
334.365	8016
334.452	7084
334.540	3963
334.627	5820
334.715	9105
334.802	19365
334.889	99364
334.977	96622
335.064	13828
335.151	5871
335.239	5575
335.326	8218
335.413	32089
335.501	43925
335.588	6479
335.675	4808
335.762	5602
335.850	10241
335.937	9009
336.024	23934
336.111	100618
336.199	40853
336.286	9599
336.373	4434
336.460	3019
336.547	3440
336.635	4467
336.722	4582
336.809	2714
336.896	7119
336.983	18491
337.070	45943
337.157	71135
337.245	63050
337.332	43900
337.419	5650
337.506	3779
337.593	4067
337.680	12845
337.767	41244
337.854	11263
337.941	12890
338.028	20513
338.115	7096
338.202	7369
338.289	15806
338.376	61972
338.463	18691
338.550	22945
338.637	25929
338.724	10842
338.811	18096
338.898	4327
338.984	2139
339.071	3228
339.158	4579
339.245	13673
339.332	8431
339.419	12265
339.506	11363
339.593	2111
339.679	3155
339.766	2326
339.853	5099
339.940	10419
340.027	4265
340.113	3285
340.200	5493
340.287	3888
340.374	4516
340.460	9475
340.547	3183
340.634	7563
340.720	28973
340.807	15206
340.894	3957
340.980	3022
341.067	2884
341.154	3936
341.240	5249
341.327	14014
341.414	4950
341.500	4346
341.587	3944
341.674	3401
341.760	9514
341.847	11014
341.933	4453
342.020	702
342.106	1962
342.193	3551
342.279	7067
342.366	4274
342.452	9565
342.539	4863
342.625	11880
342.712	31239
342.798	12348
342.885	4055
342.971	1990
343.058	2105
343.144	2307
343.230	2282
343.317	3340
343.403	2077
343.490	1896
343.576	2011
343.662	2762
343.749	3194
343.835	5530
343.921	10198
344.008	54786
344.094	126200
344.180	27623
344.267	11058
344.353	35952
344.439	37408
344.525	14686
344.612	5722
344.698	4721
344.784	3039
344.870	2579
344.957	2471
345.043	6338
345.129	3716
345.215	8821
345.301	5112
345.387	3300
345.474	1317
345.560	2487
345.646	2500
345.732	3527
345.818	3892
345.904	3212
345.990	3774
346.076	4529
346.162	7864
346.249	4358
346.335	2855
346.421	3348
346.507	14268
346.593	52133
346.679	10793
346.765	4045
346.851	3110
346.937	3203
347.023	3351
347.108	4042
347.194	2912
347.280	2690
347.366	4510
347.452	15419
347.538	62914
347.624	44556
347.710	35235
347.796	6024
347.882	3199
347.967	3257
348.053	3724
348.139	3196
348.225	2418
348.311	2646
348.397	2062
348.482	4440
348.568	3513
348.654	2197
348.740	4035
348.825	3736
348.911	7736
348.997	27782
349.083	56403
349.168	9161
349.254	3418
349.340	3655
349.425	2470
349.511	4014
349.597	4980
349.682	10108
349.768	33869
349.854	16074
349.939	3330
350.025	2225
350.110	2119
350.196	2634
350.282	1860
350.367	2114
350.453	5463
350.538	5883
350.624	3803
350.709	3971
350.795	2921
350.880	2185
350.966	3687
351.051	5911
351.137	3964
351.222	3564
351.308	10831
351.393	29912
351.479	7381
351.564	2510
351.649	3069
351.735	2304
351.820	1800
351.906	2864
351.991	4011
352.076	18164
352.162	27415
352.247	5715
352.332	4147
352.418	8019
352.503	9929
352.588	42026
352.673	31692
352.759	7766
352.844	3462
352.929	3640
353.014	6251
353.100	3909
353.185	7886
353.270	11478
353.355	10457
353.441	3937
353.526	3983
353.611	10543
353.696	10900
353.781	6795
353.866	2843
353.952	3500
354.037	9029
354.122	22580
354.207	19133
354.292	6966
354.377	3410
354.462	3173
354.547	3839
354.632	4549
354.717	5750
354.802	8580
354.887	3747
354.972	2257
355.057	1122
355.142	1737
355.227	2966
355.312	7003
355.397	14687
355.482	36012
355.567	16045
355.652	12576
355.737	13330
355.822	41742
355.907	32974
355.991	5381
356.076	3687
356.161	2371
356.246	2340
356.331	3568
356.416	8503
356.501	70337
356.585	69331
356.670	9647
356.755	7018
356.840	10757
356.924	46158
357.009	163760
357.094	57875
357.179	12573
357.263	10030
357.348	7996
357.433	8034
357.517	7359
357.602	6240
357.687	4499
357.771	8666
357.856	24113
357.941	14999
358.025	34057
358.110	149537
358.195	65985
358.279	10344
358.364	7919
358.448	27573
358.533	76862
358.617	52555
358.702	54418
358.787	18621
358.871	11068
358.956	8434
359.040	3227
359.125	2592
359.209	3881
359.294	11111
359.378	19027
359.462	10166
359.547	5519
359.631	2519
359.716	1631
359.800	2344
359.885	5317
359.969	3268
360.053	4046
360.138	3491
360.222	5440
360.306	9776
360.391	7754
360.475	14394
360.559	31905
360.644	29457
360.728	20703
360.812	37690
360.896	105358
360.981	39008
361.065	19257
361.149	5654
361.233	6001
361.318	4547
361.402	5996
361.486	4466
361.570	4235
361.654	5547
361.739	15492
361.823	65911
361.907	102724
361.991	17480
362.075	10522
362.159	20404
362.243	15693
362.327	13980
362.411	19785
362.495	10443
362.580	5687
362.664	3901
362.748	3665
362.832	4673
362.916	8825
363.000	30792
363.084	92177
363.168	122588
363.252	26512
363.336	10053
363.420	12830
363.503	43877
363.587	51030
363.671	9950
363.755	6607
363.839	10534
363.923	5105
364.007	11570
364.091	13495
364.175	17686
364.258	75727
364.342	54398
364.426	67143
364.510	35306
364.594	16378
364.677	19176
364.761	91228
364.845	61961
364.929	18690
365.013	15155
365.096	12764
365.180	15226
365.264	18822
365.347	73971
365.431	29659
365.515	6680
365.598	4250
365.682	3740
365.766	5837
365.849	7621
365.933	4693
366.017	6971
366.100	3755
366.184	1823
366.267	4343
366.351	3181
366.435	2976
366.518	1201
366.602	2552
366.685	2359
366.769	4104
366.852	6027
366.936	11905
367.019	6186
367.103	4775
367.186	8523
367.270	3123
367.353	1648
367.436	3067
367.520	1945
367.603	4225
367.687	5921
367.770	12599
367.853	6872
367.937	25604
368.020	42358
368.104	9100
368.187	9740
368.270	12857
368.353	10944
368.437	17203
368.520	39807
368.603	22891
368.687	29091
368.770	55556
368.853	12368
368.936	12760
369.020	10446
369.103	4091
369.186	2487
369.269	3290
369.352	8878
369.436	11515
369.519	7106
369.602	2968
369.685	4781
369.768	4661
369.851	3961
369.934	2494
370.018	3704
370.101	10607
370.184	8986
370.267	5853
370.350	10284
370.433	15749
370.516	45812
370.599	64101
370.682	18915
370.765	29645
370.848	35938
370.931	69851
371.014	24731
371.097	4754
371.180	3975
371.263	3754
371.346	1432
371.429	3754
371.511	3180
371.594	6757
371.677	9841
371.760	10921
371.843	10163
371.926	51798
372.009	114940
372.091	36241
372.174	25319
372.257	64769
372.340	24207
372.423	15647
372.505	17358
372.588	7585
372.671	21041
372.754	69536
372.836	32762
372.919	21212
373.002	38562
373.085	12791
373.167	11402
373.250	27913
373.332	62490
373.415	81333
373.498	168051
373.580	59293
373.663	88382
373.746	112159
373.828	23061
373.911	10800
373.993	10345
374.076	38455
374.159	35086
374.241	18568
374.324	56385
374.406	36460
374.489	47812
374.571	138308
374.654	54307
374.736	26453
374.819	83754
374.901	121403
374.983	124248
375.066	19995
375.148	8085
375.231	31299
375.313	60758
375.395	20415
375.478	6093
375.560	4578
375.643	6630
375.725	25820
375.807	111196
375.890	87820
375.972	36866
376.054	19371
376.136	32644
376.219	13426
376.301	31616
376.383	98223
376.465	35061
376.548	21333
376.630	26682
376.712	82708
376.794	34961
376.877	4977
376.959	2242
377.041	4555
377.123	7329
377.205	8660
377.287	1518
377.369	3032
377.452	2325
377.534	3121
377.616	2554
377.698	2910
377.780	1956
377.862	3545
377.944	3510
378.026	1804
378.108	2551
378.190	1947
378.272	3285
378.354	2155
378.436	1987
378.518	3599
378.600	15610
378.682	14683
378.764	39256
378.846	29954
378.928	7516
379.010	11218
379.091	6177
379.173	3091
379.255	1911
379.337	5483
379.419	18336
379.501	56439
379.583	21063
379.664	6079
379.746	13510
379.828	36724
379.910	51458
379.991	44259
380.073	7399
380.155	5974
380.237	3842
380.318	3560
380.400	3305
380.482	9150
380.564	13073
380.645	12344
380.727	11409
380.809	7480
380.890	4825
380.972	3973
381.053	3879
381.135	5600
381.217	13499
381.298	39530
381.380	18684
381.461	16687
381.543	81525
381.624	98373
381.706	17733
381.787	8525
381.869	10049
381.951	33732
382.032	129021
382.113	80125
382.195	15989
382.276	12958
382.358	27419
382.439	71625
382.521	80197
382.602	126823
382.684	58809
382.765	110082
382.846	139293
382.928	237347
383.009	128106
383.090	90335
383.172	330688
383.253	473712
383.334	151131
383.416	128213
383.497	66912
383.578	39352
383.659	76272
383.741	277991
383.822	674492
383.903	334864
383.984	105497
384.066	146485
384.147	86626
384.228	20372
384.309	15029
384.390	11340
384.471	8556
384.553	9489
384.634	12474
384.715	13430
384.796	6366
384.877	9394
384.958	37035
385.039	43334
385.120	14622
385.201	8733
385.282	8964
385.363	9641
385.444	7757
385.525	16163
385.606	56436
385.687	46458
385.768	11494
385.849	12703
385.930	57792
386.011	97057
386.092	24004
386.173	6910
386.254	4644
386.335	6010
386.416	5924
386.496	22888
386.577	37399
386.658	12690
386.739	7763
386.820	6684
386.901	4386
386.981	5740
387.062	4118
387.143	8949
387.224	37160
387.304	34543
387.385	11863
387.466	6875
387.547	8925
387.627	7233
387.708	14598
387.789	66973
387.869	82127
387.950	21034
388.031	4293
388.111	2818
388.192	10956
388.273	14280
388.353	8423
388.434	6138
388.514	12911
388.595	61551
388.676	80460
388.756	36911
388.837	34670
388.917	21185
388.998	3734
389.078	5581
389.159	4046
389.239	2963
389.320	7900
389.400	5232
389.480	14341
389.561	39108
389.641	19926
389.722	6758
389.802	10224
389.883	16949
389.963	47788
390.043	29599
390.124	8111
390.204	14182
390.284	42963
390.365	26226
390.445	31708
390.525	102104
390.605	88267
390.686	23291
390.766	8579
390.846	5677
390.927	2905
391.007	2985
391.087	5107
391.167	5786
391.247	4002
391.328	7714
391.408	9242
391.488	7145
391.568	1994
391.648	5981
391.728	8186
391.808	8661
391.888	8030
391.969	21760
392.049	33812
392.129	14905
392.209	16688
392.289	46355
392.369	24235
392.449	17177
392.529	12441
392.609	11118
392.689	15124
392.769	46444
392.849	40078
392.929	27495
393.009	66253
393.089	55325
393.169	55940
393.248	179685
393.328	642284
393.408	666995
393.488	188775
393.568	53871
393.648	26097
393.728	16566
393.807	11995
393.887	11289
393.967	9536
394.047	11847
394.127	11980
394.206	20669
394.286	69528
394.366	317765
394.446	333145
394.525	75661
394.605	18752
394.685	13841
394.764	24349
394.844	41027
394.924	29523
395.003	10602
395.083	8621
395.163	8353
395.242	6696
395.322	7659
395.402	4302
395.481	9305
395.561	17420
395.640	49274
395.720	40642
395.799	53982
395.879	42801
395.958	28435
396.038	103355
396.117	415503
396.197	440832
396.276	122883
396.356	37463
396.435	25786
396.515	20234
396.594	25641
396.673	49158
396.753	189411
396.832	585678
396.912	418588
396.991	98464
397.070	28550
397.150	13897
397.229	12181
397.308	14449
397.388	22326
397.467	11881
397.546	6660
397.625	3383
397.705	7087
397.784	6803
397.863	3980
397.942	2285
398.022	3556
398.101	13814
398.180	41744
398.259	19905
398.338	6482
398.417	3822
398.497	2849
398.576	4203
398.655	1924
398.734	2803
398.813	2990
398.892	13269
398.971	46221
399.050	21541
399.129	2951
399.208	2116
399.287	3765
399.366	1173
399.445	1912
399.524	1763
399.603	2323
399.682	5772
399.761	15623
399.840	51594
399.919	38813
399.998	4747
400.077	1050
400.156	848
400.235	4400
400.313	1639
400.392	3064
400.471	19058
400.550	30607
400.629	6821
400.708	4340
400.786	1397
400.865	7698
400.944	8839
401.023	6230
401.102	840
401.180	1982
401.259	1336
401.338	2366
401.416	3986
401.495	2200
401.574	2941
401.652	2463
401.731	3872
401.810	2260
401.888	1571
401.967	1287
402.046	2587
402.124	4350
402.203	3904
402.281	2626
402.360	3699
402.438	11328
402.517	7054
402.596	2815
402.674	1775
402.753	2189
402.831	1786
402.910	3561
402.988	13390
403.066	49620
403.145	27012
403.223	14280
403.302	37831
403.380	27957
403.459	27670
403.537	10053
403.615	3604
403.694	333
403.772	2141
403.850	1169
403.929	777
404.007	703
404.085	5097
404.164	5710
404.242	2142
404.320	3330
404.398	6161
404.477	19763
404.555	101441
404.633	86700
404.711	12005
404.789	4314
404.868	2727
404.946	1250
405.024	239
405.102	297
405.180	340
405.258	518
405.336	1583
405.415	1255
405.493	4572
405.571	3971
405.649	828
405.727	748
405.805	3452
405.883	3343
405.961	3415
406.039	3051
406.117	-133
406.195	4179
406.273	21781
406.351	87581
406.429	48770
406.507	6559
406.585	2327
406.663	3283
406.740	2707
406.818	3090
406.896	1298
406.974	2109
407.052	5918
407.130	49159
407.208	69760
407.285	12790
407.363	1721
407.441	1536
407.519	1275
407.596	2373
407.674	7219
407.752	29275
407.830	24328
407.907	8500
407.985	2426
408.063	1904
408.141	275
408.218	3342
408.296	2914
408.373	2007
408.451	2626
408.529	1879
408.606	767
408.684	520
408.762	664
408.839	385
408.917	381
408.994	838
409.072	286
409.149	1194
409.227	3005
409.304	3862
409.382	2651
409.459	2920
409.537	5261
409.614	3775
409.692	2595
409.769	2836
409.846	5377
409.924	8162
410.001	4122
410.079	3106
410.156	2886
410.233	1733
410.311	1082
410.388	1206
410.465	2359
410.543	2302
410.620	2133
410.697	1778
410.775	2513
410.852	271
410.929	2757
411.006	4600
411.083	1793
411.161	4845
411.238	5169
411.315	2522
411.392	775
411.469	2923
411.547	2630
411.624	251
411.701	1006
411.778	2593
411.855	5522
411.932	2627
412.009	794
412.086	1202
412.163	1350
412.240	1634
412.317	2381
412.394	1837
412.471	1687
412.548	324
412.625	295
412.702	1857
412.779	3900
412.856	3292
412.933	-107
413.010	651
413.087	2676
413.164	17414
413.241	26118
413.318	6066
413.395	4015
413.471	5017
413.548	2213
413.625	1867
413.702	873
413.779	1522
413.855	361
413.932	-118
414.009	-415
414.086	939
414.162	1009
414.239	2411
414.316	16476
414.393	39744
414.469	11944
414.546	1629
414.623	894
414.699	671
414.776	1158
414.853	865
414.929	1163
415.006	948
415.082	1855
415.159	1245
415.236	649
415.312	2092
415.389	3154
415.465	5099
415.542	2184
415.618	1339
415.695	4269
415.771	1734
415.848	1853
415.924	1172
416.000	791
416.077	803
416.153	-379
416.230	-757
416.306	-56
416.383	-65
416.459	573
416.535	-209
416.612	-116
416.688	392
416.764	316
416.841	1048
416.917	645
416.993	1803
417.069	1651
417.146	2202
417.222	3068
417.298	1771
417.374	-20
417.451	1164
417.527	1838
417.603	2097
417.679	2095
417.755	1470
417.831	-625
417.908	566
417.984	-301
418.060	666
418.136	3962
418.212	5989
418.288	1891
418.364	851
418.440	419
418.516	2684
418.592	3661
418.668	7507
418.744	11263
418.820	9045
418.896	1379
418.972	-60
419.048	1114
419.124	5762
419.200	3587
419.276	541
419.352	-509
419.428	648
419.504	966
419.579	1773
419.655	1175
419.731	1797
419.807	7154
419.883	14370
419.959	8961
420.034	2911
420.110	5500
420.186	24145
420.262	18694
420.337	3284
420.413	1299
420.489	1360
420.565	1502
420.640	969
420.716	1647
420.792	325
420.867	1041
420.943	1293
421.019	2945
421.094	2673
421.170	483
421.245	58
421.321	1473
421.397	1319
421.472	5439
421.548	15117
421.623	9864
421.699	3527
421.774	3256
421.850	2768
421.925	6445
422.001	5286
422.076	4364
422.152	4696
422.227	8336
422.302	10242
422.378	14361
422.453	28057
422.529	68844
422.604	212948
422.679	349732
422.755	229764
422.830	76458
422.905	29537
422.981	15750
423.056	9932
423.131	7231
423.207	5012
423.282	5429
423.357	9600
423.432	5993
423.508	6274
423.583	12920
423.658	9958
423.733	3746
423.808	3681
423.883	4318
423.959	4180
424.034	3261
424.109	3037
424.184	1012
424.259	1103
424.334	779
424.409	708
424.484	1040
424.559	1847
424.634	1512
424.709	3066
424.784	2592
424.859	2426
424.934	3493
425.009	17397
425.084	29035
425.159	10431
425.234	1862
425.309	449
425.384	4802
425.459	9241
425.534	2956
425.609	1118
425.683	478
425.758	837
425.833	620
425.908	2672
425.983	9758
426.058	31440
426.132	12357
426.207	1896
426.282	3372
426.357	2308
426.431	695
426.506	1944
426.581	1015
426.655	1699
426.730	129
426.805	834
426.879	1009
426.954	1550
427.029	4653
427.103	29569
427.178	74675
427.253	32856
427.327	2783
427.402	3073
427.476	10914
427.551	5106
427.625	1781
427.700	1822
427.774	-271
427.849	1360
427.923	152
427.998	1451
428.072	621
428.147	5578
428.221	23699
428.296	74388
428.370	38669
428.444	4745
428.519	3630
428.593	7555
428.667	6441
428.742	8636
428.816	9963
428.890	43273
428.965	73166
429.039	21968
429.113	10660
429.188	3321
429.262	1182
429.336	3642
429.410	13653
429.485	8843
429.559	7102
429.633	5868
429.707	2417
429.781	6624
429.855	45450
429.930	73125
430.004	32307
430.078	42836
430.152	42984
430.226	101252
430.300	101242
430.374	15900
430.448	4862
430.522	13894
430.596	41812
430.670	30005
430.744	83401
430.818	120713
430.892	24448
430.966	3680
431.040	1090
431.114	563
431.188	326
431.262	729
431.336	400
431.410	4076
431.484	10802
431.557	7768
431.631	1317
431.705	2416
431.779	12803
431.853	67799
431.927	45860
432.000	6428
432.074	1616
432.148	2028
432.222	1178
432.295	1053
432.369	495
432.443	3497
432.516	29245
432.590	77031
432.664	27675
432.737	3243
432.811	302
432.885	635
432.958	-101
433.032	-20
433.106	-447
433.179	14
433.253	-181
433.326	-404
433.400	-713
433.473	-296
433.547	-496
433.620	1157
433.694	2243
433.767	3216
433.841	448
433.914	125
433.988	-99
434.061	637
434.134	180
434.208	186
434.281	-944
434.355	-422
434.428	139
434.501	488
434.575	-126
434.648	660
434.721	-314
434.795	-307
434.868	-629
434.941	129
435.014	-753
435.088	445
435.161	1334
435.234	4580
435.307	4821
435.381	1792
435.454	1557
435.527	3594
435.600	1671
435.673	2343
435.746	199
435.819	737
435.892	351
435.966	564
436.039	119
436.112	776
436.185	-316
436.258	-89
436.331	-1146
436.404	-501
436.477	-563
436.550	63
436.623	-320
436.696	276
436.769	357
436.842	719
436.915	656
436.987	1878
437.060	299
437.133	347
437.206	-583
437.279	974
437.352	53
437.425	-736
437.498	572
437.570	2761
437.643	3788
437.716	913
437.789	-442
437.861	2026
437.934	10164
438.007	5357
438.080	366
438.152	2159
438.225	4209
438.298	39463
438.370	113892
438.443	50003
438.516	10534
438.588	3381
438.661	164
438.734	357
438.806	993
438.879	2139
438.951	1578
439.024	5143
439.096	1162
439.169	1050
439.241	98
439.314	175
439.386	877
439.459	3142
439.531	5069
439.604	2417
439.676	636
439.749	279
439.821	-182
439.893	389
439.966	587
440.038	1726
440.110	1391
440.183	985
440.255	395
440.327	2173
440.400	14944
440.472	69641
440.544	48411
440.617	7344
440.689	4641
440.761	6106
440.833	8329
440.905	6505
440.978	1691
441.050	348
441.122	318
441.194	6
441.266	122
441.338	952
441.411	2965
441.483	20913
441.555	34414
441.627	9334
441.699	2904
441.771	3024
441.843	727
441.915	382
441.987	307
442.059	264
442.131	1248
442.203	3042
442.275	2790
442.347	3913
442.419	5357
442.491	33154
442.563	86875
442.635	40125
442.706	16127
442.778	12845
442.850	2954
442.922	1660
442.994	2625
443.066	3985
443.137	3310
443.209	2817
443.281	4179
443.353	10418
443.425	43473
443.496	159282
443.568	159793
443.640	62133
443.711	12252
443.783	4709
443.855	2792
443.926	1629
443.998	1921
444.070	3250
444.141	2166
444.213	4284
444.285	6019
444.356	4334
444.428	3281
444.499	1131
444.571	58
444.642	519
444.714	1182
444.785	3976
444.857	4452
444.928	8818
445.000	6178
445.071	6753
445.143	7619
445.214	7242
445.285	10368
445.357	29140
445.428	105415
445.500	250481
445.571	162346
445.642	84718
445.714	30951
445.785	19325
445.856	7403
445.928	6306
445.999	5137
446.070	5232
446.141	4132
446.213	5510
446.284	2735
446.355	2814
446.426	1461
446.497	1384
446.569	3660
446.640	5887
446.711	5049
446.782	2162
446.853	2089
446.924	2527
446.995	1661
447.066	2127
447.138	3232
447.209	1879
447.280	-92
447.351	355
447.422	321
447.493	979
447.564	2004
447.635	3769
447.706	1944
447.777	-385
447.847	193
447.918	-42
447.989	911
448.060	2015
448.131	5550
448.202	6638
448.273	5443
448.344	1920
448.414	602
448.485	576
448.556	567
448.627	66
448.698	1293
448.768	434
448.839	815
448.910	2999
448.981	3078
449.051	1165
449.122	1083
449.193	630
449.263	979
449.334	1149
449.405	2420
449.475	6528
449.546	4530
449.616	4404
449.687	4010
449.758	2057
449.828	884
449.899	298
449.969	872
450.040	619
450.110	1725
450.181	2592
450.251	1767
450.322	1603
450.392	905
450.463	1228
450.533	1446
450.604	932
450.674	580
450.744	1118
450.815	1256
450.885	308
450.955	1288
451.026	461
451.096	69
451.166	1114
451.237	3876
451.307	10783
451.377	5070
451.447	1212
451.518	1011
451.588	17
451.658	1361
451.728	2480
451.799	10244
451.869	12832
451.939	3389
452.009	865
452.079	237
452.149	1057
452.219	2876
452.289	12182
452.360	10706
452.430	2514
452.500	1964
452.570	3237
452.640	4909
452.710	13030
452.780	19215
452.850	16020
452.920	14620
452.990	5896
453.060	3128
453.129	3975
453.199	5107
453.269	14991
453.339	35145
453.409	55349
453.479	48647
453.549	72729
453.619	74385
453.688	33412
453.758	5699
453.828	2463
453.898	1519
453.968	2020
454.037	904
454.087	1408
454.107	1609
454.168	566
454.177	406
454.247	1041
454.249	1040
454.316	794
454.330	979
454.386	1720
454.411	2945
454.456	4822
454.492	7299
454.525	9552
454.574	5517
454.595	3769
454.655	1504
454.665	1147
454.734	2022
454.736	2088
454.804	3887
454.817	5317
454.873	11051
454.898	12334
454.943	14559
454.979	9822
455.013	5610
455.060	3405
455.082	2454
455.141	2512
455.152	2498
455.221	7305
455.222	7410
455.291	13666
455.303	12797
455.360	9056
455.384	9092
455.430	9014
455.465	8192
455.499	7346
455.546	9109
455.569	9738
455.627	8216
455.638	8051
455.707	2274
455.708	2279
455.777	1339
455.789	1324
455.846	1396
455.869	1352
455.916	1214
455.950	1375
455.985	1571
456.031	1612
456.054	1556
456.112	1200
456.124	1154
456.193	1080
456.193	1072
456.262	1014
456.274	1309
456.332	2564
456.355	2487
456.401	2100
456.436	1666
456.470	1347
456.516	861
456.540	547
456.597	734
456.609	810
456.678	1373
456.678	1367
456.747	845
456.759	808
456.817	748
456.840	606
456.886	291
456.920	659
456.955	1060
457.001	1404
457.024	1564
457.082	1186
457.093	1130
457.162	3458
457.163	3469
457.232	3238
457.243	3007
457.301	1711
457.324	1267
457.370	785
457.405	1129
457.439	1340
457.485	1415
457.508	1575
457.566	1772
457.577	1802
457.646	2469
457.647	2482
457.715	4269
457.727	4958
457.784	8993
457.808	11702
457.853	15277
457.889	18070
457.922	18533
457.969	13368
457.991	13312
458.050	14772
458.060	15096
458.129	25003
458.130	25307
458.198	27196
458.211	24779
458.267	15819
458.292	11346
458.336	6451
458.372	5943
458.405	7433
458.453	10334
458.474	12804
458.533	23690
458.543	24647
458.611	42207
458.614	42512
458.680	31863
458.694	25931
458.749	12652
458.775	9384
458.818	4811
458.855	3519
458.887	2949
458.936	2522
458.955	2289
459.016	1722
459.024	1688
459.093	2868
459.097	2821
459.162	1501
459.177	1698
459.230	3024
459.257	3435
459.299	3489
459.338	3455
459.368	3668
459.418	4403
459.437	4223
459.499	3194
459.505	3216
459.574	2328
459.579	2320
459.643	1915
459.659	1907
459.711	2150
459.740	2255
459.780	2276
459.820	2219
459.849	2345
459.900	2975
459.917	3033
459.981	2947
459.986	2963
460.054	3440
460.061	3459
460.123	3296
460.141	3238
460.191	4145
460.222	4927
460.260	5317
460.302	5972
460.328	5807
460.382	4830
460.397	4728
460.462	3523
460.465	3524
460.534	4725
460.543	4841
460.602	13491
460.623	17173
460.671	26477
460.703	36328
460.739	35684
460.783	30320
460.808	26759
460.864	8282
460.876	6389
460.944	2925
460.945	2891
461.013	3090
461.024	3096
461.081	2632
461.104	2791
461.150	3180
461.184	3213
461.218	2823
461.264	1797
461.286	1874
461.345	2749
461.355	2708
461.423	2268
461.425	2258
461.491	2475
461.505	2517
461.559	3950
461.585	4714
461.628	7142
461.665	9955
461.696	11174
461.745	14962
461.764	14317
461.825	6747
461.832	6524
461.901	3538
461.905	3551
461.969	3086
461.985	2904
462.037	2914
462.065	2934
462.105	3034
462.145	3153
462.173	3938
462.225	5499
462.241	5916
462.305	8902
462.310	8787
462.378	6644
462.385	6069
462.446	4099
462.465	3833
462.514	2976
462.545	2698
462.582	2915
462.625	3358
462.650	3178
462.705	2168
462.718	2152
462.785	2793
462.786	2807
462.854	3102
462.865	3268
462.922	4921
462.945	5585
462.990	4750
463.025	3675
463.058	3537
463.104	3155
463.126	2805
463.184	2058
463.194	2154
463.262	3096
463.264	3141
463.330	3167
463.344	3087
463.398	3762
463.424	3976
463.466	2956
463.504	2349
463.533	2893
463.583	3538
463.601	3483
463.663	3055
463.669	3167
463.737	5214
463.743	5363
463.805	6916
463.823	7397
463.873	10389
463.903	12408
463.940	12740
463.982	13585
464.008	11910
464.062	6565
464.076	6097
464.142	3043
464.144	3016
464.211	3302
464.221	3424
464.279	2794
464.301	2402
464.347	2781
464.381	3205
464.414	3405
464.461	3645
464.482	4143
464.540	5782
464.550	5726
464.617	4760
464.620	4730
464.685	6111
464.699	6358
464.753	6240
464.779	6339
464.820	7147
464.859	7802
464.888	6872
464.938	5029
464.956	5496
465.018	7409
465.023	7307
465.091	5762
465.098	5598
465.158	5819
465.177	5931
465.226	6387
465.257	6616
465.293	6426
465.336	6177
465.361	6367
465.416	6754
465.428	7078
465.495	9116
465.496	9148
465.563	12590
465.575	13235
465.631	16081
465.654	17498
465.698	12347
465.734	7279
465.765	6699
465.813	5790
465.833	5496
465.893	5161
465.900	5234
465.968	5881
465.972	5911
466.035	5398
466.052	5316
466.102	5704
466.131	5855
466.170	5836
466.210	5849
466.237	6164
466.290	6782
466.304	6964
466.369	7620
466.372	7639
466.439	8048
466.449	8103
466.506	8205
466.528	8219
466.573	10515
466.607	12214
466.641	15921
466.687	21126
466.708	22880
466.766	27912
466.775	26356
466.842	14269
466.845	13677
466.909	10906
466.925	10306
466.977	9424
467.004	9018
467.044	9271
467.083	9531
467.111	10174
467.163	11351
467.178	11631
467.242	12759
467.245	12682
467.312	10814
467.321	10560
467.379	9867
467.400	9593
467.446	10103
467.480	10456
467.559	8905
467.638	7740
467.717	8439
467.796	9541
467.875	10949
467.955	8532
468.034	11089
468.113	20900
468.192	30542
468.271	11072
468.350	8827
468.429	11114
468.508	11634
468.588	8977
468.667	8151
468.746	7405
468.825	7761
468.904	6989
468.983	6507
469.062	10072
469.141	12352
469.220	5978
469.299	7400
469.378	7087
469.456	9427
469.535	8402
469.614	7083
469.693	8095
469.772	9778
469.851	11789
469.930	9796
470.009	8425
470.088	9503
470.166	11902
470.245	20708
470.324	23800
470.403	14511
470.482	9033
470.560	9152
470.639	7502
470.718	10226
470.797	7403
470.875	8567
470.954	9387
471.033	10946
471.111	5637
471.190	6439
471.269	5274
471.347	5962
471.426	5956
471.505	7174
471.583	7276
471.662	7463
471.740	6191
471.819	5760
471.898	5544
471.976	6791
472.055	5973
472.133	7031
472.212	8569
472.290	8190
472.369	6011
472.447	6073
472.526	4569
472.604	6921
472.683	6371
472.761	7143
472.839	6188
472.918	7064
472.996	5558
473.075	7651
473.153	6753
473.231	5892
473.310	5294
473.388	6795
473.466	6421
473.545	8040
473.623	10525
473.701	10926
473.780	6511
473.858	4735
473.936	8098
474.014	6911
474.093	7174
474.171	9336
474.249	10617
474.327	8332
474.405	6058
474.484	6410
474.562	4689
474.640	5943
474.718	5439
474.796	7531
474.874	6113
474.952	5540
475.030	4899
475.108	6160
475.187	7265
475.265	8712
475.343	10576
475.421	12739
475.499	6001
475.577	7576
475.655	7310
475.733	12626
475.811	18993
475.889	17454
475.966	12360
476.044	5848
476.122	6682
476.200	10621
476.278	7303
476.356	5157
476.434	5747
476.512	7940
476.590	8818
476.667	8473
476.745	4768
476.823	5389
476.901	4175
476.979	4781
477.056	5210
477.134	5844
477.212	5459
477.290	5770
477.367	4611
477.445	3867
477.523	3711
477.601	4942
477.678	4098
477.756	6149
477.834	5010
477.911	5083
477.989	4747
478.066	4535
478.144	5326
478.222	6441
478.299	12401
478.377	10824
478.454	5044
478.532	4215
478.609	4466
478.687	6033
478.764	2835
478.842	4637
478.919	4456
478.997	6158
479.074	2829
479.152	4822
479.229	5383
479.307	4311
479.384	3645
479.461	3562
479.539	3068
479.616	4991
479.694	3276
479.771	5221
479.848	3891
479.926	5498
480.003	7258
480.080	4930
480.157	3673
480.235	3314
480.312	3802
480.389	4189
480.467	6134
480.544	8021
480.621	4643
480.698	4899
480.775	4948
480.853	5102
480.930	4117
481.007	4256
481.084	3877
481.161	5081
481.238	5111
481.315	3992
481.392	2218
481.470	3117
481.547	2940
481.624	3412
481.701	3159
481.778	3907
481.855	3297
481.932	6382
482.009	9166
482.086	7288
482.163	3936
482.240	8267
482.317	15268
482.393	11261
482.470	3447
482.547	4593
482.624	3004
482.701	4688
482.778	3493
482.855	2960
482.932	2325
483.009	2999
483.085	3907
483.162	6078
483.239	4378
483.316	3536
483.393	4302
483.469	3745
483.546	3743
483.623	4547
483.699	2727
483.776	4239
483.853	3918
483.930	7943
484.006	15200
484.083	27137
484.160	17758
484.236	29793
484.313	23027
484.389	15971
484.466	14986
484.543	13862
484.619	13627
484.696	16152
484.772	14045
484.849	14705
484.925	13135
485.002	13307
485.078	14224
485.155	13807
485.231	11017
485.308	11537
485.384	11694
485.461	13836
485.537	19133
485.614	23348
485.690	12305
485.766	12409
485.843	11929
485.919	17277
485.995	17838
486.072	10601
486.148	9121
486.224	10077
486.301	10704
486.377	13608
486.453	12075
486.530	13664
486.606	16359
486.682	18722
486.758	19189
486.835	20938
486.911	16126
486.987	27021
487.063	32991
487.139	44581
487.215	30328
487.292	16298
487.368	12703
487.444	14588
487.520	18403
487.596	18056
487.672	29323
487.748	80076
487.824	118800
487.900	38145
487.976	15701
488.052	15379
488.128	17720
488.204	13290
488.280	11623
488.356	13215
488.432	21283
488.508	32497
488.584	13866
488.660	12212
488.736	11113
488.812	11453
488.888	15831
488.964	18713
489.039	40316
489.115	63676
489.191	35859
489.267	11585
489.343	9709
489.418	9271
489.494	8576
489.570	7574
489.646	9689
489.722	8771
489.797	8979
489.873	12169
489.949	21782
490.024	19385
490.100	7693
490.176	8772
490.251	10283
490.327	15419
490.403	8434
490.478	8931
490.554	7233
490.629	6966
490.705	7031
490.781	8367
490.856	6434
490.932	10057
491.007	9275
491.083	8646
491.158	7563
491.234	10385
491.309	16818
491.385	17995
491.460	6699
491.536	8404
491.611	7123
491.686	9026
491.762	11932
491.837	26462
491.913	42296
491.988	59106
492.063	76308
492.139	18322
492.214	10646
492.289	7202
492.365	5716
492.440	8644
492.515	6794
492.590	7648
492.666	5406
492.741	8696
492.816	8920
492.891	6584
492.967	5794
493.042	4374
493.117	4564
493.192	5996
493.267	7422
493.342	14463
493.418	16164
493.493	5727
493.568	4266
493.643	6430
493.718	6704
493.793	10204
493.868	12644
493.943	8946
494.018	5906
494.093	5052
494.168	5048
494.243	4866
494.318	5062
494.393	5406
494.468	4146
494.543	6442
494.618	5654
494.693	5782
494.768	4020
494.842	6474
494.917	4418
494.992	5969
495.067	3932
495.142	4349
495.217	5855
495.292	6346
495.366	6401
495.441	8346
495.516	10202
495.591	15868
495.665	54804
495.740	132242
495.815	49974
495.890	9212
495.964	4806
496.039	7656
496.114	6586
496.188	7230
496.263	7242
496.338	5408
496.412	5490
496.487	9410
496.561	9144
496.636	9773
496.710	6680
496.785	7907
496.860	8908
496.934	7284
497.009	8398
497.083	8445
497.158	7288
497.232	9941
497.307	12200
497.381	10440
497.455	11750
497.530	14232
497.604	11934
497.679	13294
497.753	18632
497.827	26326
497.902	25094
497.976	26944
498.050	48452
498.125	172940
498.199	180444
498.273	42633
498.348	33238
498.422	26101
498.496	21681
498.570	20378
498.645	13939
498.719	13561
498.793	14870
498.867	19605
498.941	23409
499.016	63918
499.090	175179
499.164	62310
499.238	9704
499.312	8294
499.386	11488
499.460	9716
499.534	8612
499.609	11140
499.683	13548
499.757	12608
499.831	25294
499.905	107937
499.979	102410
500.053	15899
500.127	17324
500.201	13560
500.275	8630
500.349	8264
500.422	9406
500.496	14104
500.570	28942
500.644	62996
500.718	108858
500.792	26665
500.866	6962
500.940	8995
501.013	7414
501.087	7750
501.161	14342
501.235	16692
501.309	31474
501.382	89102
501.456	80728
501.530	18467
501.603	26692
501.677	11687
501.751	4309
501.825	7622
501.898	11389
501.972	33676
502.046	21538
502.119	7210
502.193	16784
502.266	37074
502.340	16770
502.413	16087
502.487	30656
502.561	17671
502.634	6333
502.708	6960
502.781	3713
502.855	4686
502.928	2574
503.002	3872
503.075	3260
503.149	3729
503.222	3672
503.295	4235
503.369	4474
503.442	7624
503.516	23486
503.589	62719
503.662	39904
503.736	13619
503.809	29164
503.882	24972
503.956	36448
504.029	37309
504.102	43722
504.175	60447
504.249	17822
504.322	8804
504.395	5780
504.468	5487
504.542	2840
504.615	1951
504.688	3308
504.761	2263
504.834	4762
504.907	6779
504.980	10803
505.053	5424
505.127	4593
505.200	8533
505.273	4778
505.346	3499
505.419	2011
505.492	2980
505.565	1533
505.638	2683
505.711	1160
505.784	1129
505.857	1463
505.930	4364
506.003	1057
506.076	4295
506.149	3796
506.221	4151
506.294	5805
506.367	11715
506.440	44819
506.513	25887
506.586	4918
506.659	3650
506.731	2808
506.804	3970
506.877	6388
506.950	3538
507.022	3250
507.095	2404
507.168	4624
507.241	4342
507.313	1678
507.386	3142
507.459	6428
507.531	3306
507.604	2162
507.677	3076
507.749	930
507.822	5506
507.894	9636
507.967	12891
508.040	5834
508.112	7042
508.185	5339
508.257	4473
508.330	8937
508.402	4140
508.475	3876
508.547	4844
508.620	4658
508.692	8030
508.765	4754
508.837	3298
508.909	4538
508.982	3666
509.054	4512
509.127	3568
509.199	2592
509.271	2876
509.344	3366
509.416	4012
509.488	3066
509.560	3931
509.633	3988
509.705	6320
509.777	3814
509.849	7747
509.922	3627
509.994	3921
510.066	4217
510.138	3877
510.210	11824
510.283	9264
510.355	7018
510.427	6828
510.499	6230
510.571	6344
510.643	4450
510.715	10130
510.787	6926
510.859	5944
510.931	6248
511.003	8556
511.076	7806
511.148	4965
511.219	4930
511.291	7886
511.363	8157
511.435	4947
511.507	2879
511.579	4883
511.651	4116
511.723	4548
511.795	4165
511.867	4403
511.939	4627
512.010	9172
512.082	8340
512.154	4726
512.226	4462
512.298	8942
512.369	11716
512.441	10562
512.513	8336
512.585	6652
512.656	7532
512.728	6923
512.800	5394
512.871	6636
512.943	5926
513.015	3045
513.086	5555
513.158	7314
513.230	5331
513.301	10109
513.373	11556
513.444	6641
513.516	5201
513.588	5247
513.659	5989
513.731	7691
513.802	5974
513.874	16490
513.945	25618
514.016	8110
514.088	5630
514.159	6540
514.231	8146
514.302	10975
514.374	8266
514.445	5380
514.516	13101
514.588	8157
514.659	6443
514.730	10508
514.802	11056
514.873	8796
514.944	10332
515.016	8554
515.087	8224
515.158	9127
515.229	12646
515.301	10550
515.372	13297
515.443	8471
515.514	6763
515.585	5586
515.656	5960
515.728	6642
515.799	4624
515.870	6759
515.941	6370
516.012	6072
516.083	9210
516.154	10127
516.225	15183
516.296	15225
516.367	12601
516.438	16285
516.509	21064
516.580	29726
516.651	100282
516.722	368661
516.793	142122
516.864	29580
516.935	27256
517.006	34563
517.077	43345
517.148	99621
517.219	442093
517.289	662709
517.360	114904
517.431	32683
517.502	12620
517.573	12892
517.643	10577
517.714	13747
517.785	14461
517.856	15355
517.926	21542
517.997	27612
518.068	36005
518.138	48207
518.209	70665
518.280	282731
518.350	1058736
518.421	368666
518.492	43473
518.562	21673
518.633	17979
518.703	15817
518.774	28340
518.845	70924
518.915	68469
518.986	21128
519.056	15111
519.127	23658
519.197	30936
519.268	56721
519.338	34829
519.408	10882
519.479	14125
519.549	9687
519.620	7764
519.690	5397
519.760	4371
519.831	6004
519.901	5061
519.971	4793
520.042	3678
520.112	5107
520.182	7467
520.253	9138
520.323	5371
520.393	9253
520.463	16124
520.534	8368
520.604	24725
520.674	9713
520.744	9320
520.814	25994
520.885	19299
520.955	16066
521.025	58038
521.095	23732
521.165	5368
521.235	3874
521.305	2862
521.375	4430
521.445	5182
521.515	7568
521.585	8444
521.655	6174
521.725	7168
521.795	6122
521.865	1434
521.935	7526
522.005	4766
522.075	3555
522.145	4152
522.215	4391
522.285	6580
522.355	8109
522.424	15814
522.494	13650
522.564	8444
522.634	18341
522.704	59208
522.774	19776
522.843	5222
522.913	5094
522.983	6680
523.053	4530
523.122	5932
523.192	7794
523.262	31230
523.331	27974
523.401	6568
523.471	4306
523.540	3424
523.610	1693
523.680	2804
523.749	3313
523.819	4717
523.888	4135
523.958	2389
524.027	3682
524.097	3709
524.166	3273
524.236	1958
524.305	5174
524.375	3089
524.444	2590
524.514	4210
524.583	2442
524.653	3414
524.722	4452
524.791	2124
524.861	4832
524.930	1602
524.999	4004
525.069	5718
525.138	3607
525.207	2918
525.277	4155
525.346	3588
525.415	4497
525.484	2608
525.554	4293
525.623	4864
525.692	6126
525.761	5802
525.830	7063
525.900	8312
525.969	14596
526.038	22732
526.107	45251
526.176	143788
526.245	112358
526.314	35580
526.383	74280
526.452	93458
526.522	170440
526.591	163264
526.660	43989
526.729	23450
526.797	25471
526.867	46219
526.935	204649
527.004	392759
527.073	203517
527.142	19825
527.211	8990
527.280	7965
527.349	7217
527.418	2554
527.487	4918
527.555	2017
527.624	3209
527.693	554
527.762	4174
527.831	783
527.899	3592
527.968	1534
528.037	1986
528.106	4352
528.174	9077
528.243	6322
528.312	9591
528.380	12262
528.449	2525
528.518	2802
528.586	848
528.655	2894
528.723	1957
528.792	1968
528.861	694
528.929	480
528.998	2643
529.066	846
529.135	2273
529.203	264
529.272	449
529.340	1228
529.409	3146
529.477	290
529.545	2309
529.614	3858
529.682	2419
529.751	3720
529.819	7089
529.887	1911
529.956	1323
530.024	2243
530.092	846
530.161	3231
530.229	6289
530.297	2320
530.365	2796
530.434	1627
530.502	841
530.570	1296
530.638	433
530.707	1813
530.775	3279
530.843	-111
530.911	1482
530.979	1587
531.047	1391
531.115	1376
531.183	2291
531.252	1701
531.320	979
531.388	510
531.456	3139
531.524	-12
531.592	2787
531.660	3660
531.728	1362
531.796	990
531.864	1675
531.932	1278
532.000	1895
532.067	1750
532.135	3568
532.203	4792
532.271	3933
532.339	8336
532.407	24353
532.475	12768
532.542	5980
532.610	5846
532.678	9060
532.746	43152
532.814	108623
532.881	22729
532.949	4930
533.017	3193
533.084	2365
533.152	1429
533.220	2166
533.287	1181
533.355	2637
533.423	2502
533.490	1023
533.558	1935
533.625	2540
533.693	2405
533.761	2747
533.828	2696
533.896	2911
533.963	7089
534.031	8526
534.098	13559
534.166	5114
534.233	2150
534.300	4279
534.368	2793
534.435	2808
534.503	4008
534.570	5596
534.637	3723
534.705	5351
534.772	6886
534.840	11316
534.907	63656
534.974	78826
535.041	8490
535.109	5068
535.176	2140
535.243	3802
535.310	2834
535.378	2984
535.445	2280
535.512	2828
535.579	1718
535.646	2157
535.714	3000
535.781	4086
535.848	3219
535.915	4308
535.982	2131
536.049	2317
536.116	3679
536.183	2519
536.250	2636
536.317	2947
536.384	4353
536.451	6812
536.518	7832
536.585	3572
536.652	6670
536.719	11164
536.786	6112
536.853	5528
536.920	8758
536.987	14860
537.053	13014
537.120	56061
537.187	43006
537.254	5612
537.321	2814
537.388	4660
537.454	2405
537.521	2742
537.588	1807
537.654	4238
537.721	4843
537.788	5588
537.855	3008
537.921	3710
537.988	2721
538.055	4559
538.121	3010
538.188	4622
538.254	6922
538.321	16966
538.388	9492
538.454	5080
538.521	3118
538.587	4195
538.654	2798
538.720	3134
538.787	3621
538.853	4748
538.920	4505
538.986	4972
539.053	3703
539.119	4857
539.185	3625
539.252	6205
539.318	8164
539.385	6945
539.451	4237
539.517	7279
539.583	6514
539.650	14265
539.716	37355
539.782	10744
539.849	3934
539.915	4760
539.981	4458
540.047	6441
540.114	4496
540.180	7190
540.246	4094
540.312	7268
540.378	14871
540.444	15987
540.510	15363
540.576	46058
540.643	11593
540.709	4226
540.775	3821
540.841	3678
540.907	6504
540.973	10481
541.039	8219
541.105	9602
541.171	5438
541.237	4418
541.303	5627
541.369	7673
541.435	7174
541.500	13829
541.566	6806
541.632	4502
541.698	2519
541.764	4384
541.830	3035
541.896	2483
541.961	3505
542.027	4223
542.093	3342
542.159	4907
542.224	4403
542.290	8695
542.356	12764
542.421	16338
542.487	6907
542.553	3660
542.618	5239
542.684	5109
542.750	3941
542.815	6495
542.881	9112
542.947	38508
543.012	26499
543.078	5172
543.143	3570
543.209	4934
543.274	4115
543.340	5870
543.405	13491
543.471	22764
543.536	5709
543.602	3926
543.667	2616
543.732	5329
543.798	2369
543.863	5393
543.928	2230
543.994	4150
544.059	3403
544.124	4018
544.190	4063
544.255	5564
544.320	5199
544.386	4317
544.451	6902
544.516	8844
544.581	7716
544.646	24017
544.712	37163
544.777	8028
544.842	4867
544.907	4993
544.972	3931
545.037	4337
545.102	4698
545.168	4558
545.233	5347
545.298	5815
545.363	6257
545.428	7531
545.493	14606
545.558	30928
545.623	11307
545.688	4843
545.753	4471
545.818	4584
545.883	4948
545.947	5257
546.012	5097
546.077	5563
546.142	6043
546.207	5726
546.272	8274
546.337	8708
546.401	6313
546.466	7004
546.531	5151
546.596	8281
546.661	7000
546.725	8739
546.790	6391
546.855	7766
546.919	6033
546.984	9095
547.049	9814
547.113	11823
547.178	10365
547.243	12543
547.307	15535
547.372	16692
547.436	16125
547.501	17587
547.565	17466
547.630	18417
547.695	17429
547.759	17335
547.823	16901
547.888	16780
547.952	16315
548.017	17374
548.081	18270
548.146	20298
548.210	19246
548.274	19812
548.339	17752
548.403	17698
548.468	15944
548.532	16186
548.596	15602
548.660	16321
548.725	18480
548.789	20339
548.853	20706
548.917	18546
548.982	18276
549.046	17578
549.110	13288
549.174	15329
549.238	16732
549.303	18339
549.367	19360
549.431	17823
549.495	16622
549.559	17565
549.623	19858
549.687	22552
549.751	25074
549.815	26472
549.879	25622
549.943	23710
550.007	24322
550.071	26277
550.135	24422
550.199	23773
550.263	20883
550.327	21026
550.391	23273
550.455	23326
550.519	23568
550.582	27139
550.646	30788
550.710	33235
550.774	29073
550.838	29661
550.901	28741
550.965	32453
551.029	32511
551.093	36910
551.156	40821
551.220	54754
551.284	62496
551.347	41976
551.411	43074
551.475	43393
551.538	32318
551.602	29519
551.666	27778
551.729	25112
551.793	25138
551.856	24415
551.920	22904
551.983	24156
552.047	23266
552.110	24049
552.174	22858
552.237	24303
552.301	23382
552.364	22548
552.428	21378
552.491	22523
552.554	23890
552.618	23643
552.681	24936
552.745	26991
552.808	38796
552.871	49083
552.934	31476
552.998	24973
553.061	23373
553.124	22038
553.187	21309
553.251	22163
553.314	21728
553.377	22516
553.440	22919
553.503	27977
553.567	31994
553.630	23387
553.693	22767
553.756	23960
553.819	21909
553.882	21155
553.945	21182
554.008	20495
554.071	20557
554.134	22721
554.197	19429
554.260	20371
554.323	21805
554.386	21571
554.449	20562
554.512	22268
554.575	20674
554.638	20186
554.701	20484
554.764	20571
554.827	19720
554.889	18391
554.952	17152
555.015	17356
555.078	16186
555.141	19260
555.203	17124
555.266	18340
555.329	16794
555.391	17268
555.454	16764
555.517	16711
555.580	15292
555.642	14856
555.705	13822
555.768	15654
555.830	14795
555.893	14051
555.955	13003
556.018	13136
556.080	12752
556.143	13997
556.206	14052
556.268	13723
556.330	13705
556.393	14678
556.455	13897
556.518	15112
556.580	14122
556.643	11442
556.705	11846
556.767	10878
556.830	11830
556.892	13545
556.955	17166
557.017	14390
557.079	11105
557.142	11658
557.204	12265
557.266	22205
557.328	17047
557.391	10217
557.453	8395
557.515	10542
557.577	11512
557.639	12179
557.701	9852
557.764	10604
557.826	10768
557.888	12201
557.950	12538
558.012	13967
558.074	17574
558.136	44324
558.198	105644
558.260	36105
558.322	15154
558.384	16732
558.446	20538
558.508	24746
558.570	30631
558.632	43290
558.694	57359
558.756	72866
558.818	225780
558.880	535781
558.942	151701
559.003	118408
559.065	56880
559.127	26590
559.189	24073
559.251	28693
559.312	39726
559.374	101621
559.436	340991
559.498	152498
559.559	27765
559.621	25629
559.683	27166
559.744	46448
559.806	155299
559.868	224778
559.929	38977
559.991	23974
560.052	37503
560.114	106153
560.176	62168
560.237	60774
560.299	95795
560.360	20790
560.422	8777
560.483	8515
560.545	6729
560.606	7239
560.667	5144
560.729	6386
560.790	4872
560.852	5794
560.913	5048
560.974	5402
561.036	5792
561.097	6295
561.158	5476
561.220	6348
561.281	5931
561.342	7007
561.403	8579
561.465	11358
561.526	25274
561.587	33423
561.648	8678
561.709	6884
561.771	6069
561.832	5724
561.893	5337
561.954	4668
562.015	5267
562.076	5739
562.137	5017
562.198	5382
562.259	5618
562.320	5096
562.381	6538
562.442	9809
562.503	8402
562.564	6284
562.625	4978
562.686	6261
562.747	5953
562.808	6239
562.869	4595
562.930	6400
562.991	5310
563.051	5594
563.112	4806
563.173	4686
563.234	4077
563.294	5665
563.355	4441
563.416	6322
563.477	5297
563.537	5291
563.598	5159
563.659	6183
563.720	4974
563.780	6269
563.841	6250
563.901	5998
563.962	5657
564.023	5935
564.083	5751
564.144	5813
564.204	5024
564.265	6291
564.325	6883
564.386	11451
564.446	10548
564.507	5810
564.567	4863
564.628	6301
564.688	5697
564.749	5155
564.809	6240
564.869	7870
564.930	6093
564.990	6414
565.050	5851
565.111	5890
565.171	5445
565.231	6508
565.292	6544
565.352	5543
565.412	5961
565.472	6666
565.532	6393
565.593	7056
565.653	6588
565.713	8251
565.773	7229
565.833	9871
565.893	12670
565.953	8323
566.013	6861
566.074	8718
566.134	9849
566.194	12903
566.254	14270
566.314	11250
566.374	8421
566.434	10111
566.494	9125
566.554	10877
566.614	10346
566.673	11348
566.733	11843
566.793	12522
566.853	13360
566.913	14497
566.973	14022
567.033	15330
567.092	13341
567.152	14297
567.212	13665
567.272	14484
567.331	14778
567.391	16860
567.451	16662
567.511	19890
567.570	18118
567.630	15627
567.690	15190
567.749	16473
567.809	17833
567.868	20816
567.928	23967
567.988	26611
568.047	31636
568.107	40490
568.166	53800
568.226	84234
568.285	113908
568.345	97916
568.404	80862
568.464	72333
568.523	68549
568.582	71025
568.642	77711
568.701	94151
568.761	132030
568.820	198908
568.879	188640
568.939	141485
568.998	108640
569.057	85469
569.116	71356
569.176	57100
569.235	47650
569.294	41376
569.353	35994
569.413	32087
569.472	27701
569.531	25212
569.590	21796
569.649	20704
569.708	18882
569.767	19779
569.827	19085
569.886	16409
569.945	15076
570.004	15370
570.063	13765
570.122	13427
570.181	13205
570.240	13881
570.299	13296
570.358	14467
570.417	10481
570.475	10670
570.534	10417
570.593	11116
570.652	10958
570.711	11771
570.770	9243
570.829	11512
570.887	10649
570.946	11741
571.005	8720
571.064	9291
571.122	10057
571.181	10397
571.240	7671
571.299	7893
571.357	7712
571.416	8787
571.475	8765
571.533	9296
571.592	7467
571.650	7570
571.709	7080
571.768	8958
571.826	7350
571.885	8025
571.943	7020
572.002	7676
572.060	6831
572.119	6690
572.177	6578
572.236	6734
572.294	6236
572.352	6660
572.411	6388
572.469	6775
572.528	5964
572.586	6610
572.644	7551
572.703	10386
572.761	7428
572.819	6544
572.877	5578
572.936	6101
572.994	5258
573.052	6385
573.110	6250
573.169	6937
573.227	5756
573.285	5816
573.343	5732
573.401	6562
573.459	6712
573.517	5405
573.576	6378
573.634	7226
573.692	7000
573.750	6977
573.808	5830
573.866	6418
573.924	7594
573.982	7344
574.040	5464
574.098	6177
574.155	5942
574.213	6391
574.271	5588
574.329	7061
574.387	5673
574.445	4923
574.503	4955
574.560	5214
574.618	5621
574.676	4990
574.734	4590
574.792	7207
574.849	5584
574.907	5562
574.965	4701
575.022	4983
575.080	4634
575.138	6030
575.195	6443
575.253	5950
575.311	7202
575.368	5709
575.426	4628
575.483	6359
575.541	5319
575.598	5627
575.656	5198
575.713	6707
575.771	5074
575.828	5633
575.886	6050
575.943	6725
576.001	5712
576.058	6078
576.115	5794
576.173	7520
576.230	8458
576.287	9889
576.345	7464
576.402	6035
576.459	6518
576.517	6482
576.574	6486
576.631	7508
576.688	5584
576.746	5745
576.803	5442
576.860	6311
576.917	5965
576.974	6388
577.031	5765
577.089	6387
577.146	6033
577.203	6601
577.260	6073
577.317	7230
577.374	6825
577.431	7096
577.488	6190
577.545	6251
577.602	5712
577.659	6373
577.716	6313
577.773	5644
577.830	5759
577.886	5922
577.943	5882
578.000	5731
578.057	6310
578.114	6963
578.171	6762
578.227	6856
578.284	6358
578.341	7592
578.398	6483
578.454	7938
578.511	7722
578.568	8909
578.625	6822
578.681	6921
578.738	5938
578.794	6238
578.851	6526
578.908	7643
578.964	7112
579.021	7902
579.077	6778
579.134	7257
579.190	6230
579.247	6796
579.303	6770
579.360	6457
579.416	6963
579.473	6244
579.529	6131
579.586	7170
579.642	7197
579.698	7510
579.755	7696
579.811	8280
579.867	6738
579.924	6841
579.980	7177
580.036	8258
580.093	7525
580.149	8309
580.205	7726
580.261	8590
580.317	7429
580.374	9353
580.430	9104
580.486	9420
580.542	7385
580.598	8961
580.619	8613
580.654	8016
580.692	8173
580.710	8260
580.765	8166
580.767	8167
580.823	8651
580.838	8077
580.879	6570
580.911	7561
580.935	8304
580.984	8009
580.991	7969
581.047	8450
581.057	8232
581.103	7321
581.130	8070
581.159	8843
581.203	8774
581.215	8762
581.270	8599
581.276	8487
581.326	7429
581.349	7763
581.382	8267
581.422	8432
581.438	8516
581.494	8643
581.494	8642
581.550	8675
581.567	8778
581.606	8928
581.640	8741
581.661	8620
581.713	10216
581.717	10352
581.773	7768
581.786	8123
581.829	9291
581.859	8681
581.885	8147
581.932	8958
581.940	9112
581.996	9093
582.004	9147
582.052	9407
582.077	8820
582.107	8144
582.150	9539
582.163	9954
582.219	8655
582.223	8779
582.274	10449
582.296	10191
582.330	9621
582.368	10558
582.386	11015
582.441	9441
582.441	9439
582.497	10152
582.514	10036
582.552	9818
582.587	10240
582.608	10482
582.659	9582
582.663	9511
582.719	11151
582.732	10938
582.774	10288
582.805	10343
582.830	10400
582.877	10494
582.885	10484
582.941	10845
582.950	10839
582.996	10924
583.023	11450
583.052	12098
583.095	11039
583.107	10722
583.162	11704
583.168	11736
583.218	11886
583.240	11764
583.273	11643
583.313	11613
583.328	11644
583.384	12724
583.385	12701
583.439	11787
583.458	11693
583.494	11550
583.531	11958
583.549	12309
583.603	12368
583.605	12351
583.660	12376
583.676	12355
583.715	12697
583.748	13022
583.770	13146
583.820	13541
583.825	13592
583.881	13154
583.893	13335
583.936	13830
583.965	13773
583.991	13743
584.038	13861
584.046	13876
584.101	13622
584.110	13728
584.156	14521
584.183	14595
584.211	14385
584.255	14446
584.266	14638
584.321	14408
584.328	14560
584.376	15318
584.400	15439
584.431	15603
584.472	15733
584.486	15812
584.541	15167
584.545	15240
584.596	16361
584.617	16335
584.651	16704
584.689	17910
584.706	18268
584.761	17429
584.762	17433
584.816	18352
584.834	18441
584.871	18951
584.906	19624
584.926	19750
584.978	19500
584.980	19522
585.035	20463
585.051	20928
585.090	22262
585.123	22912
585.145	23155
585.195	24311
585.200	24497
585.254	26673
585.267	27363
585.309	29890
585.340	31423
585.364	32374
585.412	34458
585.419	34875
585.473	39364
585.484	40318
585.528	46232
585.556	52860
585.583	67449
585.628	99905
585.637	112809
585.692	220721
585.700	239165
585.747	302067
585.772	270945
585.801	181390
585.845	72616
585.856	60705
585.910	40958
585.917	38943
585.965	34474
585.989	33515
586.019	33047
586.061	32092
586.074	32042
586.128	32526
586.133	32539
586.183	33230
586.205	33724
586.237	33985
586.277	33408
586.292	33370
586.346	34733
586.349	34741
586.401	35408
586.421	35806
586.455	36789
586.493	38236
586.509	39705
586.564	45179
586.565	45342
586.618	56021
586.637	57640
586.672	53425
586.709	47717
586.727	46364
586.781	45880
586.781	45909
586.835	45875
586.853	45803
586.889	45848
586.925	45721
586.944	46110
586.996	48156
586.998	48249
587.052	50288
587.068	50959
587.106	52263
587.140	52780
587.161	53341
587.212	55978
587.215	56162
587.269	59852
587.284	60550
587.323	62377
587.356	64279
587.377	65731
587.427	69194
587.431	69507
587.485	72970
587.499	74204
587.539	78047
587.571	80314
587.593	81989
587.643	86925
587.648	87470
587.702	92629
587.715	94215
587.755	101340
587.786	106436
587.810	109500
587.858	115965
587.864	117010
587.917	128493
587.930	130929
587.971	140883
588.001	148983
588.025	155916
588.073	170551
588.079	172907
588.133	194434
588.145	199386
588.187	219313
588.217	234094
588.241	247989
588.288	276754
588.295	281721
588.348	326705
588.360	336245
588.402	378244
588.431	409190
588.456	440641
588.503	505818
588.510	518333
588.564	620912
588.575	643364
588.617	763650
588.646	850705
588.671	963988
588.718	1190333
588.725	1241597
588.778	1640372
588.789	1720640
588.832	2067468
588.861	2285742
588.886	2271653
588.932	2152711
588.939	2124588
588.993	1851506
589.004	1827598
589.047	2224119
589.075	2431670
589.100	2269192
589.147	1887969
589.154	1839680
589.207	1445672
589.218	1367060
589.261	1250687
589.290	1182472
589.314	1215168
589.361	1292557
589.368	1330988
589.421	1658683
589.433	1727687
589.475	2033902
589.504	2227316
589.528	2174203
589.576	1979027
589.582	1988865
589.635	2133848
589.647	2146846
589.689	1797298
589.718	1517043
589.742	1307363
589.790	894617
589.795	870942
589.849	655675
589.861	607166
589.902	516909
589.932	452724
589.955	417696
590.004	345892
590.009	341422
590.062	293244
590.075	281550
590.115	255788
590.146	236086
590.168	225334
590.218	202024
590.222	200747
590.275	182564
590.289	177723
590.328	167161
590.360	158841
590.381	154063
590.431	142524
590.435	142097
590.488	132362
590.503	129745
590.541	124649
590.574	119982
590.594	117240
590.645	110047
590.647	109944
590.700	104011
590.716	102149
590.753	99199
590.787	96161
590.806	94334
590.859	89435
590.859	89503
590.912	86854
590.930	85970
590.965	83992
591.001	81678
591.018	80946
591.071	78589
591.072	78454
591.124	76282
591.143	75410
591.177	74325
591.214	72952
591.230	72816
591.283	72210
591.285	72060
591.336	71359
591.356	71009
591.389	70008
591.427	68421
591.442	67293
591.495	62795
591.498	62351
591.547	60957
591.569	60312
591.600	60390
591.640	60124
591.653	59829
591.706	58272
591.711	57983
591.759	58971
591.782	59446
591.811	60154
591.853	60763
591.864	60145
591.917	56482
591.924	55829
591.969	54459
591.995	53557
592.022	53791
592.066	53907
592.075	54213
592.127	55438
592.137	55562
592.180	57445
592.208	58458
592.233	56617
592.279	52659
592.285	52628
592.338	51540
592.350	51166
592.390	49725
592.421	48507
592.443	48942
592.491	49549
592.495	49585
592.548	48660
592.562	48307
592.600	48179
592.633	47877
592.653	47914
592.704	47482
592.705	47762
592.775	48109
592.846	48323
592.916	49651
592.987	51962
593.058	48270
593.128	44987
593.199	45706
593.270	44026
593.341	44422
593.411	44078
593.482	46221
593.553	44643
593.623	43979
593.694	44456
593.764	45195
593.835	43802
593.906	43947
593.976	43792
594.047	44516
594.117	48367
594.188	47533
594.258	43940
594.329	43331
594.399	43974
594.470	44186
594.540	44111
594.611	45243
594.681	44648
594.751	44938
594.822	47874
594.892	48111
594.963	47546
595.033	46597
595.103	48445
595.174	50043
595.244	59317
595.314	64890
595.384	49883
595.455	48343
595.525	49997
595.595	50204
595.665	51154
595.736	50113
595.806	50334
595.876	50646
595.946	50265
596.016	50750
596.087	52834
596.157	51663
596.227	51800
596.297	55391
596.367	57149
596.437	61737
596.507	66064
596.577	72495
596.647	61258
596.717	61407
596.787	62292
596.857	61991
596.927	62812
596.997	61364
597.067	62445
597.137	63229
597.207	64151
597.277	63776
597.347	62200
597.417	60166
597.487	61376
597.557	63886
597.626	64568
597.696	65396
597.766	69024
597.836	73493
597.906	60578
597.975	56699
598.045	57145
598.115	59550
598.185	61575
598.254	69301
598.324	74735
598.394	75241
598.464	74055
598.533	71424
598.603	65572
598.672	65551
598.742	66409
598.812	66785
598.881	67597
598.951	66161
599.020	67176
599.090	68686
599.159	70296
599.229	67994
599.299	64938
599.368	68757
599.437	64932
599.507	62407
599.576	60728
599.646	58820
599.715	59080
599.785	59102
599.854	58891
599.924	60194
599.993	56666
600.062	56493
600.132	58261
600.201	62236
600.270	70959
600.340	73791
600.409	70952
600.478	70608
600.547	70805
600.617	66605
600.686	56557
600.755	52842
600.824	50852
600.894	48911
600.963	47902
601.032	46839
601.101	45529
601.170	43844
601.239	44957
601.308	46880
601.378	45259
601.447	43270
601.516	44888
601.585	45450
601.654	49221
601.723	46792
601.792	45146
601.861	47602
601.930	51640
601.999	52903
602.068	49790
602.137	54087
602.206	53389
602.275	52029
602.343	56847
602.412	57446
602.481	51108
602.550	49859
602.619	50860
602.688	54458
602.756	50878
602.825	52203
602.894	53049
602.963	54221
603.032	54754
603.100	54667
603.169	53839
603.238	54898
603.307	53492
603.375	54767
603.444	56660
603.513	57581
603.581	57856
603.650	58663
603.719	57902
603.787	58839
603.856	59836
603.924	62741
603.993	63709
604.061	65474
604.130	67234
604.198	69306
604.267	70227
604.335	70375
604.404	71409
604.472	71859
604.541	73147
604.609	73170
604.678	74704
604.746	73114
604.815	76393
604.883	77476
604.951	77520
605.020	78629
605.088	79959
605.156	80465
605.225	81649
605.293	81037
605.361	83179
605.429	82581
605.498	86494
605.566	89656
605.634	91029
605.702	94939
605.771	96329
605.839	96555
605.907	93459
605.975	90558
606.043	88842
606.111	89561
606.180	89365
606.248	89719
606.316	88003
606.384	88534
606.452	93902
606.520	101920
606.588	95781
606.656	92985
606.724	90446
606.792	85978
606.860	78304
606.928	71668
606.996	68555
607.064	66585
607.132	68244
607.200	73071
607.267	76003
607.335	77438
607.403	78834
607.471	75221
607.539	73867
607.607	74884
607.674	66331
607.742	67599
607.810	67896
607.878	66475
607.946	68169
608.013	70727
608.081	72123
608.149	73125
608.216	73424
608.284	78855
608.352	76435
608.419	77394
608.487	82369
608.555	74957
608.622	75552
608.690	79502
608.757	87554
608.825	90596
608.893	88931
608.960	87258
609.028	87423
609.095	88556
609.163	80676
609.230	72412
609.298	66438
609.365	68842
609.432	74302
609.500	81245
609.567	92118
609.635	104790
609.702	111073
609.769	107394
609.837	86072
609.904	74364
609.971	76526
610.039	92170
610.106	128568
610.173	266281
610.241	642117
610.308	463384
610.375	210861
610.442	98938
610.509	80743
610.577	76765
610.644	77382
610.711	78311
610.778	80202
610.845	81804
610.912	87080
610.980	90075
611.047	90878
611.114	90348
611.181	85224
611.248	84646
611.315	89404
611.382	90433
611.449	94338
611.516	97792
611.583	94864
611.650	95529
611.717	98301
611.784	100514
611.851	105696
611.918	118501
611.984	144165
612.051	221624
612.118	495740
612.185	1283906
612.252	767205
612.319	174630
612.386	132411
612.452	119051
612.519	113054
612.586	116202
612.653	113165
612.719	114584
612.786	107490
612.853	100993
612.919	97054
612.986	99474
613.053	92919
613.120	86661
613.186	85055
613.253	86562
613.319	85821
613.386	85858
613.453	88189
613.519	92636
613.586	97595
613.652	111925
613.719	101477
613.785	98076
613.852	88975
613.918	86982
613.985	90318
614.051	94301
614.118	101530
614.184	98328
614.250	87428
614.317	89064
614.383	86628
614.449	88414
614.516	89234
614.582	90955
614.648	87323
614.715	88631
614.781	86290
614.847	86277
614.914	86473
614.980	83783
615.046	84175
615.112	87680
615.179	89679
615.245	95317
615.311	105738
615.377	144575
615.443	151840
615.509	110072
615.575	100034
615.642	96354
615.708	101707
615.774	108284
615.840	119126
615.906	138786
615.972	207008
616.038	385905
616.104	737493
616.170	1628555
616.236	1323707
616.302	275198
616.368	183334
616.434	131069
616.500	119820
616.565	129797
616.631	163714
616.697	131924
616.763	136276
616.829	212458
616.895	381091
616.961	360870
617.026	152307
617.092	103066
617.158	94541
617.224	90982
617.289	84544
617.355	81145
617.421	79130
617.487	79607
617.552	74071
617.618	74219
617.684	73202
617.749	76883
617.815	71489
617.880	69596
617.946	71218
618.012	72401
618.077	72425
618.143	69502
618.208	70211
618.274	75094
618.339	77359
618.405	64110
618.470	63651
618.536	64089
618.601	64973
618.667	60009
618.732	57646
618.798	55810
618.863	56504
618.928	55069
618.994	58704
619.059	61551
619.124	72043
619.190	60496
619.255	55052
619.320	55854
619.386	54199
619.451	54102
619.516	52769
619.581	53532
619.647	54328
619.712	54163
619.777	53159
619.842	54193
619.907	54269
619.972	55310
620.038	54767
620.103	52958
620.168	51229
620.233	52945
620.298	53381
620.363	53207
620.428	54882
620.493	56789
620.558	55978
620.623	56396
620.688	56325
620.753	54913
620.818	57583
620.883	57626
620.948	57661
621.013	58267
621.078	56138
621.143	56398
621.207	59951
621.272	58451
621.337	58328
621.402	58457
621.467	62820
621.532	62863
621.596	61219
621.661	55638
621.726	54565
621.791	55510
621.855	57985
621.920	58412
621.985	58283
622.049	62594
622.114	60754
622.179	58893
622.243	61291
622.308	61133
622.373	63626
622.437	61544
622.502	58176
622.566	58541
622.631	57046
622.695	59811
622.760	58278
622.824	60046
622.889	60687
622.953	64433
623.018	81814
623.082	78386
623.147	63624
623.211	62039
623.276	62421
623.340	58177
623.404	56397
623.469	56443
623.533	57540
623.597	54570
623.662	55595
623.726	51437
623.790	49183
623.854	48149
623.919	49027
623.983	49341
624.047	50702
624.111	51273
624.176	53219
624.240	54554
624.304	58484
624.368	52315
624.432	51940
624.496	54971
624.560	59447
624.625	62353
624.689	56069
624.753	56183
624.817	55200
624.881	53966
624.945	48637
625.009	47817
625.073	49230
625.137	52941
625.201	62465
625.265	60368
625.329	50456
625.393	52468
625.456	51555
625.520	53918
625.584	56376
625.648	62066
625.712	74591
625.776	117748
625.839	123956
625.903	64123
625.967	46644
626.031	63753
626.095	86264
626.158	52534
626.222	39119
626.286	37905
626.349	35658
626.413	34585
626.477	37916
626.540	34594
626.604	33872
626.668	35180
626.731	33461
626.795	34261
626.858	35131
626.922	33594
626.986	33980
627.049	31851
627.113	34867
627.176	32680
627.240	31646
627.303	31920
627.366	32200
627.430	33867
627.493	32835
627.557	31760
627.620	33360
627.684	34227
627.747	33758
627.810	30684
627.874	29363
627.937	27616
628.000	30465
628.064	30162
628.127	23511
628.190	27657
628.253	26447
628.317	25115
628.380	24777
628.443	24902
628.506	25001
628.569	23256
628.632	21957
628.696	22517
628.759	22146
628.822	20613
628.885	19993
628.948	20862
629.011	21823
629.074	20314
629.137	19882
629.200	20078
629.263	22274
629.326	19168
629.389	18805
629.452	20391
629.515	19185
629.578	20412
629.641	21379
629.704	19812
629.767	20566
629.830	19515
629.892	19364
629.955	17977
630.018	21939
630.081	22986
630.144	27374
630.207	20912
630.269	22456
630.332	20294
630.395	20148
630.458	18295
630.520	16640
630.583	18761
630.646	17740
630.708	17788
630.771	17101
630.834	19103
630.896	17501
630.959	18663
631.021	16884
631.084	18257
631.146	19538
631.209	21890
631.272	18000
631.334	18205
631.397	18544
631.459	19446
631.522	20573
631.584	20469
631.646	21488
631.709	23322
631.771	28030
631.834	23415
631.896	19562
631.958	17557
632.021	18861
632.083	16990
632.145	18386
632.208	17587
632.270	18699
632.332	17032
632.395	16273
632.457	17938
632.519	16117
632.581	16994
632.643	15787
632.706	16825
632.768	15412
632.830	17104
632.892	16758
632.954	16299
633.016	17864
633.078	15993
633.141	17135
633.203	17113
633.265	16816
633.327	16665
633.389	16324
633.451	18940
633.513	22099
633.575	20614
633.637	20879
633.698	20174
633.760	16854
633.822	18597
633.884	18891
633.946	18525
634.008	18791
634.070	20136
634.132	21034
634.193	22263
634.255	24927
634.317	24993
634.379	24308
634.441	22623
634.502	19434
634.564	19135
634.626	17267
634.687	17312
634.749	17315
634.811	17920
634.873	14640
634.934	15372
634.996	16491
635.057	15613
635.119	15154
635.181	16506
635.242	16641
635.304	14891
635.365	17438
635.427	15867
635.488	16779
635.550	16266
635.611	16203
635.673	15027
635.734	18501
635.796	19154
635.857	21643
635.918	20819
635.980	24020
636.041	24196
636.102	26238
636.164	26855
636.225	25680
636.286	21313
636.348	20211
636.409	18433
636.470	15760
636.531	17303
636.593	17286
636.654	16433
636.715	14826
636.776	14184
636.838	13390
636.899	15430
636.960	13444
637.021	13374
637.082	12999
637.143	13639
637.204	12066
637.265	13038
637.326	12998
637.387	13755
637.448	11115
637.509	13605
637.570	13110
637.631	12849
637.692	11144
637.753	10267
637.814	12643
637.875	12394
637.936	12615
637.997	12015
638.058	12371
638.119	12902
638.179	11417
638.240	11118
638.301	11740
638.362	11514
638.423	11559
638.483	12927
638.544	11358
638.605	11021
638.666	9737
638.726	11207
638.787	11471
638.848	11223
638.908	11893
638.969	11558
639.030	10491
639.090	9915
639.151	11908
639.211	12766
639.272	16702
639.332	25448
639.393	15331
639.453	12069
639.514	11782
639.574	11401
639.635	11232
639.695	10699
639.756	9961
639.816	12287
639.877	13850
639.937	23442
639.997	29484
640.058	12195
640.118	9918
640.178	10772
640.239	9380
640.299	9453
640.359	10054
640.420	10824
640.480	12218
640.540	13469
640.600	13235
640.661	12854
640.721	11901
640.781	16347
640.841	12396
640.901	11870
640.961	10977
641.021	12247
641.082	13426
641.142	18869
641.202	12851
641.262	8481
641.322	10409
641.382	8205
641.442	9434
641.502	9674
641.562	10893
641.622	8815
641.682	11312
641.742	11720
641.802	10821
641.861	10789
641.921	10867
641.981	12486
642.041	12988
642.101	15002
642.161	9744
642.221	9081
642.280	8564
642.340	8221
642.400	7534
642.460	9738
642.519	8832
642.579	9655
642.639	10222
642.698	6402
642.758	10523
642.818	9677
642.877	9142
642.937	10075
642.997	11974
643.056	17525
643.116	10054
643.175	11367
643.235	10015
643.294	9721
643.354	11237
643.414	12801
643.473	15550
643.532	19325
643.592	28342
643.651	48947
643.711	91163
643.770	190374
643.830	486967
643.889	1024087
643.948	210530
644.008	34528
644.067	21394
644.126	15543
644.186	13890
644.245	13294
644.304	9881
644.363	12067
644.423	8079
644.482	10897
644.541	11368
644.600	9527
644.659	13614
644.719	17064
644.778	26863
644.837	47686
644.896	99863
644.955	237621
645.014	69896
645.073	16834
645.132	12092
645.191	11612
645.250	10136
645.309	12809
645.368	12419
645.427	16531
645.486	24668
645.545	44214
645.604	13728
645.663	9335
645.722	9543
645.781	11256
645.840	13063
645.898	17000
645.957	25625
646.016	43418
646.075	85156
646.134	177058
646.192	495933
646.251	701660
646.310	87632
646.369	24425
646.427	19749
646.486	13494
646.545	11120
646.603	10339
646.662	9961
646.721	9133
646.779	9085
646.838	8867
646.896	12263
646.955	16155
647.014	26375
647.072	54234
647.131	146818
647.189	64235
647.248	10919
647.306	9995
647.365	8932
647.423	5907
647.481	8623
647.540	5612
647.598	6702
647.657	7156
647.715	7465
647.773	6116
647.832	7093
647.890	5226
647.948	6507
648.007	6895
648.065	5268
648.123	6394
648.181	7332
648.240	7442
648.298	5010
648.356	6039
648.414	6713
648.472	6344
648.531	6343
648.589	6317
648.647	5171
648.705	5408
648.763	6796
648.821	7118
648.879	6517
648.937	8151
648.995	9361
649.053	12028
649.111	20093
649.169	35699
649.227	66097
649.285	144514
649.343	425192
649.401	182325
649.459	42427
649.516	23920
649.574	11932
649.632	14527
649.690	16805
649.748	14614
649.806	19330
649.863	37736
649.921	100225
649.979	60909
650.037	9981
650.094	5439
650.152	5849
650.210	5929
650.268	5937
650.325	5417
650.383	6402
650.440	4254
650.498	5145
650.556	5559
650.613	3651
650.671	5576
650.728	4583
650.786	5908
650.843	6641
650.901	4114
650.958	5521
651.016	4362
651.073	4965
651.131	4523
651.188	3859
651.246	4719
651.303	3997
651.360	5204
651.418	3782
651.475	4490
651.532	3350
651.590	4662
651.647	3705
651.704	4533
651.762	4004
651.819	4569
651.876	3509
651.933	4217
651.990	3864
652.048	2445
652.105	3769
652.162	4655
652.219	3189
652.276	4445
652.333	3491
652.390	3422
652.448	4453
652.505	4632
652.562	2802
652.619	3651
652.676	4503
652.733	5065
652.790	3106
652.847	2760
652.904	4697
652.961	2853
653.017	3202
653.074	4428
653.131	4182
653.188	2503
653.245	3309
653.302	4002
653.359	3804
653.415	3501
653.472	3254
653.529	4140
653.586	3062
653.642	3319
653.699	3248
653.756	2941
653.813	2738
653.869	4056
653.926	2819
653.983	2703
654.039	3327
654.096	2839
654.152	4798
654.209	2739
654.266	4240
654.322	3421
654.379	4385
654.435	4553
654.492	4961
654.548	7188
654.605	10587
654.661	5296
654.717	3586
654.774	4100
654.830	3981
654.887	3897
654.943	3690
655.000	4221
655.056	3781
655.112	3530
655.168	3088
655.225	3625
655.281	4905
655.337	5390
655.394	7741
655.450	6336
655.506	4817
655.562	8623
655.618	7242
655.675	3365
655.731	3712
655.787	3409
655.843	3688
655.899	2531
655.955	4232
656.011	3033
656.067	2577
656.123	4703
656.179	3698
656.235	4578
656.291	2698
656.347	4310
656.403	3219
656.459	4270
656.515	4177
656.571	4416
656.627	4630
656.683	4221
656.739	3493
656.795	4002
656.850	3304
656.906	4426
656.962	4403
657.018	3235
657.074	3799
657.129	4447
657.185	7031
657.241	12413
657.297	6662
657.352	3795
657.408	3093
657.464	4405
657.519	3549
657.575	2728
657.630	2807
657.686	2630
657.742	2585
657.797	2471
657.853	3332
657.908	4040
657.964	1943
658.019	3578
658.075	3575
658.130	2991
658.186	2037
658.241	3431
658.297	2041
658.352	2328
658.407	2748
658.463	2206
658.518	3195
658.573	3028
658.629	1870
658.684	2121
658.739	2678
658.795	1713
658.850	2516
658.905	2549
658.960	3205
659.016	2360
659.071	3080
659.126	3009
659.181	4078
659.236	7442
659.291	8473
659.346	3408
659.401	4007
659.457	3472
659.512	1904
659.567	2631
659.622	2871
659.677	2559
659.732	2069
659.787	2898
659.842	3682
659.897	4390
659.952	3252
660.007	3369
660.061	3169
660.116	1981
660.171	2482
660.226	2072
660.281	3367
660.336	1754
660.391	3336
660.445	2154
660.500	2278
660.555	2452
660.610	1997
660.664	2943
660.719	1830
660.774	2446
660.828	3527
660.883	3155
660.938	3404
660.992	1237
661.047	2543
661.101	2889
661.156	2514
661.211	2259
661.265	3001
661.320	2339
661.374	1837
661.429	2259
661.483	2520
661.538	1754
661.592	2076
661.647	2577
661.701	2708
661.755	2142
661.810	2177
661.864	2511
661.919	2474
661.973	2395
662.027	1560
662.081	2011
662.136	2084
662.190	3058
662.244	2950
662.299	2665
662.353	1947
662.407	2086
662.461	2028
662.515	2143
662.569	1818
662.624	2860
662.678	1265
662.732	1839
662.786	1995
662.840	2335
662.894	2680
662.948	2202
663.002	1956
663.056	1849
663.110	2262
663.164	1890
663.218	2191
663.272	2733
663.326	2997
663.380	2934
663.434	2249
663.488	2531
663.542	2241
663.595	2084
663.649	2401
663.703	2848
663.757	2244
663.811	1682
663.864	2472
663.918	2637
663.972	2151
664.026	2312
664.079	2463
664.133	3033
664.187	2099
664.240	2197
664.294	2026
664.348	2724
664.401	1558
664.455	1799
664.508	1649
664.562	2707
664.615	2064
664.669	2354
664.722	1527
664.776	2073
664.829	2706
664.883	2605
664.936	2348
664.990	2869
665.043	2670
665.097	1839
665.150	3653
665.203	2630
665.257	2532
665.310	2632
665.363	3217
665.417	2170
665.470	2829
665.523	3049
665.576	3047
665.630	2459
665.683	2067
665.736	3021
665.789	2799
665.842	1767
665.895	2838
665.949	2341
666.002	2236
666.055	3110
666.108	3279
666.161	2637
666.214	3539
666.267	3677
666.320	4256
666.373	3826
666.426	2607
666.479	2939
666.532	2949
666.585	3366
666.638	4049
666.691	3256
666.744	4107
666.796	3174
666.849	3054
666.902	3516
666.955	2440
667.008	2506
667.060	2907
667.113	1368
667.166	2763
667.219	2242
667.271	3114
667.324	2245
667.377	2433
667.430	2348
667.482	2507
667.535	3087
667.587	3788
667.640	3469
667.693	4279
667.745	8159
667.798	7380
667.850	3385
667.903	1967
667.955	3599
668.008	2514
668.060	3633
668.113	2542
668.165	3174
668.218	2483
668.270	3854
668.322	2843
668.375	2623
668.427	3208
668.479	2418
668.532	2413
668.584	3452
668.636	2296
668.689	3364
668.741	2010
668.793	3078
668.845	3176
668.898	3147
668.950	2923
669.002	3608
669.054	2016
669.106	3225
669.158	4087
669.211	3044
669.263	2997
669.315	4088
669.367	3706
669.419	3816
669.471	5279
669.523	5804
669.575	7400
669.627	5593
669.679	3566
669.731	3944
669.783	4932
669.835	5209
669.886	3730
669.938	4182
669.990	4326
670.042	3377
670.094	4279
670.146	5148
670.197	6007
670.249	7432
670.301	8929
670.353	12580
670.404	19912
670.456	29885
670.508	50464
670.560	86875
670.611	155511
670.663	281598
670.715	672582
670.766	951682
670.818	281154
670.869	53340
670.921	26967
670.972	18975
671.024	13384
671.075	10516
671.127	8977
671.178	7109
671.230	6853
671.281	6010
671.333	6478
671.384	5527
671.436	6379
671.487	7945
671.538	8986
671.590	12394
671.641	18638
671.692	33267
671.744	61466
671.795	38206
671.846	13213
671.897	7621
671.949	5108
672.000	5348
672.051	3497
672.102	4747
672.153	3284
672.204	3797
672.256	3662
672.307	2805
672.358	3565
672.409	2485
672.460	2637
672.511	1778
672.562	2129
672.613	2671
672.664	3235
672.715	2673
672.766	2387
672.817	2271
672.868	2202
672.919	2966
672.970	2130
673.021	2627
673.071	2348
673.122	1749
673.173	2452
673.224	1919
673.275	2226
673.326	1922
673.376	2155
673.427	1529
673.478	2270
673.528	1885
673.579	1494
673.630	1599
673.680	2968
673.731	1926
673.782	1923
673.832	1612
673.883	2228
673.934	1870
673.984	1893
674.035	1889
674.085	2067
674.136	2149
674.186	2362
674.237	2785
674.287	4591
674.338	2297
674.388	1837
674.438	2254
674.489	2570
674.539	2585
674.589	1888
674.640	2342
674.690	1899
674.740	1819
674.791	2613
674.841	1992
674.891	1680
674.942	2368
674.992	2172
675.042	1593
675.092	1181
675.142	1435
675.193	871
675.243	2176
675.293	2163
675.343	1732
675.393	1372
675.443	1593
675.493	1472
675.543	1945
675.593	1877
675.643	1540
675.693	1978
675.743	1750
675.793	1662
675.843	2107
675.893	1375
675.943	2271
675.993	971
676.043	1741
676.093	1568
676.142	839
676.192	1415
676.242	739
676.292	1564
676.341	777
676.391	808
676.441	1057
676.491	1444
676.540	1248
676.590	1036
676.640	959
676.689	1582
676.739	484
676.789	1129
676.838	1613
676.888	652
676.937	1179
676.987	1403
677.037	1021
677.086	644
677.136	862
677.185	957
677.235	356
677.284	1462
677.333	1677
677.383	1223
677.432	624
677.482	357
677.531	1575
677.580	1329
677.630	1042
677.679	525
677.728	1059
677.778	1080
677.827	684
677.876	1794
677.925	1815
677.975	1184
678.024	694
678.073	950
678.122	901
678.171	1143
678.220	1649
678.269	2026
678.319	1400
678.368	894
678.417	1582
678.466	1183
678.515	1804
678.564	1866
678.613	1168
678.662	1445
678.711	1233
678.760	1154
678.809	1204
678.857	776
678.906	1883
678.955	1197
679.004	1869
679.053	536
679.102	1018
679.151	453
679.199	727
679.248	1291
679.297	777
679.346	1051
679.394	1137
679.443	415
679.492	1418
679.540	925
679.589	1086
679.638	1032
679.686	673
679.735	1417
679.784	1289
679.832	1932
679.881	1107
679.929	395
679.978	647
680.026	591
680.075	1261
680.123	187
680.172	837
680.220	856
680.268	915
680.317	237
680.365	1080
680.414	456
680.462	612
680.510	964
680.559	767
680.607	1018
680.655	785
680.703	1490
680.752	468
680.800	-33
680.848	635
680.896	1159
680.945	240
680.993	958
681.041	567
681.089	1650
681.137	802
681.185	576
681.233	378
681.258	589
681.281	754
681.329	198
681.377	579
681.380	665
681.425	1598
681.473	1310
681.502	1428
681.521	1437
681.569	1553
681.617	1203
681.624	1194
681.665	894
681.713	2603
681.745	2648
681.761	2617
681.809	1204
681.857	2300
681.867	2280
681.904	2071
681.952	2057
681.989	1746
682.000	1611
682.048	2227
682.096	1042
682.111	1398
682.143	2034
682.191	2425
682.233	2899
682.239	2938
682.286	2494
682.334	2188
682.354	2041
682.382	1764
682.430	2418
682.476	2805
682.477	2782
682.525	2444
682.572	2773
682.598	2716
682.620	2641
682.667	3336
682.715	3750
682.720	3732
682.763	3240
682.810	2872
682.841	3373
682.857	3568
682.905	3385
682.952	3253
682.963	3208
683.000	2907
683.047	3246
683.085	3917
683.095	4072
683.142	3953
683.190	3568
683.206	3322
683.237	2797
683.284	3464
683.328	3607
683.332	3587
683.379	3657
683.426	3680
683.449	3472
683.473	3293
683.521	4107
683.568	3797
683.571	3843
683.615	3948
683.662	4501
683.693	4198
683.709	4026
683.757	3732
683.804	4870
683.814	4923
683.851	4952
683.898	4758
683.936	5282
683.945	5407
683.992	4555
684.039	5416
684.057	5588
684.086	5795
684.133	6046
684.179	5211
684.180	5155
684.227	5874
684.274	5868
684.300	6126
684.321	6270
684.368	5626
684.415	5697
684.422	5693
684.462	5421
684.509	5088
684.543	5129
684.556	5205
684.603	5385
684.649	5172
684.665	5362
684.696	5632
684.743	5913
684.786	5737
684.790	5716
684.837	5626
684.883	6436
684.908	6874
684.930	7154
684.977	6387
685.023	6709
685.029	6687
685.070	6387
685.117	6141
685.150	6261
685.164	6353
685.210	6743
685.257	7791
685.272	7848
685.303	7793
685.350	6845
685.393	7777
685.396	7857
685.443	7635
685.490	8636
685.514	8905
685.536	8883
685.583	8402
685.629	7904
685.636	7936
685.675	8085
685.722	7773
685.757	7647
685.768	7615
685.815	8010
685.861	7443
685.878	7550
685.908	7771
685.954	8623
686.000	8179
686.000	8170
686.047	8551
686.093	9898
686.121	10087
686.139	9804
686.185	8893
686.232	8967
686.242	8935
686.278	9021
686.324	8254
686.363	8218
686.370	8220
686.416	8323
686.463	8704
686.484	8553
686.509	8437
686.555	8369
686.601	8711
686.606	8690
686.647	8363
686.693	8383
686.727	8417
686.739	8440
686.785	8966
686.831	8711
686.848	8703
686.877	8584
686.923	8384
686.969	7915
686.969	7913
687.015	8050
687.061	8907
687.090	9263
687.107	9315
687.153	9201
687.199	9172
687.211	9005
687.245	8805
687.291	9151
687.332	9809
687.336	9854
687.382	9635
687.428	9399
687.453	9529
687.474	9580
687.520	9085
687.565	9177
687.574	9137
687.611	9317
687.657	9287
687.695	9709
687.702	9803
687.748	10112
687.794	11303
687.816	11229
687.839	10870
687.885	10707
687.931	10311
687.937	10343
687.976	10738
688.022	10592
688.058	10429
688.067	10377
688.113	10691
688.158	10381
688.179	10196
688.204	10073
688.249	10381
688.295	10537
688.300	10552
688.340	10863
688.386	10794
688.421	11154
688.431	11165
688.477	10583
688.522	10744
688.542	10604
688.567	10687
688.613	11095
688.658	11178
688.663	11182
688.703	11143
688.749	11121
688.784	11007
688.794	10959
688.839	10826
688.884	10671
688.905	10649
688.930	10658
688.975	11276
689.020	10700
689.026	10684
689.065	10947
689.110	11362
689.146	11288
689.155	11206
689.201	11320
689.246	11294
689.267	11100
689.291	11069
689.336	11762
689.381	11634
689.388	11603
689.426	11339
689.471	11211
689.509	11343
689.516	11413
689.561	11260
689.606	11229
689.630	11428
689.651	11611
689.696	11511
689.741	12251
689.750	12201
689.785	12010
689.830	11677
689.871	11426
689.875	11400
689.920	11334
689.965	11379
689.992	11022
690.010	10971
690.054	11625
690.099	11536
690.112	11607
690.144	11835
690.189	11831
690.233	12330
690.233	12348
690.278	11665
690.323	12164
690.354	11636
690.367	11557
690.412	11834
690.457	12236
690.474	12367
690.501	12433
690.546	12479
690.590	12038
690.595	11998
690.635	11975
690.680	12184
690.716	12127
690.724	12194
690.769	12653
690.813	13345
690.836	13480
690.857	13839
690.902	14666
690.946	15528
690.957	15707
690.991	17270
691.035	19381
691.077	21113
691.080	21150
691.124	21086
691.168	21455
691.198	21343
691.213	20762
691.257	19292
691.301	17451
691.318	16823
691.346	16406
691.390	15476
691.434	14787
691.439	14641
691.478	14287
691.522	14519
691.559	14333
691.567	14431
691.611	14794
691.655	15255
691.680	15535
691.699	15384
691.743	14769
691.787	14267
691.800	14018
691.831	13887
691.875	14292
691.919	14438
691.921	14401
691.964	14198
692.008	14420
692.041	14399
692.052	14457
692.096	14995
692.139	15136
692.162	15287
692.183	15176
692.227	14456
692.271	14177
692.282	14102
692.315	14437
692.359	14382
692.402	14544
692.403	14576
692.447	14884
692.490	14920
692.523	14994
692.534	15012
692.578	15177
692.622	15045
692.643	14890
692.666	14734
692.709	14628
692.753	14461
692.763	14358
692.797	14293
692.840	14424
692.884	14212
692.884	14246
692.928	14834
692.971	15377
693.004	15449
693.015	15417
693.059	15519
693.102	15654
693.124	15573
693.146	15498
693.189	15078
693.233	15002
693.245	14943
693.276	15562
693.320	16654
693.363	17404
693.365	17381
693.407	16923
693.450	16864
693.485	16863
693.493	17121
693.537	17852
693.580	18735
693.605	19296
693.624	19839
693.667	21014
693.710	22290
693.725	22624
693.753	25608
693.797	30510
693.840	35134
693.845	35582
693.883	35193
693.926	35024
693.966	34876
693.970	34571
694.013	30374
694.056	26104
694.086	23407
694.099	23102
694.142	21701
694.185	20210
694.206	19525
694.229	19576
694.272	19673
694.315	19612
694.326	19554
694.358	19719
694.401	19823
694.444	19958
694.446	19915
694.487	19593
694.530	19432
694.566	19010
694.573	18883
694.616	17920
694.659	16797
694.686	16094
694.702	16002
694.745	15779
694.787	15567
694.806	15415
694.830	15717
694.873	16154
694.916	16416
694.926	16531
694.959	16750
695.002	16668
695.044	16666
695.046	16618
695.087	16621
695.130	16928
695.166	16985
695.172	17045
695.215	17118
695.258	17156
695.286	17197
695.301	17111
695.343	16707
695.386	16375
695.406	16140
695.428	16198
695.471	16314
695.514	16290
695.526	16232
695.556	16535
695.599	17174
695.641	17523
695.646	17533
695.684	17261
695.726	16740
695.766	16436
695.769	16487
695.811	16410
695.854	16492
695.886	16500
695.896	16588
695.938	16723
695.981	16742
696.005	16857
696.023	17030
696.065	17310
696.108	17516
696.125	17422
696.150	17286
696.192	17303
696.235	17479
696.245	17410
696.277	17309
696.319	17197
696.361	17077
696.365	17013
696.404	17185
696.446	17474
696.485	17726
696.488	17775
696.530	17709
696.572	17629
696.604	17533
696.614	17632
696.656	17916
696.698	17991
696.724	18179
696.740	18163
696.783	17839
696.825	17589
696.844	17366
696.867	17450
696.909	17662
696.951	17656
696.964	17670
696.992	17727
697.034	17674
697.076	17570
697.083	17520
697.118	18064
697.160	18560
697.202	19087
697.203	19051
697.244	18584
697.286	17910
697.323	17317
697.327	17406
697.369	17787
697.411	18170
697.442	18362
697.453	18529
697.494	18998
697.536	19497
697.562	19800
697.578	19851
697.620	19775
697.661	19684
697.682	19601
697.703	20239
697.744	21342
697.786	22584
697.801	22934
697.828	22976
697.869	22866
697.911	22899
697.921	22845
697.952	22057
697.994	20861
698.035	19656
698.040	19460
698.077	19453
698.118	19346
698.160	19320
698.160	19267
698.201	19024
698.243	18710
698.279	18357
698.284	18431
698.325	18700
698.367	18932
698.399	19066
698.408	19084
698.449	18901
698.491	18757
698.518	18584
698.532	18786
698.573	19264
698.614	19720
698.638	19947
698.656	19969
698.697	19861
698.738	19771
698.757	19674
698.779	19869
698.820	20116
698.862	20376
698.877	20417
698.903	20667
698.944	20972
698.985	21277
698.996	21306
699.026	20994
699.067	20479
699.116	19812
699.235	19646
699.354	20039
699.474	19308
699.593	21324
699.713	20991
699.832	20503
699.951	21580
700.070	20111
700.190	19583
700.309	19488
700.428	20365
700.547	19479
700.667	19175
700.786	20297
700.905	18538
701.024	19626
701.143	18928
701.262	17353
701.381	18958
701.500	20285
701.619	22412
701.738	18739
701.857	18517
701.976	17235
702.095	17935
702.214	20968
702.333	21297
702.452	18905
702.571	17401
702.690	18018
702.809	16773
702.928	17212
703.047	17461
703.165	17532
703.284	17304
703.403	16804
703.522	18834
703.640	18861
703.759	21506
703.878	25463
703.997	18055
704.115	17373
704.234	16408
704.353	17991
704.471	16655
704.590	16313
704.708	15373
704.827	16513
704.946	15941
705.064	17614
705.183	16934
705.301	17941
705.420	22023
705.538	19265
705.656	17948
705.775	18177
705.893	21119
706.012	22365
706.130	17585
706.249	18483
706.367	19269
706.485	20001
706.604	17859
706.722	19643
706.840	22980
706.958	23424
707.077	19543
707.195	17747
707.313	17401
707.431	17186
707.549	16751
707.668	17281
707.786	17448
707.904	15878
708.022	17112
708.140	15941
708.258	16584
708.376	17078
708.494	16225
708.612	17949
708.730	21793
708.848	20620
708.966	21655
709.084	20298
709.202	18647
709.320	18796
709.438	19428
709.556	18953
709.674	18861
709.791	17817
709.909	18076
710.027	18259
710.145	17293
710.263	18104
710.380	18015
710.498	17497
710.616	18080
710.733	18397
710.851	18407
710.969	18966
711.086	16905
711.204	18153
711.322	16860
711.439	17939
711.557	18557
711.674	18201
711.792	16300
711.909	16713
712.027	17079
712.144	16014
712.262	17778
712.379	17805
712.497	22022
712.614	21514
712.732	19553
712.849	19528
712.966	22085
713.084	26332
713.201	21201
713.318	21010
713.436	18585
713.553	19498
713.670	20497
713.787	21988
713.905	22185
714.022	19164
714.139	20417
714.256	25333
714.373	33004
714.490	54468
714.608	141591
714.725	597840
714.842	558662
714.959	47558
715.076	25125
715.193	20598
715.310	20833
715.427	18690
715.544	16782
715.661	18707
715.778	17042
715.895	18197
716.011	19022
716.128	17963
716.245	17586
716.362	22391
716.479	22778
716.596	16571
716.713	17220
716.829	17128
716.946	16391
717.063	14931
717.180	16251
717.296	15276
717.413	15975
717.530	15763
717.646	15818
717.763	15704
717.880	14478
717.996	14421
718.113	15473
718.229	15100
718.346	14141
718.462	15317
718.579	21794
718.695	36803
718.812	25482
718.928	21025
719.045	16148
719.161	14851
719.277	14894
719.394	14816
719.510	15137
719.626	16171
719.743	20500
719.859	24337
719.975	42911
720.092	165614
720.208	359659
720.324	42985
720.440	19040
720.557	19943
720.673	29346
720.789	33956
720.905	58809
721.021	21846
721.137	13417
721.253	13936
721.369	14650
721.486	15671
721.602	20704
721.718	12751
721.834	12270
721.950	13374
722.066	12587
722.181	13477
722.297	13725
722.413	13582
722.529	12379
722.645	12470
722.761	11385
722.877	11416
722.993	12423
723.108	13516
723.224	12034
723.340	12530
723.456	11659
723.571	12320
723.687	12132
723.803	12005
723.918	11971
724.034	11584
724.150	11367
724.265	13321
724.381	23570
724.497	28336
724.612	11613
724.728	10609
724.843	11076
724.959	13083
725.074	22493
725.190	25099
725.305	13076
725.421	11511
725.536	10578
725.651	10927
725.767	9985
725.882	10261
725.997	9966
726.113	10532
726.228	9797
726.343	10094
726.459	9674
726.574	10472
726.689	10245
726.804	9848
726.920	10163
727.035	10469
727.150	10153
727.265	10035
727.380	10731
727.495	10440
727.610	9451
727.725	10119
727.841	10788
727.956	12006
728.071	11988
728.186	10065
728.301	8893
728.416	11865
728.531	9898
728.645	8661
728.760	10429
728.875	12236
728.990	10695
729.105	10493
729.220	11310
729.335	11060
729.449	9960
729.564	8710
729.679	8280
729.794	9038
729.908	9895
730.023	9477
730.138	8789
730.253	9650
730.367	8727
730.482	9129
730.596	9366
730.711	9987
730.826	9578
730.940	9813
731.055	10378
731.169	9684
731.284	8739
731.398	8588
731.513	10759
731.627	10572
731.742	11629
731.856	12611
731.970	12072
732.085	13668
732.199	17123
732.313	29484
732.428	69048
732.542	184731
732.656	97680
732.771	22579
732.885	13417
732.999	12710
733.113	11289
733.227	11672
733.342	10580
733.456	10099
733.570	9192
733.684	8822
733.798	9957
733.912	8812
734.026	8600
734.140	9723
734.254	9626
734.368	15266
734.482	16867
734.596	8527
734.710	8177
734.824	9136
734.938	8565
735.052	8072
735.166	10009
735.280	9909
735.393	8343
735.507	9800
735.621	11425
735.735	17783
735.849	9681
735.962	8624
736.076	9335
736.190	9706
736.303	12299
736.417	13980
736.531	8433
736.644	9140
736.758	7403
736.872	7466
736.985	8335
737.099	7337
737.212	7272
737.326	8503
737.439	7601
737.553	7909
737.666	7418
737.780	7696
737.893	6956
738.007	7381
738.120	7213
738.233	7716
738.347	7456
738.460	7705
738.573	7909
738.687	8429
738.800	8478
738.913	11797
739.026	8632
739.140	7469
739.253	7182
739.366	7123
739.479	7250
739.592	6944
739.705	6809
739.818	8540
739.932	7339
740.045	8075
740.158	8082
740.271	7797
740.384	7700
740.497	8357
740.610	8128
740.723	7466
740.836	7190
740.949	9132
741.062	10858
741.174	9579
741.287	7494
741.400	7938
741.513	8766
741.626	8923
741.739	8220
741.851	8035
741.964	7088
742.077	7350
742.189	6889
742.302	8154
742.415	8036
742.527	7484
742.640	6425
742.753	7498
742.865	6614
742.978	7297
743.090	6342
743.203	6968
743.316	5640
743.428	6666
743.541	6565
743.653	6649
743.766	6095
743.878	6504
743.990	8392
744.103	7897
744.215	6157
744.327	6591
744.440	9026
744.552	14110
744.664	7315
744.777	6576
744.889	6419
745.001	7067
745.113	5948
745.226	5862
745.338	6397
745.450	6222
745.562	6007
745.674	5648
745.786	6120
745.898	6482
746.010	6924
746.122	6947
746.234	6500
746.347	5509
746.459	5232
746.570	5984
746.682	5892
746.794	5923
746.906	5044
747.018	5985
747.130	6309
747.242	5468
747.354	5276
747.466	6856
747.577	5715
747.689	6369
747.801	4949
747.913	5342
748.024	5038
748.136	5633
748.248	6003
748.359	5237
748.471	5289
748.583	5225
748.694	5349
748.806	5447
748.918	6416
749.029	6342
749.141	7342
749.252	6309
749.364	8167
749.475	16757
749.587	10185
749.698	5562
749.809	5466
749.921	5157
750.032	5134
750.144	4719
750.255	5154
750.366	5151
750.478	5248
750.589	6024
750.700	6194
750.811	6293
750.923	8303
751.034	18590
751.145	18153
751.256	6300
751.367	4962
751.479	4963
751.590	5578
751.701	5401
751.812	4632
751.923	5341
752.034	4577
752.145	5489
752.256	4702
752.367	4788
752.478	4621
752.589	5651
752.700	4580
752.811	4027
752.922	4420
753.032	6096
753.143	5834
753.254	4247
753.365	4788
753.476	4738
753.586	4289
753.697	4465
753.808	5089
753.919	4282
754.029	4753
754.140	4653
754.251	4008
754.361	4727
754.472	4565
754.582	4949
754.693	4226
754.804	5065
754.914	3839
755.025	3951
755.135	4271
755.246	4752
755.356	4092
755.466	4810
755.577	4546
755.687	4579
755.798	3797
755.908	4950
756.018	4829
756.129	4429
756.239	4074
756.349	4169
756.460	4269
756.570	5140
756.680	4383
756.790	6260
756.900	5759
757.011	3833
757.121	4396
757.231	4104
757.341	4647
757.451	4363
757.561	3773
757.671	4391
757.781	3820
757.891	5541
758.001	3813
758.111	5279
758.221	5608
758.331	6726
758.441	5739
758.551	8496
758.661	8001
758.771	6070
758.880	5039
758.990	5194
759.100	4441
759.210	4569
759.320	4756
759.429	5676
759.539	4973
759.649	5025
759.758	5665
759.868	5209
759.978	5416
760.087	6378
760.197	5058
760.307	5578
760.416	4903
760.526	4577
760.635	6214
760.745	5699
760.854	5849
760.964	6550
761.073	6174
761.182	6141
761.292	6486
761.401	6069
761.511	5272
761.620	4716
761.729	5045
761.839	5137
761.948	5803
762.057	6269
762.166	4938
762.276	4528
762.385	6104
762.494	4901
762.603	4274
762.712	5432
762.822	5278
762.931	4479
763.040	4041
763.149	4810
763.258	4827
763.367	5936
763.476	5112
763.585	5600
763.694	5507
763.803	6111
763.912	5976
764.021	6550
764.130	5545
764.238	5997
764.347	5648
764.456	6878
764.565	6194
764.674	7041
764.783	6702
764.891	7065
765.000	8337
765.109	8458
765.217	9508
765.326	13027
765.435	13728
765.543	15068
765.652	16835
765.761	21271
765.869	31329
765.978	46583
766.086	79984
766.195	153679
766.303	373247
766.412	837443
766.520	691019
766.629	257597
766.737	102553
766.846	58141
766.954	38296
767.062	28525
767.171	22243
767.279	17237
767.387	13637
767.496	12406
767.604	11016
767.712	9808
767.820	9427
767.928	9202
768.037	7889
768.145	9149
768.253	8594
768.361	8274
768.469	8690
768.577	8012
768.685	9163
768.793	9163
768.901	9117
769.009	10438
769.117	11729
769.225	14342
769.333	20892
769.441	31860
769.549	57701
769.657	134021
769.765	399875
769.873	692631
769.981	294128
770.088	80431
770.196	39118
770.304	26238
770.412	19584
770.519	15096
770.627	11201
770.735	10109
770.842	10310
770.950	9014
771.058	8656
771.165	8775
771.273	7322
771.380	7101
771.488	6983
771.595	7173
771.703	5725
771.810	6301
771.918	5828
772.025	6401
772.133	5750
772.240	6146
772.348	6782
772.455	7144
772.562	4904
772.670	5578
772.777	5280
772.884	4848
772.991	4898
773.099	5597
773.206	5323
773.313	5401
773.420	5170
773.528	4697
773.635	4881
773.742	5409
773.849	5337
773.956	5673
774.063	4605
774.170	4670
774.277	5234
774.384	5086
774.491	4452
774.598	5754
774.705	4886
774.812	6984
774.919	5113
775.026	4310
775.133	4737
775.239	4956
775.346	4397
775.453	4871
775.560	4498
775.667	5373
775.773	3424
775.880	4540
775.987	3281
776.093	5141
776.200	3817
776.307	4336
776.413	4699
776.520	4585
776.627	4086
776.733	3967
776.840	3305
776.946	5164
777.053	4451
777.159	5082
777.266	3350
777.372	5570
777.478	4890
777.585	4943
777.691	4024
777.798	4586
777.904	4751
778.010	7048
778.117	6476
778.223	4520
778.329	4453
778.435	4403
778.542	4114
778.648	3579
778.754	2947
778.860	4140
778.966	4527
779.072	4276
779.178	4167
779.284	3196
779.391	3327
779.497	3151
779.603	4599
779.708	4161
779.815	7993
779.920	19319
780.026	34025
780.132	7110
780.238	3075
780.344	4142
780.450	4025
780.556	3773
780.661	3120
780.767	4733
780.873	4047
780.979	4070
781.085	2673
781.190	3530
781.296	3235
781.402	3625
781.507	3148
781.613	3475
781.719	3336
781.824	3378
781.930	3240
782.035	4002
782.141	2937
782.246	3712
782.352	3833
782.457	3331
782.563	2889
782.668	4009
782.773	2498
782.879	2494
782.984	3543
783.090	5690
783.195	7569
783.300	6348
783.405	3753
783.511	3119
783.616	4016
783.721	3826
783.826	2561
783.932	4006
784.037	3604
784.142	3310
784.247	2688
784.352	3552
784.457	3492
784.562	4016
784.667	3304
784.772	2630
784.877	2596
784.982	4140
785.087	3692
785.192	4051
785.297	3255
785.402	3206
785.507	2748
785.611	3271
785.716	2920
785.821	3168
785.926	2935
786.031	2535
786.135	2509
786.240	2892
786.345	1803
786.450	3085
786.554	2129
786.659	2496
786.763	1953
786.868	3778
786.973	3963
787.077	2648
787.182	2519
787.286	2880
787.391	2803
787.495	1917
787.600	3264
787.704	1410
787.809	2876
787.913	2206
788.017	3013
788.122	3110
788.226	2173
788.330	1971
788.435	2650
788.539	2741
788.643	1857
788.747	2522
788.852	1738
788.956	2043
789.060	3599
789.164	3163
789.268	2394
789.372	2761
789.476	2166
789.580	2157
789.684	1166
789.788	3060
789.892	1363
789.996	1889
790.100	2492
790.204	1964
790.308	2320
790.412	2210
790.516	3164
790.620	2442
790.724	3119
790.828	2414
790.931	1729
791.035	3020
791.139	2424
791.242	2164
791.346	2394
791.450	2299
791.554	2106
791.657	1690
791.761	3160
791.864	3037
791.968	2340
792.072	3362
792.175	2197
792.279	2419
792.382	2875
792.486	1955
792.589	2328
792.693	3090
792.796	1841
792.899	3696
793.003	2874
793.106	1652
793.209	1846
793.313	3581
793.416	1579
793.519	4023
793.623	5289
793.726	8255
793.829	3319
793.932	2444
794.035	2180
794.138	3385
794.242	3439
794.345	3624
794.448	4377
794.551	7749
794.654	12330
794.757	16366
794.860	5350
794.963	3283
795.066	1221
795.169	3150
795.272	1981
795.375	2569
795.477	1253
795.580	2673
795.683	1066
795.786	2335
795.889	843
795.991	2850
796.094	2841
796.197	1405
796.300	3468
796.402	1754
796.505	1118
796.608	1596
796.710	1805
796.813	2210
796.915	1579
797.018	2541
797.120	2882
797.223	1809
797.326	2902
797.428	1548
797.530	1573
797.633	2300
797.735	3672
797.838	3956
797.940	4236
798.042	1746
798.145	1747
798.247	3316
798.349	185
798.452	2270
798.554	2013
798.656	1345
798.758	1966
798.860	1964
798.962	1448
799.065	2128
799.167	842
799.269	3082
799.371	2825
799.473	3052
799.575	2134
799.677	3626
799.779	4533
799.881	5000
799.983	3839
800.085	2657
800.187	2063
800.289	1370
800.390	1878
800.492	2700
800.594	3096
800.696	1663
800.798	2392
800.899	1598
801.001	1293
801.103	1663
801.205	1700
801.306	2102
801.408	933
801.509	2414
801.611	2144
801.713	2090
801.814	585
801.916	2339
802.017	1314
802.119	1086
802.220	1750
802.322	324
802.423	3954
802.525	2433
802.626	1204
802.727	2205
802.829	3281
802.930	565
803.031	2311
803.133	1248
803.234	683
803.335	1723
803.436	497
803.538	1837
803.639	893
803.740	1930
803.841	523
803.942	1977
804.043	1722
804.144	1525
804.245	1439
804.346	1883
804.447	2140
804.548	3414
804.649	5021
804.750	1471
804.851	1049
804.952	1717
805.053	1671
805.154	323
805.255	1915
805.355	1721
805.456	873
805.557	1002
805.658	1250
805.758	1842
805.859	2003
805.960	1667
806.061	1207
806.161	1394
806.262	1033
806.362	1214
806.463	1745
806.564	2517
806.664	2282
806.765	2353
806.865	2299
806.966	2365
807.066	436
807.166	2492
807.267	2755
807.367	1126
807.468	1959
807.568	442
807.668	1817
807.769	2411
807.869	1026
807.969	2241
808.069	1484
808.170	1909
808.270	1676
808.370	2647
808.470	3549
808.570	2609
808.670	1874
808.770	1894
808.870	965
808.970	2144
809.070	1911
809.170	1645
809.271	2596
809.370	2015
809.470	2927
809.570	1452
809.670	1014
809.770	1999
809.870	1310
809.970	928
810.070	1621
810.169	1902
810.269	498
810.369	2965
810.469	1808
810.568	1913
810.668	833
810.768	1655
810.867	2048
810.967	1305
811.066	1381
811.166	1616
811.265	2416
811.365	1782
811.464	613
811.564	2008
811.663	2031
811.763	748
811.862	2330
811.962	2834
812.061	1623
812.160	1996
812.260	2993
812.359	3734
812.458	5439
812.557	16254
812.657	22679
812.756	9409
812.855	3803
812.954	1953
813.053	2816
813.153	1980
813.252	2269
813.351	2392
813.450	1724
813.549	2285
813.648	2354
813.747	2558
813.846	3252
813.945	2565
814.044	1817
814.143	2899
814.242	3270
814.341	2452
814.439	3514
814.538	3725
814.637	3072
814.736	3725
814.835	4510
814.933	2830
815.032	4306
815.131	3498
815.229	3784
815.328	5087
815.427	4347
815.525	4860
815.624	4705
815.722	4718
815.821	5365
815.919	5356
816.018	4910
816.116	7301
816.215	6092
816.313	7475
816.412	7254
816.510	9087
816.609	10108
816.707	8683
816.805	9637
816.904	10905
817.002	11686
817.100	14042
817.198	15722
817.296	17348
817.395	20293
817.493	24807
817.591	29142
817.689	37976
817.787	50299
817.885	76863
817.983	124782
818.081	230665
818.179	462055
818.277	864572
818.375	797713
818.473	397111
818.571	202830
818.669	132823
818.767	108494
818.865	103695
818.963	118283
819.061	155433
819.158	233076
819.256	401889
819.354	726108
819.452	1053744
819.549	861974
819.647	492843
819.745	273625
819.842	170557
819.940	114373
820.038	83531
820.135	64813
820.233	52214
820.330	41267
820.428	33624
820.525	29639
820.623	25400
820.720	22075
820.818	20204
820.915	17534
821.012	16411
821.110	13101
821.207	13475
821.304	11910
821.402	11788
821.499	11510
821.596	10152
821.693	9424
821.791	9143
821.888	10012
821.985	15071
822.082	11901
822.179	8254
822.276	7073
822.373	6021
822.470	5073
822.567	5655
822.664	4478
822.761	6341
822.858	3944
822.955	6049
823.052	4583
823.149	3952
823.246	4460
823.343	4287
823.440	4822
823.536	3755
823.633	3232
823.730	3772
823.827	4067
823.923	3043
824.020	4461
824.117	2971
824.213	2095
824.310	3464
824.407	2347
824.503	3086
824.600	3788
824.696	2070
824.793	3548
824.889	3152
824.986	1764
825.082	2091
825.179	3129
825.275	2994
825.371	1640
825.468	1770
825.564	1403
825.660	2387
825.757	2788
825.853	3090
825.949	1813
826.045	1911
826.142	1438
826.238	2862
826.334	1993
826.430	505
826.526	2511
826.622	2021
826.718	1415
826.814	1735
826.910	2643
827.006	1640
827.102	1565
827.198	2787
827.294	896
827.390	2528
827.486	1764
827.582	919
827.678	824
827.774	2433
827.869	1167
827.965	2293
828.061	729
828.157	1939
828.252	1575
828.348	775
828.444	2621
828.539	1055
828.635	1408
828.731	2028
828.826	665
828.922	1632
829.017	1315
829.113	1877
829.208	1531
829.304	2000
829.399	2495
829.495	1221
829.590	1372
829.685	971
829.781	2285
829.876	2033
829.971	1315
830.066	987
830.162	1101
830.257	900
830.352	1063
830.447	1882
830.543	1917
830.638	428
830.733	1476
830.828	1741
830.923	1171
831.018	1926
831.113	738
831.208	1342
831.303	906
831.398	1547
831.493	1663
831.588	2134
831.683	777
831.778	1396
831.873	1851
831.967	1577
832.062	1315
832.157	700
832.252	1189
832.346	1401
832.441	2285
832.536	3113
832.631	9704
832.725	7525
832.820	865
832.914	846
833.009	920
833.104	1484
833.198	2622
833.293	779
833.387	1525
833.482	1701
833.576	-164
833.670	1712
833.765	1385
833.859	1443
833.954	1802
834.048	2322
834.142	1338
834.237	933
834.331	989
834.425	792
834.519	708
834.613	700
834.708	272
834.802	1446
834.896	439
834.990	1632
835.084	620
835.178	1413
835.272	431
835.366	1093
835.460	1346
835.554	667
835.648	746
835.742	887
835.836	1575
835.930	-779
836.024	1633
836.117	1109
836.211	1448
836.305	1731
836.399	3104
836.493	260
836.586	1640
836.680	293
836.774	177
836.867	1418
836.961	-270
837.055	692
837.148	75
837.242	1472
837.335	1138
837.429	1245
837.522	470
837.616	1200
837.709	2878
837.803	1963
837.896	649
837.989	1121
838.083	2167
838.176	3594
838.269	2990
838.363	1694
838.456	1294
838.549	2876
838.642	4290
838.735	9951
838.829	4220
838.922	836
839.015	600
839.108	65
839.201	1336
839.294	1226
839.387	1119
839.480	16
839.573	1719
839.666	1696
839.759	750
839.852	523
839.945	348
840.038	845
840.131	775
840.223	523
840.316	884
840.409	897
840.502	-37
840.594	1218
840.687	-601
840.780	1413
840.873	579
840.965	850
841.058	2226
841.150	2969
841.243	1355
841.336	586
841.428	907
841.521	1188
841.613	304
841.706	1609
841.798	1051
841.890	790
841.983	-625
842.075	1451
842.167	331
842.260	449
842.352	1450
842.444	2300
842.537	3533
842.629	5812
842.721	1521
842.813	1502
842.905	50
842.997	1295
843.090	416
843.182	2370
843.274	3112
843.366	8518
843.458	17251
843.550	10579
843.642	1003
843.734	1472
843.826	818
843.918	1082
844.009	1293
844.101	422
844.193	136
844.285	800
844.377	904
844.469	681
844.560	483
844.652	1168
844.744	444
844.835	1035
844.927	997
845.019	944
845.110	703
845.202	842
845.293	-318
845.385	-622
845.476	164
845.568	1549
845.659	50
845.751	1417
845.842	208
845.934	135
846.025	638
846.116	1102
846.208	-327
846.299	705
846.390	715
846.482	941
846.573	1242
846.664	2438
846.755	2790
846.846	2730
846.937	-110
847.029	554
847.120	11
847.211	1159
847.302	671
847.393	-557
847.484	675
847.575	31
847.666	367
847.757	263
847.847	220
847.938	655
848.029	452
848.120	788
848.211	-239
848.302	193
848.392	-442
848.483	1002
848.574	518
848.664	39
848.755	172
848.846	410
848.936	-307
849.027	728
849.118	286
849.208	451
849.299	1724
849.389	2756
849.480	5459
849.570	11494
849.661	21731
849.751	36370
849.841	12986
849.932	1896
850.022	908
850.112	1450
850.203	811
850.293	1219
850.383	353
850.474	-151
850.564	-24
850.654	685
850.744	179
850.834	68
850.924	-123
851.014	52
851.104	-35
851.194	480
851.284	1499
851.374	2274
851.464	517
851.554	1344
851.644	1462
851.734	1461
851.824	829
851.914	39
852.004	-407
852.094	-438
852.183	396
852.273	1457
852.363	-334
852.452	318
852.542	168
852.632	152
852.721	1135
852.811	262
852.901	865
852.990	895
853.080	866
853.169	965
853.259	1022
853.348	1095
853.438	1706
853.527	2681
853.617	4127
853.706	8422
853.795	16506
853.885	38941
853.974	73401
854.063	133449
854.152	210252
854.242	77984
854.331	13129
854.420	5682
854.509	3706
854.598	3818
854.687	2734
854.777	2820
854.866	1152
854.955	1668
855.044	-285
855.133	1514
855.222	386
855.311	513
855.400	886
855.488	57
855.577	591
855.666	686
855.755	994
855.844	428
855.933	404
856.021	1131
856.110	44
856.199	595
856.288	-257
856.376	448
856.465	327
856.554	1123
856.642	-287
856.731	-242
856.819	831
856.908	426
856.996	352
857.085	430
857.173	501
857.262	-644
857.350	25
857.438	-231
857.527	413
857.615	608
857.703	200
857.792	-735
857.880	-145
857.968	397
858.056	-327
858.145	331
858.233	-197
858.321	-602
858.409	-219
858.497	244
858.585	-572
858.673	345
858.761	111
858.849	-223
858.937	-561
859.025	-83
859.113	-70
859.201	716
859.289	724
859.377	-424
859.465	376
859.552	-161
859.640	-306
859.728	650
859.816	-272
859.903	257
859.991	-337
860.079	558
860.166	-29
860.254	-135
860.342	75
860.429	-961
860.517	649
860.604	1266
860.692	844
860.779	-299
860.867	-107
860.954	212
861.042	652
861.129	505
861.216	594
861.304	1306
861.391	-445
861.478	-243
861.565	403
861.653	882
861.740	-578
861.827	719
861.914	890
862.001	98
862.089	243
862.176	330
862.263	-276
862.350	758
862.437	-667
862.524	-133
862.611	-340
862.698	430
862.785	-274
862.871	780
862.958	38
863.045	-838
863.132	271
863.219	134
863.306	-613
863.392	1233
863.479	768
863.566	683
863.652	680
863.739	-328
863.826	791
863.912	538
863.999	-575
864.086	590
864.172	-297
864.259	251
864.345	196
864.432	467
864.518	-97
864.604	407
864.691	-214
864.777	1278
864.863	791
864.950	984
865.036	830
865.122	2002
865.209	1570
865.295	1620
865.381	867
865.467	2382
865.553	2606
865.639	4290
865.726	8387
865.812	18192
865.898	36366
865.984	54319
866.070	102372
866.156	109748
866.242	26871
866.328	5662
866.414	3439
866.499	1963
866.585	1330
866.671	1873
866.757	1889
866.843	1358
866.928	827
867.014	1197
867.100	1387
867.186	1518
867.271	702
867.357	2398
867.442	2121
867.528	1305
867.614	-14
867.699	514
867.785	333
867.870	934
867.956	-311
868.041	1372
868.127	1557
868.212	932
868.297	1646
868.383	1104
868.468	2449
868.553	4422
868.639	5413
868.724	13426
868.809	10897
868.894	2222
868.979	454
869.065	1243
869.150	274
869.235	29
869.320	360
869.405	695
869.490	589
869.575	1113
869.660	345
869.745	1588
869.830	492
869.915	285
870.000	240
870.085	249
870.169	385
870.254	1441
870.339	-42
870.424	386
870.509	274
870.593	1199
870.678	-364
870.763	309
870.847	231
870.932	888
871.016	69
871.101	-237
871.186	588
871.270	973
871.355	-435
871.439	967
871.523	443
871.608	549
871.692	-276
871.777	668
871.861	-73
871.945	341
872.030	-23
872.114	509
872.198	266
872.282	3
872.367	92
872.451	97
872.535	-201
872.619	17
872.703	-57
872.787	-144
872.871	373
872.955	864
873.039	-85
873.123	400
873.207	-187
873.291	719
873.375	-39
873.459	502
873.543	-508
873.627	91
873.711	-255
873.794	191
873.878	-208
873.962	68
874.045	-2
874.129	774
874.137	721
874.213	190
874.245	180
874.296	172
874.352	234
874.380	253
874.460	-624
874.464	-658
874.547	195
874.568	388
874.631	928
874.676	567
874.714	291
874.784	546
874.798	591
874.881	1207
874.892	1123
874.965	583
874.999	556
875.048	464
875.107	552
875.131	606
875.215	456
875.215	456
875.298	265
875.323	308
875.381	418
875.430	671
875.465	843
875.538	350
875.548	288
875.631	731
875.646	544
875.714	-382
875.753	63
875.798	579
875.861	295
875.881	194
875.964	-233
875.968	-237
876.047	-201
876.076	210
876.130	891
876.183	401
876.213	159
876.291	816
876.296	862
876.379	-131
876.398	47
876.462	545
876.506	301
876.545	92
876.613	882
876.628	1081
876.711	-317
876.721	-197
876.794	550
876.828	328
876.877	82
876.935	851
876.960	1137
877.043	267
877.043	268
877.125	707
877.150	542
877.208	148
877.258	488
877.291	635
877.365	825
877.374	853
877.456	391
877.472	398
877.539	558
877.579	841
877.622	1048
877.687	457
877.704	327
877.787	1583
877.794	1486
877.869	448
877.901	635
877.952	872
878.008	521
878.034	337
878.115	-33
878.117	-37
878.199	457
878.222	349
878.282	22
878.329	115
878.364	202
878.437	865
878.447	932
878.529	36
878.544	-6
878.611	69
878.651	126
878.694	35
878.758	384
878.776	521
878.858	463
878.865	448
878.941	-75
878.972	-203
879.023	-125
879.078	35
879.105	161
879.185	555
879.187	552
879.269	755
879.292	379
879.351	-363
879.399	-452
879.433	-488
879.506	236
879.516	309
879.598	-480
879.613	-474
879.680	69
879.720	340
879.762	135
879.827	61
879.844	179
879.926	750
879.933	734
880.007	95
880.040	184
880.089	667
880.147	1897
880.171	2290
880.253	4678
880.254	4700
880.335	7592
880.360	8396
880.417	10135
880.467	15103
880.499	18544
880.574	21056
880.580	20996
880.662	6685
880.680	5163
880.744	1083
880.787	777
880.825	376
880.893	239
880.907	312
880.989	392
881.000	374
881.070	72
881.106	220
881.152	362
881.213	221
881.233	62
881.315	-569
881.319	-586
881.396	353
881.426	300
881.478	-685
881.532	-697
881.559	-452
881.639	-170
881.641	-175
881.722	-475
881.745	-568
881.803	-183
881.852	12
881.885	-220
881.958	-189
881.966	-125
882.047	419
882.064	544
882.129	926
882.171	1139
882.210	1219
882.277	1735
882.291	1776
882.372	76
882.383	-32
882.454	-104
882.489	71
882.535	13
882.596	-508
882.616	-643
882.697	-694
882.702	-680
882.778	-137
882.808	38
882.859	205
882.914	132
882.940	-94
883.020	-716
883.021	-714
883.102	-53
883.127	14
883.183	-313
883.233	-557
883.264	-389
883.339	174
883.345	141
883.426	-618
883.445	-696
883.507	9
883.551	293
883.587	28
883.657	-153
883.668	-81
883.749	-114
883.763	-21
883.830	-254
883.869	-623
883.910	-433
883.975	171
883.991	100
884.072	-331
884.081	-406
884.152	-214
884.187	-41
884.233	119
884.292	45
884.314	-36
884.394	519
884.398	516
884.475	-150
884.504	-564
884.555	-728
884.610	-543
884.636	-614
884.716	-765
884.716	-760
884.797	-174
884.821	-14
884.877	-342
884.927	-633
884.958	-649
885.033	-986
885.038	-984
885.118	-715
885.139	-634
885.199	-278
885.244	170
885.279	139
885.350	-590
885.359	-600
885.439	-122
885.456	-124
885.520	-574
885.561	-582
885.600	-459
885.667	-513
885.680	-503
885.760	-391
885.773	-387
885.840	-374
885.878	-296
885.920	-406
885.984	-744
886.000	-655
886.080	-8
886.089	49
886.160	-153
886.195	-186
886.240	-350
886.300	-749
886.320	-670
886.400	-58
886.406	-27
886.480	-14
886.511	-24
886.560	-99
886.616	-163
886.640	-4
886.720	438
886.722	448
886.800	-560
886.827	-898
886.879	-491
886.932	-59
886.959	58
887.038	272
887.039	268
887.119	-245
887.143	-382
887.198	-204
887.248	-127
887.278	-156
887.354	-119
887.358	-124
887.437	-317
887.459	-377
887.517	-3
887.564	343
887.596	199
887.669	-192
887.676	-201
887.755	-335
887.774	-329
887.835	-435
887.880	-586
887.914	-320
887.985	284
887.994	198
888.073	-600
888.090	-766
888.153	-734
888.195	-815
888.232	-879
888.300	-764
888.311	-642
888.391	133
888.405	275
888.470	24
888.510	-181
888.549	37
888.615	519
888.628	359
888.708	-676
888.720	-836
888.787	-574
888.825	-448
888.866	-319
888.930	-75
888.945	-72
889.024	-36
889.035	-39
889.103	-655
889.140	-968
889.182	-794
889.245	-530
889.261	-497
889.340	-317
889.349	-295
889.419	-347
889.454	-369
889.498	-565
889.559	-828
889.577	-568
889.656	599
889.664	715
889.735	142
889.768	-128
889.814	-124
889.873	-115
889.978	-981
890.083	618
890.187	-561
890.292	-834
890.397	-811
890.501	15
890.606	-903
890.710	232
890.815	45
890.919	-390
891.024	-824
891.128	-576
891.233	-624
891.337	118
891.442	-5
891.546	-714
891.650	-307
891.755	-118
891.859	675
891.963	-395
892.068	-287
892.172	-551
892.276	-1211
892.380	-527
892.484	-164
892.589	85
892.693	-527
892.797	-632
892.901	-699
893.005	-453
893.109	-508
893.213	-343
893.317	-378
893.421	33
893.525	-614
893.629	-406
893.733	-843
893.837	-472
893.941	-613
894.045	-761
894.148	27
894.252	-436
894.356	-991
894.460	138
894.564	-254
894.667	-404
894.771	-979
894.875	-944
894.978	-1184
895.082	-312
895.186	-902
895.289	232
895.393	-874
895.496	-386
895.600	-1071
895.703	-345
895.807	-1215
895.910	-492
896.014	-1538
896.117	-160
896.221	-1399
896.324	-532
896.427	-661
896.531	89
896.634	-66
896.737	649
896.840	10
896.944	-265
897.047	-1067
897.150	-278
897.253	-1182
897.356	-441
897.460	-1050
897.563	-280
897.666	-1294
897.769	-222
897.872	-641
897.975	-757
898.078	-737
898.181	463
898.284	-727
898.387	-143
898.490	-1051
898.593	-348
898.695	-997
898.798	528
898.901	-430
899.004	-770
899.107	-1131
899.209	-745
899.312	-1520
899.415	4
899.518	-1523
899.620	-90
899.723	28
899.826	228
899.928	-187
900.031	-332
900.133	-751
900.236	-193
900.338	-841
900.441	16
900.543	-1084
900.646	-286
900.748	-920
900.851	471
900.953	-542
901.055	-99
901.158	-1054
901.260	-175
901.362	-873
901.465	-131
901.567	-1220
901.669	63
901.771	-148
901.873	-266
901.976	-186
902.078	-131
902.180	-1085
902.282	-460
902.384	-1293
902.486	198
902.588	-1135
902.690	-71
902.792	-967
902.894	-869
902.996	-582
903.098	371
903.200	410
903.302	-219
903.404	-765
903.505	-521
903.607	-730
903.709	-545
903.811	-1499
903.913	110
904.014	-1103
904.116	-632
904.218	-129
904.319	-641
904.421	-395
904.523	-874
904.624	-1082
904.726	-425
904.827	-531
904.929	-422
905.030	-713
905.132	804
905.233	-191
905.335	-434
905.436	-867
905.537	-153
905.639	-426
905.740	-197
905.841	-749
905.943	-220
906.044	-1420
906.145	-502
906.247	-1070
906.348	13
906.449	-843
906.550	-520
906.651	-349
906.752	-619
906.854	-971
906.955	144
907.056	-741
907.157	-532
907.258	-1260
907.359	-647
907.460	-499
907.561	-965
907.662	-623
907.762	-926
907.863	-650
907.964	12
908.065	248
908.166	-114
908.267	-753
908.367	-215
908.468	-444
908.569	-789
908.670	-719
908.770	118
908.871	-1092
908.971	-224
909.072	-331
909.173	-151
909.273	-506
909.374	-489
909.474	412
909.575	-672
909.675	-1739
909.776	787
909.876	-856
909.977	-899
910.077	-171
910.177	-195
910.278	-116
910.378	38
910.478	-967
910.579	-627
910.679	-332
910.779	224
910.879	-654
910.980	-292
911.080	-1095
911.180	-111
911.280	-1035
911.380	-3
911.480	464
911.580	496
911.680	-1395
911.780	-422
911.880	-1180
911.980	-567
912.080	-1716
912.180	-26
912.280	-872
912.380	-665
912.480	-1051
912.580	-615
912.679	-622
912.779	-439
912.879	-680
912.979	-679
913.078	-989
913.178	36
913.278	-1251
913.377	123
913.477	-767
913.577	26
913.676	-1047
913.776	-593
913.875	-850
913.975	-146
914.074	-1074
914.174	-1232
914.273	-1496
914.373	666
914.472	-619
914.572	-1085
914.671	-1137
914.770	157
914.870	-1107
914.969	-424
915.068	-757
915.167	-331
915.267	-896
915.366	-200
915.465	-692
915.564	-750
915.663	-797
915.763	-601
915.862	-1720
915.961	-466
916.060	-1028
916.159	-887
916.258	-665
916.357	-476
916.456	-426
916.555	-180
916.654	-1123
916.752	-153
916.851	-227
916.950	424
917.049	-806
917.148	-117
917.247	-276
917.345	10
917.444	-1100
917.543	-329
917.642	-669
917.740	-232
917.839	-433
917.937	817
918.036	-518
918.135	167
918.233	-1159
918.332	-1369
918.430	-1281
918.529	-36
918.627	-755
918.726	159
918.824	-1209
918.923	-1817
919.021	-713
919.119	-1307
919.218	-1897
919.316	58
919.414	-780
919.512	118
919.611	-323
919.709	-1403
919.807	-1455
919.905	-216
920.003	-612
920.102	104
920.200	-568
920.298	-768
920.396	-596
920.494	-295
920.592	-582
920.690	-291
920.788	-626
920.886	-774
920.984	-721
921.082	-482
921.180	-630
921.277	-20
921.375	64
921.473	187
921.571	-917
921.669	-203
921.766	-1051
921.864	455
921.962	-493
922.060	5
922.157	-585
922.255	63
922.352	-958
922.450	-52
922.548	-824
922.645	-663
922.743	-568
922.840	-337
922.938	-783
923.035	-48
923.133	-948
923.230	292
923.327	-428
923.425	-999
923.522	-70
923.619	-191
923.717	-343
923.814	423
923.911	-786
924.008	24
924.106	-812
924.203	734
924.300	-720
924.397	-54
924.494	693
924.591	485
924.688	-425
924.786	1085
924.883	-470
924.979	-193
925.077	-452
925.173	788
925.270	-353
925.367	95
925.464	278
925.561	521
925.658	-62
925.755	409
925.852	-654
925.948	333
926.045	-489
926.142	291
926.239	321
926.335	-388
926.432	74
926.529	98
926.625	-245
926.722	317
926.818	-569
926.915	-486
927.011	13
927.108	-296
927.204	-697
927.301	140
927.397	-884
927.494	-355
927.590	-642
927.687	-376
927.783	-13
927.879	-127
927.976	-797
928.072	203
928.168	-1464
928.264	-81
928.361	-350
928.457	307
928.553	-797
928.649	-403
928.745	-1061
928.841	-417
928.937	33
929.033	271
929.129	-578
929.225	-27
929.321	-767
929.417	-7
929.513	-506
929.609	-194
929.705	-1114
929.801	-62
929.897	-896
929.993	-595
930.089	-679
930.184	-680
930.280	-23
930.376	498
930.471	-1225
930.567	-305
930.663	178
930.758	-1129
930.854	-926
930.950	380
931.045	-540
931.141	44
931.236	-993
931.332	368
931.427	-1046
931.523	81
931.618	-545
931.714	27
931.809	-411
931.905	-304
932.000	-1018
932.095	-565
932.191	-851
932.286	-146
932.381	-1050
932.476	-537
932.572	97
932.667	42
932.762	-1070
932.857	736
932.952	-281
933.047	-136
933.142	-935
933.237	-92
933.332	-1163
933.427	-186
933.522	-1360
933.617	-292
933.712	-345
933.807	301
933.902	-1182
933.997	585
934.092	-725
934.187	-840
934.282	-439
934.376	188
934.471	-569
934.566	-286
934.661	-1059
934.755	-666
934.850	-501
934.945	-377
935.039	-1781
935.134	-62
935.228	-409
935.323	-515
935.417	-567
935.512	-707
935.606	-1448
935.701	-1127
935.795	-1403
935.890	253
935.984	-562
936.079	-690
936.173	-84
936.267	198
936.362	-1214
936.456	291
936.550	-551
936.644	-373
936.738	-649
936.833	-833
936.927	-773
937.021	-1100
937.115	-1411
937.209	-1123
937.303	-688
937.397	-388
937.491	-1373
937.585	-1116
937.679	-717
937.773	-858
937.867	-1750
937.961	-843
938.055	-375
938.149	-373
938.243	-881
938.337	-260
938.430	-620
938.524	-155
938.618	-1057
938.712	67
938.805	-804
938.899	-104
938.993	-800
939.086	71
939.180	-622
939.274	-82
939.367	-718
939.461	-75
939.554	-1342
939.648	-526
939.741	-483
939.835	-627
939.928	-1004
940.022	-394
940.115	-569
940.208	61
940.302	-1216
940.395	-613
940.488	-1219
940.582	-136
940.675	-865
940.768	-37
940.861	-715
940.954	-65
941.048	-975
941.141	-441
941.234	-1360
941.327	-470
941.420	-931
941.513	-329
941.606	-1476
941.699	-180
941.792	-44
941.885	-1285
941.978	-1026
942.071	-51
942.164	-1144
942.257	-969
942.349	-940
942.442	-118
942.535	-792
942.628	-838
942.721	-696
942.813	-1112
942.906	-425
942.999	-938
943.091	-784
943.184	-888
943.277	-1333
943.369	341
943.462	-1316
943.554	-419
943.647	-1952
943.739	-1225
943.832	-511
943.924	-1327
944.017	-1088
944.109	-969
944.201	-1191
944.294	-525
944.386	-355
944.478	-330
944.571	-1239
944.663	-894
944.755	-1234
944.847	-426
944.940	-1027
945.032	-1706
945.124	-1526
945.216	-177
945.308	-1271
945.400	335
945.492	-772
945.584	-748
945.676	-665
945.768	-681
945.860	-830
945.952	-1397
946.044	-571
946.136	-886
946.228	-816
946.320	-1117
946.412	-558
946.503	-601
946.595	-668
946.687	-779
946.779	-1396
946.870	-349
946.962	-1493
947.054	-188
947.145	-1030
947.237	-1062
947.329	-1283
947.420	-677
947.512	-1781
947.603	-1119
947.695	-1080
947.786	-803
947.878	-1484
947.969	-534
948.061	-1386
948.152	-1056
948.243	-1291
948.335	-772
948.426	-1242
948.517	-1183
948.609	-837
948.700	-927
948.791	-1759
948.882	123
948.973	-1060
949.065	-374
949.156	-285
949.247	-1575
949.338	-541
949.429	-129
949.520	-1163
949.611	-1378
949.702	-1149
949.793	-840
949.884	-1401
949.975	-690
950.066	-1379
950.157	-1630
950.247	-621
950.338	-1510
950.429	-1568
950.520	-868
950.611	-1265
950.701	-643
950.792	-1354
950.883	376
950.973	-1917
951.064	109
951.155	-1120
951.245	-663
951.336	-1045
951.427	-1614
951.517	-732
951.608	-899
951.698	-1580
951.788	-969
951.879	-2125
951.969	-1613
952.060	-1521
952.150	-1183
952.240	-751
952.331	-3033
952.421	100
952.511	-869
952.602	-1369
952.692	-795
952.782	-1052
952.872	-575
952.962	-1706
953.052	-695
953.143	-1616
953.233	-514
953.323	-1592
953.413	-806
953.503	-989
953.593	-1408
953.683	-1236
953.773	-1941
953.863	-1332
953.953	-605
954.042	-1834
954.132	-1170
954.222	-1100
954.312	-1242
954.402	-1125
954.492	-942
954.581	-1036
954.671	-1375
954.761	-2065
954.850	-2
954.940	-1229
955.030	-963
955.119	-1119
955.209	-1422
955.298	-1993
955.388	-618
955.477	-567
955.567	-1128
955.656	-568
955.746	-374
955.835	-2030
955.925	-1101
956.014	-859
956.103	-888
956.193	-555
956.282	-1026
956.371	-1849
956.461	-1484
956.550	-1622
956.639	-1008
956.728	-1333
956.817	-652
956.906	-2126
956.995	396
957.085	-1937
957.174	-1219
957.263	-1908
957.352	-965
957.441	-1891
957.530	-307
957.619	-714
957.708	-613
957.796	-1780
957.885	-1235
957.974	-2221
958.063	-764
958.152	-1846
958.241	83
958.329	-1653
958.418	-611
958.507	-1790
958.596	69
958.684	-2229
958.773	-168
958.861	-1810
958.950	-959
959.039	-1005
959.127	-643
959.216	-1664
959.304	-800
959.393	-1218
959.481	-351
959.570	-1361
959.658	-500
959.746	-1743
959.835	-701
959.923	-1056
960.011	-1170
960.100	-1045
960.188	-776
960.276	-1831
960.365	-1293
960.453	-1573
960.541	-2360
960.629	-1196
960.717	-1014
960.805	-1981
960.893	-1612
960.981	-2971
961.069	-979
961.158	-2113
961.245	-685
961.333	-1113
961.421	-1917
961.509	-1049
961.597	-678
961.685	-2064
961.773	-610
961.861	-2554
961.949	-537
962.036	-2298
962.124	-576
962.212	-1917
962.299	-1484
962.387	-2411
962.475	-1611
962.562	-2479
962.650	-685
962.738	-1227
962.825	-1766
962.913	-2305
963.000	-1052
963.088	-1353
963.175	-1318
963.263	-2176
963.350	-1450
963.438	-1348
963.525	-1381
963.612	-1289
963.700	-877
963.787	536
963.874	-217
963.962	-1408
964.049	-566
964.136	-2726
964.223	-1282
964.310	-1109
964.398	-1068
964.485	-2719
964.572	-1550
964.659	-1356
964.746	-1003
964.833	-1398
964.920	-1513
965.007	-1981
965.094	-1429
965.181	-2676
965.268	-1291
965.355	-1666
965.441	-969
965.528	-2271
965.615	-1257
965.702	-2103
965.789	-1732
965.875	-1441
965.962	-1698
966.049	-2063
966.136	-642
966.222	-2957
966.309	-942
966.395	-2499
966.482	-605
966.569	-2364
966.655	-2244
966.742	-1544
966.828	-1581
966.915	-1988
967.001	-737
967.087	-2321
967.174	-1616
967.260	-2031
967.347	-1023
967.433	-2202
967.519	153
967.605	-1822
967.692	-1597
967.778	-1978
967.864	-1341
967.950	-2001
968.036	-1635
968.123	-1801
968.209	-1309
968.295	-3069
968.381	60
968.467	-1500
968.553	-2637
968.639	-793
968.725	-1937
968.811	-980
968.897	-1031
968.983	-1658
969.069	-1788
969.154	-1906
969.240	-978
969.326	-2088
969.412	-1694
969.497	-1827
969.583	-1789
969.669	-1133
969.755	-973
969.840	-1858
969.926	-1549
970.012	-2350
970.097	-1122
970.183	-2186
970.268	-1349
970.354	-1885
970.439	-1836
970.525	-1015
970.610	-1919
970.696	-429
970.781	-842
970.866	-2251
970.952	-854
971.037	-2531
971.122	-1668
971.208	-1868
971.293	-1058
971.378	-2593
971.463	-2061
971.549	-1245
971.634	-1358
971.719	-1921
971.804	-1384
971.889	-971
971.974	-1200
972.059	-1999
972.144	-119
972.229	-2283
972.314	-1356
972.399	-1622
972.484	-1166
972.569	-1595
972.654	-1809
972.739	-834
972.824	-933
972.908	-1475
972.993	-1471
973.078	-2208
973.163	-1893
973.247	-1883
973.332	-2189
973.417	-775
973.501	-1731
973.586	-940
973.671	-1305
973.755	-1315
973.840	-1385
973.924	-1229
974.009	-1386
974.093	-2615
974.178	255
974.262	-1883
974.346	-1599
974.431	-1427
974.515	-1777
974.600	-2036
974.684	-654
974.768	-1634
974.852	-173
974.937	-2269
975.021	-680
975.105	-2300
975.189	-1533
975.273	-1934
975.358	-2586
975.442	-2475
975.526	-1044
975.610	-2616
975.694	-2005
975.778	-1338
975.862	-1501
975.946	-3386
976.030	-148
976.114	-1907
976.198	-1194
976.281	-1960
976.365	-1172
976.449	-1365
976.533	-643
976.617	-1537
976.700	-1477
976.784	-1433
976.868	-1780
976.951	-1059
977.035	-1534
977.119	-1412
977.202	-914
977.286	-2066
977.369	-1154
977.453	-2330
977.536	-2448
977.620	-1698
977.703	-1173
977.787	-3271
977.870	-1274
977.953	-1250
978.037	-1882
978.120	-1202
978.203	-1981
978.287	-1523
978.370	-939
978.453	-2335
978.536	-1296
978.620	-1350
978.703	-877
978.786	-1712
978.869	-2281
978.952	-1490
979.035	589
979.118	-1594
979.201	-1266
979.284	-1488
979.367	-1978
979.450	-1402
979.533	-1861
979.616	-1859
979.699	-1940
979.782	-1919
979.865	-1159
979.948	-1864
980.030	-2039
980.113	-2337
980.196	-1817
980.279	-1314
980.361	-1309
980.444	-1975
980.526	-1120
980.609	-1762
980.692	-775
980.774	-1709
980.857	-2067
980.939	-1077
981.022	-1220
981.104	-1441
981.187	-512
981.269	-1518
981.352	-1093
981.434	-2689
981.516	-1804
981.599	-586
981.681	-970
981.763	-1378
981.846	-830
981.928	-2000
982.010	-1389
982.092	-1847
982.174	-852
982.256	-2296
982.339	-1134
982.421	-2425
982.503	-1344
982.585	-2031
982.667	-1239
982.749	-1454
982.831	-1539
982.913	-2442
982.995	-661
983.077	-3364
983.158	162
983.240	-2515
983.322	-788
983.404	-871
983.486	-1665
983.568	-1562
983.649	-1470
983.731	-1564
983.813	-1761
983.894	-1557
983.976	-2476
984.058	-1927
984.139	-785
984.221	-2763
984.302	-176
984.384	-2101
984.465	-2406
984.547	-2048
984.628	-1710
984.710	-1757
984.791	-1419
984.872	-2043
984.954	-2066
985.035	-1236
985.116	-1740
985.198	-2275
985.279	-512
985.360	-3040
985.441	-1463
985.522	-1481
985.604	-2123
985.685	-4095
985.766	-116
985.847	-1002
985.928	-1158
986.009	-1841
986.090	-1379
986.171	-1618
986.252	-2317
986.333	-1832
986.414	-1045
986.495	-2281
986.576	-2231
986.656	-1337
986.737	-1123
986.818	-1517
986.899	-1297
986.980	-2367
987.060	-1282
987.141	-2150
987.222	-1282
987.302	-2029
987.383	-1359
987.464	-1530
987.544	-1165
987.625	-2491
987.705	-969
987.786	-2215
987.866	-1809
987.947	-1814
988.027	-1514
988.108	-2075
988.188	-1333
988.268	-2162
988.349	-1445
988.429	-2428
988.509	-1984
988.589	-1916
988.670	-2872
988.750	-1094
988.830	-1673
988.910	-2133
988.990	-1787
989.070	-1913
989.151	-1099
989.231	-2694
989.311	-1494
989.391	-1922
989.471	-2423
989.551	-2184
989.631	-2560
989.711	-1907
989.791	-1451
989.870	-2170
989.950	-431
990.030	-2258
990.110	-1988
990.190	-2111
990.269	-1036
990.349	-1671
990.429	-1576
990.509	-1304
990.588	-1717
990.668	-2605
990.747	-1279
990.827	-1952
990.907	-1962
990.986	-2071
991.066	-1521
991.145	-2089
991.225	-1237
991.304	-2502
991.383	-482
991.463	-2540
991.542	-1305
991.622	-2606
991.701	-1832
991.780	-1837
991.859	-1478
991.939	-2118
992.018	-1486
992.097	-2013
992.176	-1697
992.256	-1940
992.335	-1884
992.414	-1767
992.493	-1843
992.572	-2865
992.651	157
992.730	-2582
992.809	-2189
992.888	-3569
992.967	-2774
993.046	-1499
993.125	-2395
993.203	-1679
993.282	-971
993.361	-2086
993.440	-1248
993.519	-3030
993.597	-820
993.676	-3178
993.755	-833
993.834	-2239
993.912	-1539
993.991	-2294
994.069	-1965
994.148	-2616
994.226	-2059
994.305	-1955
994.384	-2784
994.462	-1435
994.540	-2854
994.619	-2494
994.697	-1322
994.776	-2350
994.854	-718
994.932	-2561
995.011	-1870
995.089	-2097
995.167	-1341
995.245	-2191
995.324	-1836
995.402	-1522
995.480	-1451
995.558	-1747
995.636	-3111
995.714	-2623
995.792	-918
995.870	-1703
995.948	-1723
996.026	-1898
996.104	-2992
996.182	-1176
996.260	-2207
996.338	-1982
996.416	-2659
996.494	-2364
996.572	-648
996.649	-2049
996.727	-2424
996.805	-2403
996.883	-1948
996.960	-2755
997.038	-1181
997.116	-1681
997.193	-2950
997.271	-1689
997.348	-2285
997.426	-2386
997.504	-2097
997.581	-1910
997.658	-1562
997.736	-3504
997.813	-1739
997.891	-1119
997.968	-2845
998.046	-1522
998.123	-1983
998.200	-2175
998.277	-3004
998.355	-1864
998.432	-2228
998.509	-2779
998.586	-1505
998.663	-2211
998.741	-2360
998.818	-3179
998.895	-2453
998.972	-2570
999.049	-1944
999.126	-3006
999.203	-1516
999.280	-1939
999.357	-2200
999.434	-2611
999.511	-1663
999.587	-2377
999.664	-2067
999.741	-2197
999.818	-2006
999.895	-2864
999.971	-2508
1000.048	-3209
1000.125	-1799
1000.202	-2701
1000.278	-2535
1000.355	-1731
1000.431	-2459
1000.508	-3162
1000.584	-1782
1000.661	-2658
1000.738	-1997
1000.814	-2567
1000.890	-1418
1000.967	-2525
1001.043	-1202
1001.120	-2983
1001.196	-1786
1001.272	-2157
1001.349	-1964
1001.425	-2310
1001.501	-1145
1001.577	-2961
1001.654	-461
1001.730	-1917
1001.806	-2173
1001.882	-2977
1001.958	-2386
1002.034	-2180
1002.110	-2066
1002.186	-2959
1002.262	-2277
1002.338	-3683
1002.414	-2183
1002.490	-2365
1002.566	-1508
1002.642	-3014
1002.718	-953
1002.794	-2753
1002.870	-2235
1002.945	-2985
1003.021	-2209
1003.097	-2384
1003.173	-1574
1003.248	-3189
1003.324	-1927
1003.400	-2416
1003.475	-2090
1003.551	-2262
1003.626	-1921
1003.702	-2909
1003.777	-1935
1003.853	-2977
1003.928	-2031
1004.004	-2349
1004.079	-1562
1004.155	-2596
1004.230	-2725
1004.305	-2355
1004.381	-2964
1004.456	-3133
1004.531	-1283
1004.607	-2720
1004.682	-1754
1004.757	-2703
1004.832	-1737
1004.907	-3630
1004.982	-1359
1005.057	-1838
1005.133	-1437
1005.208	-2781
1005.283	-2037
1005.358	-2089
1005.433	-2559
1005.508	-2260
1005.583	-2422
1005.657	-3050
1005.732	-1913
1005.807	-2509
1005.882	-1654
1005.957	-2195
1006.032	-1304
1006.106	-1872
1006.181	-1798
1006.256	-2488
1006.331	-2591
1006.405	-2412
1006.480	-1767
1006.554	-2902
1006.629	-1306
1006.704	-2851
1006.778	-2337
1006.853	-1556
1006.927	-1433
1007.002	-3100
1007.076	-2146
1007.150	-3413
1007.225	-2323
1007.299	-1661
1007.373	-2593
1007.448	-2949
1007.522	-884
1007.596	-2220
1007.671	-1899
1007.745	-2152
1007.819	-2599
1007.893	-2862
1007.967	-1361
1008.041	-4332
1008.115	-953
1008.190	-3149
1008.264	-1350
1008.338	-2732
1008.412	-2093
1008.486	-2756
1008.560	-2546
1008.633	-2085
1008.707	-2994
1008.781	-2058
1008.855	-2893
1008.929	-2501
1009.003	-2494
1009.076	-2694
1009.150	-2583
1009.224	-1831
1009.298	-1862
1009.371	-3376
1009.445	-1203
1009.519	-2503
1009.592	-2727
1009.666	-2111
1009.739	-2377
1009.813	-3628
1009.886	-1836
1009.960	-2995
1010.033	-1350
1010.107	-3050
1010.180	-2320
1010.253	-2808
1010.327	-2236
1010.400	-2780
1010.473	-1720
1010.547	-2345
1010.620	-2058
1010.693	-1863
1010.766	-3064
1010.840	-1993
1010.913	-1210
1010.986	-3367
1011.059	-3066
1011.132	-2609
1011.205	-1521
1011.278	-3154
1011.351	-2046
1011.424	-3157
1011.497	-2309
1011.570	-2396
1011.643	-2038
1011.716	-2858
1011.789	-1939
1011.862	-2202
1011.934	-1428
1012.007	-3532
1012.080	-1630
1012.153	-2203
1012.225	-1624
1012.298	-2937
1012.371	-2303
1012.443	-2393
1012.516	-2849
1012.588	-1585
1012.661	-2081
1012.733	-3081
1012.806	-2008
1012.879	-2958
1012.951	-2339
1013.023	-3464
1013.096	-2049
1013.168	-3134
1013.241	-1391
1013.313	-3069
1013.385	-2253
1013.458	-2218
1013.530	-1596
1013.602	-2567
1013.674	-1624
1013.746	-3233
1013.819	-2670
1013.891	-2349
1013.963	-2976
1014.035	-3081
1014.107	-1862
1014.179	-2008
1014.251	-2258
1014.323	-2414
1014.395	-1913
1014.467	-2389
1014.539	-1292
1014.611	-3222
1014.683	-2387
1014.754	-2667
1014.826	-2235
1014.898	-2246
1014.970	-2953
1015.042	-1987
1015.113	-1903
1015.185	-2530
1015.257	-2822
1015.328	-2565
1015.400	-2121
1015.471	-2805
1015.543	-3097
1015.615	-2691
1015.686	-2103
1015.757	-2022
1015.829	-1555
1015.901	-2448
1015.972	-2427
1016.043	-2383
1016.115	-1382
1016.186	-3079
1016.257	-2404
1016.328	-2847
1016.400	-1711
1016.471	-2315
1016.542	-2210
1016.613	-2578
1016.685	-1817
1016.756	-3007
1016.827	-2055
1016.898	-2954
1016.969	-1193
1017.040	-2725
1017.111	-2410
1017.182	-2592
1017.253	-1480
1017.324	-3611
1017.395	-2054
1017.466	-2213
1017.537	-2327
1017.608	-2284
1017.678	-1984
1017.749	-3020
1017.820	-2399
1017.891	-2493
1017.961	-2342
1018.032	-2953
1018.103	-2435
1018.173	-2829
1018.244	-2208
1018.315	-2593
1018.385	-2083
1018.456	-2349
1018.526	-2718
1018.597	-3080
1018.667	-2498
1018.738	-1853
1018.808	-2463
1018.878	-3347
1018.949	-2440
1019.019	-2519
1019.089	-2464
1019.160	-2544
1019.230	-2659
1019.300	-2713
1019.371	-2969
1019.441	-2921
1019.511	-2138
1019.581	-3172
1019.651	-2358
1019.721	-2377
1019.791	-2561
1019.861	-2262
1019.931	-2312
1020.001	-2751
1020.071	-2065
1020.141	-2581
1020.211	-2267
1020.281	-2853
1020.351	-2531
1020.421	-2743
1020.491	-2371
1020.560	-2718
1020.630	-2061
1020.700	-2648
1020.770	-2226
1020.839	-1873
1020.909	-2199
1020.979	-2412
1021.048	-2123
1021.118	-2839
1021.187	-2509
1021.257	-2495
1021.326	-1663
1021.396	-3144
1021.465	-1785
1021.535	-2394
1021.604	-3009
1021.674	-2903
1021.743	-1464
1021.812	-3140
1021.882	-2132
1021.951	-2628
1022.020	-2022
1022.089	-2081
1022.159	-2526
1022.228	-2117
1022.297	-2248
1022.366	-2276
1022.435	-1995
1022.504	-2448
1022.573	-1976
1022.642	-2684
1022.711	-2511
1022.781	-2548
1022.849	-1224
1022.918	-2359
1022.987	-1764
1023.056	-2241
1023.125	-2601
1023.194	-2576
1023.263	-2340
1023.331	-2433
1023.400	-2513
1023.469	-3500
1023.538	-1894
1023.606	-2509
1023.675	-1902
1023.744	-3681
1023.812	-3067
1023.881	-2620
1023.949	-2358
1024.018	-2420
1024.086	-2446
1024.155	-3807
1024.223	-2417
1024.292	-2464
1024.360	-1924
1024.429	-3150
1024.497	-2684
1024.565	-3001
1024.634	-2436
1024.702	-2496
1024.770	-1857
1024.838	-2974
1024.907	-1925
1024.975	-2936
1025.043	-1819
1025.111	-2846
1025.179	-1552
1025.247	-2079
1025.315	-2206
1025.383	-3066
1025.451	-1813
1025.519	-2711
1025.587	-2216
1025.655	-2387
1025.723	-2217
1025.791	-2776
1025.859	-2717
1025.927	-2923
1025.995	-1708
1026.062	-2839
1026.130	-2204
1026.198	-2634
1026.266	-1978
1026.333	-3046
1026.401	-1551
1026.469	-2727
1026.536	-2771
1026.604	-3095
1026.671	-2668
1026.739	-2768
1026.806	-2030
1026.874	-3298
1026.941	-1768
1027.009	-2775
1027.076	-2054
1027.144	-2692
1027.211	-1816
1027.278	-2652
1027.345	-2214
1027.413	-2800
1027.480	-3304
1027.547	-2704
1027.614	-2403
1027.682	-2228
1027.749	-2231
1027.816	-2520
1027.883	-2447
1027.950	-2209
1028.017	-2839
1028.084	-1940
1028.151	-2159
1028.218	-2963
1028.285	-1651
1028.352	-2404
1028.419	-3008
1028.486	-3095
1028.553	-2280
1028.619	-3606
1028.686	-1969
1028.753	-2486
1028.820	-2296
1028.886	-3108
1028.953	-2202
1029.020	-2430
1029.086	-1989
1029.153	-2598
1029.220	-2837
1029.286	-2687
1029.353	-2161
1029.419	-2680
1029.486	-2415
1029.552	-2953
1029.619	-1470
1029.685	-3238
1029.751	-2625
1029.818	-2191
1029.884	-2023
1029.951	-1548
1030.017	-2156
1030.083	-1948
1030.149	-2310
1030.216	-2238
1030.282	-2116
1030.348	-2407
1030.414	-2424
1030.480	-2904
1030.546	-1875
1030.612	-2794
1030.678	-1893
1030.744	-2964
1030.810	-2085
1030.876	-2005
1030.942	-3074
1031.008	-2492
1031.074	-3122
1031.140	-2311
1031.206	-2084
1031.272	-3719
1031.337	-2023
1031.403	-1887
1031.469	-2369
1031.534	-1893
1031.600	-2018
1031.666	-2372
1031.731	-2390
1031.797	-2753
1031.863	-1878
1031.928	-3030
1031.994	-2786
1032.059	-2138
1032.125	-2295
1032.190	-2877
1032.256	-2173
1032.321	-2460
1032.386	-2206
1032.452	-2375
1032.517	-1687
1032.582	-2191
1032.647	-2060
1032.713	-2835
1032.778	-1506
1032.843	-3027
1032.908	-2160
1032.974	-2446
1033.039	-2125
1033.104	-3121
1033.169	-2339
1033.234	-2517
1033.299	-1558
1033.364	-2414
1033.429	-1741
1033.494	-2378
1033.559	-2281
1033.624	-2631
1033.688	-1799
1033.753	-3193
1033.818	-1761
1033.883	-2454
1033.948	-1735
1034.013	-2669
1034.077	-1921
1034.142	-2664
1034.207	-2061
1034.271	-1589
1034.336	-1655
1034.400	-2478
1034.465	-1688
1034.530	-2433
1034.594	-2255
1034.658	-2822
1034.723	-1505
1034.787	-2623
1034.852	-1334
1034.916	-2116
1034.981	-2787
1035.045	-2230
1035.109	-1837
1035.173	-2710
1035.238	-2452
1035.302	-2853
1035.366	-2156
1035.430	-1578
1035.495	-2739
1035.559	-1937
1035.623	-1972
1035.687	-3538
1035.751	-2663
1035.815	-2349
1035.879	-2525
1035.943	-2272
1036.007	-2895
1036.071	-3092
1036.135	-1862
1036.198	-2234
1036.262	-1818
1036.326	-3067
1036.390	-1562
1036.454	-2318
1036.517	-2463
1036.581	-2455
1036.645	-1672
1036.709	-1960
1036.772	-2346
1036.836	-2468
1036.900	-2408
1036.963	-2689
1037.026	-1680
1037.090	-2769
1037.154	-3022
1037.217	-2949
1037.280	-2087
1037.344	-2663
1037.407	-2638
1037.471	-2197
1037.534	-1682
1037.597	-2639
1037.661	-2572
1037.724	-2787
1037.787	-2592
1037.850	-2516
1037.913	-3168
1037.977	-2071
1038.040	-2630
1038.103	-2801
1038.166	-2233
1038.229	-2938
1038.292	-1890
1038.355	-2621
1038.418	-2310
1038.481	-2585
1038.544	-2485
1038.607	-2819
1038.670	-2468
1038.732	-2937
1038.795	-2473
1038.858	-3244
1038.921	-2217
1038.984	-2597
1039.046	-2071
1039.109	-3079
1039.172	-2409
1039.234	-3064
1039.297	-2457
1039.360	-3053
1039.422	-2336
1039.485	-2911
1039.547	-1986
1039.610	-2922
1039.672	-2201
1039.734	-2396
1039.797	-2534
1039.859	-2485
1039.922	-1752
1039.984	-3111
1040.046	-2309
1040.109	-3036
1040.171	-1930
1040.233	-2720
1040.295	-2558
1040.358	-2698
1040.420	-2545
1040.482	-2286
1040.544	-2336
1040.606	-2707
1040.668	-2696
1040.730	-3410
1040.792	-2174
1040.854	-2822
1040.916	-2447
1040.978	-3184
1041.040	-1214
1041.102	-2294
1041.164	-1966
1041.225	-1946
1041.287	-3240
1041.349	-2945
1041.411	-1834
1041.472	-1938
1041.534	-2727
1041.596	-3089
1041.657	-2826
1041.719	-2636
1041.781	-2199
1041.842	-2666
1041.904	-1630
1041.965	-3296
1042.027	-2070
1042.088	-3052
1042.150	-2351
1042.211	-2374
1042.272	-1969
1042.334	-3250
1042.395	-2704
1042.456	-3523
1042.518	-2944
1042.579	-2410
1042.640	-2682
1042.701	-3059
1042.763	-2150
1042.824	-3236
1042.885	-2400
1042.946	-3083
1043.007	-2446
1043.068	-2407
1043.129	-2060
1043.190	-3522
1043.251	-2052
1043.312	-2755
1043.373	-2308
1043.434	-2612
1043.495	-2707
1043.556	-2712
1043.616	-2177
1043.677	-2715
1043.738	-2478
1043.799	-3556
1043.859	-2828
1043.920	-3520
1043.981	-2499
1044.041	-2769
1044.102	-2352
1044.162	-2554
1044.223	-2365
1044.284	-2411
1044.344	-2330
1044.405	-2705
1044.465	-2447
1044.525	-2972
1044.586	-2173
1044.646	-2723
1044.707	-1386
1044.767	-2882
1044.827	-2268
1044.887	-2350
1044.948	-1337
1045.008	-2418
1045.068	-2474
1045.128	-2319
1045.188	-2023
1045.249	-2836
1045.309	-2421
1045.369	-2113
1045.429	-1944
1045.489	-2857
1045.549	-2292
1045.609	-3055
1045.669	-1946
1045.729	-2410
1045.789	-2370
1045.848	-2586
1045.908	-2390
1045.968	-1688
1046.028	-1598
1046.088	-2031
1046.147	-1655
1046.207	-2514
1046.267	-1533
1046.326	-1782
1046.386	-1726
1046.446	-2256
1046.505	-1657
1046.565	-1846
1046.624	-970
1046.684	-2080
1046.743	-1212
1046.803	-1082
1046.862	-723
1046.922	0
