'Start Wavelength	183.907
'End Wavelength	1046.922
'Gate Delay	5.000
'Gate Width (ms)	1.050
'Laser Output Level	0.000
'X Position	0.000
'Y Position	0.000
'Z Position	0.000
'Grid Point Number	1.000
'Shot Number	100.000
183.907	-596.000
183.977	337.000
184.047	-598
184.116	978
184.186	47
184.256	0
184.325	-775
184.395	-666
184.465	517
184.534	459
184.604	-561
184.674	134
184.743	-727
184.813	954
184.883	290
184.952	-107
185.022	491
185.092	609
185.161	-566
185.231	284
185.301	-64
185.370	1149
185.440	-1064
185.509	424
185.579	-1040
185.649	1044
185.718	-143
185.788	1216
185.857	-534
185.927	517
185.996	-170
186.066	540
186.136	-462
186.205	569
186.275	-225
186.344	297
186.414	-187
186.483	-148
186.553	928
186.622	1037
186.692	212
186.761	125
186.831	808
186.900	-141
186.970	-37
187.039	706
187.109	358
187.178	764
187.248	20
187.317	1108
187.387	629
187.456	544
187.526	-581
187.595	468
187.664	-188
187.734	-255
187.803	-26
187.873	1161
187.942	555
188.012	827
188.081	-1048
188.150	190
188.220	187
188.289	1013
188.358	250
188.428	1065
188.497	167
188.567	774
188.636	-510
188.705	401
188.775	249
188.844	266
188.913	308
188.983	236
189.052	-178
189.121	469
189.191	203
189.260	602
189.329	309
189.399	637
189.468	21
189.537	405
189.606	932
189.676	347
189.745	1001
189.814	867
189.883	439
189.953	550
190.022	913
190.091	1212
190.161	1906
190.230	706
190.299	-64
190.368	30
190.437	60
190.507	387
190.576	-217
190.645	619
190.714	-194
190.783	-692
190.853	745
190.922	720
190.991	-456
191.060	-130
191.129	-610
191.198	436
191.268	-41
191.337	461
191.406	39
191.475	-149
191.544	115
191.613	65
191.682	335
191.752	1443
191.821	-861
191.890	404
191.959	59
192.028	-115
192.097	332
192.166	631
192.235	-222
192.304	793
192.373	-843
192.442	462
192.511	-55
192.580	277
192.650	307
192.719	156
192.788	158
192.857	407
192.926	-94
192.995	-156
193.064	97
193.133	486
193.202	1021
193.271	1450
193.340	651
193.409	1265
193.478	895
193.547	1022
193.615	1561
193.684	1498
193.753	384
193.822	1359
193.891	553
193.960	1300
194.029	245
194.098	864
194.167	126
194.236	323
194.305	32
194.374	842
194.443	51
194.512	1326
194.580	271
194.649	780
194.718	994
194.787	1539
194.856	208
194.925	356
194.994	354
195.062	883
195.131	311
195.200	469
195.269	965
195.338	1200
195.407	692
195.475	342
195.544	185
195.613	725
195.682	101
195.751	734
195.819	397
195.888	1354
195.957	715
196.026	814
196.094	1064
196.163	799
196.232	529
196.301	1208
196.369	49
196.438	1058
196.507	138
196.576	1313
196.644	-420
196.713	1169
196.782	-217
196.850	537
196.919	-178
196.988	1095
197.056	514
197.125	949
197.194	436
197.262	665
197.331	565
197.400	645
197.468	-34
197.537	1113
197.606	683
197.674	1260
197.743	1862
197.812	702
197.880	1545
197.949	1001
198.017	1691
198.086	1486
198.155	-349
198.223	1675
198.292	1063
198.360	1299
198.429	252
198.497	898
198.566	412
198.635	2071
198.703	894
198.772	1169
198.840	1697
198.909	2041
198.977	974
199.046	572
199.114	215
199.183	742
199.251	992
199.320	647
199.388	442
199.457	427
199.525	720
199.594	1793
199.662	323
199.731	1274
199.799	498
199.867	708
199.936	568
200.004	1913
200.073	708
200.141	827
200.210	-463
200.278	453
200.346	739
200.415	1059
200.483	450
200.552	1101
200.620	107
200.688	192
200.757	731
200.825	638
200.893	145
200.962	315
201.030	-4
201.098	797
201.167	103
201.235	1280
201.303	230
201.372	1495
201.440	749
201.508	1149
201.577	923
201.645	1479
201.713	1107
201.781	1107
201.850	695
201.918	1242
201.986	372
202.055	996
202.123	29
202.191	566
202.259	733
202.327	1277
202.396	976
202.464	570
202.532	261
202.600	3116
202.669	1165
202.737	770
202.805	174
202.873	1212
202.941	306
203.009	983
203.078	263
203.146	848
203.214	-73
203.282	-372
203.350	1305
203.418	719
203.487	1044
203.555	799
203.623	476
203.691	506
203.759	300
203.827	546
203.895	907
203.963	1177
204.031	473
204.099	788
204.168	242
204.236	1591
204.304	173
204.372	1097
204.440	1165
204.508	1353
204.576	-222
204.644	618
204.712	71
204.780	1183
204.848	1028
204.916	1386
204.984	223
205.052	1128
205.120	286
205.188	1424
205.256	-274
205.324	1410
205.392	1024
205.460	623
205.528	-36
205.596	1515
205.664	506
205.732	724
205.799	3108
205.867	3949
205.935	1227
206.003	1860
206.071	390
206.139	199
206.207	279
206.275	799
206.343	-197
206.411	1203
206.478	917
206.546	540
206.614	915
206.682	583
206.750	-85
206.818	1766
206.885	1399
206.953	1
207.021	669
207.089	1049
207.157	-316
207.225	896
207.292	252
207.360	213
207.428	930
207.496	1448
207.563	358
207.631	1076
207.699	1186
207.767	275
207.834	253
207.902	648
207.970	567
208.038	1267
208.105	247
208.173	1544
208.241	1744
208.309	1421
208.376	873
208.444	2532
208.512	1704
208.579	68
208.647	1436
208.715	1829
208.782	-152
208.850	1449
208.918	801
208.985	654
209.053	1310
209.120	1990
209.188	615
209.256	935
209.323	-286
209.391	1714
209.459	1749
209.526	610
209.594	832
209.661	1529
209.729	-112
209.796	1696
209.864	1002
209.932	1172
209.999	1956
210.067	705
210.134	1043
210.202	1953
210.269	1399
210.337	1379
210.404	1297
210.472	1766
210.539	424
210.607	1025
210.674	542
210.742	1249
210.809	1001
210.877	1067
210.944	1599
211.012	592
211.079	2583
211.146	1170
211.214	641
211.281	2162
211.349	924
211.416	2254
211.484	1571
211.551	1127
211.618	790
211.686	759
211.753	967
211.821	1046
211.888	413
211.955	735
212.023	776
212.090	1686
212.157	879
212.225	1387
212.292	2271
212.359	5661
212.427	10807
212.494	5629
212.561	2171
212.629	1857
212.696	786
212.763	2211
212.831	351
212.898	1819
212.965	144
213.032	2113
213.100	949
213.167	1436
213.234	1849
213.301	1494
213.369	947
213.436	1520
213.503	595
213.570	2089
213.638	787
213.705	1179
213.772	1076
213.839	1796
213.906	1625
213.973	1832
214.041	825
214.108	1914
214.175	1732
214.242	1232
214.309	817
214.376	1447
214.444	1204
214.511	2028
214.578	1559
214.645	1922
214.712	2217
214.779	2493
214.846	684
214.913	2999
214.980	2334
215.048	2650
215.115	2670
215.182	2598
215.249	1412
215.316	1849
215.383	1603
215.450	1468
215.517	884
215.584	1197
215.651	1397
215.718	1351
215.785	1798
215.852	695
215.919	2051
215.986	2511
216.053	891
216.120	926
216.187	1440
216.254	2042
216.321	1551
216.388	2188
216.455	1776
216.522	2638
216.589	1982
216.656	3268
216.722	2823
216.789	3427
216.856	2950
216.923	3310
216.990	2134
217.057	2508
217.124	3136
217.191	2049
217.258	3638
217.324	4376
217.391	4729
217.458	3637
217.525	2517
217.592	3159
217.659	1434
217.725	2749
217.792	2630
217.859	2510
217.926	781
217.993	1543
218.059	1513
218.126	1680
218.193	1396
218.260	1279
218.327	957
218.393	891
218.460	1048
218.527	596
218.594	1381
218.660	2361
218.727	3137
218.794	1026
218.860	977
218.927	1759
218.994	990
219.061	1054
219.127	1814
219.194	2142
219.261	1140
219.327	1122
219.394	1487
219.461	897
219.527	468
219.594	1859
219.661	850
219.727	38
219.794	1580
219.860	909
219.927	1318
219.994	2589
220.060	3127
220.127	2573
220.193	1528
220.260	1995
220.326	2875
220.393	5120
220.460	6687
220.526	4881
220.593	1726
220.659	4522
220.726	2403
220.792	6522
220.859	6402
220.925	8175
220.992	11085
221.058	10820
221.125	8300
221.191	7616
221.258	2402
221.324	2877
221.391	1499
221.457	1645
221.524	1189
221.590	2339
221.657	6640
221.723	4528
221.789	4291
221.856	5834
221.922	1251
221.989	3136
222.055	1735
222.121	1027
222.188	3227
222.254	1932
222.321	1251
222.387	1048
222.453	1108
222.520	764
222.586	146
222.652	1441
222.719	191
222.785	1675
222.851	376
222.918	1435
222.984	763
223.050	1356
223.116	-64
223.183	1541
223.249	599
223.315	416
223.382	1652
223.448	1093
223.514	-300
223.580	540
223.647	-140
223.713	1507
223.779	235
223.845	839
223.911	1017
223.978	375
224.044	1033
224.110	663
224.176	430
224.242	1467
224.309	-162
224.375	648
224.441	577
224.507	102
224.573	-124
224.639	1456
224.705	448
224.772	1224
224.838	454
224.904	1864
224.970	587
225.036	1908
225.102	-450
225.168	1473
225.234	932
225.300	445
225.366	727
225.432	860
225.499	893
225.565	480
225.631	1176
225.697	1460
225.763	822
225.829	2364
225.895	1283
225.961	3466
226.027	2383
226.093	2933
226.159	2135
226.225	4312
226.291	9047
226.357	15992
226.423	8756
226.489	5172
226.554	2709
226.620	2682
226.686	3223
226.752	6405
226.818	7573
226.884	19238
226.950	16637
227.016	7601
227.082	3681
227.148	2525
227.214	2689
227.279	2272
227.345	1136
227.411	2168
227.477	2024
227.543	4160
227.609	2984
227.674	1979
227.740	1125
227.806	2653
227.872	405
227.938	2277
228.003	1374
228.069	1802
228.135	666
228.201	920
228.267	446
228.332	1583
228.398	805
228.464	2098
228.530	-24
228.595	928
228.661	-51
228.727	2037
228.792	2922
228.858	1165
228.924	301
228.990	3032
229.055	1135
229.121	2259
229.187	1030
229.252	1453
229.318	913
229.384	1874
229.449	1916
229.515	383
229.581	312
229.646	2614
229.712	2303
229.777	2417
229.843	2260
229.909	2718
229.974	2840
230.040	2409
230.105	2138
230.171	1751
230.236	2625
230.302	3636
230.368	2759
230.433	966
230.499	1423
230.564	3212
230.630	931
230.695	1392
230.761	1235
230.826	548
230.892	3430
230.957	1354
231.023	1133
231.088	1790
231.154	1441
231.219	2187
231.284	1425
231.350	2817
231.415	556
231.481	2067
231.546	965
231.612	1293
231.677	455
231.742	844
231.808	2073
231.873	1633
231.939	-984
232.004	3629
232.069	3258
232.135	1829
232.200	928
232.265	1761
232.331	329
232.396	1101
232.461	74
232.527	468
232.592	410
232.657	1538
232.723	2626
232.788	3160
232.853	1874
232.918	848
232.984	927
233.049	1351
233.114	1739
233.179	3179
233.245	4441
233.310	5540
233.375	583
233.440	2124
233.506	546
233.571	1463
233.636	482
233.701	2165
233.766	3627
233.832	5777
233.897	1666
233.962	1397
234.027	3036
234.092	2736
234.157	1059
234.222	1668
234.288	2053
234.353	10348
234.418	10230
234.483	5985
234.548	3142
234.613	3486
234.678	2519
234.743	3233
234.808	10761
234.873	6719
234.938	4195
235.004	1660
235.069	1601
235.134	1313
235.199	1655
235.264	2279
235.329	-390
235.394	3098
235.459	3582
235.524	2548
235.589	2349
235.654	1966
235.719	108
235.784	2461
235.849	1877
235.913	6236
235.978	5901
236.043	8632
236.108	2491
236.173	1861
236.238	3032
236.303	2922
236.368	1257
236.433	3417
236.498	6803
236.563	5492
236.627	7014
236.692	22788
236.757	18990
236.822	9433
236.887	6478
236.952	5718
237.017	3630
237.081	5400
237.146	5431
237.211	12322
237.276	21756
237.341	38038
237.405	20569
237.470	8691
237.535	6804
237.600	4052
237.664	3529
237.729	3155
237.794	3565
237.859	8419
237.923	6328
237.988	3827
238.053	5646
238.118	5729
238.182	12123
238.247	14379
238.312	6059
238.376	5212
238.441	1822
238.506	4544
238.570	766
238.635	3448
238.700	1949
238.764	2243
238.829	5552
238.893	8417
238.958	3285
239.023	3531
239.087	2397
239.152	3327
239.216	2076
239.281	2920
239.346	1710
239.410	2346
239.475	2384
239.539	12575
239.604	10829
239.668	4467
239.733	2955
239.797	4081
239.862	6802
239.926	12331
239.991	4893
240.055	2836
240.120	1694
240.184	2287
240.249	1043
240.313	2536
240.378	2321
240.442	8019
240.507	14189
240.571	4964
240.635	5222
240.700	8981
240.764	2608
240.829	2362
240.893	403
240.957	2523
241.022	7458
241.086	15135
241.151	6929
241.215	1754
241.279	3696
241.344	7438
241.408	4409
241.472	2904
241.537	3562
241.601	3108
241.665	1176
241.730	2092
241.794	2999
241.858	2416
241.922	2014
241.987	3185
242.051	2158
242.115	1876
242.179	1755
242.244	2064
242.308	2509
242.372	3039
242.436	3037
242.501	2798
242.565	1127
242.629	2840
242.693	3046
242.757	1855
242.822	1830
242.886	2792
242.950	3549
243.014	2131
243.078	2923
243.142	2876
243.206	2162
243.271	3950
243.335	2147
243.399	5132
243.463	11787
243.527	36904
243.591	12481
243.655	6686
243.719	3558
243.783	4112
243.847	5074
243.911	7403
243.975	8771
244.040	6299
244.104	4185
244.168	2436
244.232	4191
244.296	6210
244.360	5839
244.424	3505
244.488	3946
244.552	3629
244.615	930
244.679	3101
244.743	2820
244.807	3792
244.871	2058
244.935	2627
244.999	1106
245.063	1899
245.127	3001
245.191	5009
245.255	4725
245.319	3943
245.383	2350
245.446	3979
245.510	1159
245.574	2539
245.638	2739
245.702	2745
245.766	6462
245.829	4598
245.893	2343
245.957	2284
246.021	3128
246.085	3309
246.149	3404
246.212	8164
246.276	11128
246.340	5629
246.404	4477
246.467	5527
246.531	5871
246.595	5279
246.659	4895
246.722	3606
246.786	5042
246.850	4964
246.913	6131
246.977	2833
247.041	3389
247.104	3964
247.168	2958
247.232	7759
247.295	14395
247.359	8384
247.423	2989
247.486	8238
247.550	5067
247.614	3402
247.677	5062
247.741	3745
247.804	2838
247.868	4099
247.932	5955
247.995	15438
248.059	6035
248.122	3231
248.186	4122
248.249	6677
248.313	21004
248.376	23537
248.440	15332
248.503	6319
248.567	6434
248.630	7566
248.694	10484
248.757	14374
248.821	22761
248.884	16953
248.948	13724
249.011	20673
249.075	26891
249.138	25948
249.202	11715
249.265	7639
249.328	10305
249.392	7230
249.455	6181
249.519	5006
249.582	5677
249.645	9434
249.709	6662
249.772	4883
249.835	4366
249.899	6229
249.962	5378
250.025	4872
250.089	9394
250.152	14546
250.215	8078
250.279	6515
250.342	6159
250.405	5782
250.468	4893
250.532	5770
250.595	10481
250.658	32040
250.721	57020
250.785	21021
250.848	11215
250.911	6629
250.974	7028
251.038	8505
251.101	14907
251.164	9608
251.227	10907
251.290	8661
251.354	12160
251.417	46210
251.480	47646
251.543	30680
251.606	83781
251.669	65817
251.732	25300
251.795	23088
251.859	23823
251.922	54001
251.985	32924
252.048	12931
252.111	9739
252.174	9460
252.237	15032
252.300	30315
252.363	34170
252.426	70048
252.489	30265
252.552	17524
252.615	10755
252.678	11724
252.741	22319
252.804	31005
252.867	70692
252.930	42536
252.993	22560
253.056	14921
253.119	10273
253.182	8483
253.245	12919
253.308	11941
253.371	9585
253.434	10482
253.497	9503
253.559	16288
253.622	10896
253.685	15274
253.748	17029
253.811	8116
253.874	10705
253.937	10218
254.000	7286
254.062	10849
254.125	16298
254.188	15104
254.251	12573
254.314	7595
254.376	12994
254.439	15869
254.502	12722
254.565	11231
254.628	18983
254.690	13622
254.753	8005
254.816	7191
254.878	7855
254.941	11681
255.004	12267
255.067	6629
255.129	6546
255.192	3874
255.255	3494
255.317	5367
255.380	3227
255.443	3200
255.505	2045
255.568	2270
255.631	3083
255.693	3689
255.756	2307
255.819	3624
255.881	1740
255.944	2339
256.006	2549
256.069	2958
256.132	2283
256.194	4236
256.257	12366
256.319	10486
256.382	8725
256.444	4664
256.507	3648
256.569	2637
256.632	3804
256.694	6593
256.757	13556
256.819	38146
256.882	15483
256.944	7425
257.007	6246
257.069	6630
257.132	3968
257.194	5279
257.257	3770
257.319	3814
257.381	3664
257.444	11548
257.506	41757
257.569	52229
257.631	30969
257.693	14285
257.756	7828
257.818	7412
257.880	4409
257.943	4512
258.005	3249
258.067	4035
258.130	2798
258.192	3776
258.254	10067
258.317	6655
258.379	3767
258.441	8919
258.503	10154
258.566	14137
258.628	22069
258.690	5230
258.753	5864
258.815	9174
258.877	5332
258.939	3973
259.001	3172
259.064	3510
259.126	4450
259.188	6919
259.250	5209
259.312	6064
259.375	15628
259.437	10782
259.499	3321
259.561	4159
259.623	4411
259.685	3325
259.747	3604
259.809	13310
259.872	27174
259.934	36212
259.996	33321
260.058	9196
260.120	4302
260.182	4403
260.244	2685
260.306	2863
260.368	2989
260.430	2598
260.492	5186
260.554	13211
260.616	11908
260.678	16968
260.740	28408
260.802	7283
260.864	5996
260.926	4261
260.988	4288
261.050	4558
261.112	7412
261.174	23373
261.236	23290
261.298	7758
261.359	12164
261.421	20346
261.483	4283
261.545	5898
261.607	2352
261.669	3901
261.731	7235
261.793	18969
261.854	7568
261.916	5648
261.978	3325
262.040	4838
262.102	3810
262.164	7295
262.225	6195
262.287	2911
262.349	8852
262.411	8374
262.472	4334
262.534	6861
262.596	19427
262.658	7226
262.719	2950
262.781	5436
262.843	16218
262.904	8896
262.966	5221
263.028	6462
263.090	26046
263.151	71387
263.213	23522
263.275	10959
263.336	6073
263.398	4596
263.459	3013
263.521	4096
263.583	7184
263.644	7165
263.706	2372
263.767	1883
263.829	1720
263.891	1455
263.952	1274
264.014	1882
264.075	2030
264.137	6699
264.198	3997
264.260	2168
264.321	1536
264.383	5324
264.444	10837
264.506	4028
264.567	3085
264.629	4129
264.690	6467
264.752	3720
264.813	3025
264.875	2225
264.936	2123
264.998	2130
265.059	1113
265.120	2223
265.182	3944
265.243	20775
265.305	21600
265.366	5462
265.427	2782
265.489	3169
265.550	1018
265.611	3440
265.673	1738
265.734	2697
265.795	1850
265.857	1752
265.918	1544
265.979	6266
266.040	31648
266.102	28575
266.163	8277
266.224	6516
266.286	3796
266.347	2465
266.408	2537
266.469	3944
266.530	2023
266.592	2488
266.653	5034
266.714	10252
266.775	2582
266.836	2935
266.898	1401
266.959	3858
267.020	2872
267.081	3733
267.142	1445
267.203	1672
267.264	1398
267.326	3206
267.387	1899
267.448	1397
267.509	1950
267.570	2012
267.631	1892
267.692	1576
267.753	2104
267.814	2348
267.875	3841
267.936	10265
267.997	4553
268.058	3991
268.119	1963
268.180	2839
268.241	1636
268.302	2760
268.363	730
268.424	2662
268.485	2184
268.546	856
268.607	602
268.668	1243
268.729	610
268.790	2085
268.851	1971
268.912	5673
268.972	8498
269.033	4508
269.094	1195
269.155	2440
269.216	1590
269.277	2961
269.338	1220
269.398	2378
269.459	1489
269.520	4768
269.581	5070
269.642	6389
269.702	3432
269.763	3794
269.824	2353
269.885	3478
269.945	5443
270.006	2639
270.067	587
270.128	1657
270.188	989
270.249	1785
270.310	810
270.370	2415
270.431	1629
270.492	1478
270.553	1375
270.613	6348
270.674	10343
270.734	4684
270.795	2039
270.856	3850
270.916	3581
270.977	2106
271.038	3703
271.098	3178
271.159	4705
271.219	5614
271.280	1584
271.340	2128
271.401	2808
271.462	10592
271.522	5051
271.583	3112
271.643	2684
271.704	2772
271.764	3113
271.825	7606
271.885	22773
271.946	31147
272.006	11282
272.066	13229
272.127	23256
272.187	8645
272.248	4612
272.308	4529
272.369	15222
272.429	10269
272.489	7594
272.550	8849
272.610	9221
272.671	7401
272.731	5937
272.791	11440
272.852	5532
272.912	6476
272.972	3221
273.033	3511
273.093	5676
273.153	6652
273.214	4392
273.274	3920
273.334	12065
273.394	25826
273.455	12148
273.515	11661
273.575	23236
273.635	11487
273.696	13920
273.756	25083
273.816	11544
273.876	7829
273.936	15725
273.997	30873
274.057	7457
274.117	5897
274.177	7774
274.237	29479
274.297	27280
274.358	23719
274.418	20699
274.478	16431
274.538	7294
274.598	6176
274.658	22760
274.718	33236
274.778	13123
274.838	7114
274.898	12629
274.958	44089
275.018	27882
275.078	16871
275.138	7850
275.198	5527
275.258	3463
275.318	5239
275.378	9637
275.438	10692
275.498	6840
275.558	18108
275.618	38050
275.678	19303
275.738	11613
275.798	8955
275.858	4560
275.918	2729
275.978	3894
276.038	3884
276.098	3168
276.157	6758
276.217	20244
276.277	10204
276.337	7073
276.397	3690
276.457	4384
276.517	3711
276.576	3033
276.636	3245
276.696	4955
276.756	12371
276.815	8942
276.875	4951
276.935	4945
276.995	5261
277.055	3654
277.114	3565
277.174	4082
277.234	15528
277.293	7700
277.353	4306
277.413	3388
277.472	4222
277.532	4323
277.592	5038
277.651	16252
277.711	34086
277.771	11763
277.830	36244
277.890	32386
277.950	21011
278.009	57457
278.069	24026
278.128	22858
278.188	37882
278.248	16255
278.307	35883
278.367	25142
278.426	8406
278.486	5778
278.545	4832
278.605	3590
278.664	3812
278.724	4237
278.783	10184
278.843	24520
278.902	9638
278.962	6461
279.021	7773
279.081	11116
279.140	12616
279.199	7099
279.259	8482
279.318	8754
279.378	11472
279.437	20044
279.496	57835
279.556	175230
279.615	159763
279.675	47101
279.734	26539
279.793	33242
279.853	46328
279.912	17931
279.971	10948
280.031	10606
280.090	15462
280.149	26787
280.208	28325
280.268	116964
280.327	139597
280.386	36313
280.445	22455
280.505	19923
280.564	11392
280.623	7825
280.682	10409
280.742	15205
280.801	6759
280.860	5133
280.919	4277
280.978	3783
281.037	4943
281.097	3332
281.156	4257
281.215	4071
281.274	4708
281.333	15189
281.392	14421
281.451	3028
281.510	3595
281.569	3275
281.628	3082
281.688	2499
281.747	4165
281.806	3127
281.865	3215
281.924	2027
281.983	3058
282.042	1844
282.101	2642
282.160	2151
282.219	3184
282.278	3219
282.337	9874
282.396	7484
282.454	3086
282.513	4069
282.572	15000
282.631	10367
282.690	3434
282.749	2345
282.808	3868
282.867	3751
282.926	4146
282.985	2463
283.043	2728
283.102	2508
283.161	3716
283.220	6725
283.279	17651
283.338	5316
283.396	3219
283.455	3768
283.514	3736
283.573	6138
283.631	5663
283.690	3639
283.749	3107
283.808	6980
283.866	9460
283.925	3444
283.984	4329
284.043	4664
284.101	6419
284.160	3740
284.219	5553
284.277	4960
284.336	7411
284.395	21963
284.453	20555
284.512	7928
284.570	10245
284.629	9987
284.688	11366
284.746	11806
284.805	13118
284.863	18296
284.922	23367
284.981	25536
285.039	36227
285.098	57042
285.156	103703
285.215	121570
285.273	117175
285.332	110711
285.390	71171
285.449	44542
285.507	30737
285.566	22714
285.624	18309
285.683	13723
285.741	11715
285.799	9674
285.858	9386
285.916	7291
285.975	6682
286.033	6258
286.091	4765
286.150	4351
286.208	3817
286.267	4987
286.325	5161
286.383	7390
286.442	6799
286.500	3604
286.558	3443
286.616	2691
286.675	4701
286.733	3890
286.791	3462
286.850	3916
286.908	5241
286.966	8873
287.024	4433
287.083	2576
287.141	2831
287.199	3045
287.257	5376
287.315	4069
287.374	3996
287.432	7796
287.490	7057
287.548	3317
287.606	3006
287.664	2350
287.723	4228
287.781	5648
287.839	3499
287.897	3625
287.955	5103
288.013	6900
288.071	17887
288.129	61758
288.187	184827
288.245	86670
288.303	26653
288.361	14682
288.419	11528
288.477	7579
288.535	6256
288.593	3651
288.651	4157
288.709	2561
288.767	2846
288.825	1952
288.883	2058
288.941	2332
288.999	2235
289.057	1465
289.115	2003
289.173	2216
289.231	3113
289.289	2352
289.346	2244
289.404	2172
289.462	4927
289.520	5546
289.578	2759
289.636	880
289.694	1922
289.751	693
289.809	2068
289.867	1534
289.925	1868
289.983	2286
290.040	1599
290.098	1084
290.156	2353
290.214	2653
290.271	1725
290.329	1470
290.387	1721
290.444	676
290.502	698
290.560	788
290.617	1736
290.675	1504
290.733	1073
290.790	1291
290.848	1975
290.906	1682
290.963	1704
291.021	1799
291.078	1992
291.136	1423
291.194	5085
291.251	13249
291.309	4555
291.366	1337
291.424	2019
291.481	2785
291.539	2547
291.596	2462
291.654	1480
291.711	218
291.769	2196
291.826	5444
291.884	3360
291.941	907
291.999	2083
292.056	922
292.114	2829
292.171	826
292.228	2573
292.286	2049
292.343	5794
292.401	7306
292.458	4590
292.515	2538
292.573	3760
292.630	3617
292.687	3694
292.745	2477
292.802	3234
292.859	7148
292.917	17131
292.974	10924
293.031	4230
293.089	1981
293.146	2366
293.203	1824
293.260	2455
293.318	3201
293.375	3812
293.432	1516
293.489	1463
293.546	2155
293.604	3216
293.661	10640
293.718	26593
293.775	13767
293.832	7552
293.889	6254
293.947	7562
294.004	4348
294.061	4089
294.118	6903
294.175	15246
294.232	16551
294.289	7832
294.346	2959
294.403	4324
294.460	3283
294.517	2834
294.574	2090
294.631	2158
294.688	2762
294.745	7650
294.802	25312
294.859	27710
294.916	12280
294.973	8156
295.030	6042
295.087	5946
295.144	3452
295.201	3569
295.258	2551
295.315	4575
295.372	9570
295.429	21678
295.486	9799
295.542	5183
295.599	8838
295.656	17287
295.713	12614
295.770	19503
295.827	8083
295.883	4081
295.940	3613
295.997	6868
296.054	7557
296.111	4040
296.167	2569
296.224	2452
296.281	2215
296.338	1976
296.394	1713
296.451	3397
296.508	8028
296.564	17403
296.621	11814
296.678	20435
296.734	32063
296.791	13431
296.848	6681
296.904	7102
296.961	16042
297.018	23075
297.074	17945
297.131	7505
297.187	4649
297.244	7993
297.301	19847
297.357	39689
297.414	15140
297.470	6025
297.527	3850
297.583	3657
297.640	4226
297.696	3562
297.753	1375
297.809	2228
297.866	910
297.922	2209
297.979	1587
298.035	2645
298.092	4379
298.148	13117
298.204	14674
298.261	7516
298.317	9458
298.374	26719
298.430	17627
298.486	8900
298.543	5981
298.599	5868
298.656	5716
298.712	10318
298.768	25066
298.824	20029
298.881	6960
298.937	4298
298.993	3211
299.050	5082
299.106	3849
299.162	3726
299.218	3784
299.275	2855
299.331	3087
299.387	7294
299.443	22902
299.500	28395
299.556	11194
299.612	5159
299.668	4882
299.724	6322
299.780	6769
299.837	4773
299.893	6531
299.949	22521
300.005	28453
300.061	22015
300.117	33941
300.173	19342
300.229	9371
300.285	10950
300.341	12858
300.397	7877
300.453	3221
300.510	3992
300.566	3832
300.622	5380
300.678	12024
300.734	24654
300.790	21951
300.845	26681
300.901	18326
300.957	23738
301.013	20737
301.069	8909
301.125	5580
301.181	6034
301.237	4765
301.293	3518
301.349	3321
301.405	2803
301.461	2167
301.516	2707
301.572	4069
301.628	6680
301.684	7800
301.740	9440
301.796	15978
301.851	11069
301.907	17537
301.963	20522
302.019	25656
302.074	64197
302.130	69523
302.186	32833
302.242	13921
302.297	9053
302.353	8395
302.409	15013
302.464	14395
302.520	12688
302.576	25318
302.631	33592
302.687	19388
302.743	9410
302.798	4501
302.854	4225
302.910	5536
302.965	4887
303.021	9009
303.076	10595
303.132	12000
303.187	14762
303.243	8516
303.299	3986
303.354	2652
303.410	3233
303.465	2361
303.521	2850
303.576	2827
303.632	4730
303.687	7281
303.743	20327
303.798	20242
303.853	9109
303.909	4355
303.964	4714
304.020	6234
304.075	10877
304.130	9541
304.186	18510
304.241	19993
304.297	15657
304.352	8786
304.358	8530
304.407	6451
304.449	5599
304.463	5315
304.518	5262
304.539	4929
304.573	4383
304.629	4569
304.630	4590
304.684	5975
304.720	12762
304.739	16063
304.794	27695
304.811	24305
304.850	15801
304.902	7162
304.905	6635
304.960	5019
304.992	4639
305.015	4361
305.071	5615
305.083	5358
305.126	4301
305.173	3447
305.181	3340
305.236	2106
305.264	2515
305.292	2900
305.347	4268
305.354	4343
305.402	5074
305.445	5267
305.457	5280
305.512	7249
305.535	7186
305.567	6934
305.622	7010
305.626	7192
305.678	13853
305.716	25566
305.733	28921
305.788	34389
305.807	30236
305.843	24125
305.897	26211
305.898	26186
305.953	27486
305.988	19003
306.008	14798
306.063	9272
306.078	8442
306.118	6718
306.168	4707
306.173	4545
306.228	3144
306.259	3013
306.283	3074
306.338	2810
306.349	3124
306.393	4607
306.440	4833
306.448	4815
306.503	5452
306.530	5507
306.558	7172
306.613	14067
306.620	15107
306.668	23517
306.711	33270
306.723	33598
306.778	27564
306.801	21585
306.833	15306
306.888	8105
306.892	7720
306.943	5272
306.982	4373
306.997	4153
307.052	4484
307.072	4215
307.107	4205
307.162	5385
307.163	5398
307.217	8085
307.253	9680
307.272	9753
307.327	9996
307.343	9677
307.381	9483
307.434	9014
307.436	9356
307.491	18997
307.524	27155
307.546	28677
307.600	32179
307.614	29548
307.655	18372
307.704	9790
307.710	9732
307.765	10454
307.795	12282
307.819	14075
307.874	20444
307.885	20887
307.929	18586
307.975	15149
307.984	15803
308.038	23382
308.065	28121
308.093	51037
308.148	105588
308.156	116257
308.202	168108
308.246	210668
308.257	203971
308.312	115847
308.336	80222
308.366	61794
308.421	39698
308.426	37527
308.475	25222
308.517	17030
308.530	15858
308.585	13962
308.607	13083
308.639	13175
308.694	14169
308.697	14257
308.748	22060
308.787	29925
308.803	29654
308.857	24724
308.877	22192
308.912	21580
308.967	22170
308.967	22175
309.021	35545
309.058	45575
309.076	57785
309.130	99781
309.148	114081
309.185	179883
309.238	284456
309.239	285511
309.293	308890
309.328	299427
309.348	262881
309.402	139305
309.418	106584
309.457	77996
309.508	49027
309.511	48981
309.566	53239
309.598	56976
309.620	73729
309.674	120808
309.688	133037
309.729	122039
309.778	97727
309.783	95209
309.837	61139
309.868	43707
309.892	48780
309.946	63271
309.959	67756
310.001	81993
310.049	95645
310.055	92189
310.109	54481
310.139	32774
310.163	26573
310.218	16258
310.229	14359
310.272	11867
310.319	9808
310.326	9567
310.381	7566
310.409	6785
310.435	6595
310.489	6111
310.499	6045
310.543	5990
310.589	5893
310.598	5929
310.652	6262
310.679	6222
310.706	5683
310.760	5066
310.769	4885
310.814	4463
310.859	4334
310.868	4404
310.923	4508
310.948	4742
310.977	5724
311.031	7358
311.038	7587
311.085	6974
311.128	6076
311.139	6042
311.193	6007
311.218	5931
311.247	5668
311.301	5156
311.308	5082
311.356	5255
311.398	5404
311.410	5270
311.464	4511
311.488	4193
311.518	4815
311.572	5853
311.578	5963
311.626	9070
311.668	11815
311.680	11425
311.734	9298
311.758	8315
311.788	8040
311.842	7598
311.847	7526
311.896	9746
311.937	11682
311.950	11553
312.004	10773
312.027	10401
312.058	9193
312.112	6982
312.117	6743
312.165	6411
312.207	6100
312.297	7558
312.386	6550
312.476	8479
312.566	20312
312.656	9260
312.745	4640
312.835	5352
312.925	6786
313.015	6250
313.104	5481
313.194	5274
313.284	6553
313.374	10741
313.463	9456
313.553	6314
313.643	5125
313.732	4409
313.822	4482
313.912	5725
314.001	7314
314.091	7546
314.180	8205
314.270	10058
314.360	10572
314.449	10933
314.539	5431
314.628	5064
314.718	6128
314.808	8064
314.897	5547
314.987	6392
315.076	8632
315.166	11758
315.255	9096
315.345	11358
315.434	8755
315.524	7899
315.613	11295
315.703	16629
315.792	21463
315.881	55512
315.971	21050
316.060	20676
316.150	20919
316.239	20768
316.328	7957
316.418	5916
316.507	7306
316.597	11332
316.686	8454
316.775	10685
316.865	19200
316.954	6680
317.043	4661
317.133	7553
317.222	5585
317.311	5998
317.400	4900
317.490	10889
317.579	13526
317.668	8786
317.757	15017
317.847	31563
317.936	101016
318.025	47555
318.114	25508
318.203	15456
318.293	19076
318.382	35799
318.471	28245
318.560	31229
318.649	47739
318.738	12035
318.828	12267
318.917	13820
319.006	12097
319.095	27309
319.184	67244
319.273	49199
319.362	31812
319.451	11194
319.540	11171
319.629	27324
319.718	45565
319.807	16061
319.896	25571
319.985	85710
320.074	37558
320.163	9584
320.252	13972
320.341	11483
320.430	10528
320.519	21741
320.608	10823
320.697	8818
320.786	9343
320.875	14945
320.964	19377
321.053	32292
321.142	46117
321.230	47424
321.319	29470
321.408	75640
321.497	27125
321.586	31060
321.675	26276
321.764	26020
321.852	17414
321.941	45067
322.030	29194
322.119	27529
322.207	79255
322.296	35013
322.385	19693
322.474	29191
322.562	98737
322.651	44132
322.740	33947
322.829	45134
322.917	31144
323.006	25183
323.095	24071
323.183	12629
323.272	23303
323.361	34877
323.449	85008
323.538	28616
323.626	60587
323.715	36063
323.804	15489
323.892	56003
323.981	37577
324.069	11161
324.158	25943
324.246	25021
324.335	16119
324.424	30134
324.512	9989
324.601	15619
324.689	29807
324.778	52653
324.866	27043
324.954	9090
325.043	8856
325.131	15585
325.220	21327
325.308	24534
325.397	20102
325.485	13627
325.574	6343
325.662	6865
325.750	7976
325.839	6648
325.927	5239
326.015	9088
326.104	9113
326.192	12902
326.280	5405
326.369	6911
326.457	12863
326.545	24710
326.634	9722
326.722	4328
326.810	5045
326.898	5569
326.987	7478
327.075	21300
327.163	17380
327.251	8348
327.340	18968
327.428	27516
327.516	5784
327.604	6391
327.692	5940
327.781	5931
327.869	9211
327.957	7050
328.045	8832
328.133	5227
328.221	5330
328.309	5578
328.397	5312
328.485	9335
328.574	14046
328.662	52657
328.750	22522
328.838	6637
328.926	5241
329.014	4701
329.102	9664
329.190	19500
329.278	15393
329.366	4874
329.454	3327
329.542	3983
329.630	3187
329.718	5271
329.806	7593
329.893	5664
329.981	5816
330.069	8782
330.157	28573
330.245	81192
330.333	42618
330.421	10347
330.509	15195
330.597	65203
330.684	36320
330.772	11101
330.860	8745
330.948	11659
331.036	6110
331.123	3539
331.211	3467
331.299	5364
331.387	10326
331.475	21064
331.562	7454
331.650	4160
331.738	5693
331.825	6837
331.913	3170
332.001	4263
332.089	6098
332.176	10198
332.264	25255
332.352	20570
332.439	8774
332.527	6093
332.614	4726
332.702	5944
332.790	5287
332.877	15065
332.965	30338
333.052	15678
333.140	18193
333.228	46770
333.315	11422
333.403	7585
333.490	15895
333.578	22540
333.665	66466
333.753	26463
333.840	7011
333.928	7734
334.015	17424
334.103	25632
334.190	76123
334.278	19532
334.365	9891
334.452	8276
334.540	5043
334.627	6870
334.715	10929
334.802	20037
334.889	91061
334.977	90559
335.064	15965
335.151	9072
335.239	6537
335.326	10612
335.413	38832
335.501	52280
335.588	9012
335.675	7222
335.762	6684
335.850	12168
335.937	11260
336.024	26863
336.111	100088
336.199	44838
336.286	11528
336.373	6425
336.460	4968
336.547	5307
336.635	6932
336.722	7652
336.809	5436
336.896	11434
336.983	29493
337.070	59925
337.157	81919
337.245	59963
337.332	38567
337.419	6759
337.506	3755
337.593	6538
337.680	15421
337.767	48526
337.854	17165
337.941	18607
338.028	24317
338.115	8874
338.202	8986
338.289	16831
338.376	61865
338.463	20253
338.550	28046
338.637	30330
338.724	11148
338.811	17316
338.898	4984
338.984	3727
339.071	5968
339.158	9004
339.245	29231
339.332	17386
339.419	13781
339.506	12983
339.593	3713
339.679	5315
339.766	5240
339.853	8140
339.940	23156
340.027	7013
340.113	7774
340.200	12294
340.287	7328
340.374	11955
340.460	20888
340.547	9145
340.634	15238
340.720	59240
340.807	32633
340.894	5803
340.980	6071
341.067	6950
341.154	7889
341.240	14056
341.327	32164
341.414	11844
341.500	12784
341.587	7402
341.674	5874
341.760	20807
341.847	25432
341.933	7959
342.020	2851
342.106	3058
342.193	7450
342.279	17411
342.366	11881
342.452	21255
342.539	12128
342.625	27328
342.712	66427
342.798	27531
342.885	10168
342.971	4105
343.058	2873
343.144	5219
343.230	4709
343.317	6641
343.403	5289
343.490	2970
343.576	2357
343.662	5615
343.749	7431
343.835	9347
343.921	16679
344.008	84224
344.094	176070
344.180	41356
344.267	20068
344.353	55409
344.439	53108
344.525	30255
344.612	12919
344.698	10089
344.784	7171
344.870	5288
344.957	5923
345.043	12421
345.129	8351
345.215	20516
345.301	12139
345.387	8375
345.474	3181
345.560	3940
345.646	3960
345.732	5622
345.818	9507
345.904	7605
345.990	7880
346.076	7371
346.162	12973
346.249	6987
346.335	5263
346.421	7125
346.507	22439
346.593	73911
346.679	17621
346.765	6317
346.851	5167
346.937	6416
347.023	5012
347.108	7993
347.194	6291
347.280	6424
347.366	8800
347.452	24901
347.538	89152
347.624	66913
347.710	53378
347.796	9161
347.882	4881
347.967	4072
348.053	5111
348.139	4669
348.225	4229
348.311	4844
348.397	4841
348.482	7788
348.568	8403
348.654	4760
348.740	6845
348.825	7227
348.911	12434
348.997	42124
349.083	74594
349.168	13152
349.254	7612
349.340	7918
349.425	3987
349.511	9187
349.597	9946
349.682	20913
349.768	60755
349.854	26238
349.939	4985
350.025	4394
350.110	3940
350.196	4839
350.282	3533
350.367	3721
350.453	6560
350.538	7617
350.624	8812
350.709	7870
350.795	3625
350.880	5565
350.966	6044
351.051	9694
351.137	5993
351.222	7686
351.308	22600
351.393	60955
351.479	17637
351.564	7994
351.649	5771
351.735	3636
351.820	4065
351.906	5975
351.991	7463
352.076	38348
352.162	56300
352.247	12703
352.332	8998
352.418	21362
352.503	24778
352.588	88488
352.673	74463
352.759	17131
352.844	7915
352.929	11005
353.014	13867
353.100	9008
353.185	17465
353.270	27562
353.355	24462
353.441	7600
353.526	6899
353.611	21667
353.696	26260
353.781	14452
353.866	7110
353.952	8773
354.037	21504
354.122	53180
354.207	45873
354.292	16252
354.377	6102
354.462	5550
354.547	9878
354.632	8625
354.717	11614
354.802	20836
354.887	7913
354.972	5019
355.057	4805
355.142	3825
355.227	7879
355.312	15023
355.397	33582
355.482	81831
355.567	37039
355.652	26745
355.737	27096
355.822	72433
355.907	55715
355.991	10624
356.076	5911
356.161	4986
356.246	4815
356.331	6387
356.416	16741
356.501	101621
356.585	102019
356.670	18804
356.755	13123
356.840	19671
356.924	84998
357.009	265880
357.094	99807
357.179	27444
357.263	17992
357.348	16936
357.433	15667
357.517	15887
357.602	12338
357.687	9004
357.771	13931
357.856	28396
357.941	20371
358.025	60315
358.110	234770
358.195	110334
358.279	21758
358.364	16924
358.448	57797
358.533	149815
358.617	108951
358.702	102676
358.787	38521
358.871	25611
358.956	19949
359.040	7302
359.125	5021
359.209	6565
359.294	13036
359.378	20991
359.462	19639
359.547	11379
359.631	5677
359.716	4708
359.800	5618
359.885	9294
359.969	6789
360.053	5761
360.138	5600
360.222	12248
360.306	24138
360.391	16865
360.475	23926
360.559	55729
360.644	59505
360.728	42426
360.812	59494
360.896	149427
360.981	69105
361.065	39710
361.149	11207
361.233	11374
361.318	9453
361.402	11271
361.486	10033
361.570	7819
361.654	10898
361.739	29853
361.823	107524
361.907	148931
361.991	30487
362.075	20159
362.159	48002
362.243	31377
362.327	27439
362.411	31421
362.495	17277
362.580	9890
362.664	6490
362.748	5976
362.832	8172
362.916	13540
363.000	46449
363.084	137887
363.168	176940
363.252	45410
363.336	17060
363.420	23140
363.503	59242
363.587	64262
363.671	16840
363.755	14917
363.839	21631
363.923	9719
364.007	23878
364.091	24586
364.175	22175
364.258	92411
364.342	72259
364.426	96939
364.510	53464
364.594	26861
364.677	31167
364.761	130096
364.845	88982
364.929	41911
365.013	34991
365.096	27995
365.180	31662
365.264	26738
365.347	88285
365.431	35628
365.515	12159
365.598	9703
365.682	8060
365.766	9639
365.849	10732
365.933	9981
366.017	11109
366.100	6303
366.184	3716
366.267	6376
366.351	5602
366.435	5978
366.518	3991
366.602	4754
366.685	6214
366.769	8636
366.852	11424
366.936	22939
367.019	15594
367.103	8251
367.186	12115
367.270	6190
367.353	4260
367.436	7018
367.520	5609
367.603	9470
367.687	14582
367.770	29261
367.853	15525
367.937	41621
368.020	65094
368.104	17619
368.187	21454
368.270	31108
368.353	26218
368.437	27088
368.520	40679
368.603	35179
368.687	53115
368.770	96377
368.853	24817
368.936	24911
369.020	18295
369.103	9082
369.186	6050
369.269	7531
369.352	18730
369.436	26588
369.519	16283
369.602	7520
369.685	9388
369.768	10187
369.851	6934
369.934	5636
370.018	9446
370.101	25114
370.184	17322
370.267	11196
370.350	20434
370.433	30853
370.516	68930
370.599	83734
370.682	33445
370.765	63402
370.848	69259
370.931	113055
371.014	39484
371.097	10864
371.180	8649
371.263	6440
371.346	4969
371.429	7110
371.511	6999
371.594	15736
371.677	20689
371.760	18722
371.843	21864
371.926	90884
372.009	185575
372.091	67296
372.174	46537
372.257	94229
372.340	38177
372.423	31958
372.505	28031
372.588	15726
372.671	41196
372.754	117506
372.836	55783
372.919	29897
373.002	52007
373.085	23058
373.167	24586
373.250	55643
373.332	99914
373.415	134507
373.498	260968
373.580	101943
373.663	131211
373.746	163381
373.828	43308
373.911	20186
373.993	18994
374.076	49850
374.159	44114
374.241	32053
374.324	103543
374.406	67369
374.489	76205
374.571	202221
374.654	84652
374.736	44837
374.819	124066
374.901	185065
374.983	183324
375.066	35968
375.148	13153
375.231	41439
375.313	77090
375.395	31743
375.478	9809
375.560	8929
375.643	12442
375.725	41539
375.807	161072
375.890	113524
375.972	42257
376.054	27563
376.136	32802
376.219	17927
376.301	47465
376.383	141088
376.465	54874
376.548	45960
376.630	46418
376.712	123411
376.794	55102
376.877	8824
376.959	4979
377.041	8115
377.123	9943
377.205	11736
377.287	3773
377.369	5435
377.452	6280
377.534	6752
377.616	5736
377.698	6880
377.780	4539
377.862	7859
377.944	7183
378.026	4726
378.108	4775
378.190	5214
378.272	5220
378.354	3855
378.436	3453
378.518	8123
378.600	28383
378.682	29834
378.764	75573
378.846	55235
378.928	15746
379.010	26447
379.091	13975
379.173	7278
379.255	5981
379.337	11089
379.419	36130
379.501	99946
379.583	37498
379.664	11319
379.746	28816
379.828	75043
379.910	98989
379.991	81965
380.073	15243
380.155	10228
380.237	7654
380.318	5771
380.400	8011
380.482	19175
380.564	30607
380.645	30118
380.727	28115
380.809	15602
380.890	10103
380.972	8688
381.053	9133
381.135	10226
381.217	26807
381.298	81241
381.380	38682
381.461	31805
381.543	129157
381.624	151957
381.706	30659
381.787	16415
381.869	18189
381.951	58877
382.032	200470
382.113	130498
382.195	34164
382.276	23421
382.358	49491
382.439	113017
382.521	125275
382.602	187065
382.684	96736
382.765	188759
382.846	261874
382.928	478423
383.009	259996
383.090	176654
383.172	575821
383.253	789986
383.334	276239
383.416	205975
383.497	112697
383.578	77356
383.659	148501
383.741	484138
383.822	1022382
383.903	549711
383.984	193278
384.066	244433
384.147	152156
384.228	40281
384.309	32935
384.390	24838
384.471	18312
384.553	20156
384.634	25488
384.715	25723
384.796	15118
384.877	18684
384.958	69431
385.039	86312
385.120	32824
385.201	16304
385.282	16242
385.363	17445
385.444	17487
385.525	27219
385.606	83549
385.687	68116
385.768	18991
385.849	25031
385.930	97458
386.011	151307
386.092	42577
386.173	13118
386.254	8662
386.335	9985
386.416	11431
386.496	44897
386.577	73751
386.658	24234
386.739	14591
386.820	11430
386.901	8537
386.981	9725
387.062	7373
387.143	17347
387.224	72324
387.304	64247
387.385	22801
387.466	12597
387.547	13589
387.627	11852
387.708	25837
387.789	117756
387.869	134387
387.950	33996
388.031	6862
388.111	4490
388.192	11840
388.273	19055
388.353	13125
388.434	11019
388.514	22381
388.595	94519
388.676	130452
388.756	71952
388.837	73988
388.917	45104
388.998	7716
389.078	9174
389.159	7407
389.239	7223
389.320	14863
389.400	12827
389.480	23437
389.561	67071
389.641	31828
389.722	13429
389.802	23525
389.883	29263
389.963	75725
390.043	43113
390.124	12144
390.204	26155
390.284	86989
390.365	52250
390.445	43414
390.525	132447
390.605	122876
390.686	44978
390.766	15299
390.846	8896
390.927	5616
391.007	7623
391.087	8216
391.167	8886
391.247	6825
391.328	10524
391.408	12702
391.488	9640
391.568	4889
391.648	11663
391.728	16793
391.808	15558
391.888	17642
391.969	38296
392.049	62189
392.129	24228
392.209	27706
392.289	74440
392.369	36009
392.449	22940
392.529	17151
392.609	19446
392.689	23373
392.769	73510
392.849	61441
392.929	39904
393.009	94019
393.089	77062
393.169	67861
393.248	217829
393.328	747618
393.408	770009
393.488	218560
393.568	66353
393.648	33608
393.728	22075
393.807	15458
393.887	14978
393.967	13331
394.047	16857
394.127	20756
394.206	33392
394.286	111214
394.366	452347
394.446	462866
394.525	114993
394.605	31162
394.685	22281
394.764	35210
394.844	55971
394.924	41352
395.003	18770
395.083	14293
395.163	13428
395.242	12708
395.322	12791
395.402	8756
395.481	12799
395.561	26340
395.640	72394
395.720	61849
395.799	69075
395.879	56511
395.958	46399
396.038	164856
396.117	586449
396.197	610657
396.276	188445
396.356	59916
396.435	38521
396.515	31186
396.594	38177
396.673	67196
396.753	233232
396.832	687053
396.912	517300
396.991	135187
397.070	38698
397.150	21533
397.229	15807
397.308	19242
397.388	33028
397.467	15711
397.546	8729
397.625	5812
397.705	12152
397.784	14066
397.863	6768
397.942	4519
398.022	5491
398.101	17940
398.180	50972
398.259	24894
398.338	10305
398.417	7974
398.497	5714
398.576	6661
398.655	4040
398.734	3874
398.813	4659
398.892	16464
398.971	56468
399.050	26299
399.129	3921
399.208	3119
399.287	3815
399.366	2143
399.445	4295
399.524	4184
399.603	3932
399.682	11332
399.761	27783
399.840	66023
399.919	46033
399.998	7308
400.077	2835
400.156	2377
400.235	5600
400.313	3121
400.392	6674
400.471	40583
400.550	67330
400.629	16327
400.708	6836
400.786	5117
400.865	11579
400.944	13634
401.023	9834
401.102	2221
401.180	1904
401.259	1874
401.338	4261
401.416	8072
401.495	6437
401.574	3546
401.652	4117
401.731	6756
401.810	6426
401.888	2921
401.967	1896
402.046	3967
402.124	6691
402.203	9066
402.281	5779
402.360	5812
402.438	15361
402.517	9602
402.596	3746
402.674	2899
402.753	3131
402.831	2463
402.910	5808
402.988	24693
403.066	88174
403.145	48253
403.223	28211
403.302	76222
403.380	55081
403.459	58296
403.537	21418
403.615	7233
403.694	2010
403.772	2744
403.850	1852
403.929	1807
404.007	3242
404.085	11174
404.164	15039
404.242	4212
404.320	5002
404.398	9349
404.477	33123
404.555	156096
404.633	127973
404.711	18151
404.789	6147
404.868	5066
404.946	3236
405.024	2093
405.102	2566
405.180	1440
405.258	1672
405.336	2969
405.415	2802
405.493	8887
405.571	9639
405.649	3684
405.727	2010
405.805	5097
405.883	5712
405.961	5827
406.039	5066
406.117	3245
406.195	9121
406.273	39119
406.351	141742
406.429	77801
406.507	10759
406.585	4700
406.663	5419
406.740	9083
406.818	7686
406.896	3249
406.974	5565
407.052	12620
407.130	86666
407.208	117704
407.285	21848
407.363	4065
407.441	4577
407.519	3967
407.596	4398
407.674	11194
407.752	24745
407.830	23240
407.907	12040
407.985	5792
408.063	4093
408.141	2209
408.218	5686
408.296	6313
408.373	7034
408.451	7163
408.529	7042
408.606	2025
408.684	1280
408.762	1293
408.839	1031
408.917	998
408.994	1564
409.072	1744
409.149	2673
409.227	5346
409.304	6123
409.382	4208
409.459	4844
409.537	8637
409.614	7352
409.692	4322
409.769	5585
409.846	8882
409.924	12470
410.001	7049
410.079	5959
410.156	4512
410.233	3889
410.311	2778
410.388	3149
410.465	4458
410.543	4280
410.620	3109
410.697	5535
410.775	5256
410.852	2195
410.929	5669
411.006	7857
411.083	2904
411.161	10022
411.238	9735
411.315	4432
411.392	2901
411.469	6626
411.547	6533
411.624	2556
411.701	1873
411.778	5475
411.855	14085
411.932	6716
412.009	2824
412.086	2301
412.163	3230
412.240	4066
412.317	4343
412.394	4153
412.471	1783
412.548	2042
412.625	2717
412.702	3933
412.779	8462
412.856	5229
412.933	355
413.010	2076
413.087	5466
413.164	39829
413.241	55976
413.318	14193
413.395	7906
413.471	12710
413.548	5306
413.625	2859
413.702	3776
413.779	2744
413.855	629
413.932	1082
414.009	657
414.086	1245
414.162	2148
414.239	5249
414.316	36437
414.393	84866
414.469	28029
414.546	3170
414.623	1033
414.699	2384
414.776	4080
414.853	2310
414.929	2067
415.006	2511
415.082	2692
415.159	2446
415.236	2198
415.312	3181
415.389	9695
415.465	13292
415.542	5767
415.618	3324
415.695	8034
415.771	5652
415.848	4057
415.924	3458
416.000	1787
416.077	1914
416.153	227
416.230	-547
416.306	422
416.383	311
416.459	1259
416.535	1161
416.612	1144
416.688	1623
416.764	2459
416.841	2725
416.917	1970
416.993	2351
417.069	4052
417.146	4832
417.222	7915
417.298	4545
417.374	1769
417.451	3259
417.527	5602
417.603	6038
417.679	4268
417.755	3411
417.831	1366
417.908	1436
417.984	1197
418.060	1432
418.136	11025
418.212	15189
418.288	4440
418.364	2022
418.440	2229
418.516	5719
418.592	5060
418.668	17206
418.744	29250
418.820	20354
418.896	4143
418.972	1083
419.048	3024
419.124	13146
419.200	9250
419.276	2277
419.352	102
419.428	1499
419.504	3127
419.579	5912
419.655	3031
419.731	4142
419.807	17896
419.883	33782
419.959	22097
420.034	5013
420.110	11629
420.186	53671
420.262	40141
420.337	6613
420.413	5098
420.489	2736
420.565	1858
420.640	1717
420.716	3123
420.792	919
420.867	3876
420.943	3033
421.019	7517
421.094	5945
421.170	2667
421.245	1660
421.321	1741
421.397	3387
421.472	5337
421.548	13747
421.623	12048
421.699	6287
421.774	5914
421.850	4714
421.925	11191
422.001	9094
422.076	6288
422.152	9321
422.227	15292
422.302	15799
422.378	21022
422.453	40565
422.529	98478
422.604	280804
422.679	431231
422.755	293897
422.830	107835
422.905	41949
422.981	22621
423.056	14972
423.131	10790
423.207	8396
423.282	9572
423.357	19258
423.432	12576
423.508	11914
423.583	29307
423.658	21334
423.733	5811
423.808	6930
423.883	9005
423.959	8583
424.034	5530
424.109	4407
424.184	2190
424.259	2010
424.334	1929
424.409	1231
424.484	1800
424.559	3546
424.634	2263
424.709	5525
424.784	7208
424.859	4697
424.934	7505
425.009	39558
425.084	63397
425.159	21210
425.234	1522
425.309	1262
425.384	5102
425.459	7791
425.534	2770
425.609	2220
425.683	777
425.758	2092
425.833	1666
425.908	4578
425.983	23337
426.058	68021
426.132	26131
426.207	4237
426.282	3989
426.357	2629
426.431	1449
426.506	1700
426.581	1075
426.655	2136
426.730	2319
426.805	1931
426.879	2833
426.954	2081
427.029	8431
427.103	56789
427.178	127937
427.253	48990
427.327	5259
427.402	4864
427.476	9293
427.551	4839
427.625	2042
427.700	2217
427.774	500
427.849	2194
427.923	391
427.998	2006
428.072	1475
428.147	7075
428.221	36937
428.296	97793
428.370	45406
428.444	5300
428.519	5848
428.593	9308
428.667	8925
428.742	11396
428.816	12277
428.890	54777
428.965	85295
429.039	23723
429.113	11810
429.188	4688
429.262	1991
429.336	8746
429.410	29728
429.485	16562
429.559	9287
429.633	6826
429.707	3104
429.781	10422
429.855	61644
429.930	97770
430.004	41696
430.078	47183
430.152	48274
430.226	118498
430.300	114370
430.374	16532
430.448	6204
430.522	16994
430.596	48178
430.670	36474
430.744	117110
430.818	167913
430.892	32267
430.966	5620
431.040	2627
431.114	1653
431.188	662
431.262	1998
431.336	519
431.410	5169
431.484	16493
431.557	12786
431.631	999
431.705	2679
431.779	16661
431.853	82062
431.927	52806
432.000	5890
432.074	1533
432.148	2024
432.222	1983
432.295	1316
432.369	603
432.443	6347
432.516	46798
432.590	119114
432.664	40291
432.737	4538
432.811	941
432.885	1109
432.958	625
433.032	693
433.106	154
433.179	785
433.253	11
433.326	640
433.400	676
433.473	557
433.547	-844
433.620	1515
433.694	6684
433.767	5258
433.841	1226
433.914	933
433.988	174
434.061	634
434.134	929
434.208	-75
434.281	-531
434.355	908
434.428	1062
434.501	436
434.575	486
434.648	990
434.721	322
434.795	468
434.868	-905
434.941	106
435.014	512
435.088	490
435.161	3639
435.234	7809
435.307	9472
435.381	3734
435.454	2810
435.527	4737
435.600	3983
435.673	2522
435.746	1665
435.819	889
435.892	1194
435.966	1371
436.039	330
436.112	361
436.185	-327
436.258	70
436.331	-763
436.404	86
436.477	-1252
436.550	602
436.623	119
436.696	-37
436.769	1092
436.842	1651
436.915	1319
436.987	3315
437.060	984
437.133	291
437.206	-436
437.279	974
437.352	805
437.425	1050
437.498	1705
437.570	7076
437.643	7600
437.716	1075
437.789	191
437.861	4806
437.934	13675
438.007	5651
438.080	463
438.152	2257
438.225	7788
438.298	61947
438.370	157109
438.443	59188
438.516	14337
438.588	2519
438.661	420
438.734	818
438.806	1382
438.879	2158
438.951	4027
439.024	7178
439.096	1482
439.169	911
439.241	513
439.314	-2
439.386	598
439.459	3770
439.531	5607
439.604	1794
439.676	978
439.749	108
439.821	-430
439.893	138
439.966	31
440.038	1510
440.110	1853
440.183	1952
440.255	1011
440.327	3603
440.400	24542
440.472	107190
440.544	63566
440.617	7736
440.689	5789
440.761	7876
440.833	12650
440.905	7122
440.978	194
441.050	315
441.122	268
441.194	534
441.266	815
441.338	725
441.411	4663
441.483	40068
441.555	55582
441.627	9820
441.699	3580
441.771	2479
441.843	932
441.915	950
441.987	359
442.059	403
442.131	1400
442.203	2942
442.275	4322
442.347	4060
442.419	6161
442.491	36723
442.563	93087
442.635	34833
442.706	18547
442.778	14644
442.850	2939
442.922	863
442.994	1540
443.066	4941
443.137	3306
443.209	2747
443.281	4195
443.353	11403
443.425	47511
443.496	172654
443.568	158401
443.640	50159
443.711	8809
443.783	3583
443.855	2312
443.926	536
443.998	1632
444.070	1819
444.141	2622
444.213	6288
444.285	7919
444.356	5707
444.428	2815
444.499	1126
444.571	509
444.642	1370
444.714	2668
444.785	6685
444.857	4615
444.928	7719
445.000	4561
445.071	6257
445.143	7549
445.214	7296
445.285	10458
445.357	29510
445.428	110072
445.500	250625
445.571	142342
445.642	73677
445.714	23991
445.785	17816
445.856	6877
445.928	8787
445.999	6836
446.070	4253
446.141	5885
446.213	9091
446.284	3101
446.355	2020
446.426	1060
446.497	2205
446.569	2739
446.640	7948
446.711	6417
446.782	1265
446.853	2292
446.924	3999
446.995	2759
447.066	1611
447.138	2733
447.209	1405
447.280	201
447.351	398
447.422	-265
447.493	1320
447.564	3839
447.635	7612
447.706	1911
447.777	1053
447.847	-499
447.918	531
447.989	2080
448.060	3040
448.131	5858
448.202	7760
448.273	7249
448.344	2430
448.414	2197
448.485	1132
448.556	493
448.627	437
448.698	1285
448.768	554
448.839	489
448.910	2489
448.981	2475
449.051	1685
449.122	260
449.193	-133
449.263	450
449.334	926
449.405	3506
449.475	10334
449.546	5408
449.616	3401
449.687	2796
449.758	802
449.828	572
449.899	1142
449.969	470
450.040	867
450.110	1440
450.181	1550
450.251	792
450.322	1079
450.392	189
450.463	622
450.533	48
450.604	1302
450.674	650
450.744	950
450.815	200
450.885	752
450.955	458
451.026	-418
451.096	873
451.166	1317
451.237	3569
451.307	9208
451.377	2542
451.447	368
451.518	183
451.588	-61
451.658	835
451.728	3290
451.799	9906
451.869	9527
451.939	1532
452.009	1800
452.079	528
452.149	1681
452.219	2529
452.289	11738
452.360	6261
452.430	1950
452.500	2299
452.570	3674
452.640	5172
452.710	13097
452.780	17552
452.850	19529
452.920	17380
452.990	5507
453.060	2996
453.129	4389
453.199	4576
453.269	15145
453.339	27162
453.409	39220
453.479	43087
453.549	60388
453.619	60550
453.688	20325
453.758	3660
453.828	2244
453.898	533
453.968	1307
454.037	752
454.087	1212
454.107	1392
454.168	551
454.177	413
454.247	1086
454.249	1080
454.316	619
454.330	870
454.386	1781
454.411	3200
454.456	5433
454.492	6893
454.525	8209
454.574	4203
454.595	2454
454.655	1324
454.665	1146
454.734	1811
454.736	1889
454.804	4266
454.817	5538
454.873	10364
454.898	10700
454.943	11321
454.979	7341
455.013	3688
455.060	2310
455.082	1800
455.141	2396
455.152	2433
455.221	8024
455.222	8111
455.291	12643
455.303	11260
455.360	5020
455.384	4558
455.430	3834
455.465	4799
455.499	5522
455.546	7794
455.569	8680
455.627	6726
455.638	6415
455.707	1732
455.708	1744
455.777	1417
455.789	1456
455.846	1463
455.869	1507
455.916	1695
455.950	1607
455.985	1437
456.031	1488
456.054	1476
456.112	1193
456.124	1161
456.193	1442
456.193	1427
456.262	1359
456.274	1555
456.332	2533
456.355	2646
456.401	2581
456.436	2081
456.470	1693
456.516	1327
456.540	1079
456.597	981
456.609	972
456.678	1407
456.678	1399
456.747	1203
456.759	1131
456.817	708
456.840	945
456.886	1398
456.920	1246
456.955	1124
457.001	1424
457.024	1555
457.082	2087
457.093	2178
457.162	3281
457.163	3296
457.232	3313
457.243	3081
457.301	1736
457.324	1408
457.370	908
457.405	1315
457.439	1850
457.485	2018
457.508	2106
457.566	2302
457.577	2321
457.646	2823
457.647	2847
457.715	5312
457.727	5729
457.784	8223
457.808	10602
457.853	13752
457.889	15372
457.922	15181
457.969	10106
457.991	9831
458.050	11538
458.060	11758
458.129	20962
458.130	21204
458.198	22889
458.211	20354
458.267	9983
458.292	7021
458.336	4782
458.372	4477
458.405	5624
458.453	8683
458.474	10820
458.533	20440
458.543	21357
458.611	36532
458.614	36562
458.680	22126
458.694	17521
458.749	7369
458.775	5834
458.818	4114
458.855	3377
458.887	2973
458.936	2802
458.955	2665
459.016	1939
459.024	1901
459.093	2718
459.097	2730
459.162	2996
459.177	3264
459.230	4011
459.257	4267
459.299	4580
459.338	4456
459.368	4089
459.418	4416
459.437	4550
459.499	4086
459.505	4003
459.574	3377
459.579	3328
459.643	3184
459.659	3125
459.711	3147
459.740	3583
459.780	4147
459.820	4240
459.849	4011
459.900	3597
459.917	3675
459.981	4109
459.986	4096
460.054	4562
460.061	4556
460.123	5189
460.141	5432
460.191	6476
460.222	7340
460.260	8245
460.302	10380
460.328	10482
460.382	7650
460.397	7089
460.462	5157
460.465	5152
460.534	5789
460.543	5925
460.602	12801
460.623	15310
460.671	21799
460.703	29030
460.739	28241
460.783	23504
460.808	19791
460.864	5956
460.876	4973
460.944	3793
460.945	3771
461.013	4012
461.024	3957
461.081	4144
461.104	4646
461.150	4325
461.184	3522
461.218	3706
461.264	4026
461.286	3857
461.345	3078
461.355	3061
461.423	4051
461.425	4052
461.491	3048
461.505	2938
461.559	4829
461.585	5746
461.628	7966
461.665	10848
461.696	12295
461.745	15272
461.764	14222
461.825	6171
461.832	5888
461.901	4427
461.905	4423
461.969	3812
461.985	3601
462.037	3955
462.065	4268
462.105	3831
462.145	3299
462.173	4501
462.225	6870
462.241	7269
462.305	9823
462.310	9686
462.378	6756
462.385	6251
462.446	4495
462.465	4305
462.514	4444
462.545	4428
462.582	3835
462.625	3291
462.650	3477
462.705	3622
462.718	3506
462.785	3132
462.786	3157
462.854	4865
462.865	5115
462.922	6111
462.945	6559
462.990	5910
463.025	5042
463.058	4290
463.104	3371
463.126	3493
463.184	3872
463.194	3928
463.262	4437
463.264	4460
463.330	4299
463.344	4166
463.398	4455
463.424	4711
463.466	4509
463.504	4171
463.533	4294
463.583	4425
463.601	4604
463.663	5453
463.669	5467
463.737	5605
463.743	5634
463.805	8476
463.823	9234
463.873	11272
463.903	12740
463.940	13619
463.982	14908
464.008	12877
464.062	6752
464.076	6360
464.142	4834
464.144	4811
464.211	4353
464.221	4304
464.279	4539
464.301	4640
464.347	4427
464.381	4347
464.414	4808
464.461	5357
464.482	5551
464.540	6265
464.550	6261
464.617	5640
464.620	5624
464.685	7479
464.699	7885
464.753	9880
464.779	10838
464.820	11703
464.859	12488
464.888	11639
464.938	10186
464.956	10314
465.018	10206
465.023	10109
465.091	9097
465.098	8979
465.158	8294
465.177	8069
465.226	8620
465.257	8890
465.293	9144
465.336	9565
465.361	10148
465.416	11248
465.428	11545
465.495	13542
465.496	13579
465.563	16208
465.575	16726
465.631	20023
465.654	21555
465.698	15419
465.734	9588
465.765	8805
465.813	7745
465.833	7798
465.893	8523
465.900	8508
465.968	7899
465.972	7867
466.035	8484
466.052	8596
466.102	8787
466.131	8886
466.170	8688
466.210	8383
466.237	8644
466.290	9234
466.304	9395
466.369	9900
466.372	9954
466.439	11270
466.449	11422
466.506	11551
466.528	11595
466.573	13331
466.607	14554
466.641	18986
466.687	25203
466.708	27374
466.766	33522
466.775	31775
466.842	17932
466.845	17248
466.909	13654
466.925	12841
466.977	12165
467.004	11801
467.044	12390
467.083	12958
467.111	13937
467.163	15723
467.178	16293
467.242	18571
467.245	18478
467.312	15957
467.321	15600
467.379	14206
467.400	13664
467.446	14192
467.480	14537
467.559	14004
467.638	12653
467.717	12786
467.796	15269
467.875	15361
467.955	13550
468.034	15476
468.113	26839
468.192	35731
468.271	14899
468.350	12379
468.429	14514
468.508	15102
468.588	13169
468.667	10772
468.746	11855
468.825	11486
468.904	11278
468.983	11943
469.062	14186
469.141	17222
469.220	10851
469.299	10761
469.378	12609
469.456	16674
469.535	14596
469.614	13123
469.693	12905
469.772	15236
469.851	17699
469.930	14878
470.009	13270
470.088	13385
470.166	17894
470.245	26766
470.324	33173
470.403	18909
470.482	13974
470.560	12248
470.639	13253
470.718	13645
470.797	11321
470.875	11993
470.954	15509
471.033	14562
471.111	10478
471.190	9584
471.269	9574
471.347	9437
471.426	9846
471.505	11501
471.583	13693
471.662	12796
471.740	11523
471.819	11813
471.898	9795
471.976	10587
472.055	11393
472.133	10948
472.212	11965
472.290	12592
472.369	11013
472.447	9298
472.526	9408
472.604	10783
472.683	10649
472.761	11826
472.839	10976
472.918	10614
472.996	9613
473.075	10830
473.153	11163
473.231	10012
473.310	11017
473.388	10951
473.466	10773
473.545	12539
473.623	17052
473.701	16215
473.780	11629
473.858	9364
473.936	11753
474.014	10748
474.093	10686
474.171	11476
474.249	15485
474.327	11943
474.405	10048
474.484	8915
474.562	9510
474.640	9292
474.718	9704
474.796	11013
474.874	10086
474.952	9378
475.030	9220
475.108	9801
475.187	10640
475.265	11763
475.343	16040
475.421	18389
475.499	9801
475.577	10107
475.655	10727
475.733	15116
475.811	23013
475.889	20424
475.966	15214
476.044	10588
476.122	13159
476.200	15225
476.278	12802
476.356	8551
476.434	10208
476.512	10178
476.590	14009
476.667	13653
476.745	8448
476.823	9068
476.901	8267
476.979	7992
477.056	9204
477.134	9250
477.212	8747
477.290	9172
477.367	7869
477.445	8096
477.523	8157
477.601	6646
477.678	7769
477.756	7936
477.834	9658
477.911	8288
477.989	8551
478.066	7107
478.144	7924
478.222	10975
478.299	17585
478.377	15896
478.454	8047
478.532	7230
478.609	8367
478.687	9107
478.764	6937
478.842	8054
478.919	8620
478.997	8875
479.074	6688
479.152	7856
479.229	9208
479.307	6574
479.384	7112
479.461	5944
479.539	6115
479.616	6894
479.694	6716
479.771	7018
479.848	8619
479.926	8447
480.003	10707
480.080	6639
480.157	6585
480.235	6498
480.312	6584
480.389	5899
480.467	9756
480.544	10138
480.621	7516
480.698	6657
480.775	8461
480.853	7511
480.930	6150
481.007	6213
481.084	6761
481.161	7905
481.238	8260
481.315	6133
481.392	6243
481.470	6552
481.547	6426
481.624	6138
481.701	6600
481.778	7339
481.855	6825
481.932	8582
482.009	12910
482.086	10415
482.163	7453
482.240	11251
482.317	21064
482.393	16808
482.470	7046
482.547	7358
482.624	6504
482.701	7439
482.778	6379
482.855	5566
482.932	5856
483.009	4879
483.085	7285
483.162	7895
483.239	8248
483.316	5726
483.393	6489
483.469	6308
483.546	7242
483.623	7487
483.699	6736
483.776	6533
483.853	6878
483.930	10186
484.006	19992
484.083	32422
484.160	31650
484.236	52945
484.313	42107
484.389	28238
484.466	25808
484.543	24177
484.619	25412
484.696	25509
484.772	25422
484.849	25600
484.925	23064
485.002	23206
485.078	24057
485.155	23333
485.231	21617
485.308	20623
485.384	21243
485.461	22802
485.537	28756
485.614	32195
485.690	22564
485.766	20611
485.843	22527
485.919	28430
485.995	30460
486.072	19713
486.148	18684
486.224	18643
486.301	19187
486.377	20516
486.453	21590
486.530	22123
486.606	30954
486.682	32409
486.758	31884
486.835	32710
486.911	27724
486.987	38075
487.063	50925
487.139	68366
487.215	47278
487.292	27127
487.368	22753
487.444	24022
487.520	26907
487.596	26943
487.672	36348
487.748	82371
487.824	118705
487.900	43360
487.976	21681
488.052	21383
488.128	27026
488.204	21977
488.280	20751
488.356	20664
488.432	30630
488.508	40497
488.584	22922
488.660	18988
488.736	19502
488.812	20489
488.888	26256
488.964	32387
489.039	62694
489.115	96603
489.191	59649
489.267	18857
489.343	17923
489.418	16465
489.494	16087
489.570	14503
489.646	17115
489.722	15861
489.797	15841
489.873	18571
489.949	30553
490.024	26431
490.100	15644
490.176	15347
490.251	18613
490.327	24971
490.403	16238
490.478	15088
490.554	13165
490.629	14266
490.705	12812
490.781	14762
490.856	13761
490.932	16392
491.007	16901
491.083	15653
491.158	13135
491.234	15363
491.309	23175
491.385	24057
491.460	13703
491.536	14497
491.611	14069
491.686	15145
491.762	21346
491.837	40215
491.913	64183
491.988	87890
492.063	116142
492.139	27816
492.214	16817
492.289	12443
492.365	12265
492.440	14268
492.515	13288
492.590	12443
492.666	9936
492.741	13563
492.816	16042
492.891	10099
492.967	11517
493.042	9389
493.117	10807
493.192	10843
493.267	12753
493.342	16663
493.418	16864
493.493	11273
493.568	8961
493.643	9895
493.718	11978
493.793	16476
493.868	21088
493.943	15196
494.018	12078
494.093	9736
494.168	10218
494.243	9631
494.318	9575
494.393	9328
494.468	9682
494.543	9022
494.618	11357
494.693	10700
494.768	8847
494.842	10303
494.917	9187
494.992	10633
495.067	8760
495.142	8531
495.217	10617
495.292	9920
495.366	11966
495.441	12300
495.516	17148
495.591	23829
495.665	82405
495.740	199285
495.815	85593
495.890	14298
495.964	9766
496.039	13125
496.114	10916
496.188	11576
496.263	12540
496.338	9859
496.412	10582
496.487	13569
496.561	15014
496.636	15681
496.710	12082
496.785	11715
496.860	13831
496.934	11509
497.009	12558
497.083	12086
497.158	13773
497.232	13754
497.307	15652
497.381	14700
497.455	15273
497.530	17820
497.604	16022
497.679	15105
497.753	23339
497.827	30255
497.902	30224
497.976	30900
498.050	55577
498.125	189684
498.199	211330
498.273	52394
498.348	40754
498.422	30568
498.496	27093
498.570	24840
498.645	16698
498.719	14888
498.793	16599
498.867	21671
498.941	27487
499.016	72012
499.090	196594
499.164	79439
499.238	13305
499.312	11633
499.386	16836
499.460	15290
499.534	12270
499.609	16058
499.683	18531
499.757	16473
499.831	30901
499.905	122608
499.979	122019
500.053	20709
500.127	22612
500.201	20699
500.275	12621
500.349	12544
500.422	14302
500.496	21608
500.570	43678
500.644	80404
500.718	131160
500.792	34235
500.866	10108
500.940	12478
501.013	10072
501.087	11044
501.161	22906
501.235	26141
501.309	37268
501.382	102250
501.456	97898
501.530	22894
501.603	31931
501.677	16781
501.751	7537
501.825	11401
501.898	15643
501.972	40353
502.046	28884
502.119	10496
502.193	21479
502.266	44915
502.340	23253
502.413	19892
502.487	37021
502.561	21519
502.634	10832
502.708	10643
502.781	8545
502.855	7654
502.928	5419
503.002	6135
503.075	5260
503.149	6219
503.222	7070
503.295	6416
503.369	7860
503.442	10135
503.516	28845
503.589	70775
503.662	48598
503.736	16796
503.809	34973
503.882	30644
503.956	44210
504.029	44644
504.102	48149
504.175	67551
504.249	22053
504.322	11163
504.395	9513
504.468	6727
504.542	6501
504.615	4721
504.688	7247
504.761	5079
504.834	8170
504.907	10599
504.980	18838
505.053	9170
505.127	12096
505.200	14930
505.273	8176
505.346	5662
505.419	5309
505.492	5989
505.565	5747
505.638	4734
505.711	3962
505.784	4366
505.857	3984
505.930	6799
506.003	4125
506.076	5935
506.149	6047
506.221	5963
506.294	8755
506.367	15723
506.440	55742
506.513	35609
506.586	10344
506.659	6069
506.731	6488
506.804	7231
506.877	11295
506.950	7747
507.022	6284
507.095	4550
507.168	8388
507.241	7654
507.313	5146
507.386	6126
507.459	11077
507.531	6204
507.604	4324
507.677	5792
507.749	4369
507.822	8031
507.894	19477
507.967	25255
508.040	14084
508.112	12291
508.185	11076
508.257	9750
508.330	16940
508.402	9512
508.475	8735
508.547	9322
508.620	8968
508.692	11450
508.765	9128
508.837	7297
508.909	8449
508.982	8129
509.054	10198
509.127	8247
509.199	7397
509.271	6484
509.344	7190
509.416	7596
509.488	7412
509.560	8451
509.633	8302
509.705	9955
509.777	9234
509.849	13413
509.922	9518
509.994	6975
510.066	7946
510.138	8209
510.210	21585
510.283	17588
510.355	14617
510.427	13022
510.499	11788
510.571	11410
510.643	11880
510.715	19217
510.787	16013
510.859	12231
510.931	12734
511.003	17758
511.076	17129
511.148	9766
511.219	9755
511.291	13422
511.363	14378
511.435	9778
511.507	8226
511.579	10810
511.651	10106
511.723	8546
511.795	9513
511.867	9551
511.939	10283
512.010	13668
512.082	14223
512.154	10158
512.226	10579
512.298	15834
512.369	24362
512.441	18398
512.513	18240
512.585	14146
512.656	14243
512.728	14405
512.800	12338
512.871	11492
512.943	11597
513.015	9330
513.086	12465
513.158	12511
513.230	11801
513.301	17173
513.373	21844
513.444	12422
513.516	10974
513.588	10724
513.659	12649
513.731	15166
513.802	13428
513.874	25374
513.945	45097
514.016	17374
514.088	10535
514.159	11013
514.231	16792
514.302	22772
514.374	16521
514.445	13604
514.516	19361
514.588	15245
514.659	13044
514.730	17571
514.802	18432
514.873	15375
514.944	16364
515.016	12482
515.087	14876
515.158	15891
515.229	20022
515.301	14847
515.372	19487
515.443	11966
515.514	11396
515.585	9211
515.656	12120
515.728	10895
515.799	10935
515.870	11688
515.941	12883
516.012	12181
516.083	17112
516.154	19603
516.225	25955
516.296	24407
516.367	21260
516.438	25364
516.509	31984
516.580	44375
516.651	142354
516.722	536476
516.793	247197
516.864	45380
516.935	42337
517.006	47215
517.077	61760
517.148	138475
517.219	576231
517.289	928448
517.360	173169
517.431	48223
517.502	21373
517.573	20243
517.643	19065
517.714	20655
517.785	22925
517.856	24142
517.926	31958
517.997	38174
518.068	48620
518.138	65750
518.209	92533
518.280	354587
518.350	1370521
518.421	550109
518.492	61544
518.562	30501
518.633	23233
518.703	20049
518.774	32571
518.845	72795
518.915	78861
518.986	26607
519.056	21764
519.127	36541
519.197	49113
519.268	78701
519.338	47285
519.408	17418
519.479	24960
519.549	19824
519.620	13727
519.690	9701
519.760	10602
519.831	10522
519.901	11754
519.971	8703
520.042	10122
520.112	9759
520.182	13825
520.253	15224
520.323	9871
520.393	11385
520.463	17001
520.534	9317
520.604	19280
520.674	12171
520.744	10841
520.814	20062
520.885	21141
520.955	22674
521.025	75150
521.095	33736
521.165	9872
521.235	8626
521.305	8203
521.375	8550
521.445	9896
521.515	13088
521.585	17457
521.655	14486
521.725	13123
521.795	11047
521.865	6843
521.935	11997
522.005	9504
522.075	8519
522.145	9220
522.215	7323
522.285	11025
522.355	13031
522.424	22185
522.494	19276
522.564	14755
522.634	32286
522.704	103543
522.774	43037
522.843	11216
522.913	9043
522.983	12827
523.053	9834
523.122	11104
523.192	13737
523.262	52990
523.331	53427
523.401	11550
523.471	7565
523.540	9822
523.610	6557
523.680	7514
523.749	7164
523.819	8613
523.888	7428
523.958	6879
524.027	7274
524.097	8437
524.166	7808
524.236	7596
524.305	10129
524.375	7013
524.444	6213
524.514	8589
524.583	5683
524.653	7470
524.722	9145
524.791	6945
524.861	7582
524.930	6422
524.999	6332
525.069	11126
525.138	7962
525.207	8122
525.277	7197
525.346	7459
525.415	6451
525.484	7798
525.554	7454
525.623	8910
525.692	8680
525.761	8663
525.830	10497
525.900	11168
525.969	16084
526.038	25155
526.107	46199
526.176	143280
526.245	124853
526.314	42769
526.383	73577
526.452	102276
526.522	164572
526.591	186065
526.660	64069
526.729	34779
526.797	33412
526.867	66290
526.935	302010
527.004	460364
527.073	252224
527.142	26246
527.211	13357
527.280	11676
527.349	12198
527.418	6399
527.487	7396
527.555	6513
527.624	5936
527.693	4733
527.762	7007
527.831	4897
527.899	6722
527.968	6168
528.037	4514
528.106	8577
528.174	15674
528.243	12516
528.312	14130
528.380	23304
528.449	6942
528.518	7155
528.586	3925
528.655	6033
528.723	4450
528.792	5033
528.861	4791
528.929	4607
528.998	6697
529.066	4632
529.135	5392
529.203	4248
529.272	2491
529.340	5354
529.409	5804
529.477	3722
529.545	4534
529.614	7824
529.682	4835
529.751	6165
529.819	9016
529.887	5439
529.956	4045
530.024	6406
530.092	4534
530.161	6060
530.229	11606
530.297	6629
530.365	5501
530.434	4976
530.502	3877
530.570	4474
530.638	3440
530.707	5654
530.775	6670
530.843	3931
530.911	4825
530.979	5572
531.047	3973
531.115	5681
531.183	4612
531.252	5372
531.320	4783
531.388	4833
531.456	4959
531.524	3207
531.592	6118
531.660	6828
531.728	3973
531.796	4780
531.864	5234
531.932	6989
532.000	4807
532.067	5442
532.135	6479
532.203	8184
532.271	7251
532.339	14924
532.407	41890
532.475	26381
532.542	11973
532.610	13557
532.678	15311
532.746	75054
532.814	212479
532.881	54902
532.949	10438
533.017	7141
533.084	5482
533.152	5906
533.220	5837
533.287	6445
533.355	5749
533.423	5927
533.490	4262
533.558	5455
533.625	6173
533.693	6918
533.761	6934
533.828	7544
533.896	6483
533.963	13849
534.031	17636
534.098	26492
534.166	13443
534.233	6490
534.300	7033
534.368	7030
534.435	6465
534.503	7221
534.570	7531
534.637	7541
534.705	8697
534.772	9794
534.840	13896
534.907	62257
534.974	90646
535.041	14295
535.109	7679
535.176	6763
535.243	6228
535.310	7392
535.378	6014
535.445	5856
535.512	6127
535.579	7322
535.646	5621
535.714	6455
535.781	8778
535.848	8680
535.915	8616
535.982	6053
536.049	6008
536.116	9463
536.183	6185
536.250	7006
536.317	6312
536.384	9013
536.451	14253
536.518	15032
536.585	9055
536.652	12418
536.719	18664
536.786	15840
536.853	11076
536.920	15967
536.987	26932
537.053	26773
537.120	101720
537.187	96703
537.254	11361
537.321	8662
537.388	8948
537.454	6556
537.521	6697
537.588	6608
537.654	9091
537.721	10779
537.788	10442
537.855	9209
537.921	8346
537.988	8487
538.055	8515
538.121	8216
538.188	8847
538.254	12468
538.321	27837
538.388	19676
538.454	8355
538.521	8132
538.587	8004
538.654	8022
538.720	7687
538.787	8363
538.853	7106
538.920	9862
538.986	9684
539.053	8711
539.119	9912
539.185	9111
539.252	10249
539.318	16683
539.385	14696
539.451	12180
539.517	12947
539.583	14451
539.650	27959
539.716	80088
539.782	26234
539.849	9788
539.915	10570
539.981	9772
540.047	11881
540.114	10470
540.180	11334
540.246	9826
540.312	15003
540.378	26420
540.444	30302
540.510	30208
540.576	89777
540.643	32240
540.709	8927
540.775	9094
540.841	8530
540.907	11012
540.973	15053
541.039	17042
541.105	18886
541.171	11282
541.237	8718
541.303	10466
541.369	12003
541.435	12975
541.500	25972
541.566	17251
541.632	9609
541.698	7958
541.764	9106
541.830	8467
541.896	7781
541.961	9762
542.027	10066
542.093	9599
542.159	9946
542.224	9466
542.290	14909
542.356	23264
542.421	31528
542.487	13983
542.553	10305
542.618	10626
542.684	10813
542.750	10911
542.815	11834
542.881	19146
542.947	74885
543.012	61805
543.078	11879
543.143	9523
543.209	9954
543.274	11449
543.340	12468
543.405	29063
543.471	49770
543.536	13861
543.602	9367
543.667	8217
543.732	9795
543.798	8077
543.863	9227
543.928	8175
543.994	8196
544.059	9069
544.124	10291
544.190	9295
544.255	10107
544.320	11344
544.386	10393
544.451	14552
544.516	16784
544.581	17073
544.646	45652
544.712	79927
544.777	17966
544.842	12040
544.907	10996
544.972	10276
545.037	9535
545.102	10948
545.168	11541
545.233	12621
545.298	12717
545.363	14161
545.428	15738
545.493	28435
545.558	63573
545.623	28534
545.688	12325
545.753	12448
545.818	9947
545.883	11784
545.947	9995
546.012	12153
546.077	11883
546.142	13242
546.207	12466
546.272	16955
546.337	17828
546.401	15083
546.466	14384
546.531	12093
546.596	15070
546.661	14859
546.725	14136
546.790	13435
546.855	14008
546.919	13685
546.984	16669
547.049	18849
547.113	18949
547.178	19736
547.243	22382
547.307	25078
547.372	28928
547.436	29237
547.501	27072
547.565	30108
547.630	31260
547.695	30113
547.759	29181
547.823	27460
547.888	27344
547.952	27296
548.017	29596
548.081	31138
548.146	32078
548.210	32008
548.274	30570
548.339	31420
548.403	29361
548.468	27884
548.532	25513
548.596	27336
548.660	27360
548.725	30626
548.789	33885
548.853	33384
548.917	30643
548.982	32233
549.046	29588
549.110	24818
549.174	24994
549.238	28181
549.303	30080
549.367	32270
549.431	31115
549.495	28939
549.559	27873
549.623	32771
549.687	37369
549.751	43849
549.815	41486
549.879	41625
549.943	37544
550.007	42614
550.071	41669
550.135	43430
550.199	37562
550.263	35965
550.327	35160
550.391	37291
550.455	38077
550.519	39668
550.582	42618
550.646	52918
550.710	53847
550.774	46477
550.838	46699
550.901	47766
550.965	49272
551.029	52001
551.093	56107
551.156	60311
551.220	72804
551.284	88323
551.347	64248
551.411	64079
551.475	65409
551.538	52341
551.602	47063
551.666	45581
551.729	41371
551.793	42022
551.856	40213
551.920	39975
551.983	39722
552.047	39460
552.110	40126
552.174	41020
552.237	41882
552.301	39004
552.364	37982
552.428	37945
552.491	38210
552.554	40358
552.618	40404
552.681	41921
552.745	42242
552.808	63318
552.871	82615
552.934	51378
552.998	41299
553.061	39763
553.124	38321
553.187	37412
553.251	38157
553.314	39117
553.377	37629
553.440	40630
553.503	43316
553.567	46339
553.630	41113
553.693	41041
553.756	41155
553.819	40266
553.882	38879
553.945	39179
554.008	38936
554.071	38004
554.134	39581
554.197	37477
554.260	37019
554.323	39083
554.386	39906
554.449	38575
554.512	39124
554.575	37438
554.638	37307
554.701	37377
554.764	36908
554.827	35978
554.889	34530
554.952	32285
555.015	31520
555.078	32860
555.141	33341
555.203	32690
555.266	32095
555.329	33555
555.391	30895
555.454	33024
555.517	31717
555.580	28476
555.642	27400
555.705	27477
555.768	28464
555.830	27745
555.893	25630
555.955	25895
556.018	25769
556.080	25654
556.143	26161
556.206	26054
556.268	25916
556.330	25954
556.393	25319
556.455	24677
556.518	26585
556.580	27159
556.643	21236
556.705	21765
556.767	21618
556.830	22690
556.892	23657
556.955	31302
557.017	26031
557.079	21457
557.142	19907
557.204	22196
557.266	36656
557.328	31544
557.391	19257
557.453	17433
557.515	18927
557.577	21360
557.639	22601
557.701	18722
557.764	16724
557.826	18388
557.888	20262
557.950	19839
558.012	21548
558.074	24859
558.136	48664
558.198	120979
558.260	50759
558.322	22587
558.384	24686
558.446	27585
558.508	30960
558.570	37478
558.632	54022
558.694	75244
558.756	77366
558.818	219064
558.880	581106
558.942	190246
559.003	129335
559.065	72568
559.127	30493
559.189	30286
559.251	33291
559.312	43690
559.374	99589
559.436	358344
559.498	189730
559.559	35066
559.621	29385
559.683	32536
559.744	49870
559.806	158807
559.868	257244
559.929	52975
559.991	30654
560.052	41139
560.114	114175
560.176	78617
560.237	66307
560.299	115265
560.360	30332
560.422	15071
560.483	14092
560.545	13506
560.606	12794
560.667	12074
560.729	12002
560.790	11768
560.852	11969
560.913	11700
560.974	11714
561.036	10905
561.097	11771
561.158	12079
561.220	12645
561.281	13186
561.342	12656
561.403	15016
561.465	19565
561.526	41224
561.587	55503
561.648	16419
561.709	13186
561.771	11547
561.832	10986
561.893	11409
561.954	10566
562.015	11593
562.076	12001
562.137	11313
562.198	10766
562.259	12347
562.320	11855
562.381	13457
562.442	18350
562.503	15848
562.564	11309
562.625	11488
562.686	11330
562.747	12370
562.808	10768
562.869	11351
562.930	12054
562.991	11645
563.051	10361
563.112	11385
563.173	10148
563.234	9962
563.294	10498
563.355	10590
563.416	12031
563.477	10346
563.537	10354
563.598	11431
563.659	10891
563.720	10854
563.780	11084
563.841	12006
563.901	10327
563.962	11281
564.023	10515
564.083	11206
564.144	11357
564.204	10798
564.265	10115
564.325	11384
564.386	16383
564.446	16292
564.507	10604
564.567	9754
564.628	9940
564.688	9767
564.749	10206
564.809	11463
564.869	12957
564.930	11189
564.990	11072
565.050	10279
565.111	10566
565.171	11036
565.231	10412
565.292	12106
565.352	11380
565.412	11158
565.472	10991
565.532	12792
565.593	11402
565.653	10380
565.713	11582
565.773	13118
565.833	14989
565.893	18858
565.953	12041
566.013	11404
566.074	11009
566.134	13194
566.194	17215
566.254	19446
566.314	14378
566.374	12131
566.434	11688
566.494	12581
566.554	11682
566.614	12099
566.673	11875
566.733	12523
566.793	13896
566.853	14625
566.913	13219
566.973	14160
567.033	14757
567.092	13715
567.152	12774
567.212	14591
567.272	13384
567.331	13126
567.391	14112
567.451	15378
567.511	17914
567.570	17942
567.630	15377
567.690	14373
567.749	14857
567.809	15498
567.868	18596
567.928	18908
567.988	21043
568.047	23602
568.107	28368
568.166	39211
568.226	65443
568.285	92221
568.345	67335
568.404	48785
568.464	41683
568.523	36585
568.582	38330
568.642	44807
568.701	56904
568.761	88791
568.820	156581
568.879	137021
568.939	84574
568.998	56966
569.057	41452
569.116	33002
569.176	27114
569.235	24072
569.294	20020
569.353	18755
569.413	16897
569.472	16011
569.531	14324
569.590	14196
569.649	14249
569.708	13489
569.767	13991
569.827	15785
569.886	13318
569.945	12923
570.004	12226
570.063	13240
570.122	12219
570.181	14138
570.240	12876
570.299	14146
570.358	14486
570.417	12417
570.475	11043
570.534	12075
570.593	12453
570.652	13040
570.711	13762
570.770	11390
570.829	12902
570.887	13858
570.946	14435
571.005	11716
571.064	12302
571.122	14477
571.181	12224
571.240	10765
571.299	9586
571.357	10955
571.416	10157
571.475	12109
571.533	11675
571.592	9964
571.650	9895
571.709	10604
571.768	11352
571.826	11024
571.885	10159
571.943	9850
572.002	9012
572.060	10090
572.119	9115
572.177	9781
572.236	8854
572.294	9781
572.352	9567
572.411	9581
572.469	8827
572.528	9202
572.586	9530
572.644	10004
572.703	13745
572.761	10640
572.819	8791
572.877	8670
572.936	8629
572.994	8768
573.052	8691
573.110	9546
573.169	9730
573.227	8947
573.285	8785
573.343	8362
573.401	9416
573.459	8990
573.517	8217
573.576	9587
573.634	8283
573.692	9762
573.750	9211
573.808	8424
573.866	7730
573.924	10940
573.982	10842
574.040	9067
574.098	8076
574.155	8158
574.213	8522
574.271	7888
574.329	8422
574.387	8290
574.445	7599
574.503	8257
574.560	8502
574.618	8301
574.676	7534
574.734	8258
574.792	8694
574.849	8170
574.907	7806
574.965	7122
575.022	7447
575.080	7710
575.138	7913
575.195	8120
575.253	8023
575.311	9766
575.368	8481
575.426	7305
575.483	7936
575.541	8431
575.598	7135
575.656	8171
575.713	7552
575.771	8498
575.828	7909
575.886	7701
575.943	8272
576.001	7399
576.058	8060
576.115	8261
576.173	9545
576.230	10085
576.287	13032
576.345	10293
576.402	7784
576.459	8458
576.517	7982
576.574	8270
576.631	8858
576.688	9185
576.746	7549
576.803	7169
576.860	7243
576.917	8346
576.974	7662
577.031	7970
577.089	7803
577.146	8174
577.203	8699
577.260	8639
577.317	8402
577.374	9642
577.431	8285
577.488	9306
577.545	8076
577.602	8483
577.659	8170
577.716	8575
577.773	7388
577.830	7949
577.886	7273
577.943	7566
578.000	8546
578.057	8132
578.114	8399
578.171	8642
578.227	7368
578.284	7666
578.341	7456
578.398	7739
578.454	8520
578.511	8839
578.568	9675
578.625	8022
578.681	7581
578.738	6577
578.794	8117
578.851	8605
578.908	8735
578.964	9460
579.021	9412
579.077	9264
579.134	8795
579.190	8501
579.247	8540
579.303	8290
579.360	7630
579.416	7757
579.473	7657
579.529	6782
579.586	7747
579.642	8616
579.698	8071
579.755	8650
579.811	8719
579.867	8545
579.924	8157
579.980	7777
580.036	8386
580.093	7933
580.149	8063
580.205	8604
580.261	8168
580.317	9684
580.374	8960
580.430	10884
580.486	9203
580.542	8246
580.598	8146
580.619	8398
580.654	8838
580.692	8629
580.710	8531
580.765	9823
580.767	9868
580.823	8478
580.838	8736
580.879	9424
580.911	9333
580.935	9270
580.984	9375
580.991	9401
581.047	9113
581.057	8994
581.103	8420
581.130	8758
581.159	9128
581.203	9257
581.215	9294
581.270	8495
581.276	8600
581.326	9598
581.349	9769
581.382	10013
581.422	9660
581.438	9546
581.494	8809
581.494	8815
581.550	9279
581.567	9480
581.606	9880
581.640	9652
581.661	9532
581.713	10265
581.717	10323
581.773	10328
581.786	10030
581.829	9071
581.859	9237
581.885	9397
581.932	9506
581.940	9522
581.996	10484
582.004	10406
582.052	9891
582.077	9654
582.107	9347
582.150	9703
582.163	9829
582.219	10181
582.223	10144
582.274	9724
582.296	9967
582.330	10354
582.368	10513
582.386	10586
582.441	10614
582.441	10612
582.497	9988
582.514	9923
582.552	9941
582.587	10452
582.608	10746
582.659	10571
582.663	10550
582.719	10486
582.732	10562
582.774	10831
582.805	11070
582.830	11196
582.877	11010
582.885	11007
582.941	10795
582.950	10861
582.996	11223
583.023	11416
583.052	11612
583.095	11474
583.107	11399
583.162	11176
583.168	11225
583.218	11634
583.240	11812
583.273	12265
583.313	12518
583.328	12563
583.384	11435
583.385	11460
583.439	12082
583.458	12261
583.494	12639
583.531	11759
583.549	11391
583.603	11741
583.605	11743
583.660	13135
583.676	12799
583.715	12060
583.748	12729
583.770	13260
583.820	13149
583.825	13109
583.881	13218
583.893	13174
583.936	13206
583.965	12982
583.991	12699
584.038	12966
584.046	13062
584.101	13273
584.110	13177
584.156	12536
584.183	12705
584.211	12986
584.255	13380
584.266	13451
584.321	13948
584.328	13980
584.376	14437
584.400	14431
584.431	14358
584.472	14091
584.486	14065
584.541	14766
584.545	14807
584.596	15400
584.617	15479
584.651	15925
584.689	16083
584.706	16003
584.761	16050
584.762	16038
584.816	15951
584.834	16181
584.871	16689
584.906	16917
584.926	17124
584.978	17602
584.980	17638
585.035	18932
585.051	19186
585.090	20001
585.123	20634
585.145	20978
585.195	21881
585.200	22006
585.254	23034
585.267	23456
585.309	25372
585.340	26736
585.364	27739
585.412	29710
585.419	30126
585.473	33141
585.484	34017
585.528	39867
585.556	45622
585.583	59556
585.628	90066
585.637	103018
585.692	205111
585.700	223339
585.747	281507
585.772	251851
585.801	163311
585.845	60870
585.856	51339
585.910	35578
585.917	33720
585.965	30424
585.989	29227
586.019	28177
586.061	27729
586.074	27981
586.128	28154
586.133	28145
586.183	28993
586.205	29691
586.237	29725
586.277	28789
586.292	28635
586.346	28055
586.349	28038
586.401	28977
586.421	28991
586.455	29302
586.493	30703
586.509	32267
586.564	36236
586.565	36351
586.618	46110
586.637	47851
586.672	43610
586.709	37809
586.727	36698
586.781	36570
586.781	36622
586.835	35471
586.853	35331
586.889	35188
586.925	34495
586.944	34402
586.996	34888
586.998	34980
587.052	36784
587.068	37177
587.106	38272
587.140	38877
587.161	39196
587.212	39716
587.215	39874
587.269	42794
587.284	43340
587.323	44274
587.356	45030
587.377	45964
587.427	48104
587.431	48304
587.485	49747
587.499	50122
587.539	52229
587.571	53804
587.593	55211
587.643	58364
587.648	58760
587.702	61909
587.715	62646
587.755	65656
587.786	68103
587.810	70291
587.858	73178
587.864	73843
587.917	81194
587.930	82631
587.971	88367
588.001	93146
588.025	97588
588.073	104746
588.079	106070
588.133	118255
588.145	120937
588.187	133213
588.217	141962
588.241	151350
588.288	169267
588.295	172474
588.348	200404
588.360	206230
588.402	231962
588.431	250705
588.456	271319
588.503	311133
588.510	319128
588.564	384858
588.575	399096
588.617	475713
588.646	530897
588.671	607108
588.718	762437
588.725	801897
588.778	1118153
588.789	1186908
588.832	1563283
588.861	1826857
588.886	1940648
588.932	2088247
588.939	2076414
588.993	1842097
589.004	1817093
589.047	1966092
589.075	1986486
589.100	1749342
589.147	1280844
589.154	1238071
589.207	930454
589.218	870512
589.261	795428
589.290	752150
589.314	779241
589.361	842950
589.368	875879
589.421	1160844
589.433	1224613
589.475	1588709
589.504	1847952
589.528	1900026
589.576	1891020
589.582	1883510
589.635	1798754
589.647	1758580
589.689	1316507
589.718	1004735
589.742	842642
589.790	545028
589.795	530170
589.849	394331
589.861	363701
589.902	312435
589.932	274965
589.955	254015
590.004	209711
590.009	207445
590.062	180337
590.075	173275
590.115	158623
590.146	147401
590.168	142096
590.218	129364
590.222	128904
590.275	119595
590.289	116834
590.328	110759
590.360	105576
590.381	103721
590.431	98340
590.435	98249
590.488	92783
590.503	91114
590.541	89749
590.574	88050
590.594	86240
590.645	80648
590.647	80757
590.700	78386
590.716	77401
590.753	75552
590.787	73514
590.806	72788
590.859	70145
590.859	70326
590.912	69663
590.930	69194
590.965	68250
591.001	66901
591.018	66664
591.071	65526
591.072	65323
591.124	64835
591.143	64276
591.177	64425
591.214	64415
591.230	64898
591.283	65783
591.285	65618
591.336	67104
591.356	67434
591.389	67164
591.427	66316
591.442	65056
591.495	59447
591.498	58859
591.547	58334
591.569	57871
591.600	57415
591.640	56347
591.653	56325
591.706	55493
591.711	55238
591.759	56381
591.782	56682
591.811	58039
591.853	59584
591.864	59065
591.917	55452
591.924	54751
591.969	55357
591.995	55434
592.022	55384
592.066	54853
592.075	55392
592.127	57662
592.137	57896
592.180	59555
592.208	60276
592.233	58620
592.279	54942
592.285	55044
592.338	54416
592.350	54102
592.390	53479
592.421	52690
592.443	53088
592.491	53456
592.495	53643
592.548	53835
592.562	53721
592.600	53408
592.633	52810
592.653	52888
592.704	52352
592.705	52653
592.775	52627
592.846	54499
592.916	56760
592.987	60409
593.058	55671
593.128	51450
593.199	51317
593.270	51065
593.341	50294
593.411	52254
593.482	53200
593.553	51159
593.623	50038
593.694	52764
593.764	54047
593.835	52022
593.906	51292
593.976	50466
594.047	51875
594.117	55817
594.188	56817
594.258	51512
594.329	50786
594.399	51878
594.470	51805
594.540	52546
594.611	52671
594.681	52598
594.751	53499
594.822	56264
594.892	58117
594.963	57925
595.033	56212
595.103	57421
595.174	59947
595.244	69732
595.314	74549
595.384	59714
595.455	58573
595.525	60379
595.595	61776
595.665	62095
595.736	59338
595.806	60063
595.876	59480
595.946	60687
596.016	61676
596.087	62808
596.157	63418
596.227	62829
596.297	65086
596.367	68119
596.437	72632
596.507	77766
596.577	84607
596.647	74520
596.717	73207
596.787	74604
596.857	73755
596.927	74603
596.997	74656
597.067	75144
597.137	76123
597.207	76360
597.277	78208
597.347	74075
597.417	74622
597.487	76373
597.557	76860
597.626	78342
597.696	79642
597.766	82503
597.836	85721
597.906	72091
597.975	69148
598.045	68358
598.115	69977
598.185	75130
598.254	83174
598.324	91885
598.394	93864
598.464	92160
598.533	86021
598.603	81251
598.672	81065
598.742	79796
598.812	79985
598.881	79856
598.951	78829
599.020	79945
599.090	82812
599.159	83924
599.229	80968
599.299	77439
599.368	80380
599.437	79591
599.507	74880
599.576	71969
599.646	73435
599.715	71510
599.785	72247
599.854	71002
599.924	71651
599.993	69566
600.062	68903
600.132	71019
600.201	75714
600.270	89485
600.340	88343
600.409	83915
600.478	83852
600.547	85222
600.617	80199
600.686	69289
600.755	65794
600.824	66225
600.894	62047
600.963	59855
601.032	57750
601.101	57675
601.170	54803
601.239	56230
601.308	59637
601.378	58395
601.447	54654
601.516	56161
601.585	58544
601.654	65936
601.723	57011
601.792	57500
601.861	59203
601.930	64447
601.999	69818
602.068	64215
602.137	71527
602.206	70979
602.275	66919
602.343	76076
602.412	76079
602.481	63791
602.550	62286
602.619	63884
602.688	66347
602.756	64452
602.825	63459
602.894	65222
602.963	65669
603.032	66980
603.100	65964
603.169	66336
603.238	66345
603.307	66178
603.375	67372
603.444	68126
603.513	69651
603.581	70122
603.650	70645
603.719	69831
603.787	70849
603.856	71611
603.924	76095
603.993	78190
604.061	77669
604.130	81487
604.198	84291
604.267	83792
604.335	85026
604.404	85875
604.472	84320
604.541	86173
604.609	85883
604.678	87237
604.746	87928
604.815	89828
604.883	91847
604.951	91945
605.020	92204
605.088	93674
605.156	96244
605.225	96348
605.293	97110
605.361	97730
605.429	98681
605.498	102459
605.566	107937
605.634	108786
605.702	108852
605.771	113597
605.839	114394
605.907	110492
605.975	106725
606.043	105309
606.111	104793
606.180	104887
606.248	103586
606.316	105565
606.384	105029
606.452	115721
606.520	132089
606.588	118217
606.656	111418
606.724	107538
606.792	102849
606.860	93116
606.928	83980
606.996	82157
607.064	80396
607.132	83125
607.200	86478
607.267	90166
607.335	91693
607.403	93314
607.471	90685
607.539	87413
607.607	89688
607.674	80030
607.742	82424
607.810	84416
607.878	82185
607.946	82403
608.013	84351
608.081	87050
608.149	88570
608.216	89885
608.284	92781
608.352	92654
608.419	92577
608.487	95992
608.555	90123
608.622	89351
608.690	94602
608.757	104340
608.825	107071
608.893	105802
608.960	105842
609.028	105368
609.095	103691
609.163	95627
609.230	87184
609.298	80750
609.365	83488
609.432	90835
609.500	97542
609.567	110607
609.635	126638
609.702	130664
609.769	125924
609.837	103700
609.904	92927
609.971	97575
610.039	116554
610.106	164220
610.173	332397
610.241	787285
610.308	753295
610.375	418750
610.442	143947
610.509	104041
610.577	97264
610.644	94803
610.711	95955
610.778	96911
610.845	99708
610.912	107267
610.980	107829
611.047	106413
611.114	108220
611.181	102598
611.248	100566
611.315	107068
611.382	108810
611.449	111159
611.516	114223
611.583	114203
611.650	113605
611.717	117007
611.784	118046
611.851	126403
611.918	138793
611.984	164882
612.051	245799
612.118	534106
612.185	1337867
612.252	784259
612.319	191310
612.386	152026
612.452	138407
612.519	132169
612.586	136100
612.653	132407
612.719	134082
612.786	128516
612.853	117695
612.919	114635
612.986	117320
613.053	111339
613.120	102903
613.186	101670
613.253	103256
613.319	101294
613.386	102761
613.453	107304
613.519	114047
613.586	129607
613.652	160910
613.719	140684
613.785	128619
613.852	107967
613.918	103541
613.985	106391
614.051	111579
614.118	112424
614.184	108964
614.250	106230
614.317	106055
614.383	104177
614.449	105739
614.516	106538
614.582	107469
614.648	105828
614.715	105108
614.781	103687
614.847	103970
614.914	104590
614.980	101492
615.046	100078
615.112	103735
615.179	103729
615.245	108977
615.311	115417
615.377	139376
615.443	141220
615.509	116943
615.575	114827
615.642	112508
615.708	117877
615.774	124738
615.840	134693
615.906	154606
615.972	209325
616.038	362109
616.104	722015
616.170	1672743
616.236	1334566
616.302	284277
616.368	202542
616.434	146224
616.500	138112
616.565	148738
616.631	183911
616.697	149228
616.763	154580
616.829	236424
616.895	413235
616.961	384699
617.026	168255
617.092	118077
617.158	111572
617.224	108848
617.289	103869
617.355	98620
617.421	95603
617.487	96123
617.552	90883
617.618	89819
617.684	88207
617.749	90845
617.815	87195
617.880	85261
617.946	86123
618.012	88683
618.077	89381
618.143	85649
618.208	86836
618.274	91930
618.339	94505
618.405	78406
618.470	79207
618.536	80293
618.601	82067
618.667	77392
618.732	72958
618.798	71815
618.863	71023
618.928	72445
618.994	75721
619.059	83115
619.124	109504
619.190	83611
619.255	71708
619.320	70149
619.386	69798
619.451	69047
619.516	67472
619.581	67183
619.647	70533
619.712	70382
619.777	68066
619.842	68431
619.907	69959
619.972	72897
620.038	72341
620.103	68182
620.168	66219
620.233	68509
620.298	67687
620.363	69222
620.428	72172
620.493	72891
620.558	71977
620.623	73001
620.688	72679
620.753	72240
620.818	73743
620.883	73446
620.948	73967
621.013	73890
621.078	74104
621.143	73829
621.207	77457
621.272	76801
621.337	77399
621.402	75802
621.467	80150
621.532	80412
621.596	77484
621.661	73277
621.726	71515
621.791	72964
621.855	76349
621.920	79759
621.985	77153
622.049	78200
622.114	76750
622.179	73608
622.243	76724
622.308	77728
622.373	82791
622.437	79952
622.502	76406
622.566	75959
622.631	74959
622.695	77864
622.760	76472
622.824	76806
622.889	80583
622.953	87392
623.018	123788
623.082	117636
623.147	83449
623.211	83039
623.276	83074
623.340	75527
623.404	73229
623.469	73206
623.533	72953
623.597	71734
623.662	72912
623.726	68311
623.790	66079
623.854	63875
623.919	65596
623.983	65861
624.047	68113
624.111	66331
624.176	68429
624.240	72588
624.304	77927
624.368	68321
624.432	68306
624.496	71382
624.560	81409
624.625	85728
624.689	74098
624.753	73229
624.817	71768
624.881	69339
624.945	64930
625.009	62978
625.073	65388
625.137	71653
625.201	89489
625.265	86224
625.329	68683
625.393	71737
625.456	68594
625.520	69266
625.584	74158
625.648	77798
625.712	88374
625.776	135693
625.839	139380
625.903	77688
625.967	60118
626.031	77113
626.095	101150
626.158	65841
626.222	51840
626.286	50384
626.349	48329
626.413	45837
626.477	53075
626.540	48152
626.604	46753
626.668	46791
626.731	44396
626.795	46159
626.858	45612
626.922	44344
626.986	45627
627.049	43749
627.113	46078
627.176	44456
627.240	44512
627.303	42755
627.366	42067
627.430	44502
627.493	43588
627.557	42474
627.620	43133
627.684	44143
627.747	44860
627.810	41374
627.874	40553
627.937	37226
628.000	42000
628.064	39615
628.127	33972
628.190	35607
628.253	35775
628.317	34067
628.380	33448
628.443	33156
628.506	34440
628.569	31922
628.632	30865
628.696	30758
628.759	29331
628.822	29431
628.885	29633
628.948	28326
629.011	31393
629.074	31420
629.137	28324
629.200	27806
629.263	31666
629.326	26551
629.389	27706
629.452	26853
629.515	28492
629.578	27988
629.641	30250
629.704	29274
629.767	30635
629.830	27530
629.892	26257
629.955	25707
630.018	31983
630.081	36723
630.144	45589
630.207	32327
630.269	31619
630.332	27972
630.395	26078
630.458	26342
630.520	24486
630.583	26420
630.646	25090
630.708	23912
630.771	24068
630.834	25670
630.896	24593
630.959	25653
631.021	25071
631.084	24277
631.146	26255
631.209	28379
631.272	23619
631.334	25271
631.397	25297
631.459	26505
631.522	29346
631.584	27129
631.646	29766
631.709	31206
631.771	41411
631.834	31184
631.896	27678
631.958	23989
632.021	25372
632.083	23941
632.145	25764
632.208	25261
632.270	26915
632.332	23142
632.395	22459
632.457	24211
632.519	23204
632.581	24367
632.643	21920
632.706	22905
632.768	21866
632.830	21867
632.892	23375
632.954	22171
633.016	23579
633.078	23221
633.141	22642
633.203	22195
633.265	22994
633.327	22199
633.389	23234
633.451	27970
633.513	34499
633.575	28910
633.637	33072
633.698	29749
633.760	24916
633.822	25395
633.884	25898
633.946	23969
634.008	24029
634.070	25178
634.132	26851
634.193	27994
634.255	30812
634.317	30448
634.379	31946
634.441	27819
634.502	26053
634.564	24965
634.626	23383
634.687	23122
634.749	22501
634.811	22253
634.873	21442
634.934	20963
634.996	22558
635.057	20273
635.119	20134
635.181	21052
635.242	23019
635.304	19900
635.365	23978
635.427	21791
635.488	23494
635.550	20366
635.611	21726
635.673	20592
635.734	24706
635.796	24150
635.857	27837
635.918	24754
635.980	30338
636.041	29030
636.102	31374
636.164	31281
636.225	31396
636.286	26625
636.348	26091
636.409	23456
636.470	20573
636.531	22085
636.593	22704
636.654	21057
636.715	20596
636.776	19141
636.838	18180
636.899	19829
636.960	17853
637.021	17597
637.082	18104
637.143	18241
637.204	17311
637.265	16603
637.326	17818
637.387	18064
637.448	17128
637.509	18248
637.570	17852
637.631	17830
637.692	16438
637.753	15539
637.814	17274
637.875	16347
637.936	17386
637.997	17013
638.058	18877
638.119	18012
638.179	16419
638.240	16876
638.301	16266
638.362	14734
638.423	16313
638.483	17505
638.544	15430
638.605	16222
638.666	15041
638.726	17086
638.787	16091
638.848	15135
638.908	15154
638.969	15673
639.030	15716
639.090	14642
639.151	16386
639.211	19912
639.272	27209
639.332	48132
639.393	23894
639.453	16441
639.514	16824
639.574	15452
639.635	14322
639.695	16496
639.756	16067
639.816	18238
639.877	25154
639.937	43438
639.997	57502
640.058	19433
640.118	14453
640.178	15079
640.239	14754
640.299	13605
640.359	13931
640.420	15409
640.480	16197
640.540	17757
640.600	17641
640.661	18019
640.721	18350
640.781	25135
640.841	16222
640.901	15287
640.961	15585
641.021	18791
641.082	24291
641.142	35165
641.202	21598
641.262	13662
641.322	15070
641.382	12944
641.442	14117
641.502	13180
641.562	14539
641.622	14161
641.682	14744
641.742	15984
641.802	15856
641.861	16111
641.921	17650
641.981	20343
642.041	20165
642.101	26811
642.161	16323
642.221	12574
642.280	12646
642.340	11824
642.400	11854
642.460	13807
642.519	13453
642.579	12602
642.639	13575
642.698	11311
642.758	14595
642.818	14087
642.877	13849
642.937	15687
642.997	20204
643.056	31796
643.116	17989
643.175	15534
643.235	14632
643.294	14646
643.354	16104
643.414	15770
643.473	20418
643.532	23846
643.592	32505
643.651	53862
643.711	98926
643.770	201110
643.830	510339
643.889	1055511
643.948	217428
644.008	38645
644.067	26149
644.126	19493
644.186	17350
644.245	15579
644.304	13271
644.363	15360
644.423	13118
644.482	13469
644.541	14832
644.600	13354
644.659	17818
644.719	20403
644.778	32074
644.837	52023
644.896	109421
644.955	245603
645.014	74010
645.073	20040
645.132	15865
645.191	15082
645.250	13722
645.309	16141
645.368	15226
645.427	20020
645.486	29025
645.545	48645
645.604	17088
645.663	13677
645.722	13247
645.781	14277
645.840	17332
645.898	20269
645.957	31619
646.016	47822
646.075	91458
646.134	184446
646.192	512138
646.251	728206
646.310	93153
646.369	27570
646.427	22816
646.486	16383
646.545	15248
646.603	14001
646.662	12848
646.721	12775
646.779	12658
646.838	12530
646.896	16914
646.955	19847
647.014	32114
647.072	57642
647.131	154447
647.189	69293
647.248	13672
647.306	12073
647.365	11839
647.423	9062
647.481	12566
647.540	9887
647.598	10431
647.657	9771
647.715	10530
647.773	8465
647.832	10006
647.890	9040
647.948	8939
648.007	10064
648.065	8269
648.123	8367
648.181	11001
648.240	9500
648.298	8514
648.356	8097
648.414	8950
648.472	9080
648.531	8984
648.589	8509
648.647	8434
648.705	8863
648.763	8805
648.821	9243
648.879	9321
648.937	11282
648.995	13161
649.053	15891
649.111	25309
649.169	41003
649.227	72422
649.285	154077
649.343	443987
649.401	199983
649.459	72363
649.516	40814
649.574	15211
649.632	15539
649.690	15096
649.748	17893
649.806	21679
649.863	38882
649.921	107864
649.979	65330
650.037	13516
650.094	8466
650.152	9518
650.210	7902
650.268	8338
650.325	8123
650.383	8389
650.440	6445
650.498	8023
650.556	7559
650.613	7226
650.671	7402
650.728	8288
650.786	7806
650.843	8556
650.901	6377
650.958	6924
651.016	7215
651.073	6540
651.131	6493
651.188	5847
651.246	6742
651.303	5622
651.360	6339
651.418	5952
651.475	6609
651.532	5256
651.590	6640
651.647	6755
651.704	6206
651.762	7288
651.819	7057
651.876	5653
651.933	6454
651.990	7357
652.048	4175
652.105	5442
652.162	5378
652.219	5714
652.276	6208
652.333	6065
652.390	4410
652.448	6102
652.505	5927
652.562	5985
652.619	5727
652.676	5656
652.733	6792
652.790	5697
652.847	5127
652.904	5904
652.961	4521
653.017	5062
653.074	6861
653.131	6805
653.188	4787
653.245	5650
653.302	6199
653.359	6430
653.415	6462
653.472	4819
653.529	5737
653.586	4617
653.642	4735
653.699	6722
653.756	4955
653.813	5445
653.869	6046
653.926	4619
653.983	4536
654.039	5028
654.096	5468
654.152	6718
654.209	4869
654.266	5795
654.322	5190
654.379	6640
654.435	8094
654.492	7691
654.548	11415
654.605	18317
654.661	8615
654.717	5906
654.774	6666
654.830	6315
654.887	6007
654.943	4713
655.000	5873
655.056	6504
655.112	6033
655.168	5460
655.225	4924
655.281	6430
655.337	6700
655.394	9566
655.450	7522
655.506	7579
655.562	10895
655.618	8983
655.675	5018
655.731	5949
655.787	4614
655.843	6047
655.899	4127
655.955	5633
656.011	6164
656.067	5022
656.123	5956
656.179	5447
656.235	6417
656.291	5453
656.347	6613
656.403	5855
656.459	5423
656.515	6887
656.571	5807
656.627	4928
656.683	4867
656.739	6583
656.795	6060
656.850	7453
656.906	8926
656.962	7354
657.018	4798
657.074	5929
657.129	6917
657.185	9219
657.241	14808
657.297	9623
657.352	5846
657.408	5623
657.464	7140
657.519	5733
657.575	4187
657.630	4794
657.686	4605
657.742	4904
657.797	4273
657.853	4259
657.908	6333
657.964	4304
658.019	4555
658.075	5304
658.130	5432
658.186	4780
658.241	5066
658.297	3647
658.352	4644
658.407	5553
658.463	4648
658.518	4918
658.573	5392
658.629	3801
658.684	4670
658.739	5353
658.795	3989
658.850	4948
658.905	4737
658.960	5215
659.016	3910
659.071	5512
659.126	6572
659.181	7255
659.236	15813
659.291	17107
659.346	8269
659.401	6697
659.457	5409
659.512	4783
659.567	5281
659.622	4975
659.677	5300
659.732	4240
659.787	4214
659.842	5267
659.897	6219
659.952	5911
660.007	4497
660.061	4880
660.116	3485
660.171	4238
660.226	4885
660.281	5271
660.336	4146
660.391	5287
660.445	3494
660.500	4389
660.555	5023
660.610	4648
660.664	4673
660.719	4422
660.774	4525
660.828	5014
660.883	5206
660.938	5059
660.992	4316
661.047	5165
661.101	4488
661.156	4613
661.211	3447
661.265	4539
661.320	4663
661.374	5077
661.429	3386
661.483	4614
661.538	4071
661.592	4262
661.647	4668
661.701	5265
661.755	4677
661.810	4846
661.864	3387
661.919	4019
661.973	5206
662.027	4149
662.081	3929
662.136	4122
662.190	4559
662.244	5297
662.299	3680
662.353	4919
662.407	4243
662.461	3963
662.515	4751
662.569	4240
662.624	5120
662.678	4345
662.732	4837
662.786	4876
662.840	4589
662.894	4356
662.948	4010
663.002	4378
663.056	3943
663.110	4214
663.164	4439
663.218	4768
663.272	4697
663.326	6410
663.380	4929
663.434	5182
663.488	4093
663.542	4692
663.595	3633
663.649	5007
663.703	4893
663.757	4423
663.811	3146
663.864	3988
663.918	4194
663.972	4396
664.026	3999
664.079	3821
664.133	4167
664.187	3671
664.240	4426
664.294	5540
664.348	4478
664.401	4009
664.455	3524
664.508	3689
664.562	3440
664.615	4537
664.669	3946
664.722	4349
664.776	3616
664.829	5028
664.883	3764
664.936	3744
664.990	3398
665.043	4579
665.097	4510
665.150	5674
665.203	4696
665.257	4787
665.310	4108
665.363	4190
665.417	4640
665.470	3631
665.523	4370
665.576	4153
665.630	4601
665.683	4239
665.736	4206
665.789	4703
665.842	4506
665.895	5153
665.949	4294
666.002	3406
666.055	4534
666.108	4910
666.161	4483
666.214	4289
666.267	5195
666.320	6910
666.373	5290
666.426	4543
666.479	4029
666.532	4892
666.585	4832
666.638	5719
666.691	4215
666.744	5449
666.796	5621
666.849	5993
666.902	4296
666.955	4112
667.008	3640
667.060	4097
667.113	3890
667.166	4478
667.219	4404
667.271	4638
667.324	4762
667.377	4587
667.430	4500
667.482	4867
667.535	4362
667.587	5792
667.640	6458
667.693	8004
667.745	16776
667.798	15360
667.850	6466
667.903	4755
667.955	4007
668.008	3716
668.060	4926
668.113	4571
668.165	4262
668.218	5003
668.270	4349
668.322	4892
668.375	4450
668.427	4868
668.479	4235
668.532	4837
668.584	4787
668.636	4279
668.689	5062
668.741	4278
668.793	4722
668.845	5028
668.898	4067
668.950	4482
669.002	4685
669.054	4301
669.106	4450
669.158	5804
669.211	4864
669.263	4492
669.315	5069
669.367	5835
669.419	5471
669.471	7704
669.523	9064
669.575	11665
669.627	8846
669.679	6959
669.731	6858
669.783	7442
669.835	9082
669.886	8357
669.938	7160
669.990	6452
670.042	6710
670.094	8920
670.146	9674
670.197	11044
670.249	13379
670.301	17601
670.353	23416
670.404	32452
670.456	48026
670.508	76331
670.560	123378
670.611	207931
670.663	364634
670.715	758436
670.766	946081
670.818	426311
670.869	109230
670.921	53656
670.972	33682
671.024	24251
671.075	19307
671.127	15300
671.178	13000
671.230	12162
671.281	10193
671.333	8826
671.384	8968
671.436	10209
671.487	11039
671.538	13169
671.590	16234
671.641	23317
671.692	38461
671.744	68299
671.795	39786
671.846	14782
671.897	8987
671.949	7761
672.000	6023
672.051	6479
672.102	6032
672.153	5067
672.204	4758
672.256	5190
672.307	5378
672.358	5713
672.409	4276
672.460	4596
672.511	4381
672.562	4518
672.613	5106
672.664	4709
672.715	4590
672.766	4238
672.817	3435
672.868	4349
672.919	4918
672.970	3793
673.021	4671
673.071	3233
673.122	3942
673.173	3802
673.224	4264
673.275	4444
673.326	3290
673.376	4120
673.427	3630
673.478	4269
673.528	4349
673.579	3084
673.630	2873
673.680	4034
673.731	3739
673.782	3372
673.832	4351
673.883	4220
673.934	2835
673.984	3233
674.035	3185
674.085	4436
674.136	4123
674.186	4211
674.237	4838
674.287	6203
674.338	3982
674.388	3746
674.438	3751
674.489	4566
674.539	5259
674.589	3943
674.640	4378
674.690	2836
674.740	3447
674.791	5323
674.841	3596
674.891	3429
674.942	3824
674.992	4775
675.042	2776
675.092	3530
675.142	1804
675.193	3065
675.243	2687
675.293	4770
675.343	3671
675.393	3534
675.443	3836
675.493	3006
675.543	2545
675.593	3268
675.643	2764
675.693	3546
675.743	3789
675.793	3117
675.843	3025
675.893	2667
675.943	3317
675.993	2600
676.043	2978
676.093	3523
676.142	3260
676.192	3586
676.242	2376
676.292	3241
676.341	2522
676.391	3578
676.441	2517
676.491	2953
676.540	2025
676.590	3297
676.640	2502
676.689	2422
676.739	2083
676.789	2305
676.838	2030
676.888	3089
676.937	2498
676.987	2322
677.037	2299
677.086	2257
677.136	2380
677.185	2902
677.235	2399
677.284	2876
677.333	2106
677.383	2067
677.432	1687
677.482	2760
677.531	1697
677.580	2463
677.630	2948
677.679	1456
677.728	2396
677.778	2249
677.827	1679
677.876	1593
677.925	2495
677.975	2926
678.024	2614
678.073	3600
678.122	3163
678.171	2387
678.220	2191
678.269	3139
678.319	3407
678.368	3156
678.417	2829
678.466	2782
678.515	3050
678.564	3250
678.613	2039
678.662	2414
678.711	1859
678.760	2951
678.809	3222
678.857	2681
678.906	1666
678.955	2531
679.004	2619
679.053	1815
679.102	1920
679.151	2953
679.199	1630
679.248	2627
679.297	1966
679.346	2300
679.394	2851
679.443	1853
679.492	2355
679.540	2565
679.589	2307
679.638	2275
679.686	2096
679.735	2088
679.784	2352
679.832	2840
679.881	1915
679.929	2606
679.978	1432
680.026	2199
680.075	2497
680.123	1573
680.172	1838
680.220	1578
680.268	2358
680.317	1987
680.365	2294
680.414	2532
680.462	2459
680.510	2631
680.559	1856
680.607	2158
680.655	2211
680.703	1732
680.752	2250
680.800	2327
680.848	2318
680.896	1520
680.945	2242
680.993	2452
681.041	1769
681.089	2134
681.137	1622
681.185	1699
681.233	1680
681.258	2074
681.281	2420
681.329	1722
681.377	1849
681.380	1855
681.425	1481
681.473	2423
681.502	2428
681.521	2375
681.569	2250
681.617	2394
681.624	2375
681.665	2066
681.713	2166
681.745	2191
681.761	2161
681.809	2057
681.857	3076
681.867	2963
681.904	2481
681.952	3193
681.989	2439
682.000	2174
682.048	2207
682.096	2455
682.111	2379
682.143	2125
682.191	2653
682.233	3130
682.239	3172
682.286	2857
682.334	2913
682.354	2929
682.382	2925
682.430	3911
682.476	2414
682.477	2358
682.525	3182
682.572	2048
682.598	2331
682.620	2569
682.667	3518
682.715	4419
682.720	4368
682.763	3613
682.810	4406
682.841	4289
682.857	4175
682.905	2731
682.952	3473
682.963	3340
683.000	2780
683.047	3094
683.085	4599
683.095	4994
683.142	3209
683.190	3875
683.206	3616
683.237	3017
683.284	3521
683.328	2901
683.332	2837
683.379	3742
683.426	3882
683.449	3708
683.473	3499
683.521	4327
683.568	4175
683.571	4225
683.615	4624
683.662	4615
683.693	4621
683.709	4546
683.757	4161
683.804	4949
683.814	4729
683.851	3972
683.898	4913
683.936	5118
683.945	5166
683.992	4633
684.039	5442
684.057	5715
684.086	6051
684.133	6125
684.179	4911
684.180	4847
684.227	6096
684.274	5824
684.300	6040
684.321	6192
684.368	5813
684.415	5476
684.422	5426
684.462	4885
684.509	4970
684.543	4878
684.556	4911
684.603	5377
684.649	4722
684.665	4872
684.696	5121
684.743	4923
684.786	5715
684.790	5763
684.837	5709
684.883	6568
684.908	6504
684.930	6467
684.977	6647
685.023	6210
685.029	6265
685.070	6405
685.117	6001
685.150	6152
685.164	6220
685.210	6345
685.257	6941
685.272	6839
685.303	6640
685.350	7263
685.393	6998
685.396	6973
685.443	7476
685.490	8760
685.514	8524
685.536	8088
685.583	7600
685.629	7542
685.636	7468
685.675	7118
685.722	7379
685.757	7223
685.768	7194
685.815	7872
685.861	7417
685.878	7458
685.908	7424
685.954	7688
686.000	7593
686.000	7590
686.047	8014
686.093	8803
686.121	8861
686.139	8676
686.185	8222
686.232	7951
686.242	7882
686.278	7671
686.324	7548
686.363	7419
686.370	7403
686.416	6884
686.463	7736
686.484	7625
686.509	7599
686.555	7626
686.601	7469
686.606	7528
686.647	7841
686.693	7331
686.727	7465
686.739	7537
686.785	7207
686.831	7643
686.848	7629
686.877	7617
686.923	7181
686.969	7693
686.969	7695
687.015	7279
687.061	8058
687.090	8052
687.107	7997
687.153	7715
687.199	7694
687.211	7607
687.245	7670
687.291	7806
687.332	8648
687.336	8699
687.382	8664
687.428	8400
687.453	8300
687.474	8277
687.520	8715
687.565	8599
687.574	8547
687.611	8208
687.657	8409
687.695	8326
687.702	8375
687.748	8567
687.794	9106
687.816	9027
687.839	8732
687.885	8703
687.931	8743
687.937	8650
687.976	8360
688.022	9076
688.058	9092
688.067	9090
688.113	9181
688.158	8938
688.179	8908
688.204	8820
688.249	9287
688.295	9290
688.300	9204
688.340	8692
688.386	9034
688.421	9090
688.431	9202
688.477	9432
688.522	10693
688.542	10693
688.567	10363
688.613	9680
688.658	9996
688.663	9957
688.703	9865
688.749	9828
688.784	9970
688.794	10032
688.839	9993
688.884	9792
688.905	9870
688.930	9878
688.975	9265
689.020	9332
689.026	9296
689.065	9357
689.110	9574
689.146	9571
689.155	9576
689.201	9764
689.246	9550
689.267	9611
689.291	9652
689.336	10379
689.381	9980
689.388	9970
689.426	10066
689.471	10214
689.509	10161
689.516	10132
689.561	9964
689.606	10146
689.630	9814
689.651	9603
689.696	10121
689.741	10101
689.750	10074
689.785	10004
689.830	9796
689.871	9706
689.875	9708
689.920	9985
689.965	9849
689.992	9739
690.010	9736
690.054	9847
690.099	10238
690.112	10200
690.144	10085
690.189	9930
690.233	10111
690.233	10126
690.278	9807
690.323	10377
690.354	10392
690.367	10450
690.412	10687
690.457	10542
690.474	10565
690.501	10408
690.546	10468
690.590	10179
690.595	10135
690.635	10265
690.680	10299
690.716	10303
690.724	10288
690.769	10283
690.813	10924
690.836	10516
690.857	10292
690.902	10740
690.946	10696
690.957	10743
690.991	11108
691.035	11895
691.077	12379
691.080	12405
691.124	12286
691.168	12425
691.198	12300
691.213	12187
691.257	12299
691.301	11571
691.318	11632
691.346	11802
691.390	11254
691.434	11135
691.439	11098
691.478	11355
691.522	11732
691.559	11832
691.567	11878
691.611	12492
691.655	12288
691.680	12574
691.699	12598
691.743	11977
691.787	12064
691.800	11875
691.831	11904
691.875	12096
691.919	12720
691.921	12708
691.964	12798
692.008	12728
692.041	12664
692.052	12660
692.096	12379
692.139	12692
692.162	12494
692.183	12280
692.227	12476
692.271	11938
692.282	11979
692.315	12273
692.359	11825
692.402	11712
692.403	11737
692.447	12028
692.490	12510
692.523	12735
692.534	12851
692.578	13074
692.622	12921
692.643	13214
692.666	13224
692.709	12651
692.753	12177
692.763	12121
692.797	12388
692.840	12202
692.884	12232
692.884	12258
692.928	12278
692.971	12454
693.004	12499
693.015	12562
693.059	12892
693.102	12646
693.124	12688
693.146	12754
693.189	13006
693.233	13318
693.245	13218
693.276	13111
693.320	13397
693.363	13389
693.365	13359
693.407	13279
693.450	13465
693.485	13318
693.493	13325
693.537	13837
693.580	13782
693.605	13777
693.624	13795
693.667	13843
693.710	13955
693.725	13846
693.753	14418
693.797	15640
693.840	16590
693.845	16696
693.883	16369
693.926	15720
693.966	15427
693.970	15417
694.013	14734
694.056	14048
694.086	13489
694.099	13494
694.142	13586
694.185	13477
694.206	13492
694.229	13743
694.272	13833
694.315	14615
694.326	14634
694.358	15060
694.401	15633
694.444	16499
694.446	16499
694.487	16570
694.530	16470
694.566	16327
694.573	16177
694.616	14900
694.659	14132
694.686	13209
694.702	13169
694.745	13361
694.787	13480
694.806	13450
694.830	13425
694.873	13417
694.916	13541
694.926	13490
694.959	13557
695.002	13757
695.044	13891
695.046	13864
695.087	13988
695.130	13960
695.166	13958
695.172	14019
695.215	14232
695.258	14567
695.286	14599
695.301	14531
695.343	14109
695.386	13995
695.406	13877
695.428	13919
695.471	13963
695.514	13847
695.526	13841
695.556	14141
695.599	14485
695.641	14629
695.646	14616
695.684	14461
695.726	14264
695.766	14099
695.769	14140
695.811	14220
695.854	14189
695.886	14273
695.896	14374
695.938	14601
695.981	14566
696.005	14631
696.023	14670
696.065	14738
696.108	14746
696.125	14648
696.150	14712
696.192	15053
696.235	15206
696.245	15230
696.277	14973
696.319	14299
696.361	13909
696.365	13834
696.404	14048
696.446	14105
696.485	14273
696.488	14323
696.530	14546
696.572	14621
696.604	14788
696.614	14929
696.656	15067
696.698	15451
696.724	15651
696.740	15502
696.783	14845
696.825	14375
696.844	14068
696.867	14259
696.909	14576
696.951	14846
696.964	14861
696.992	14735
697.034	14705
697.076	14569
697.083	14503
697.118	15147
697.160	16003
697.202	16727
697.203	16705
697.244	16283
697.286	15682
697.323	15183
697.327	15233
697.369	15243
697.411	15305
697.442	15342
697.453	15405
697.494	15361
697.536	15440
697.562	15441
697.578	15590
697.620	15884
697.661	16118
697.682	16213
697.703	16582
697.744	17212
697.786	17899
697.801	18062
697.828	18219
697.869	18470
697.911	18616
697.921	18625
697.952	17660
697.994	16357
698.035	14949
698.040	14747
698.077	15181
698.118	15581
698.160	16019
698.160	15977
698.201	16029
698.243	16034
698.279	16030
698.284	16087
698.325	16167
698.367	16276
698.399	16333
698.408	16342
698.449	16136
698.491	15954
698.518	15805
698.532	15971
698.573	16333
698.614	16692
698.638	16848
698.656	16744
698.697	16394
698.738	16059
698.757	15861
698.779	16108
698.820	16479
698.862	16854
698.877	16955
698.903	17143
698.944	17361
698.985	17580
698.996	17596
699.026	17294
699.067	16810
699.116	16190
699.235	16896
699.354	16565
699.474	16048
699.593	17785
699.713	16717
699.832	17166
699.951	17551
700.070	17289
700.190	14612
700.309	16311
700.428	15891
700.547	16749
700.667	16305
700.786	17170
700.905	15206
701.024	16446
701.143	15717
701.262	15155
701.381	15321
701.500	17648
701.619	19005
701.738	15429
701.857	14758
701.976	15292
702.095	14496
702.214	16829
702.333	16734
702.452	16314
702.571	15104
702.690	15430
702.809	14866
702.928	15182
703.047	14672
703.165	15301
703.284	13880
703.403	14789
703.522	14539
703.640	15479
703.759	16779
703.878	19151
703.997	14933
704.115	14371
704.234	14054
704.353	14696
704.471	13582
704.590	13757
704.708	13619
704.827	13623
704.946	13476
705.064	14232
705.183	14139
705.301	15664
705.420	17878
705.538	16642
705.656	14566
705.775	14051
705.893	15508
706.012	16739
706.130	15034
706.249	16353
706.367	15550
706.485	16080
706.604	15056
706.722	15956
706.840	17293
706.958	17243
707.077	15969
707.195	14355
707.313	13925
707.431	15193
707.549	14521
707.668	14157
707.786	14242
707.904	14164
708.022	14472
708.140	14423
708.258	14140
708.376	15535
708.494	14034
708.612	15315
708.730	18289
708.848	17401
708.966	16933
709.084	16806
709.202	15541
709.320	16258
709.438	16161
709.556	16609
709.674	14823
709.791	16010
709.909	13508
710.027	15742
710.145	14782
710.263	14872
710.380	14195
710.498	14949
710.616	14669
710.733	14977
710.851	14720
710.969	14677
711.086	14581
711.204	15191
711.322	14210
711.439	14489
711.557	13626
711.674	14057
711.792	14062
711.909	14631
712.027	13397
712.144	13738
712.262	13079
712.379	14811
712.497	18325
712.614	18645
712.732	16872
712.849	17104
712.966	17727
713.084	20841
713.201	16561
713.318	16882
713.436	16093
713.553	16746
713.670	16518
713.787	17247
713.905	16399
714.022	16092
714.139	15855
714.256	19047
714.373	22013
714.490	36351
714.608	86260
714.725	355604
714.842	301560
714.959	29918
715.076	17979
715.193	16786
715.310	15489
715.427	14815
715.544	12838
715.661	14755
715.778	13377
715.895	15857
716.011	15076
716.128	14743
716.245	14280
716.362	19196
716.479	18281
716.596	14636
716.713	13054
716.829	13546
716.946	13827
717.063	12964
717.180	13383
717.296	12887
717.413	13367
717.530	14178
717.646	13169
717.763	13178
717.880	12541
717.996	13312
718.113	13002
718.229	12256
718.346	11874
718.462	14347
718.579	18149
718.695	31218
718.812	20065
718.928	15524
719.045	12036
719.161	12732
719.277	11986
719.394	11915
719.510	12361
719.626	14018
719.743	15527
719.859	18114
719.975	29689
720.092	101821
720.208	194810
720.324	25957
720.440	13581
720.557	16475
720.673	23248
720.789	24501
720.905	34404
721.021	14673
721.137	11659
721.253	12410
721.369	11642
721.486	12711
721.602	14396
721.718	11671
721.834	10400
721.950	12489
722.066	10623
722.181	10926
722.297	11290
722.413	11211
722.529	10203
722.645	10240
722.761	10030
722.877	9932
722.993	10098
723.108	11173
723.224	9651
723.340	9912
723.456	9693
723.571	10793
723.687	8468
723.803	10700
723.918	10015
724.034	10036
724.150	9510
724.265	10713
724.381	16471
724.497	17643
724.612	8796
724.728	9444
724.843	8795
724.959	10084
725.074	15763
725.190	15328
725.305	9303
725.421	9611
725.536	9462
725.651	9229
725.767	8781
725.882	8948
725.997	8946
726.113	10252
726.228	8020
726.343	9221
726.459	7714
726.574	9220
726.689	8512
726.804	9074
726.920	8443
727.035	9295
727.150	8481
727.265	8165
727.380	8962
727.495	9424
727.610	8111
727.725	8687
727.841	8037
727.956	8002
728.071	8878
728.186	8028
728.301	8086
728.416	9044
728.531	7973
728.645	8223
728.760	8818
728.875	9867
728.990	8746
729.105	8972
729.220	8709
729.335	8792
729.449	7625
729.564	8111
729.679	7179
729.794	7636
729.908	7977
730.023	8287
730.138	7342
730.253	7569
730.367	7303
730.482	7871
730.596	8403
730.711	9057
730.826	7670
730.940	8370
731.055	8847
731.169	8641
731.284	6726
731.398	7448
731.513	8499
731.627	8450
731.742	8992
731.856	8636
731.970	7893
732.085	10364
732.199	11027
732.313	17631
732.428	40466
732.542	111448
732.656	55628
732.771	14330
732.885	9830
732.999	10075
733.113	9104
733.227	9158
733.342	8261
733.456	7687
733.570	7390
733.684	8011
733.798	8088
733.912	8261
734.026	7382
734.140	7880
734.254	8362
734.368	10617
734.482	11769
734.596	8702
734.710	7353
734.824	7660
734.938	6808
735.052	8749
735.166	7751
735.280	9212
735.393	6960
735.507	7233
735.621	8388
735.735	11830
735.849	8614
735.962	7311
736.076	7400
736.190	7858
736.303	9097
736.417	10165
736.531	7391
736.644	7544
736.758	5935
736.872	6947
736.985	6685
737.099	7096
737.212	6700
737.326	7375
737.439	7030
737.553	6810
737.666	6957
737.780	6312
737.893	7061
738.007	7526
738.120	6152
738.233	7536
738.347	6371
738.460	7033
738.573	7724
738.687	7686
738.800	7308
738.913	10235
739.026	6971
739.140	6323
739.253	6224
739.366	5282
739.479	5963
739.592	5919
739.705	6393
739.818	7110
739.932	6294
740.045	7170
740.158	6384
740.271	7052
740.384	6353
740.497	6893
740.610	5608
740.723	6167
740.836	6381
740.949	7251
741.062	9660
741.174	8491
741.287	6059
741.400	6525
741.513	6195
741.626	6719
741.739	6295
741.851	6439
741.964	6190
742.077	6399
742.189	5927
742.302	7459
742.415	5953
742.527	5849
742.640	6176
742.753	5710
742.865	5313
742.978	5249
743.090	5654
743.203	5378
743.316	5508
743.428	5477
743.541	5509
743.653	6142
743.766	4286
743.878	5137
743.990	6130
744.103	7332
744.215	5516
744.327	6362
744.440	7921
744.552	12400
744.664	6168
744.777	6077
744.889	4270
745.001	6148
745.113	5219
745.226	5081
745.338	5180
745.450	5245
745.562	5434
745.674	5381
745.786	5003
745.898	5161
746.010	4123
746.122	5760
746.234	5025
746.347	4956
746.459	4656
746.570	4236
746.682	4251
746.794	6102
746.906	3839
747.018	5284
747.130	5240
747.242	4826
747.354	3916
747.466	5998
747.577	4444
747.689	5303
747.801	4694
747.913	3814
748.024	4219
748.136	4193
748.248	4358
748.359	4175
748.471	4508
748.583	4717
748.694	3784
748.806	5411
748.918	4900
749.029	6257
749.141	5167
749.252	5822
749.364	7299
749.475	14277
749.587	6832
749.698	5839
749.809	4354
749.921	5008
750.032	4230
750.144	4591
750.255	3598
750.366	4330
750.478	4352
750.589	5049
750.700	5258
750.811	4858
750.923	6615
751.034	16711
751.145	13861
751.256	5531
751.367	4917
751.479	5097
751.590	4496
751.701	3948
751.812	3490
751.923	4520
752.034	3672
752.145	3912
752.256	4799
752.367	4962
752.478	4155
752.589	3989
752.700	3324
752.811	4470
752.922	3703
753.032	5259
753.143	5736
753.254	3770
753.365	4132
753.476	3171
753.586	3595
753.697	3958
753.808	4200
753.919	4270
754.029	3277
754.140	4305
754.251	4093
754.361	3408
754.472	3176
754.582	4374
754.693	3451
754.804	4172
754.914	3409
755.025	4004
755.135	3316
755.246	4481
755.356	3776
755.466	3897
755.577	3776
755.687	4365
755.798	3895
755.908	4167
756.018	3219
756.129	3710
756.239	3393
756.349	3671
756.460	3519
756.570	5273
756.680	3279
756.790	4751
756.900	4421
757.011	4125
757.121	2921
757.231	3816
757.341	2985
757.451	3725
757.561	2844
757.671	3736
757.781	3050
757.891	4385
758.001	4101
758.111	4361
758.221	4170
758.331	5023
758.441	4716
758.551	7431
758.661	4920
758.771	4594
758.880	3661
758.990	4296
759.100	3126
759.210	3756
759.320	3628
759.429	4580
759.539	4072
759.649	4107
759.758	4096
759.868	4936
759.978	3884
760.087	4213
760.197	5035
760.307	4863
760.416	3041
760.526	4405
760.635	3995
760.745	4206
760.854	4241
760.964	4781
761.073	4471
761.182	4972
761.292	3688
761.401	4914
761.511	3376
761.620	3607
761.729	3726
761.839	4058
761.948	4738
762.057	4511
762.166	3808
762.276	3156
762.385	3645
762.494	3733
762.603	3157
762.712	3733
762.822	3092
762.931	3904
763.040	2994
763.149	3827
763.258	3802
763.367	4538
763.476	3331
763.585	3889
763.694	3673
763.803	4637
763.912	4012
764.021	3919
764.130	3386
764.238	3424
764.347	3991
764.456	3811
764.565	3342
764.674	4114
764.783	3256
764.891	4441
765.000	5369
765.109	4898
765.217	3715
765.326	5669
765.435	5845
765.543	6021
765.652	6042
765.761	6516
765.869	9824
765.978	13793
766.086	23733
766.195	47098
766.303	131429
766.412	412730
766.520	297469
766.629	58308
766.737	21488
766.846	14857
766.954	9264
767.062	9019
767.171	5957
767.279	6665
767.387	5345
767.496	5020
767.604	4632
767.712	4970
767.820	4575
767.928	3884
768.037	3919
768.145	5487
768.253	4435
768.361	4677
768.469	4435
768.577	4786
768.685	4848
768.793	4213
768.901	3681
769.009	5345
769.117	4968
769.225	5188
769.333	6686
769.441	11101
769.549	19152
769.657	46175
769.765	163552
769.873	336463
769.981	84517
770.088	17837
770.196	9187
770.304	8312
770.412	6331
770.519	5548
770.627	4517
770.735	4972
770.842	4470
770.950	5599
771.058	4963
771.165	4488
771.273	4545
771.380	4713
771.488	4441
771.595	4507
771.703	3857
771.810	4551
771.918	4004
772.025	4153
772.133	4305
772.240	4837
772.348	4886
772.455	4461
772.562	3156
772.670	4625
772.777	4500
772.884	4251
772.991	4301
773.099	4697
773.206	3518
773.313	4860
773.420	3799
773.528	3228
773.635	2890
773.742	4870
773.849	4135
773.956	3770
774.063	3148
774.170	3610
774.277	4489
774.384	3614
774.491	3058
774.598	3503
774.705	3991
774.812	5280
774.919	4481
775.026	4989
775.133	3865
775.239	3993
775.346	3064
775.453	3363
775.560	3283
775.667	4047
775.773	2472
775.880	4074
775.987	3530
776.093	3455
776.200	3041
776.307	3356
776.413	3494
776.520	3551
776.627	3269
776.733	3112
776.840	2044
776.946	5608
777.053	3707
777.159	4436
777.266	2624
777.372	5554
777.478	3315
777.585	4468
777.691	3343
777.798	4654
777.904	3332
778.010	6425
778.117	5823
778.223	3493
778.329	2889
778.435	3921
778.542	3629
778.648	3726
778.754	2617
778.860	3572
778.966	2867
779.072	3278
779.178	2247
779.284	4159
779.391	3189
779.497	2410
779.603	4714
779.708	2981
779.815	3687
779.920	6444
780.026	8515
780.132	4501
780.238	3268
780.344	3400
780.450	3685
780.556	2465
780.661	2524
780.767	3688
780.873	1846
780.979	3671
781.085	3456
781.190	3163
781.296	2591
781.402	3115
781.507	1515
781.613	3416
781.719	2701
781.824	3117
781.930	2687
782.035	3870
782.141	2853
782.246	2868
782.352	2562
782.457	3110
782.563	2416
782.668	2711
782.773	3272
782.879	3449
782.984	3206
783.090	4791
783.195	5953
783.300	4689
783.405	2794
783.511	3521
783.616	2496
783.721	3641
783.826	3262
783.932	3359
784.037	2738
784.142	2554
784.247	2459
784.352	3207
784.457	2704
784.562	3147
784.667	2922
784.772	2721
784.877	2868
784.982	3681
785.087	2512
785.192	3159
785.297	1891
785.402	3295
785.507	3120
785.611	2657
785.716	2949
785.821	2076
785.926	1779
786.031	2369
786.135	1869
786.240	2749
786.345	1001
786.450	2868
786.554	1414
786.659	2329
786.763	792
786.868	2660
786.973	2815
787.077	2333
787.182	1485
787.286	2471
787.391	2173
787.495	1581
787.600	2172
787.704	1899
787.809	2231
787.913	3180
788.017	2434
788.122	3122
788.226	1806
788.330	2118
788.435	1683
788.539	2064
788.643	1666
788.747	1841
788.852	1869
788.956	2336
789.060	2146
789.164	2854
789.268	1412
789.372	3187
789.476	1039
789.580	1774
789.684	1908
789.788	2564
789.892	1559
789.996	2602
790.100	1818
790.204	1882
790.308	1381
790.412	1877
790.516	2416
790.620	1592
790.724	2705
790.828	1842
790.931	1390
791.035	3592
791.139	1201
791.242	1466
791.346	2507
791.450	2151
791.554	1960
791.657	1761
791.761	2317
791.864	2648
791.968	1711
792.072	2985
792.175	1389
792.279	2560
792.382	2132
792.486	2245
792.589	1749
792.693	1763
792.796	1610
792.899	2145
793.003	1916
793.106	1276
793.209	1282
793.313	2853
793.416	1031
793.519	3268
793.623	4203
793.726	6396
793.829	2362
793.932	3044
794.035	1202
794.138	3356
794.242	2354
794.345	1890
794.448	2005
794.551	5375
794.654	6517
794.757	6184
794.860	3063
794.963	2717
795.066	1331
795.169	2874
795.272	1147
795.375	2368
795.477	817
795.580	2955
795.683	541
795.786	2150
795.889	208
795.991	2527
796.094	1368
796.197	945
796.300	3152
796.402	1344
796.505	688
796.608	2028
796.710	2225
796.813	1391
796.915	1567
797.018	2305
797.120	1482
797.223	902
797.326	2151
797.428	1037
797.530	1292
797.633	1759
797.735	2413
797.838	2874
797.940	2763
798.042	1653
798.145	499
798.247	2122
798.349	-108
798.452	1737
798.554	1309
798.656	1220
798.758	1617
798.860	2986
798.962	767
799.065	1045
799.167	231
799.269	3282
799.371	2551
799.473	2087
799.575	810
799.677	2201
799.779	3684
799.881	3924
799.983	2522
800.085	1910
800.187	1446
800.289	1198
800.390	819
800.492	1659
800.594	1763
800.696	2032
800.798	1811
800.899	1704
801.001	440
801.103	1579
801.205	137
801.306	1806
801.408	1107
801.509	1181
801.611	838
801.713	2222
801.814	552
801.916	1050
802.017	917
802.119	688
802.220	1477
802.322	-270
802.423	2800
802.525	652
802.626	1069
802.727	1681
802.829	1735
802.930	-303
803.031	2402
803.133	737
803.234	662
803.335	2208
803.436	681
803.538	1378
803.639	-306
803.740	2048
803.841	488
803.942	1723
804.043	1103
804.144	904
804.245	447
804.346	1528
804.447	1451
804.548	3803
804.649	4466
804.750	775
804.851	641
804.952	1139
805.053	1233
805.154	332
805.255	1357
805.355	1228
805.456	677
805.557	-56
805.658	880
805.758	1274
805.859	822
805.960	1543
806.061	326
806.161	847
806.262	761
806.362	1534
806.463	746
806.564	1819
806.664	889
806.765	1326
806.865	616
806.966	1352
807.066	-658
807.166	1843
807.267	1950
807.367	503
807.468	1658
807.568	-707
807.668	1295
807.769	2053
807.869	398
807.969	1701
808.069	1496
808.170	1197
808.270	946
808.370	1721
808.470	3092
808.570	1012
808.670	879
808.770	768
808.870	223
808.970	616
809.070	1039
809.170	373
809.271	1200
809.370	927
809.470	1682
809.570	1359
809.670	207
809.770	807
809.870	996
809.970	1063
810.070	461
810.169	1622
810.269	-1263
810.369	845
810.469	277
810.568	941
810.668	-377
810.768	304
810.867	1284
810.967	582
811.066	633
811.166	1267
811.265	531
811.365	542
811.464	762
811.564	1306
811.663	1263
811.763	609
811.862	706
811.962	1571
812.061	773
812.160	1060
812.260	1060
812.359	2904
812.458	7308
812.557	23608
812.657	33095
812.756	9250
812.855	2254
812.954	1187
813.053	869
813.153	1863
813.252	457
813.351	1525
813.450	155
813.549	1115
813.648	947
813.747	1605
813.846	1681
813.945	889
814.044	1162
814.143	1534
814.242	1048
814.341	634
814.439	833
814.538	1621
814.637	1624
814.736	1392
814.835	2047
814.933	982
815.032	1922
815.131	1704
815.229	1839
815.328	3295
815.427	1694
815.525	2558
815.624	1938
815.722	1794
815.821	2320
815.919	2810
816.018	1190
816.116	3470
816.215	929
816.313	3005
816.412	2661
816.510	2660
816.609	4469
816.707	3291
816.805	3436
816.904	3587
817.002	3210
817.100	5278
817.198	5064
817.296	4695
817.395	5513
817.493	7797
817.591	7656
817.689	11521
817.787	14733
817.885	24788
817.983	43300
818.081	92852
818.179	210226
818.277	467980
818.375	371869
818.473	121465
818.571	51675
818.669	34719
818.767	28386
818.865	28890
818.963	33408
819.061	50414
819.158	84221
819.256	170168
819.354	368395
819.452	642597
819.549	419349
819.647	158051
819.745	70863
819.842	43524
819.940	28234
820.038	21636
820.135	16233
820.233	13473
820.330	9776
820.428	8884
820.525	8631
820.623	7171
820.720	5925
820.818	6352
820.915	5157
821.012	4503
821.110	3241
821.207	5022
821.304	3035
821.402	3968
821.499	3855
821.596	3978
821.693	3809
821.791	5468
821.888	4674
821.985	9269
822.082	5535
822.179	3839
822.276	2225
822.373	1837
822.470	1866
822.567	2207
822.664	1898
822.761	3149
822.858	1045
822.955	2833
823.052	1224
823.149	1988
823.246	1463
823.343	1717
823.440	1398
823.536	1437
823.633	1313
823.730	1357
823.827	1203
823.923	1803
824.020	1662
824.117	958
824.213	349
824.310	1955
824.407	1218
824.503	1654
824.600	1683
824.696	1334
824.793	1019
824.889	705
824.986	650
825.082	1113
825.179	1453
825.275	1159
825.371	984
825.468	1997
825.564	178
825.660	1906
825.757	1184
825.853	1931
825.949	156
826.045	806
826.142	-47
826.238	837
826.334	884
826.430	119
826.526	948
826.622	691
826.718	922
826.814	1282
826.910	1285
827.006	484
827.102	-380
827.198	2040
827.294	1452
827.390	1755
827.486	853
827.582	-362
827.678	-311
827.774	1830
827.869	-731
827.965	2295
828.061	490
828.157	1120
828.252	1232
828.348	563
828.444	1956
828.539	514
828.635	-399
828.731	1829
828.826	-393
828.922	1940
829.017	628
829.113	1198
829.208	296
829.304	1277
829.399	1558
829.495	157
829.590	693
829.685	106
829.781	-242
829.876	581
829.971	341
830.066	876
830.162	112
830.257	535
830.352	433
830.447	1609
830.543	426
830.638	336
830.733	1502
830.828	561
830.923	1173
831.018	1489
831.113	203
831.208	19
831.303	-462
831.398	585
831.493	420
831.588	1023
831.683	48
831.778	698
831.873	-263
831.967	1158
832.062	-911
832.157	-206
832.252	1433
832.346	732
832.441	2023
832.536	3627
832.631	7209
832.725	5951
832.820	-19
832.914	355
833.009	-445
833.104	1329
833.198	2448
833.293	196
833.387	477
833.482	574
833.576	19
833.670	865
833.765	193
833.859	462
833.954	1308
834.048	574
834.142	389
834.237	5
834.331	847
834.425	389
834.519	-567
834.613	846
834.708	-35
834.802	914
834.896	-116
834.990	260
835.084	-386
835.178	212
835.272	-21
835.366	-123
835.460	946
835.554	926
835.648	101
835.742	-88
835.836	339
835.930	-405
836.024	537
836.117	1169
836.211	69
836.305	1241
836.399	1707
836.493	-436
836.586	746
836.680	-143
836.774	14
836.867	1219
836.961	-388
837.055	301
837.148	24
837.242	218
837.335	-1017
837.429	323
837.522	400
837.616	589
837.709	1260
837.803	998
837.896	359
837.989	10
838.083	817
838.176	2344
838.269	1078
838.363	1524
838.456	700
838.549	2301
838.642	3347
838.735	9308
838.829	2796
838.922	645
839.015	-191
839.108	79
839.201	21
839.294	338
839.387	428
839.480	-187
839.573	588
839.666	792
839.759	-139
839.852	556
839.945	106
840.038	-658
840.131	-163
840.223	115
840.316	460
840.409	231
840.502	-442
840.594	1505
840.687	-1175
840.780	354
840.873	67
840.965	-14
841.058	735
841.150	1803
841.243	594
841.336	1221
841.428	443
841.521	452
841.613	184
841.706	778
841.798	-400
841.890	658
841.983	-1234
842.075	793
842.167	-211
842.260	21
842.352	990
842.444	1396
842.537	1685
842.629	3277
842.721	-310
842.813	1030
842.905	-842
842.997	453
843.090	-569
843.182	896
843.274	1224
843.366	5164
843.458	8576
843.550	5238
843.642	611
843.734	21
843.826	852
843.918	870
844.009	902
844.101	-569
844.193	-245
844.285	179
844.377	375
844.469	1113
844.560	104
844.652	437
844.744	402
844.835	211
844.927	-49
845.019	227
845.110	285
845.202	178
845.293	609
845.385	-683
845.476	94
845.568	1080
845.659	115
845.751	1487
845.842	90
845.934	303
846.025	117
846.116	335
846.208	-251
846.299	-413
846.390	4
846.482	934
846.573	751
846.664	852
846.755	2017
846.846	2363
846.937	-1792
847.029	49
847.120	-188
847.211	455
847.302	626
847.393	-948
847.484	362
847.575	-929
847.666	-814
847.757	161
847.847	-660
847.938	792
848.029	-694
848.120	3
848.211	-930
848.302	-680
848.392	-583
848.483	-51
848.574	-1030
848.664	250
848.755	565
848.846	1054
848.936	-256
849.027	116
849.118	387
849.208	-757
849.299	-235
849.389	1858
849.480	3455
849.570	6753
849.661	14452
849.751	22641
849.841	7335
849.932	752
850.022	-355
850.112	1319
850.203	-256
850.293	936
850.383	-698
850.474	-221
850.564	-398
850.654	429
850.744	-650
850.834	670
850.924	-150
851.014	425
851.104	-3
851.194	355
851.284	903
851.374	1337
851.464	12
851.554	578
851.644	-660
851.734	662
851.824	-716
851.914	4
852.004	-416
852.094	230
852.183	-272
852.273	175
852.363	99
852.452	-13
852.542	-494
852.632	149
852.721	455
852.811	-220
852.901	159
852.990	451
853.080	-153
853.169	-347
853.259	140
853.348	-92
853.438	325
853.527	1397
853.617	1737
853.706	5368
853.795	10756
853.885	26336
853.974	48672
854.063	92982
854.152	136424
854.242	43837
854.331	6867
854.420	2085
854.509	1847
854.598	1952
854.687	1010
854.777	400
854.866	-888
854.955	886
855.044	-353
855.133	36
855.222	179
855.311	-103
855.400	458
855.488	209
855.577	-345
855.666	239
855.755	563
855.844	557
855.933	-1506
856.021	824
856.110	-418
856.199	-309
856.288	-653
856.376	587
856.465	-1262
856.554	-139
856.642	-901
856.731	785
856.819	-534
856.908	510
856.996	-539
857.085	390
857.173	-345
857.262	-548
857.350	-426
857.438	620
857.527	22
857.615	121
857.703	266
857.792	-1272
857.880	-853
857.968	515
858.056	-347
858.145	479
858.233	-369
858.321	1029
858.409	129
858.497	-258
858.585	-608
858.673	475
858.761	-1201
858.849	-199
858.937	-94
859.025	-282
859.113	-373
859.201	-731
859.289	-68
859.377	405
859.465	344
859.552	-441
859.640	-576
859.728	918
859.816	-854
859.903	169
859.991	-1123
860.079	-630
860.166	-554
860.254	-132
860.342	-134
860.429	99
860.517	-941
860.604	656
860.692	-387
860.779	-673
860.867	-127
860.954	-307
861.042	532
861.129	923
861.216	-316
861.304	-116
861.391	-607
861.478	-167
861.565	-157
861.653	1068
861.740	-749
861.827	179
861.914	-761
862.001	-152
862.089	-423
862.176	-327
862.263	-264
862.350	39
862.437	-1277
862.524	-96
862.611	-598
862.698	-60
862.785	-429
862.871	374
862.958	-827
863.045	-396
863.132	-753
863.219	164
863.306	-1378
863.392	-13
863.479	-293
863.566	-491
863.652	-466
863.739	-554
863.826	-325
863.912	75
863.999	-1484
864.086	276
864.172	4
864.259	-268
864.345	-682
864.432	534
864.518	-545
864.604	251
864.691	-273
864.777	758
864.863	-179
864.950	1259
865.036	429
865.122	1007
865.209	744
865.295	1200
865.381	1273
865.467	1141
865.553	2081
865.639	2719
865.726	4706
865.812	12243
865.898	23812
865.984	37061
866.070	70071
866.156	69428
866.242	14810
866.328	2886
866.414	1597
866.499	1561
866.585	735
866.671	1299
866.757	800
866.843	592
866.928	453
867.014	484
867.100	917
867.186	1627
867.271	908
867.357	1785
867.442	1665
867.528	470
867.614	511
867.699	170
867.785	555
867.870	189
867.956	196
868.041	1154
868.127	765
868.212	505
868.297	-253
868.383	217
868.468	2217
868.553	3990
868.639	4761
868.724	10869
868.809	8070
868.894	1134
868.979	3
869.065	1098
869.150	-700
869.235	1004
869.320	278
869.405	-284
869.490	-308
869.575	-29
869.660	-99
869.745	798
869.830	98
869.915	239
870.000	436
870.085	385
870.169	-147
870.254	614
870.339	-312
870.424	985
870.509	-476
870.593	644
870.678	516
870.763	37
870.847	76
870.932	8
871.016	-286
871.101	-39
871.186	-330
871.270	144
871.355	-332
871.439	-57
871.523	-101
871.608	364
871.692	-553
871.777	8
871.861	46
871.945	-229
872.030	316
872.114	110
872.198	-525
872.282	670
872.367	220
872.451	294
872.535	-381
872.619	107
872.703	-434
872.787	-94
872.871	569
872.955	811
873.039	-458
873.123	616
873.207	-329
873.291	-25
873.375	-963
873.459	-100
873.543	-868
873.627	-281
873.711	360
873.794	388
873.878	-376
873.962	-210
874.045	-18
874.129	-86
874.137	-127
874.213	-537
874.245	-302
874.296	85
874.352	-1209
874.380	-1846
874.460	127
874.464	205
874.547	-651
874.568	-498
874.631	-38
874.676	-7
874.714	10
874.784	634
874.798	762
874.881	460
874.892	406
874.965	-13
874.999	-221
875.048	-488
875.107	-18
875.131	188
875.215	-232
875.215	-231
875.298	231
875.323	61
875.381	-284
875.430	-229
875.465	-173
875.538	-325
875.548	-357
875.631	196
875.646	-114
875.714	-1596
875.753	-661
875.798	428
875.861	-79
875.881	-241
875.964	-25
875.968	-33
876.047	-121
876.076	-25
876.130	78
876.183	226
876.213	318
876.291	288
876.296	293
876.379	-638
876.398	-456
876.462	5
876.506	-429
876.545	-739
876.613	-753
876.628	-761
876.711	-35
876.721	-2
876.794	222
876.828	-262
876.877	-939
876.935	-489
876.960	-296
877.043	-258
877.043	-255
877.125	591
877.150	617
877.208	697
877.258	565
877.291	510
877.365	977
877.374	1030
877.456	619
877.472	617
877.539	430
877.579	563
877.622	781
877.687	214
877.704	77
877.787	1119
877.794	1045
877.869	11
877.901	226
877.952	686
878.008	330
878.034	230
878.115	31
878.117	21
878.199	16
878.222	-0
878.282	134
878.329	389
878.364	531
878.437	286
878.447	232
878.529	-988
878.544	-774
878.611	678
878.651	250
878.694	-419
878.758	279
878.776	427
878.858	-360
878.865	-329
878.941	427
878.972	170
879.023	-278
879.078	-104
879.105	-41
879.185	72
879.187	75
879.269	376
879.292	5
879.351	-1045
879.399	-567
879.433	-160
879.506	-407
879.516	-425
879.598	295
879.613	191
879.680	-270
879.720	17
879.762	346
879.827	144
879.844	51
879.926	801
879.933	724
880.007	155
880.040	479
880.089	965
880.147	1579
880.171	1812
880.253	4146
880.254	4158
880.335	5633
880.360	6393
880.417	8682
880.467	12580
880.499	15067
880.574	17012
880.580	16871
880.662	4893
880.680	3724
880.744	952
880.787	441
880.825	268
880.893	368
880.907	407
880.989	-215
881.000	-178
881.070	145
881.106	183
881.152	16
881.213	19
881.233	207
881.315	585
881.319	612
881.396	398
881.426	267
881.478	200
881.532	140
881.559	200
881.639	134
881.641	125
881.722	561
881.745	374
881.803	20
881.852	53
881.885	168
881.958	254
881.966	242
882.047	1263
882.064	1100
882.129	708
882.171	1123
882.210	1492
882.277	2099
882.291	2159
882.372	848
882.383	717
882.454	73
882.489	57
882.535	80
882.596	320
882.616	321
882.697	29
882.702	-15
882.778	-116
882.808	309
882.859	914
882.914	665
882.940	463
883.020	151
883.021	156
883.102	202
883.127	408
883.183	649
883.233	560
883.264	413
883.339	197
883.345	206
883.426	-274
883.445	-126
883.507	319
883.551	209
883.587	377
883.657	873
883.668	840
883.749	307
883.763	246
883.830	171
883.869	19
883.910	47
883.975	527
883.991	580
884.072	373
884.081	365
884.152	662
884.187	738
884.233	529
884.292	433
884.314	460
884.394	7
884.398	-25
884.475	-266
884.504	38
884.555	292
884.610	76
884.636	149
884.716	379
884.716	382
884.797	-34
884.821	-175
884.877	39
884.927	522
884.958	694
885.033	546
885.038	513
885.118	132
885.139	33
885.199	122
885.244	158
885.279	273
885.350	399
885.359	414
885.439	721
885.456	720
885.520	278
885.561	181
885.600	150
885.667	-341
885.680	-347
885.760	89
885.773	123
885.840	-99
885.878	-130
885.920	239
885.984	337
886.000	266
886.080	368
886.089	372
886.160	630
886.195	730
886.240	832
886.300	812
886.320	747
886.400	860
886.406	836
886.480	460
886.511	454
886.560	690
886.616	637
886.640	615
886.720	728
886.722	724
886.800	281
886.827	199
886.879	474
886.932	516
886.959	625
887.038	1162
887.039	1165
887.119	834
887.143	769
887.198	677
887.248	501
887.278	498
887.354	379
887.358	385
887.437	522
887.459	568
887.517	914
887.564	1209
887.596	705
887.669	-556
887.676	-507
887.755	172
887.774	317
887.835	281
887.880	311
887.914	452
887.985	712
887.994	718
888.073	563
888.090	566
888.153	485
888.195	383
888.232	532
888.300	868
888.311	883
888.391	769
888.405	781
888.470	899
888.510	916
888.549	952
888.615	986
888.628	1026
888.708	1293
888.720	1321
888.787	729
888.825	368
888.866	431
888.930	557
888.945	599
889.024	819
889.035	844
889.103	609
889.140	449
889.182	450
889.245	523
889.261	538
889.340	544
889.349	549
889.419	655
889.454	679
889.498	695
889.559	760
889.577	775
889.656	812
889.664	816
889.735	761
889.768	730
889.814	859
889.873	1027
889.978	653
890.083	1215
890.187	1136
890.292	808
890.397	1062
890.501	295
890.606	-315
890.710	1391
890.815	1318
890.919	1037
891.024	721
891.128	309
891.233	1347
891.337	275
891.442	1158
891.546	761
891.650	713
891.755	270
891.859	2668
891.963	500
892.068	975
892.172	860
892.276	858
892.380	324
892.484	416
892.589	119
892.693	570
892.797	609
892.901	412
893.005	1063
893.109	1266
893.213	1274
893.317	555
893.421	389
893.525	437
893.629	646
893.733	698
893.837	184
893.941	703
894.045	1186
894.148	628
894.252	937
894.356	1254
894.460	1656
894.564	703
894.667	337
894.771	597
894.875	453
894.978	653
895.082	165
895.186	502
895.289	539
895.393	1128
895.496	1024
895.600	787
895.703	309
895.807	-60
895.910	663
896.014	-152
896.117	959
896.221	758
896.324	416
896.427	1085
896.531	-10
896.634	273
896.737	826
896.840	347
896.944	9
897.047	814
897.150	-66
897.253	365
897.356	-146
897.460	462
897.563	430
897.666	92
897.769	178
897.872	781
897.975	63
898.078	-5
898.181	298
898.284	190
898.387	351
898.490	870
898.593	402
898.695	367
898.798	248
898.901	674
899.004	653
899.107	470
899.209	756
899.312	809
899.415	219
899.518	-255
899.620	414
899.723	-193
899.826	1375
899.928	1553
900.031	374
900.133	236
900.236	297
900.338	624
900.441	1199
900.543	876
900.646	78
900.748	527
900.851	708
900.953	561
901.055	792
901.158	589
901.260	-40
901.362	163
901.465	-704
901.567	375
901.669	861
901.771	230
901.873	745
901.976	711
902.078	460
902.180	204
902.282	451
902.384	530
902.486	1720
902.588	939
902.690	-473
902.792	720
902.894	560
902.996	347
903.098	270
903.200	144
903.302	459
903.404	640
903.505	191
903.607	314
903.709	343
903.811	826
903.913	498
904.014	197
904.116	54
904.218	-127
904.319	-418
904.421	118
904.523	380
904.624	75
904.726	-94
904.827	141
904.929	505
905.030	245
905.132	249
905.233	327
905.335	-166
905.436	-119
905.537	-138
905.639	959
905.740	503
905.841	666
905.943	219
906.044	660
906.145	968
906.247	-35
906.348	1000
906.449	450
906.550	-59
906.651	-151
906.752	417
906.854	-34
906.955	-106
907.056	488
907.157	770
907.258	284
907.359	-144
907.460	419
907.561	-587
907.662	527
907.762	15
907.863	-194
907.964	126
908.065	99
908.166	828
908.267	796
908.367	504
908.468	629
908.569	448
908.670	1063
908.770	914
908.871	904
908.971	255
909.072	962
909.173	195
909.273	44
909.374	232
909.474	-367
909.575	-96
909.675	522
909.776	205
909.876	640
909.977	274
910.077	608
910.177	145
910.278	281
910.378	406
910.478	-115
910.579	277
910.679	396
910.779	0
910.879	354
910.980	235
911.080	801
911.180	-10
911.280	817
911.380	527
911.480	554
911.580	-108
911.680	61
911.780	360
911.880	755
911.980	84
912.080	-237
912.180	1446
912.280	344
912.380	-115
912.480	-574
912.580	564
912.679	175
912.779	322
912.879	-365
912.979	543
913.078	910
913.178	59
913.278	-390
913.377	-636
913.477	267
913.577	582
913.676	1169
913.776	793
913.875	-235
913.975	178
914.074	150
914.174	437
914.273	-106
914.373	555
914.472	465
914.572	-530
914.671	679
914.770	126
914.870	137
914.969	10
915.068	326
915.167	90
915.267	-481
915.366	528
915.465	-48
915.564	238
915.663	223
915.763	378
915.862	770
915.961	180
916.060	60
916.159	-347
916.258	-394
916.357	-914
916.456	791
916.555	105
916.654	-5
916.752	160
916.851	-461
916.950	-95
917.049	-550
917.148	-1065
917.247	607
917.345	1021
917.444	-178
917.543	234
917.642	451
917.740	163
917.839	206
917.937	524
918.036	1081
918.135	89
918.233	459
918.332	-57
918.430	-87
918.529	180
918.627	203
918.726	-5
918.824	-722
918.923	-503
919.021	-435
919.119	28
919.218	401
919.316	150
919.414	-219
919.512	351
919.611	622
919.709	149
919.807	-155
919.905	285
920.003	1159
920.102	-499
920.200	807
920.298	-253
920.396	264
920.494	730
920.592	287
920.690	1
920.788	99
920.886	-346
920.984	649
921.082	-1000
921.180	127
921.277	208
921.375	-325
921.473	157
921.571	-484
921.669	28
921.766	245
921.864	694
921.962	893
922.060	379
922.157	149
922.255	694
922.352	-649
922.450	756
922.548	658
922.645	585
922.743	1757
922.840	445
922.938	2216
923.035	1859
923.133	1209
923.230	1275
923.327	2124
923.425	2191
923.522	1388
923.619	634
923.717	1049
923.814	1153
923.911	1043
924.008	1954
924.106	314
924.203	1752
924.300	1026
924.397	1033
924.494	685
924.591	901
924.688	1163
924.786	718
924.883	1466
924.979	717
925.077	1138
925.173	1490
925.270	1803
925.367	2059
925.464	1112
925.561	1550
925.658	1180
925.755	1002
925.852	1473
925.948	701
926.045	2032
926.142	1357
926.239	2176
926.335	827
926.432	2269
926.529	781
926.625	1060
926.722	809
926.818	711
926.915	979
927.011	906
927.108	872
927.204	839
927.301	900
927.397	997
927.494	285
927.590	1081
927.687	501
927.783	638
927.879	1156
927.976	1104
928.072	579
928.168	1147
928.264	204
928.361	2
928.457	623
928.553	147
928.649	1091
928.745	1274
928.841	186
928.937	967
929.033	7
929.129	1216
929.225	725
929.321	395
929.417	-82
929.513	746
929.609	872
929.705	-26
929.801	660
929.897	116
929.993	845
930.089	840
930.184	1055
930.280	616
930.376	540
930.471	82
930.567	-6
930.663	1216
930.758	675
930.854	1198
930.950	1351
931.045	769
931.141	1547
931.236	1329
931.332	888
931.427	-349
931.523	1318
931.618	710
931.714	583
931.809	557
931.905	1192
932.000	501
932.095	467
932.191	1493
932.286	759
932.381	824
932.476	64
932.572	262
932.667	-22
932.762	1241
932.857	1101
932.952	-47
933.047	555
933.142	639
933.237	1035
933.332	947
933.427	1047
933.522	571
933.617	621
933.712	1159
933.807	1010
933.902	302
933.997	714
934.092	-413
934.187	806
934.282	492
934.376	980
934.471	306
934.566	363
934.661	10
934.755	626
934.850	650
934.945	257
935.039	232
935.134	380
935.228	621
935.323	1612
935.417	579
935.512	134
935.606	-393
935.701	282
935.795	1077
935.890	719
935.984	670
936.079	1033
936.173	664
936.267	718
936.362	7
936.456	207
936.550	263
936.644	693
936.738	-163
936.833	472
936.927	568
937.021	767
937.115	281
937.209	-408
937.303	507
937.397	-26
937.491	386
937.585	1133
937.679	1158
937.773	-35
937.867	228
937.961	-164
938.055	87
938.149	250
938.243	942
938.337	-376
938.430	303
938.524	507
938.618	706
938.712	1038
938.805	735
938.899	721
938.993	214
939.086	248
939.180	302
939.274	-130
939.367	535
939.461	-413
939.554	299
939.648	346
939.741	649
939.835	203
939.928	702
940.022	1004
940.115	23
940.208	696
940.302	3
940.395	591
940.488	314
940.582	873
940.675	271
940.768	737
940.861	371
940.954	489
941.048	-43
941.141	791
941.234	120
941.327	342
941.420	392
941.513	1023
941.606	-468
941.699	1099
941.792	-277
941.885	72
941.978	329
942.071	227
942.164	-671
942.257	400
942.349	374
942.442	-458
942.535	321
942.628	848
942.721	833
942.813	-797
942.906	47
942.999	24
943.091	-569
943.184	524
943.277	-802
943.369	487
943.462	120
943.554	263
943.647	-459
943.739	877
943.832	495
943.924	-478
944.017	49
944.109	-732
944.201	154
944.294	697
944.386	-112
944.478	-779
944.571	168
944.663	390
944.755	-402
944.847	-112
944.940	520
945.032	-563
945.124	-403
945.216	175
945.308	-63
945.400	372
945.492	831
945.584	179
945.676	-609
945.768	-495
945.860	-87
945.952	311
946.044	-13
946.136	-507
946.228	-509
946.320	380
946.412	-177
946.503	221
946.595	976
946.687	-64
946.779	-222
946.870	338
946.962	-541
947.054	-231
947.145	382
947.237	101
947.329	-125
947.420	-781
947.512	-747
947.603	-510
947.695	72
947.786	-100
947.878	-111
947.969	360
948.061	-147
948.152	-1062
948.243	863
948.335	503
948.426	-705
948.517	-454
948.609	673
948.700	623
948.791	-1120
948.882	900
948.973	406
949.065	573
949.156	335
949.247	-1394
949.338	563
949.429	-425
949.520	557
949.611	-1505
949.702	-116
949.793	713
949.884	442
949.975	442
950.066	-292
950.157	-377
950.247	220
950.338	-448
950.429	-188
950.520	-441
950.611	-269
950.701	204
950.792	-417
950.883	-105
950.973	96
951.064	559
951.155	-108
951.245	904
951.336	-359
951.427	130
951.517	402
951.608	306
951.698	-584
951.788	410
951.879	-1022
951.969	48
952.060	-226
952.150	-425
952.240	709
952.331	-1528
952.421	1142
952.511	-329
952.602	202
952.692	192
952.782	827
952.872	98
952.962	-225
953.052	-118
953.143	-374
953.233	76
953.323	-203
953.413	-834
953.503	483
953.593	-851
953.683	519
953.773	-258
953.863	651
953.953	-428
954.042	-497
954.132	-483
954.222	-52
954.312	-454
954.402	-118
954.492	-1090
954.581	145
954.671	450
954.761	-945
954.850	846
954.940	94
955.030	-307
955.119	-345
955.209	-263
955.298	-706
955.388	-306
955.477	168
955.567	-612
955.656	-396
955.746	-835
955.835	-733
955.925	299
956.014	-370
956.103	-662
956.193	-155
956.282	-471
956.371	570
956.461	-588
956.550	-86
956.639	328
956.728	-1292
956.817	31
956.906	-221
956.995	-216
957.085	-1230
957.174	-125
957.263	172
957.352	-761
957.441	-466
957.530	272
957.619	143
957.708	-543
957.796	-600
957.885	55
957.974	-230
958.063	-259
958.152	-653
958.241	-81
958.329	-669
958.418	-563
958.507	-500
958.596	316
958.684	-921
958.773	259
958.861	-342
958.950	350
959.039	268
959.127	-140
959.216	-217
959.304	-397
959.393	-598
959.481	-172
959.570	-217
959.658	-543
959.746	-321
959.835	38
959.923	-488
960.011	-861
960.100	-921
960.188	59
960.276	-625
960.365	-502
960.453	-408
960.541	-489
960.629	-277
960.717	-563
960.805	-843
960.893	-1171
960.981	-1100
961.069	706
961.158	-324
961.245	1
961.333	-71
961.421	-423
961.509	17
961.597	-489
961.685	-512
961.773	-871
961.861	-536
961.949	-266
962.036	-862
962.124	97
962.212	-799
962.299	-537
962.387	-170
962.475	-680
962.562	-982
962.650	-181
962.738	-327
962.825	-270
962.913	-1174
963.000	695
963.088	-702
963.175	-657
963.263	542
963.350	-1013
963.438	-677
963.525	-812
963.612	20
963.700	168
963.787	1496
963.874	326
963.962	474
964.049	-179
964.136	-534
964.223	-841
964.310	-1132
964.398	-131
964.485	-660
964.572	83
964.659	352
964.746	-738
964.833	-962
964.920	-370
965.007	-313
965.094	-1505
965.181	-1310
965.268	-701
965.355	-585
965.441	-526
965.528	-906
965.615	355
965.702	-513
965.789	-258
965.875	131
965.962	-247
966.049	-863
966.136	-371
966.222	-604
966.309	999
966.395	-464
966.482	-97
966.569	-710
966.655	-398
966.742	-1188
966.828	-908
966.915	-1380
967.001	-787
967.087	-955
967.174	-574
967.260	385
967.347	86
967.433	-130
967.519	572
967.605	-766
967.692	-1038
967.778	-967
967.864	-828
967.950	-366
968.036	-396
968.123	-1366
968.209	-1416
968.295	-1190
968.381	-245
968.467	-284
968.553	-894
968.639	-358
968.725	-882
968.811	-77
968.897	-47
968.983	-508
969.069	-1220
969.154	125
969.240	467
969.326	-1033
969.412	-633
969.497	-385
969.583	-1180
969.669	-474
969.755	-1022
969.840	-1465
969.926	25
970.012	-233
970.097	218
970.183	-1147
970.268	-719
970.354	-705
970.439	-476
970.525	536
970.610	-900
970.696	-362
970.781	-561
970.866	-1241
970.952	3
971.037	-1111
971.122	-603
971.208	-172
971.293	-68
971.378	-1911
971.463	-387
971.549	-426
971.634	-515
971.719	170
971.804	-1283
971.889	-184
971.974	-1339
972.059	-473
972.144	-430
972.229	-574
972.314	-1141
972.399	-32
972.484	-985
972.569	497
972.654	-815
972.739	674
972.824	-877
972.908	-201
972.993	-902
973.078	-168
973.163	-315
973.247	-601
973.332	-2639
973.417	77
973.501	-1398
973.586	-552
973.671	-1327
973.755	-1520
973.840	-101
973.924	-735
974.009	44
974.093	-1016
974.178	412
974.262	-793
974.346	-537
974.431	-415
974.515	-1005
974.600	-746
974.684	-678
974.768	-1259
974.852	48
974.937	-1812
975.021	124
975.105	-1280
975.189	-941
975.273	-787
975.358	-1433
975.442	-1186
975.526	26
975.610	-689
975.694	-1283
975.778	69
975.862	-932
975.946	-1998
976.030	861
976.114	-1018
976.198	-355
976.281	-1050
976.365	-634
976.449	-648
976.533	-893
976.617	-1409
976.700	-820
976.784	-719
976.868	-831
976.951	-213
977.035	-719
977.119	-758
977.202	-1389
977.286	-558
977.369	-1169
977.453	57
977.536	-141
977.620	-736
977.703	3
977.787	-1270
977.870	-126
977.953	-65
978.037	-1323
978.120	-314
978.203	-688
978.287	-192
978.370	-315
978.453	-1412
978.536	-1088
978.620	-183
978.703	-866
978.786	-794
978.869	-894
978.952	-2118
979.035	104
979.118	-256
979.201	-1233
979.284	-607
979.367	-745
979.450	-1416
979.533	-502
979.616	-828
979.699	-800
979.782	-309
979.865	-1497
979.948	-883
980.030	-1047
980.113	-1002
980.196	-857
980.279	-73
980.361	-632
980.444	-1369
980.526	-596
980.609	-1287
980.692	-1567
980.774	-649
980.857	-1390
980.939	-475
981.022	-577
981.104	-974
981.187	-1053
981.269	-474
981.352	-671
981.434	-912
981.516	-1040
981.599	996
981.681	-891
981.763	-544
981.846	-48
981.928	-1120
982.010	-944
982.092	-895
982.174	282
982.256	-1123
982.339	223
982.421	-664
982.503	-570
982.585	-1524
982.667	-819
982.749	-907
982.831	-824
982.913	-953
982.995	414
983.077	-1470
983.158	-75
983.240	-1562
983.322	-352
983.404	22
983.486	-2217
983.568	363
983.649	-1592
983.731	-260
983.813	-1672
983.894	164
983.976	-826
984.058	-706
984.139	-622
984.221	-1461
984.302	-125
984.384	-640
984.465	-1011
984.547	-512
984.628	-996
984.710	-595
984.791	-357
984.872	-1473
984.954	-862
985.035	167
985.116	-1006
985.198	-1154
985.279	65
985.360	-894
985.441	-86
985.522	18
985.604	-567
985.685	-1551
985.766	56
985.847	415
985.928	-1734
986.009	-1060
986.090	-587
986.171	-521
986.252	-710
986.333	112
986.414	-358
986.495	-843
986.576	-1023
986.656	-130
986.737	-975
986.818	-1225
986.899	-505
986.980	-819
987.060	1352
987.141	-85
987.222	-1068
987.302	-364
987.383	-111
987.464	-1340
987.544	-124
987.625	-619
987.705	-887
987.786	153
987.866	-666
987.947	-1006
988.027	-348
988.108	-910
988.188	51
988.268	-440
988.349	-1153
988.429	-1665
988.509	-440
988.589	-947
988.670	-2709
988.750	609
988.830	-463
988.910	-267
988.990	-1321
989.070	-523
989.151	-848
989.231	-977
989.311	-590
989.391	-849
989.471	-455
989.551	-1012
989.631	-1241
989.711	-366
989.791	-1285
989.870	-1199
989.950	771
990.030	-161
990.110	-1167
990.190	-1033
990.269	-834
990.349	-911
990.429	-724
990.509	-770
990.588	-1752
990.668	-725
990.747	50
990.827	-1219
990.907	-1251
990.986	-645
991.066	-811
991.145	-1606
991.225	-404
991.304	-989
991.383	-16
991.463	-1050
991.542	-543
991.622	-1005
991.701	-989
991.780	-1053
991.859	-1006
991.939	-1323
992.018	-1339
992.097	-817
992.176	-689
992.256	-869
992.335	-1873
992.414	-610
992.493	-926
992.572	-1208
992.651	206
992.730	-1026
992.809	-788
992.888	-1284
992.967	51
993.046	-909
993.125	-1664
993.203	-1505
993.282	-544
993.361	-1028
993.440	-479
993.519	-1347
993.597	-245
993.676	-1317
993.755	-562
993.834	-1036
993.912	-1312
993.991	-95
994.069	-1312
994.148	-1140
994.226	-991
994.305	-1414
994.384	-1558
994.462	-623
994.540	-2212
994.619	-1971
994.697	-609
994.776	-1102
994.854	-586
994.932	-1623
995.011	-619
995.089	-1413
995.167	-608
995.245	-416
995.324	-1053
995.402	-935
995.480	-1215
995.558	-920
995.636	-2207
995.714	-962
995.792	-210
995.870	-799
995.948	-1174
996.026	-931
996.104	-2058
996.182	-279
996.260	-2144
996.338	-1776
996.416	-2088
996.494	-1775
996.572	-163
996.649	-1457
996.727	-1401
996.805	-820
996.883	-1185
996.960	-1958
997.038	-106
997.116	-1170
997.193	-1871
997.271	-1086
997.348	-854
997.426	-1086
997.504	-1562
997.581	-333
997.658	-64
997.736	-1950
997.813	-1629
997.891	-438
997.968	-1255
998.046	-1333
998.123	-1111
998.200	-942
998.277	-2073
998.355	-284
998.432	-2086
998.509	-86
998.586	-48
998.663	-1038
998.741	-1610
998.818	-1338
998.895	-1861
998.972	-933
999.049	-928
999.126	-1318
999.203	-590
999.280	-1022
999.357	-1446
999.434	-1201
999.511	-1090
999.587	-197
999.664	-2417
999.741	-1533
999.818	-1075
999.895	-1354
999.971	-1466
1000.048	-1090
1000.125	-698
1000.202	-2162
1000.278	-1354
1000.355	-875
1000.431	-1642
1000.508	-1855
1000.584	-1183
1000.661	-984
1000.738	-1872
1000.814	-952
1000.890	-1005
1000.967	-1571
1001.043	-798
1001.120	-2056
1001.196	-778
1001.272	-2050
1001.349	-1018
1001.425	-886
1001.501	-2216
1001.577	-2014
1001.654	-403
1001.730	-1384
1001.806	-1574
1001.882	-1893
1001.958	-362
1002.034	-804
1002.110	-388
1002.186	-1820
1002.262	-1508
1002.338	-1721
1002.414	-1051
1002.490	-512
1002.566	-707
1002.642	-1616
1002.718	-640
1002.794	-1904
1002.870	-1343
1002.945	-1181
1003.021	-626
1003.097	-1949
1003.173	-1242
1003.248	-1901
1003.324	-1425
1003.400	-1431
1003.475	-1932
1003.551	-1427
1003.626	-1568
1003.702	-1845
1003.777	-1061
1003.853	-1293
1003.928	-2552
1004.004	-1216
1004.079	-871
1004.155	-1223
1004.230	-1628
1004.305	62
1004.381	-1572
1004.456	-1446
1004.531	-2187
1004.607	-1268
1004.682	-500
1004.757	-1761
1004.832	-1463
1004.907	-392
1004.982	-1956
1005.057	-866
1005.133	-1857
1005.208	-1185
1005.283	-1205
1005.358	-780
1005.433	-1332
1005.508	-794
1005.583	-2317
1005.657	-1126
1005.732	-1538
1005.807	-1522
1005.882	-1326
1005.957	-1508
1006.032	-817
1006.106	-2313
1006.181	-1689
1006.256	-467
1006.331	-1532
1006.405	-2021
1006.480	-341
1006.554	-1499
1006.629	-747
1006.704	-1880
1006.778	-1535
1006.853	-1178
1006.927	-973
1007.002	-1974
1007.076	-1365
1007.150	-1202
1007.225	-1037
1007.299	-1021
1007.373	-1328
1007.448	-1402
1007.522	-766
1007.596	-1253
1007.671	-1769
1007.745	-1036
1007.819	-1935
1007.893	-1353
1007.967	-1727
1008.041	-1905
1008.115	24
1008.190	-1602
1008.264	-566
1008.338	-2282
1008.412	-1316
1008.486	-2024
1008.560	-1081
1008.633	-1446
1008.707	-1433
1008.781	-1346
1008.855	-1729
1008.929	-1657
1009.003	-1292
1009.076	-2810
1009.150	-769
1009.224	-1352
1009.298	-1369
1009.371	-2071
1009.445	-892
1009.519	-1071
1009.592	-1881
1009.666	-1513
1009.739	-733
1009.813	-2028
1009.886	-589
1009.960	-2067
1010.033	-450
1010.107	-1389
1010.180	-2395
1010.253	-1309
1010.327	-1411
1010.400	-2032
1010.473	-1407
1010.547	-423
1010.620	-1606
1010.693	-1412
1010.766	-1672
1010.840	-787
1010.913	-1593
1010.986	-2005
1011.059	-1678
1011.132	-1355
1011.205	-1338
1011.278	-1488
1011.351	-1530
1011.424	-956
1011.497	-2074
1011.570	-1165
1011.643	-1532
1011.716	-1981
1011.789	-1058
1011.862	-1384
1011.934	-1270
1012.007	-2432
1012.080	-1088
1012.153	-1989
1012.225	-1044
1012.298	-1954
1012.371	-1331
1012.443	-1864
1012.516	-1729
1012.588	-1468
1012.661	-1937
1012.733	-2045
1012.806	-761
1012.879	-1363
1012.951	-957
1013.023	-1393
1013.096	-996
1013.168	-1876
1013.241	-996
1013.313	-1406
1013.385	-1283
1013.458	-1579
1013.530	-1279
1013.602	-1385
1013.674	-872
1013.746	-1764
1013.819	-1564
1013.891	-1075
1013.963	-1372
1014.035	-1235
1014.107	-1143
1014.179	-1254
1014.251	-1693
1014.323	-1373
1014.395	-1543
1014.467	-1945
1014.539	-1104
1014.611	-1425
1014.683	-1487
1014.754	-1588
1014.826	-1467
1014.898	-1093
1014.970	-1791
1015.042	-1248
1015.113	-1641
1015.185	-1435
1015.257	-1913
1015.328	-1446
1015.400	-1547
1015.471	-1566
1015.543	-2204
1015.615	-1044
1015.686	-910
1015.757	-1189
1015.829	-1276
1015.901	-1507
1015.972	-2085
1016.043	-1519
1016.115	-1047
1016.186	-1567
1016.257	-1594
1016.328	-1395
1016.400	-1164
1016.471	-1461
1016.542	-1513
1016.613	-1436
1016.685	-1056
1016.756	-1439
1016.827	-1887
1016.898	-1934
1016.969	-478
1017.040	-1342
1017.111	-1988
1017.182	-1780
1017.253	-1538
1017.324	-1100
1017.395	-994
1017.466	-1636
1017.537	-1122
1017.608	-2142
1017.678	-1012
1017.749	-1799
1017.820	-1881
1017.891	-1867
1017.961	-1587
1018.032	-1646
1018.103	-1192
1018.173	-1547
1018.244	-2261
1018.315	-1531
1018.385	-1423
1018.456	-1479
1018.526	-2405
1018.597	-2056
1018.667	-1578
1018.738	-1639
1018.808	-1566
1018.878	-919
1018.949	-928
1019.019	-1883
1019.089	-898
1019.160	-1679
1019.230	-1624
1019.300	-1072
1019.371	-1865
1019.441	-1676
1019.511	-1672
1019.581	-1748
1019.651	-35
1019.721	-1077
1019.791	-825
1019.861	-1126
1019.931	-1732
1020.001	-1503
1020.071	-2094
1020.141	-2328
1020.211	-1679
1020.281	-1705
1020.351	-1712
1020.421	-1656
1020.491	-641
1020.560	-1494
1020.630	-1773
1020.700	-908
1020.770	-1965
1020.839	-1523
1020.909	-1088
1020.979	-2651
1021.048	-1724
1021.118	-1678
1021.187	-1955
1021.257	-1138
1021.326	-1231
1021.396	-1890
1021.465	-1035
1021.535	-1975
1021.604	-1582
1021.674	-2231
1021.743	-736
1021.812	-1962
1021.882	-1432
1021.951	-1872
1022.020	-1708
1022.089	-1853
1022.159	-1671
1022.228	-1990
1022.297	-1441
1022.366	-1201
1022.435	-1682
1022.504	-1753
1022.573	-1597
1022.642	-989
1022.711	-2094
1022.781	-1015
1022.849	-773
1022.918	-1922
1022.987	-1859
1023.056	-1739
1023.125	-1132
1023.194	-701
1023.263	-1441
1023.331	-893
1023.400	-2119
1023.469	-1987
1023.538	-1262
1023.606	-1468
1023.675	-2387
1023.744	-1559
1023.812	-2090
1023.881	-1285
1023.949	-960
1024.018	-2217
1024.086	-1576
1024.155	-1642
1024.223	-1793
1024.292	-1349
1024.360	-1422
1024.429	-1349
1024.497	-2682
1024.565	-1425
1024.634	-2172
1024.702	-743
1024.770	-1286
1024.838	-1916
1024.907	-1168
1024.975	-1737
1025.043	-1361
1025.111	-1688
1025.179	-1928
1025.247	-1640
1025.315	-1762
1025.383	-799
1025.451	-1571
1025.519	-1184
1025.587	-1949
1025.655	-2259
1025.723	-1856
1025.791	-902
1025.859	-2110
1025.927	-1931
1025.995	-2301
1026.062	-1786
1026.130	-1845
1026.198	-1990
1026.266	-2077
1026.333	-1441
1026.401	-1465
1026.469	-1434
1026.536	-1633
1026.604	-1973
1026.671	-1535
1026.739	-1628
1026.806	-1478
1026.874	-1704
1026.941	-1139
1027.009	-1825
1027.076	-1542
1027.144	-1307
1027.211	-2416
1027.278	-2124
1027.345	-1705
1027.413	-1046
1027.480	-1807
1027.547	-1229
1027.614	-1694
1027.682	-1274
1027.749	-2563
1027.816	-1295
1027.883	-2057
1027.950	-1864
1028.017	-2040
1028.084	-1187
1028.151	-2367
1028.218	-2210
1028.285	-1635
1028.352	-1376
1028.419	-1631
1028.486	-1496
1028.553	-1472
1028.619	-2707
1028.686	-893
1028.753	-1981
1028.820	-2202
1028.886	-2441
1028.953	-1395
1029.020	-1823
1029.086	-1600
1029.153	-2318
1029.220	-2050
1029.286	-1382
1029.353	-1671
1029.419	-1650
1029.486	-1999
1029.552	-1191
1029.619	-1425
1029.685	-1537
1029.751	-2706
1029.818	-1458
1029.884	-2053
1029.951	-1232
1030.017	-2172
1030.083	-1779
1030.149	-2373
1030.216	-1498
1030.282	-1513
1030.348	-1977
1030.414	-2860
1030.480	-2012
1030.546	-2581
1030.612	-1526
1030.678	-2141
1030.744	-1731
1030.810	-1719
1030.876	-2181
1030.942	-1801
1031.008	-2761
1031.074	-1643
1031.140	-1943
1031.206	-1391
1031.272	-1866
1031.337	-1934
1031.403	-2071
1031.469	-1730
1031.534	-2273
1031.600	-2131
1031.666	-2343
1031.731	-2958
1031.797	-2053
1031.863	-2272
1031.928	-2182
1031.994	-2204
1032.059	-2077
1032.125	-1695
1032.190	-2363
1032.256	-2781
1032.321	-2569
1032.386	-1594
1032.452	-1569
1032.517	-1534
1032.582	-2447
1032.647	-1570
1032.713	-2020
1032.778	-2453
1032.843	-1685
1032.908	-1960
1032.974	-1436
1033.039	-1790
1033.104	-2566
1033.169	-1981
1033.234	-2399
1033.299	-1905
1033.364	-2201
1033.429	-2063
1033.494	-2578
1033.559	-1819
1033.624	-2078
1033.688	-2002
1033.753	-2337
1033.818	-1733
1033.883	-2201
1033.948	-469
1034.013	-1812
1034.077	-1697
1034.142	-1691
1034.207	-1630
1034.271	-1468
1034.336	-738
1034.400	-1198
1034.465	-1139
1034.530	-1635
1034.594	-2109
1034.658	-2500
1034.723	-1999
1034.787	-2509
1034.852	-2156
1034.916	-1844
1034.981	-1712
1035.045	-1106
1035.109	-1690
1035.173	-1867
1035.238	-2599
1035.302	-2154
1035.366	-1508
1035.430	-1834
1035.495	-1414
1035.559	-1871
1035.623	-1776
1035.687	-2224
1035.751	-2035
1035.815	-1703
1035.879	-1951
1035.943	-1830
1036.007	-2879
1036.071	-2422
1036.135	-1678
1036.198	-1355
1036.262	-2492
1036.326	-1346
1036.390	-1445
1036.454	-2001
1036.517	-2206
1036.581	-2644
1036.645	-2093
1036.709	-577
1036.772	-2569
1036.836	-1846
1036.900	-2526
1036.963	-2378
1037.026	-2674
1037.090	-2109
1037.154	-1862
1037.217	-1392
1037.280	-2317
1037.344	-2548
1037.407	-2258
1037.471	-2068
1037.534	-1184
1037.597	-2053
1037.661	-2106
1037.724	-1771
1037.787	-2798
1037.850	-2086
1037.913	-1854
1037.977	-1310
1038.040	-1320
1038.103	-2414
1038.166	-2021
1038.229	-1770
1038.292	-2681
1038.355	-2154
1038.418	-1910
1038.481	-1472
1038.544	-2258
1038.607	-1625
1038.670	-2026
1038.732	-2787
1038.795	-2654
1038.858	-1878
1038.921	-1740
1038.984	-1048
1039.046	-1566
1039.109	-1894
1039.172	-2187
1039.234	-2323
1039.297	-2425
1039.360	-2033
1039.422	-1832
1039.485	-2593
1039.547	-1995
1039.610	-2471
1039.672	-2343
1039.734	-1514
1039.797	-1754
1039.859	-1438
1039.922	-2456
1039.984	-2224
1040.046	-2538
1040.109	-2170
1040.171	-2113
1040.233	-2239
1040.295	-1959
1040.358	-2307
1040.420	-1996
1040.482	-1757
1040.544	-2323
1040.606	-2372
1040.668	-2101
1040.730	-2063
1040.792	-1915
1040.854	-1983
1040.916	-2160
1040.978	-2034
1041.040	-1100
1041.102	-1308
1041.164	-2127
1041.225	-2638
1041.287	-2418
1041.349	-2969
1041.411	-1198
1041.472	-1653
1041.534	-2263
1041.596	-1702
1041.657	-2255
1041.719	-1999
1041.781	-2043
1041.842	-1495
1041.904	-2448
1041.965	-2113
1042.027	-2380
1042.088	-2229
1042.150	-1677
1042.211	-2903
1042.272	-1217
1042.334	-2014
1042.395	-3141
1042.456	-2201
1042.518	-2165
1042.579	-1591
1042.640	-2856
1042.701	-1787
1042.763	-2000
1042.824	-1854
1042.885	-1724
1042.946	-2451
1043.007	-1402
1043.068	-1649
1043.129	-1741
1043.190	-2295
1043.251	-1963
1043.312	-1889
1043.373	-2059
1043.434	-1418
1043.495	-1960
1043.556	-1588
1043.616	-1402
1043.677	-2390
1043.738	-2078
1043.799	-1907
1043.859	-2485
1043.920	-1553
1043.981	-1917
1044.041	-1465
1044.102	-1919
1044.162	-1719
1044.223	-2775
1044.284	-1642
1044.344	-2146
1044.405	-2014
1044.465	-972
1044.525	-1962
1044.586	-1824
1044.646	-1713
1044.707	-1412
1044.767	-2156
1044.827	-1539
1044.887	-2164
1044.948	-1796
1045.008	-1345
1045.068	-1362
1045.128	-1452
1045.188	-2139
1045.249	-1038
1045.309	-1040
1045.369	-1213
1045.429	-1010
1045.489	-2621
1045.549	-2508
1045.609	-1630
1045.669	-2517
1045.729	-1610
1045.789	-2130
1045.848	-2517
1045.908	-1062
1045.968	-1728
1046.028	-1526
1046.088	-1227
1046.147	-1196
1046.207	-1401
1046.267	-2228
1046.326	-1721
1046.386	-1394
1046.446	-847
1046.505	-1376
1046.565	-657
1046.624	-518
1046.684	-849
1046.743	-692
1046.803	-370
1046.862	-713
1046.922	0
