'Start Wavelength	183.907
'End Wavelength	1046.922
'Gate Delay	5.000
'Gate Width (ms)	1.050
'Laser Output Level	0.000
'X Position	0.000
'Y Position	0.000
'Z Position	0.000
'Grid Point Number	1.000
'Shot Number	100.000
183.907	476.000
183.977	-266.000
184.047	-131
184.116	214
184.186	50
184.256	512
184.325	393
184.395	-662
184.465	1022
184.534	812
184.604	361
184.674	-85
184.743	378
184.813	562
184.883	792
184.952	162
185.022	902
185.092	790
185.161	1008
185.231	484
185.301	1093
185.370	1140
185.440	-35
185.509	706
185.579	621
185.649	1192
185.718	1023
185.788	997
185.857	-306
185.927	440
185.996	421
186.066	-227
186.136	818
186.205	1189
186.275	659
186.344	383
186.414	510
186.483	-42
186.553	869
186.622	2268
186.692	443
186.761	500
186.831	1088
186.900	122
186.970	994
187.039	967
187.109	1956
187.178	1147
187.248	1208
187.317	1520
187.387	665
187.456	1285
187.526	1959
187.595	1255
187.664	1067
187.734	2154
187.803	1391
187.873	1153
187.942	2022
188.012	1501
188.081	749
188.150	1560
188.220	2026
188.289	2021
188.358	1027
188.428	663
188.497	603
188.567	1097
188.636	1855
188.705	903
188.775	978
188.844	926
188.913	1293
188.983	481
189.052	894
189.121	592
189.191	853
189.260	1259
189.329	2121
189.399	1580
189.468	1049
189.537	1118
189.606	1003
189.676	1106
189.745	678
189.814	1088
189.883	930
189.953	1845
190.022	1809
190.091	5476
190.161	7027
190.230	3412
190.299	1486
190.368	1617
190.437	1259
190.507	1763
190.576	689
190.645	1063
190.714	1915
190.783	247
190.853	2150
190.922	1003
190.991	1009
191.060	1373
191.129	516
191.198	1265
191.268	783
191.337	1473
191.406	1265
191.475	239
191.544	992
191.613	1022
191.682	255
191.752	1113
191.821	965
191.890	1026
191.959	1986
192.028	1023
192.097	893
192.166	1300
192.235	625
192.304	1394
192.373	1092
192.442	1078
192.511	953
192.580	875
192.650	356
192.719	-62
192.788	1739
192.857	609
192.926	1825
192.995	1930
193.064	1724
193.133	3007
193.202	3385
193.271	3229
193.340	2466
193.409	2927
193.478	2712
193.547	3220
193.615	5208
193.684	5538
193.753	3157
193.822	3065
193.891	1465
193.960	2695
194.029	1292
194.098	2197
194.167	777
194.236	1061
194.305	1005
194.374	1185
194.443	1592
194.512	2187
194.580	1956
194.649	2532
194.718	2510
194.787	1051
194.856	1038
194.925	2550
194.994	1784
195.062	2588
195.131	2128
195.200	2878
195.269	3414
195.338	1739
195.407	1712
195.475	1550
195.544	3000
195.613	1928
195.682	2193
195.751	2659
195.819	2371
195.888	2386
195.957	2844
196.026	2862
196.094	2664
196.163	2608
196.232	2874
196.301	2945
196.369	2159
196.438	2142
196.507	1742
196.576	2116
196.644	1907
196.713	1578
196.782	1013
196.850	1915
196.919	1807
196.988	2606
197.056	1906
197.125	1638
197.194	2506
197.262	1085
197.331	1928
197.400	1127
197.468	1754
197.537	757
197.606	1519
197.674	3300
197.743	6591
197.812	3537
197.880	6446
197.949	4770
198.017	5368
198.086	4449
198.155	3256
198.223	2702
198.292	6448
198.360	3932
198.429	3146
198.497	2755
198.566	4300
198.635	7925
198.703	3761
198.772	2815
198.840	7261
198.909	8819
198.977	3942
199.046	2241
199.114	2531
199.183	2744
199.251	2187
199.320	1764
199.388	1437
199.457	1579
199.525	2414
199.594	2467
199.662	2367
199.731	1982
199.799	1684
199.867	2634
199.936	1821
200.004	2589
200.073	2771
200.141	2373
200.210	615
200.278	1717
200.346	1861
200.415	3132
200.483	3674
200.552	2276
200.620	2073
200.688	2308
200.757	2129
200.825	1301
200.893	2058
200.962	2056
201.030	1073
201.098	2078
201.167	2335
201.235	2852
201.303	2014
201.372	3039
201.440	2514
201.508	3545
201.577	2904
201.645	2188
201.713	2583
201.781	2550
201.850	4837
201.918	3239
201.986	1304
202.055	3095
202.123	1522
202.191	2446
202.259	2826
202.327	2090
202.396	2409
202.464	2351
202.532	4765
202.600	10770
202.669	8606
202.737	3481
202.805	2271
202.873	2210
202.941	2347
203.009	2327
203.078	2296
203.146	3132
203.214	2991
203.282	1618
203.350	2284
203.418	2018
203.487	3439
203.555	2336
203.623	2238
203.691	2656
203.759	1384
203.827	2062
203.895	3170
203.963	2743
204.031	3154
204.099	3091
204.168	2024
204.236	3288
204.304	3196
204.372	2520
204.440	2881
204.508	1882
204.576	1233
204.644	3083
204.712	1535
204.780	2916
204.848	2631
204.916	2569
204.984	2720
205.052	3530
205.120	3197
205.188	2965
205.256	3287
205.324	2872
205.392	3381
205.460	2963
205.528	2593
205.596	3779
205.664	3372
205.732	3108
205.799	8656
205.867	16180
205.935	5020
206.003	4004
206.071	2928
206.139	3794
206.207	3324
206.275	2953
206.343	2751
206.411	2722
206.478	2913
206.546	3507
206.614	3475
206.682	3473
206.750	2808
206.818	4321
206.885	4723
206.953	2348
207.021	3704
207.089	3338
207.157	2112
207.225	3413
207.292	2830
207.360	3812
207.428	3639
207.496	2522
207.563	3701
207.631	3306
207.699	3657
207.767	3013
207.834	3116
207.902	2672
207.970	3043
208.038	2842
208.105	3268
208.173	4018
208.241	5586
208.309	5346
208.376	3817
208.444	7826
208.512	5436
208.579	2099
208.647	4355
208.715	5419
208.782	3161
208.850	3428
208.918	4111
208.985	2730
209.053	3622
209.120	4041
209.188	2808
209.256	3934
209.323	3283
209.391	4713
209.459	5099
209.526	2776
209.594	3245
209.661	3357
209.729	3125
209.796	3918
209.864	4816
209.932	2956
209.999	5331
210.067	4810
210.134	4610
210.202	4819
210.269	5971
210.337	5853
210.404	4293
210.472	3305
210.539	4547
210.607	3868
210.674	5127
210.742	3834
210.809	4375
210.877	5313
210.944	5916
211.012	4603
211.079	6307
211.146	4186
211.214	4382
211.281	5853
211.349	6160
211.416	5353
211.484	4918
211.551	4194
211.618	3697
211.686	4082
211.753	3968
211.821	4597
211.888	3859
211.955	5338
212.023	4543
212.090	4411
212.157	5287
212.225	5543
212.292	10818
212.359	17424
212.427	37343
212.494	21988
212.561	9425
212.629	7190
212.696	6820
212.763	5838
212.831	4789
212.898	4675
212.965	4348
213.032	4842
213.100	5375
213.167	5100
213.234	5691
213.301	5080
213.369	4702
213.436	3880
213.503	4317
213.570	6336
213.638	5262
213.705	4504
213.772	3932
213.839	5661
213.906	6697
213.973	5418
214.041	4254
214.108	4451
214.175	4119
214.242	4651
214.309	4818
214.376	5383
214.444	4711
214.511	6057
214.578	5133
214.645	5804
214.712	7126
214.779	6297
214.846	5547
214.913	6589
214.980	7032
215.048	5858
215.115	7939
215.182	7247
215.249	5583
215.316	5501
215.383	5294
215.450	5736
215.517	4354
215.584	5180
215.651	4652
215.718	5553
215.785	6128
215.852	5616
215.919	6339
215.986	6007
216.053	5205
216.120	4233
216.187	5534
216.254	6126
216.321	5806
216.388	5731
216.455	6554
216.522	5925
216.589	7533
216.656	10929
216.722	11312
216.789	8552
216.856	8188
216.923	6881
216.990	7190
217.057	6868
217.124	8459
217.191	7815
217.258	9921
217.324	10664
217.391	10493
217.458	8125
217.525	7668
217.592	7076
217.659	6266
217.725	7963
217.792	9036
217.859	9271
217.926	6119
217.993	5701
218.059	4653
218.126	4573
218.193	5052
218.260	4809
218.327	4326
218.393	4993
218.460	4369
218.527	3430
218.594	5353
218.660	9215
218.727	9724
218.794	4869
218.860	5355
218.927	4076
218.994	3683
219.061	4629
219.127	7122
219.194	8391
219.261	5409
219.327	3847
219.394	3921
219.461	2671
219.527	3845
219.594	6706
219.661	5576
219.727	3596
219.794	5158
219.860	3831
219.927	5297
219.994	7854
220.060	13279
220.127	10502
220.193	7443
220.260	7688
220.326	9665
220.393	13002
220.460	16889
220.526	12580
220.593	8541
220.659	10404
220.726	9837
220.792	20531
220.859	20437
220.925	21746
220.992	26723
221.058	26865
221.125	29190
221.191	21957
221.258	11091
221.324	7647
221.391	7152
221.457	6866
221.524	6509
221.590	9221
221.657	24734
221.723	19161
221.789	16518
221.856	17011
221.922	11028
221.989	6579
222.055	5690
222.121	4483
222.188	8114
222.254	7274
222.321	4926
222.387	4787
222.453	4027
222.520	4588
222.586	3609
222.652	4444
222.719	3923
222.785	4721
222.851	3702
222.918	4225
222.984	5013
223.050	4075
223.116	4105
223.183	5446
223.249	3356
223.315	3347
223.382	3548
223.448	4081
223.514	2786
223.580	3721
223.647	3402
223.713	2758
223.779	4084
223.845	3677
223.911	4080
223.978	3550
224.044	4015
224.110	3691
224.176	4420
224.242	3800
224.309	2711
224.375	3810
224.441	3649
224.507	3463
224.573	2703
224.639	4295
224.705	3234
224.772	3356
224.838	2909
224.904	4789
224.970	3176
225.036	3199
225.102	4456
225.168	4680
225.234	4180
225.300	4383
225.366	4087
225.432	4034
225.499	3805
225.565	4937
225.631	4817
225.697	5393
225.763	6611
225.829	6814
225.895	8154
225.961	11714
226.027	10076
226.093	8528
226.159	10542
226.225	14459
226.291	28801
226.357	43513
226.423	26369
226.489	16008
226.554	11874
226.620	10452
226.686	12632
226.752	19057
226.818	27932
226.884	56122
226.950	51921
227.016	24390
227.082	15398
227.148	11080
227.214	10991
227.279	9255
227.345	7442
227.411	7605
227.477	8719
227.543	16818
227.609	18923
227.674	11767
227.740	8470
227.806	7595
227.872	6449
227.938	5703
228.003	9866
228.069	6641
228.135	4837
228.201	4769
228.267	4595
228.332	5662
228.398	7831
228.464	6794
228.530	3889
228.595	5291
228.661	4252
228.727	8105
228.792	8781
228.858	5658
228.924	4673
228.990	8310
229.055	6343
229.121	8156
229.187	5331
229.252	5750
229.318	4711
229.384	4781
229.449	7136
229.515	2602
229.581	1759
229.646	6241
229.712	6113
229.777	12189
229.843	13733
229.909	9523
229.974	9530
230.040	10600
230.105	7919
230.171	9030
230.236	11465
230.302	16830
230.368	13209
230.433	7795
230.499	7996
230.564	8417
230.630	7146
230.695	5771
230.761	6556
230.826	4178
230.892	9727
230.957	6871
231.023	5815
231.088	6149
231.154	6466
231.219	5756
231.284	7969
231.350	10374
231.415	5674
231.481	5785
231.546	5019
231.612	4884
231.677	5148
231.742	4515
231.808	5460
231.873	5470
231.939	3289
232.004	10558
232.069	9922
232.135	5949
232.200	5314
232.265	5380
232.331	4219
232.396	3603
232.461	3478
232.527	3396
232.592	4992
232.657	5107
232.723	9081
232.788	8126
232.853	5299
232.918	4560
232.984	4060
233.049	4526
233.114	7244
233.179	8764
233.245	10591
233.310	14956
233.375	4827
233.440	5184
233.506	4511
233.571	4700
233.636	4455
233.701	5060
233.766	9439
233.832	12523
233.897	6255
233.962	5705
234.027	8332
234.092	7031
234.157	5442
234.222	6676
234.288	9225
234.353	24749
234.418	23783
234.483	15303
234.548	11939
234.613	8860
234.678	8092
234.743	9460
234.808	25354
234.873	19123
234.938	10586
235.004	7437
235.069	6678
235.134	5791
235.199	6620
235.264	6382
235.329	4756
235.394	6850
235.459	8752
235.524	7168
235.589	6592
235.654	6040
235.719	5375
235.784	6315
235.849	6932
235.913	15232
235.978	14861
236.043	18491
236.108	9060
236.173	8205
236.238	9285
236.303	6773
236.368	6733
236.433	10579
236.498	19432
236.563	13617
236.627	23442
236.692	70634
236.757	66238
236.822	29050
236.887	20653
236.952	17492
237.017	13139
237.081	15460
237.146	18646
237.211	34187
237.276	69417
237.341	114339
237.405	65243
237.470	28517
237.535	20727
237.600	13980
237.664	11179
237.729	9385
237.794	11723
237.859	21278
237.923	18342
237.988	11432
238.053	13690
238.118	15572
238.182	31618
238.247	32100
238.312	16574
238.376	12724
238.441	10216
238.506	9799
238.570	4685
238.635	7846
238.700	5932
238.764	6659
238.829	15067
238.893	20932
238.958	11429
239.023	11207
239.087	7679
239.152	8140
239.216	6846
239.281	6273
239.346	6210
239.410	6503
239.475	7227
239.539	29992
239.604	28265
239.668	10328
239.733	7855
239.797	11228
239.862	27987
239.926	33913
239.991	15052
240.055	8148
240.120	6486
240.184	6976
240.249	5828
240.313	5540
240.378	6963
240.442	18188
240.507	32252
240.571	12075
240.635	15226
240.700	22152
240.764	9189
240.829	6825
240.893	5523
240.957	6572
241.022	17225
241.086	32143
241.151	17932
241.215	8153
241.279	10230
241.344	18618
241.408	11183
241.472	8891
241.537	10376
241.601	8466
241.665	7339
241.730	7156
241.794	8982
241.858	7358
241.922	7579
241.987	8556
242.051	6863
242.115	7286
242.179	7351
242.244	6245
242.308	8238
242.372	7231
242.436	9801
242.501	8628
242.565	6633
242.629	6950
242.693	7412
242.757	6112
242.822	6983
242.886	8443
242.950	7723
243.014	7861
243.078	9425
243.142	10528
243.206	9263
243.271	10793
243.335	9742
243.399	16406
243.463	50298
243.527	129397
243.591	50318
243.655	20744
243.719	11585
243.783	13282
243.847	20067
243.911	27556
243.975	27767
244.040	21275
244.104	12047
244.168	8953
244.232	14772
244.296	21045
244.360	24500
244.424	13508
244.488	10619
244.552	9467
244.615	6513
244.679	7528
244.743	10521
244.807	10587
244.871	7074
244.935	7203
244.999	6879
245.063	7602
245.127	9923
245.191	16008
245.255	17494
245.319	13177
245.383	10896
245.446	9068
245.510	6738
245.574	9050
245.638	9204
245.702	7966
245.766	21224
245.829	14364
245.893	9385
245.957	8463
246.021	10680
246.085	10209
246.149	12077
246.212	26046
246.276	40033
246.340	19724
246.404	14109
246.467	14100
246.531	21913
246.595	14053
246.659	11573
246.722	10408
246.786	14933
246.850	15662
246.913	20994
246.977	9936
247.041	9423
247.104	10942
247.168	11099
247.232	25248
247.295	53022
247.359	29565
247.423	13279
247.486	24038
247.550	15803
247.614	11750
247.677	16731
247.741	11377
247.804	8964
247.868	11657
247.932	21014
247.995	49400
248.059	21194
248.122	12233
248.186	14309
248.249	22873
248.313	75761
248.376	87035
248.440	55878
248.503	24474
248.567	19368
248.630	24391
248.694	35037
248.757	42864
248.821	85854
248.884	55350
248.948	47089
249.011	66041
249.075	97286
249.138	88198
249.202	37773
249.265	25202
249.328	28740
249.392	22416
249.455	18658
249.519	14913
249.582	18264
249.645	29035
249.709	24423
249.772	16904
249.835	14786
249.899	16987
249.962	15840
250.025	13879
250.089	31082
250.152	46384
250.215	25380
250.279	17709
250.342	17844
250.405	18093
250.468	16355
250.532	22025
250.595	35767
250.658	111130
250.721	189147
250.785	79703
250.848	41197
250.911	25531
250.974	22883
251.038	28335
251.101	53809
251.164	32020
251.227	31830
251.290	31114
251.354	45337
251.417	151731
251.480	171364
251.543	124054
251.606	257704
251.669	228459
251.732	102967
251.795	87243
251.859	90747
251.922	178121
251.985	122537
252.048	48393
252.111	34635
252.174	32430
252.237	50494
252.300	106492
252.363	120121
252.426	218098
252.489	111165
252.552	56073
252.615	38504
252.678	38913
252.741	80094
252.804	114965
252.867	229973
252.930	151039
252.993	79686
253.056	47247
253.119	36006
253.182	28155
253.245	52515
253.308	40214
253.371	33251
253.434	30542
253.497	26817
253.559	48387
253.622	37504
253.685	42651
253.748	47684
253.811	24150
253.874	27070
253.937	28132
254.000	21355
254.062	33962
254.125	53682
254.188	45759
254.251	44747
254.314	22125
254.376	36992
254.439	43956
254.502	35124
254.565	35999
254.628	63417
254.690	40876
254.753	23207
254.816	19231
254.878	20178
254.941	35914
255.004	40829
255.067	19194
255.129	20046
255.192	12826
255.255	10636
255.317	13732
255.380	10504
255.443	8216
255.505	8535
255.568	8858
255.631	9236
255.693	9013
255.756	8360
255.819	8759
255.881	8280
255.944	6983
256.006	8192
256.069	8228
256.132	7593
256.194	11290
256.257	30151
256.319	22789
256.382	21699
256.444	14210
256.507	11637
256.569	10477
256.632	11299
256.694	18218
256.757	38357
256.819	117420
256.882	56630
256.944	23894
257.007	19003
257.069	20750
257.132	14513
257.194	11705
257.257	11874
257.319	12151
257.381	13586
257.444	30520
257.506	125889
257.569	158214
257.631	89750
257.693	46468
257.756	23548
257.818	20477
257.880	13771
257.943	12240
258.005	11444
258.067	10059
258.130	9915
258.192	12689
258.254	26145
258.317	18193
258.379	12224
258.441	30234
258.503	31310
258.566	32358
258.628	48135
258.690	14212
258.753	14638
258.815	24044
258.877	16679
258.939	10428
259.001	9585
259.064	10583
259.126	13025
259.188	18041
259.250	12506
259.312	16740
259.375	41534
259.437	29706
259.499	12598
259.561	11177
259.623	12001
259.685	10148
259.747	11584
259.809	30923
259.872	62830
259.934	83430
259.996	83836
260.058	24974
260.120	13885
260.182	11849
260.244	9652
260.306	9074
260.368	9194
260.430	9542
260.492	17658
260.554	36234
260.616	33510
260.678	46865
260.740	69928
260.802	19986
260.864	14961
260.926	12627
260.988	12174
261.050	12208
261.112	22988
261.174	59558
261.236	53815
261.298	19100
261.359	27482
261.421	43470
261.483	14686
261.545	12705
261.607	8729
261.669	9865
261.731	17736
261.793	46116
261.854	23525
261.916	15036
261.978	11885
262.040	13045
262.102	11537
262.164	17952
262.225	16131
262.287	10933
262.349	26319
262.411	23663
262.472	11906
262.534	18064
262.596	43462
262.658	16082
262.719	10029
262.781	14655
262.843	39569
262.904	20103
262.966	14616
263.028	19635
263.090	74956
263.151	206863
263.213	73053
263.275	35878
263.336	18452
263.398	14114
263.459	9622
263.521	11085
263.583	23723
263.644	18812
263.706	9130
263.767	7512
263.829	7250
263.891	5099
263.952	6464
264.014	5682
264.075	10634
264.137	24119
264.198	14750
264.260	6984
264.321	7454
264.383	16536
264.444	41424
264.506	14911
264.567	10543
264.629	15774
264.690	31258
264.752	14903
264.813	10429
264.875	8183
264.936	8692
264.998	7278
265.059	7114
265.120	8387
265.182	14125
265.243	55293
265.305	66131
265.366	18056
265.427	10836
265.489	9585
265.550	6645
265.611	9100
265.673	9296
265.734	7638
265.795	6959
265.857	7313
265.918	9160
265.979	17570
266.040	91326
266.102	91074
266.163	27046
266.224	21043
266.286	13778
266.347	10159
266.408	10580
266.469	10417
266.530	8532
266.592	8261
266.653	16279
266.714	28533
266.775	11750
266.836	8718
266.898	8040
266.959	12844
267.020	9782
267.081	8227
267.142	8360
267.203	9125
267.264	9109
267.326	10401
267.387	8136
267.448	6846
267.509	7749
267.570	8067
267.631	7783
267.692	8565
267.753	13258
267.814	9121
267.875	16222
267.936	36491
267.997	18235
268.058	16905
268.119	11148
268.180	10125
268.241	8310
268.302	7522
268.363	6901
268.424	8027
268.485	8597
268.546	6561
268.607	5449
268.668	5279
268.729	6546
268.790	7285
268.851	9785
268.912	19741
268.972	27404
269.033	14614
269.094	8522
269.155	7492
269.216	5804
269.277	7905
269.338	6765
269.398	6265
269.459	8976
269.520	12132
269.581	15904
269.642	18280
269.702	13683
269.763	11311
269.824	8802
269.885	12050
269.945	18565
270.006	9616
270.067	7370
270.128	7486
270.188	6609
270.249	7357
270.310	6324
270.370	6985
270.431	6682
270.492	6272
270.553	8023
270.613	15799
270.674	33582
270.734	17077
270.795	9846
270.856	12587
270.916	11614
270.977	7742
271.038	10232
271.098	11605
271.159	16481
271.219	17919
271.280	9153
271.340	7022
271.401	9565
271.462	23307
271.522	14970
271.583	8195
271.643	9249
271.704	9278
271.764	11772
271.825	23792
271.885	71097
271.946	104387
272.006	38763
272.066	42942
272.127	80508
272.187	28607
272.248	17266
272.308	16964
272.369	51796
272.429	34359
272.489	23516
272.550	26667
272.610	25253
272.671	24185
272.731	17579
272.791	31524
272.852	19461
272.912	15746
272.972	10757
273.033	10722
273.093	17338
273.153	17415
273.214	13314
273.274	14175
273.334	37398
273.394	84075
273.455	38542
273.515	32632
273.575	74569
273.635	35198
273.696	39778
273.756	78849
273.816	37619
273.876	23077
273.936	38891
273.997	71027
274.057	23019
274.117	17561
274.177	24319
274.237	89125
274.297	84040
274.358	59085
274.418	63519
274.478	50524
274.538	21517
274.598	18509
274.658	53020
274.718	71301
274.778	30588
274.838	17812
274.898	31501
274.958	98132
275.018	79331
275.078	54720
275.138	24090
275.198	15589
275.258	11853
275.318	14634
275.378	24287
275.438	27940
275.498	18695
275.558	39796
275.618	90304
275.678	59334
275.738	35555
275.798	28188
275.858	15839
275.918	10362
275.978	11727
276.038	12478
276.098	10404
276.157	19186
276.217	56879
276.277	31384
276.337	20978
276.397	12951
276.457	15551
276.517	11900
276.576	8308
276.636	11156
276.696	18619
276.756	34165
276.815	28580
276.875	13741
276.935	16367
276.995	16565
277.055	11378
277.114	10752
277.174	14246
277.234	44527
277.293	22684
277.353	13389
277.413	10499
277.472	10965
277.532	13018
277.592	15440
277.651	49609
277.711	104620
277.771	36772
277.830	105166
277.890	99924
277.950	64097
278.009	172234
278.069	78201
278.128	69109
278.188	108528
278.248	48299
278.307	113207
278.367	74856
278.426	24519
278.486	17322
278.545	15005
278.605	12449
278.664	12535
278.724	13775
278.783	28767
278.843	79524
278.902	28177
278.962	18809
279.021	21398
279.081	32305
279.140	33685
279.199	24103
279.259	23765
279.318	26359
279.378	35423
279.437	62981
279.496	178752
279.556	446363
279.615	407512
279.675	140579
279.734	78908
279.793	96320
279.853	139221
279.912	58479
279.971	34377
280.031	31867
280.090	49200
280.149	90854
280.208	87822
280.268	301417
280.327	349164
280.386	107801
280.445	66218
280.505	57274
280.564	31484
280.623	25889
280.682	30174
280.742	45105
280.801	18253
280.860	14111
280.919	12811
280.978	13712
281.037	13187
281.097	11665
281.156	12532
281.215	12104
281.274	13947
281.333	48805
281.392	42647
281.451	13064
281.510	10733
281.569	10790
281.628	9508
281.688	9834
281.747	10921
281.806	11071
281.865	8835
281.924	8644
281.983	9922
282.042	7642
282.101	6804
282.160	7982
282.219	8192
282.278	9852
282.337	28518
282.396	22869
282.454	11090
282.513	13752
282.572	42696
282.631	28114
282.690	11627
282.749	9434
282.808	11950
282.867	11866
282.926	12374
282.985	8398
283.043	7795
283.102	9566
283.161	10953
283.220	21532
283.279	51019
283.338	18868
283.396	12690
283.455	12365
283.514	14034
283.573	24369
283.631	19730
283.690	12346
283.749	11776
283.808	21417
283.866	27797
283.925	12627
283.984	12707
284.043	16299
284.101	17720
284.160	13924
284.219	17316
284.277	17669
284.336	28379
284.395	64569
284.453	60023
284.512	27810
284.570	33763
284.629	33172
284.688	32830
284.746	37273
284.805	44106
284.863	56310
284.922	71457
284.981	89887
285.039	127527
285.098	201752
285.156	369407
285.215	426484
285.273	415794
285.332	405747
285.390	254897
285.449	161742
285.507	114139
285.566	85030
285.624	65897
285.683	51666
285.741	41370
285.799	34948
285.858	30688
285.916	28208
285.975	22340
286.033	20269
286.091	18812
286.150	15387
286.208	15422
286.267	18210
286.325	18363
286.383	22582
286.442	20584
286.500	14720
286.558	13344
286.616	11235
286.675	15457
286.733	15731
286.791	14856
286.850	14268
286.908	15929
286.966	26364
287.024	14540
287.083	10948
287.141	9702
287.199	11547
287.257	14858
287.315	12510
287.374	12530
287.432	25644
287.490	19273
287.548	12833
287.606	11166
287.664	11415
287.723	15374
287.781	18354
287.839	13340
287.897	15908
287.955	20555
288.013	33996
288.071	70951
288.129	220544
288.187	524366
288.245	297503
288.303	104684
288.361	59546
288.419	44234
288.477	30280
288.535	22350
288.593	18473
288.651	14481
288.709	12823
288.767	11355
288.825	10152
288.883	8946
288.941	11317
288.999	10473
289.057	9021
289.115	7889
289.173	7887
289.231	9691
289.289	9897
289.346	9715
289.404	10786
289.462	16712
289.520	17013
289.578	9228
289.636	6239
289.694	7025
289.751	6375
289.809	5352
289.867	6604
289.925	9103
289.983	11454
290.040	6318
290.098	5384
290.156	8215
290.214	9619
290.271	7347
290.329	5612
290.387	5096
290.444	4767
290.502	3858
290.560	5421
290.617	6306
290.675	6106
290.733	5857
290.790	8077
290.848	6338
290.906	8656
290.963	7982
291.021	7498
291.078	7043
291.136	10106
291.194	19668
291.251	46373
291.309	15188
291.366	6934
291.424	7033
291.481	8172
291.539	9041
291.596	9472
291.654	5979
291.711	4971
291.769	7218
291.826	16286
291.884	11537
291.941	6141
291.999	6512
292.056	7808
292.114	8660
292.171	5918
292.228	6483
292.286	9331
292.343	15491
292.401	21173
292.458	14520
292.515	9755
292.573	10544
292.630	10391
292.687	10918
292.745	8973
292.802	11143
292.859	26060
292.917	50323
292.974	31869
293.031	11492
293.089	7742
293.146	7596
293.203	6778
293.260	5658
293.318	9216
293.375	11333
293.432	6651
293.489	6497
293.546	7310
293.604	11687
293.661	32979
293.718	80515
293.775	41463
293.832	21471
293.889	20300
293.947	21559
294.004	15208
294.061	13446
294.118	22269
294.175	46442
294.232	52443
294.289	25408
294.346	14406
294.403	12061
294.460	11397
294.517	9668
294.574	8467
294.631	7519
294.688	10156
294.745	22847
294.802	77244
294.859	86438
294.916	36025
294.973	24131
295.030	17503
295.087	15366
295.144	10638
295.201	10216
295.258	8486
295.315	11294
295.372	30581
295.429	64256
295.486	28928
295.542	16249
295.599	30013
295.656	55862
295.713	39182
295.770	59412
295.827	23823
295.883	12904
295.940	12323
295.997	19236
296.054	19670
296.111	10634
296.167	7595
296.224	5865
296.281	6224
296.338	6353
296.394	7164
296.451	9783
296.508	24547
296.564	51834
296.621	33150
296.678	59340
296.734	97425
296.791	37894
296.848	20440
296.904	20330
296.961	42206
297.018	66743
297.074	54428
297.131	23664
297.187	16794
297.244	23179
297.301	60347
297.357	117411
297.414	43016
297.470	17757
297.527	13849
297.583	13774
297.640	11902
297.696	8847
297.753	8005
297.809	6742
297.866	5598
297.922	5517
297.979	6036
298.035	8204
298.092	14929
298.148	37813
298.204	39935
298.261	19899
298.317	27829
298.374	77522
298.430	50260
298.486	23793
298.543	20400
298.599	24655
298.656	35462
298.712	38212
298.768	82011
298.824	68682
298.881	24850
298.937	14510
298.993	11464
299.050	14284
299.106	13386
299.162	10568
299.218	12413
299.275	10374
299.331	11313
299.387	20911
299.443	66190
299.500	82314
299.556	35773
299.612	18013
299.668	19688
299.724	24610
299.780	25911
299.837	15277
299.893	21526
299.949	62914
300.005	83061
300.061	60314
300.117	103879
300.173	54591
300.229	25227
300.285	28738
300.341	34111
300.397	19396
300.453	12078
300.510	13076
300.566	15178
300.622	17018
300.678	41935
300.734	78057
300.790	62181
300.845	74515
300.901	49943
300.957	68297
301.013	56399
301.069	21857
301.125	16143
301.181	17995
301.237	14031
301.293	10616
301.349	10928
301.405	13200
301.461	17182
301.516	30419
301.572	22949
301.628	23277
301.684	21603
301.740	32295
301.796	58537
301.851	37156
301.907	51482
301.963	53843
302.019	71170
302.074	183098
302.130	197743
302.186	103634
302.242	44949
302.297	27550
302.353	26099
302.409	47020
302.464	47643
302.520	34503
302.576	70628
302.631	87541
302.687	49489
302.743	21511
302.798	13774
302.854	11773
302.910	12259
302.965	15148
303.021	28207
303.076	29057
303.132	30086
303.187	37176
303.243	19889
303.299	11176
303.354	10011
303.410	9620
303.465	9482
303.521	8249
303.576	8640
303.632	12017
303.687	21710
303.743	60898
303.798	55859
303.853	22860
303.909	13451
303.964	12191
304.020	17288
304.075	29472
304.130	24915
304.186	42118
304.241	44133
304.297	34498
304.352	19529
304.358	18758
304.407	12509
304.449	12119
304.463	11993
304.518	12983
304.539	12419
304.573	11525
304.629	12411
304.630	12509
304.684	17763
304.720	34502
304.739	42751
304.794	72011
304.811	61234
304.850	35263
304.902	17281
304.905	16159
304.960	11681
304.992	11898
305.015	12053
305.071	12886
305.083	12704
305.126	11870
305.173	8226
305.181	7675
305.236	7198
305.264	7545
305.292	7953
305.347	11713
305.354	12363
305.402	16387
305.445	15605
305.457	15350
305.512	15924
305.535	16078
305.567	16291
305.622	16250
305.626	16787
305.678	30987
305.716	58170
305.733	67106
305.788	82036
305.807	70084
305.843	50214
305.897	60283
305.898	60339
305.953	64388
305.988	43317
306.008	32110
306.063	21149
306.078	19125
306.118	14556
306.168	10466
306.173	10123
306.228	8587
306.259	8031
306.283	7848
306.338	7337
306.349	7555
306.393	8610
306.440	10049
306.448	10255
306.503	11433
306.530	12031
306.558	15728
306.613	32259
306.620	34959
306.668	52238
306.711	67994
306.723	68899
306.778	56586
306.801	42913
306.833	27920
306.888	14120
306.892	13622
306.943	10592
306.982	9886
306.997	9824
307.052	9268
307.072	9205
307.107	9747
307.162	12121
307.163	12171
307.217	19359
307.253	23587
307.272	24190
307.327	25810
307.343	24195
307.381	20834
307.434	19540
307.436	20126
307.491	37810
307.524	55480
307.546	59586
307.600	61646
307.614	55434
307.655	34634
307.704	18218
307.710	17725
307.765	21478
307.795	25552
307.819	29952
307.874	47185
307.885	47716
307.929	38849
307.975	28865
307.984	29425
308.038	40830
308.065	50645
308.093	88622
308.148	181810
308.156	202079
308.202	302539
308.246	374638
308.257	365358
308.312	201991
308.336	141009
308.366	107281
308.421	70569
308.426	66964
308.475	44202
308.517	31928
308.530	30019
308.585	26029
308.607	24918
308.639	25169
308.694	27203
308.697	27450
308.748	46272
308.787	66045
308.803	65269
308.857	51415
308.877	43940
308.912	39139
308.967	39482
308.967	39519
309.021	57193
309.058	72645
309.076	90173
309.130	152254
309.148	176111
309.185	291941
309.238	476427
309.239	477848
309.293	518088
309.328	493149
309.348	433617
309.402	229114
309.418	176877
309.457	129690
309.508	86088
309.511	85447
309.566	86211
309.598	89652
309.620	107657
309.674	162575
309.688	177171
309.729	169707
309.778	142180
309.783	138776
309.837	94727
309.868	72114
309.892	76278
309.946	93301
309.959	99686
310.001	119737
310.049	136898
310.055	132348
310.109	79537
310.139	49850
310.163	40398
310.218	26616
310.229	24310
310.272	19985
310.319	16004
310.326	15647
310.381	13607
310.409	12757
310.435	12197
310.489	11227
310.499	11136
310.543	11852
310.589	12559
310.598	12494
310.652	12216
310.679	11965
310.706	10697
310.760	7999
310.769	7625
310.814	7360
310.859	7114
310.868	7224
310.923	7827
310.948	8179
310.977	9341
311.031	11874
311.038	12199
311.085	11224
311.128	9862
311.139	9707
311.193	9114
311.218	8881
311.247	8420
311.301	7431
311.308	7324
311.356	7768
311.398	8095
311.410	7894
311.464	6952
311.488	6527
311.518	6785
311.572	7229
311.578	7286
311.626	11219
311.668	14786
311.680	14693
311.734	13793
311.758	13449
311.788	13548
311.842	13668
311.847	13661
311.896	15980
311.937	17999
311.950	17977
312.004	17729
312.027	17557
312.058	14844
312.112	9993
312.117	9504
312.165	8839
312.207	8274
312.297	12285
312.386	9759
312.476	12462
312.566	25102
312.656	11221
312.745	8021
312.835	7848
312.925	9534
313.015	9218
313.104	9117
313.194	9036
313.284	8034
313.374	13423
313.463	10896
313.553	8455
313.643	7563
313.732	6857
313.822	6914
313.912	9091
314.001	10618
314.091	11089
314.180	14104
314.270	14367
314.360	15900
314.449	13734
314.539	9047
314.628	7964
314.718	9053
314.808	12510
314.897	8429
314.987	8823
315.076	12129
315.166	16234
315.255	14262
315.345	14774
315.434	14292
315.524	13913
315.613	16500
315.703	22291
315.792	37759
315.881	125174
315.971	40753
316.060	29953
316.150	38713
316.239	38651
316.328	14533
316.418	8854
316.507	9534
316.597	14158
316.686	12279
316.775	18885
316.865	40225
316.954	10246
317.043	6899
317.133	9299
317.222	8373
317.311	8137
317.400	8390
317.490	14951
317.579	17746
317.668	14239
317.757	25702
317.847	62670
317.936	213870
318.025	75450
318.114	46969
318.203	26548
318.293	29708
318.382	60553
318.471	41723
318.560	53097
318.649	90459
318.738	20657
318.828	16447
318.917	18783
319.006	21000
319.095	49604
319.184	117009
319.273	66946
319.362	36681
319.451	14670
319.540	13431
319.629	31743
319.718	52731
319.807	24334
319.896	41051
319.985	145990
320.074	52165
320.163	15716
320.252	25890
320.341	18440
320.430	17201
320.519	26909
320.608	15610
320.697	13448
320.786	13400
320.875	17664
320.964	24077
321.053	37263
321.142	53148
321.230	54964
321.319	39737
321.408	89791
321.497	36563
321.586	37572
321.675	42107
321.764	39227
321.852	25450
321.941	53043
322.030	35175
322.119	39329
322.207	94818
322.296	60553
322.385	33331
322.474	40205
322.562	117696
322.651	56143
322.740	44245
322.829	60766
322.917	55381
323.006	34611
323.095	30550
323.183	21553
323.272	34576
323.361	59193
323.449	166561
323.538	53657
323.626	117344
323.715	69684
323.804	28990
323.892	106560
323.981	56754
324.069	19511
324.158	56485
324.246	49252
324.335	20662
324.424	34315
324.512	13759
324.601	20500
324.689	46180
324.778	84530
324.866	44640
324.954	13250
325.043	13156
325.131	26036
325.220	41093
325.308	48831
325.397	35546
325.485	22475
325.574	9145
325.662	8943
325.750	10801
325.839	8182
325.927	6806
326.015	11957
326.104	18379
326.192	25040
326.280	7847
326.369	8928
326.457	14021
326.545	26398
326.634	11005
326.722	7145
326.810	8354
326.898	7316
326.987	10486
327.075	25744
327.163	26019
327.251	15293
327.340	30788
327.428	44326
327.516	9692
327.604	9733
327.692	9344
327.781	10453
327.869	18871
327.957	12588
328.045	12303
328.133	7158
328.221	10630
328.309	8969
328.397	8299
328.485	11971
328.574	17949
328.662	60642
328.750	31596
328.838	12407
328.926	8541
329.014	7586
329.102	12797
329.190	30635
329.278	21098
329.366	6705
329.454	5021
329.542	6629
329.630	6254
329.718	6955
329.806	10000
329.893	10258
329.981	12512
330.069	22971
330.157	80204
330.245	216974
330.333	111045
330.421	21467
330.509	21400
330.597	73843
330.684	45105
330.772	15532
330.860	19451
330.948	22594
331.036	10456
331.123	5814
331.211	6370
331.299	9436
331.387	20202
331.475	35851
331.562	12111
331.650	6860
331.738	8651
331.825	12646
331.913	6335
332.001	6515
332.089	9134
332.176	21424
332.264	52396
332.352	38199
332.439	12856
332.527	9208
332.614	8086
332.702	11530
332.790	9184
332.877	27215
332.965	56336
333.052	21821
333.140	24622
333.228	62852
333.315	17118
333.403	11879
333.490	32083
333.578	38070
333.665	80876
333.753	33983
333.840	10621
333.928	13042
334.015	34950
334.103	50773
334.190	150637
334.278	37869
334.365	19836
334.452	15258
334.540	10487
334.627	13798
334.715	20750
334.802	43955
334.889	201546
334.977	187849
335.064	29697
335.151	14152
335.239	12973
335.326	19741
335.413	74287
335.501	92208
335.588	15951
335.675	11602
335.762	14629
335.850	23722
335.937	23049
336.024	56386
336.111	209545
336.199	86649
336.286	20291
336.373	11815
336.460	7876
336.547	8088
336.635	11170
336.722	10296
336.809	9638
336.896	16759
336.983	46748
337.070	105508
337.157	150526
337.245	124162
337.332	82471
337.419	12095
337.506	7774
337.593	11209
337.680	32501
337.767	92665
337.854	28715
337.941	32465
338.028	43485
338.115	14604
338.202	17475
338.289	35814
338.376	124733
338.463	37013
338.550	57393
338.637	56212
338.724	23454
338.811	35233
338.898	8722
338.984	5870
339.071	9341
339.158	13094
339.245	33823
339.332	21937
339.419	26902
339.506	23318
339.593	5130
339.679	7097
339.766	6270
339.853	10762
339.940	24492
340.027	8519
340.113	8506
340.200	13249
340.287	9077
340.374	12800
340.460	22249
340.547	10145
340.634	19515
340.720	70938
340.807	37806
340.894	7344
340.980	7654
341.067	8162
341.154	9601
341.240	15766
341.327	35196
341.414	14119
341.500	15051
341.587	9519
341.674	7810
341.760	22938
341.847	27671
341.933	8939
342.020	3792
342.106	5139
342.193	10008
342.279	17644
342.366	14514
342.452	23342
342.539	12957
342.625	31769
342.712	75131
342.798	29429
342.885	11622
342.971	4710
343.058	3751
343.144	5890
343.230	5808
343.317	8124
343.403	6201
343.490	4725
343.576	4891
343.662	7267
343.749	8460
343.835	12199
343.921	24364
344.008	130570
344.094	278333
344.180	60494
344.267	26307
344.353	82284
344.439	82715
344.525	36029
344.612	15903
344.698	13066
344.784	8847
344.870	6157
344.957	7510
345.043	13824
345.129	10054
345.215	20823
345.301	12971
345.387	8693
345.474	5001
345.560	6228
345.646	7891
345.732	7114
345.818	10869
345.904	8764
345.990	9786
346.076	9894
346.162	20611
346.249	9279
346.335	5785
346.421	8760
346.507	34351
346.593	116109
346.679	25046
346.765	9020
346.851	7754
346.937	7833
347.023	6301
347.108	8833
347.194	7165
347.280	8663
347.366	12192
347.452	37753
347.538	141248
347.624	98593
347.710	76707
347.796	13023
347.882	7512
347.967	6411
348.053	8983
348.139	7217
348.225	5393
348.311	6625
348.397	5142
348.482	9154
348.568	10560
348.654	5925
348.740	10121
348.825	11481
348.911	17417
348.997	67025
349.083	119996
349.168	19930
349.254	9955
349.340	10234
349.425	5995
349.511	10507
349.597	11734
349.682	25859
349.768	80597
349.854	35282
349.939	7100
350.025	5833
350.110	5084
350.196	5628
350.282	4413
350.367	4885
350.453	12111
350.538	12327
350.624	10785
350.709	8769
350.795	5464
350.880	6110
350.966	8919
351.051	13859
351.137	9044
351.222	8702
351.308	26649
351.393	71674
351.479	19298
351.564	7264
351.649	6524
351.735	5266
351.820	5513
351.906	6850
351.991	10412
352.076	46908
352.162	66048
352.247	13559
352.332	10373
352.418	22874
352.503	28368
352.588	103064
352.673	79653
352.759	18335
352.844	9492
352.929	11439
353.014	15460
353.100	10283
353.185	22336
353.270	29864
353.355	26170
353.441	8571
353.526	9714
353.611	24606
353.696	27145
353.781	16330
353.866	6452
353.952	9409
354.037	23854
354.122	55019
354.207	48539
354.292	17690
354.377	6961
354.462	7227
354.547	11431
354.632	9105
354.717	15956
354.802	25022
354.887	9677
354.972	5865
355.057	4877
355.142	4384
355.227	8779
355.312	17199
355.397	38006
355.482	86712
355.567	40338
355.652	30590
355.737	31958
355.822	98314
355.907	73076
355.991	12211
356.076	6804
356.161	7076
356.246	5332
356.331	8624
356.416	24471
356.501	154466
356.585	150093
356.670	23699
356.755	15716
356.840	25627
356.924	117711
357.009	370757
357.094	129394
357.179	30828
357.263	22004
357.348	19811
357.433	19091
357.517	19728
357.602	15212
357.687	13922
357.771	36928
357.856	125955
357.941	61702
358.025	85570
358.110	338421
358.195	146978
358.279	24807
358.364	19648
358.448	69797
358.533	180568
358.617	128656
358.702	126532
358.787	44432
358.871	26661
358.956	21745
359.040	8835
359.125	7377
359.209	13091
359.294	65455
359.378	101082
359.462	29871
359.547	13399
359.631	8478
359.716	5927
359.800	7088
359.885	12434
359.969	8694
360.053	7054
360.138	7565
360.222	14227
360.306	27145
360.391	24107
360.475	66236
360.559	126737
360.644	78044
360.728	50787
360.812	87183
360.896	225541
360.981	91626
361.065	47460
361.149	13244
361.233	13531
361.318	11780
361.402	14622
361.486	11880
361.570	8940
361.654	13525
361.739	36944
361.823	153323
361.907	219396
361.991	39697
362.075	24733
362.159	54359
362.243	38894
362.327	41131
362.411	48406
362.495	24975
362.580	13695
362.664	10282
362.748	10835
362.832	14073
362.916	26425
363.000	86933
363.084	220453
363.168	267270
363.252	62146
363.336	24341
363.420	31170
363.503	104087
363.587	110146
363.671	23671
363.755	18233
363.839	25927
363.923	13444
364.007	30515
364.091	33501
364.175	47594
364.258	171105
364.342	139901
364.426	171394
364.510	89064
364.594	39632
364.677	47582
364.761	202661
364.845	129640
364.929	47998
365.013	37817
365.096	32529
365.180	37216
365.264	45576
365.347	157879
365.431	61711
365.515	16943
365.598	10690
365.682	9381
365.766	15321
365.849	17658
365.933	12698
366.017	15418
366.100	10518
366.184	4688
366.267	7418
366.351	7701
366.435	6787
366.518	5012
366.602	5433
366.685	7426
366.769	9724
366.852	15718
366.936	28925
367.019	17552
367.103	11671
367.186	21128
367.270	7331
367.353	5487
367.436	7567
367.520	6496
367.603	11172
367.687	17728
367.770	31683
367.853	18303
367.937	60200
368.020	92164
368.104	22438
368.187	24593
368.270	31809
368.353	27736
368.437	38730
368.520	81367
368.603	50312
368.687	71823
368.770	127263
368.853	30750
368.936	30455
369.020	25643
369.103	11373
369.186	8252
369.269	10423
369.352	20841
369.436	29053
369.519	18081
369.602	9691
369.685	10155
369.768	12236
369.851	9253
369.934	6615
370.018	10679
370.101	26749
370.184	19850
370.267	14309
370.350	27280
370.433	41704
370.516	109939
370.599	142318
370.682	48204
370.765	70928
370.848	86100
370.931	157471
371.014	54217
371.097	12718
371.180	9534
371.263	6605
371.346	5016
371.429	7272
371.511	8386
371.594	16871
371.677	25430
371.760	25860
371.843	25633
371.926	124222
372.009	264979
372.091	82320
372.174	63341
372.257	144452
372.340	53532
372.423	40732
372.505	41262
372.588	19783
372.671	51066
372.754	158259
372.836	73611
372.919	49972
373.002	88583
373.085	31342
373.167	27194
373.250	69358
373.332	145209
373.415	189239
373.498	371038
373.580	136406
373.663	214282
373.746	254122
373.828	56197
373.911	24879
373.993	26109
374.076	90335
374.159	79058
374.241	44053
374.324	135424
374.406	84901
374.489	115134
374.571	307039
374.654	118194
374.736	63266
374.819	193114
374.901	271373
374.983	264328
375.066	45713
375.148	20251
375.231	74637
375.313	133952
375.395	48237
375.478	11953
375.560	10872
375.643	15477
375.725	61379
375.807	247019
375.890	179722
375.972	74985
376.054	42888
376.136	65925
376.219	29831
376.301	73027
376.383	211213
376.465	73537
376.548	53048
376.630	63189
376.712	181177
376.794	76694
376.877	10639
376.959	6902
377.041	9565
377.123	17337
377.205	19022
377.287	5248
377.369	6616
377.452	6744
377.534	6950
377.616	6643
377.698	6865
377.780	5932
377.862	8157
377.944	7941
378.026	4362
378.108	4609
378.190	5398
378.272	5596
378.354	4395
378.436	4422
378.518	11690
378.600	41442
378.682	37540
378.764	92413
378.846	66991
378.928	19228
379.010	28464
379.091	13803
379.173	7813
379.255	6580
379.337	12856
379.419	45781
379.501	127369
379.583	46468
379.664	13448
379.746	34378
379.828	90378
379.910	122372
379.991	102203
380.073	17834
380.155	12222
380.237	9096
380.318	7258
380.400	8903
380.482	21866
380.564	33113
380.645	34919
380.727	31858
380.809	17255
380.890	12772
380.972	9933
381.053	8892
381.135	12649
381.217	33456
381.298	94225
381.380	45358
381.461	41653
381.543	189245
381.624	211900
381.706	39196
381.787	22857
381.869	25634
381.951	82774
382.032	294373
382.113	171654
382.195	42613
382.276	31502
382.358	69193
382.439	168572
382.521	184984
382.602	279536
382.684	138861
382.765	268703
382.846	372943
382.928	632531
383.009	339491
383.090	270013
383.172	883981
383.253	1154563
383.334	389198
383.416	303572
383.497	164187
383.578	113432
383.659	229238
383.741	778704
383.822	1605206
383.903	802034
383.984	275221
384.066	341735
384.147	202067
384.228	52621
384.309	39760
384.390	30537
384.471	24613
384.553	24319
384.634	31903
384.715	31148
384.796	19530
384.877	25402
384.958	90996
385.039	102202
385.120	36485
385.201	18679
385.282	22340
385.363	24326
385.444	24936
385.525	42977
385.606	130972
385.687	103446
385.768	27739
385.849	34639
385.930	136707
386.011	218016
386.092	57273
386.173	15852
386.254	12820
386.335	13487
386.416	15966
386.496	57551
386.577	88199
386.658	30899
386.739	19048
386.820	17004
386.901	12811
386.981	13375
387.062	10366
387.143	23249
387.224	91093
387.304	79179
387.385	28746
387.466	18798
387.547	22748
387.627	17501
387.708	35813
387.789	157699
387.869	183082
387.950	47283
388.031	10890
388.111	9662
388.192	23770
388.273	34169
388.353	21088
388.434	13425
388.514	33555
388.595	145137
388.676	180250
388.756	84739
388.837	84166
388.917	48792
388.998	10598
389.078	11223
389.159	10027
389.239	9319
389.320	17553
389.400	15493
389.480	33709
389.561	92481
389.641	42511
389.722	17378
389.802	27217
389.883	39930
389.963	108333
390.043	64879
390.124	19840
390.204	35145
390.284	105672
390.365	63553
390.445	80989
390.525	252016
390.605	213179
390.686	57186
390.766	20893
390.846	12391
390.927	8711
391.007	8989
391.087	11658
391.167	13890
391.247	10128
391.328	16842
391.408	21824
391.488	16139
391.568	8122
391.648	14781
391.728	19985
391.808	19288
391.888	24284
391.969	54426
392.049	80625
392.129	34159
392.209	43572
392.289	106076
392.369	55284
392.449	42253
392.529	28755
392.609	29442
392.689	38489
392.769	109392
392.849	92915
392.929	69577
393.009	158279
393.089	136714
393.169	152550
393.248	473599
393.328	1400426
393.408	1368591
393.488	440092
393.568	137220
393.648	69431
393.728	43757
393.807	31397
393.887	26167
393.967	23202
394.047	25521
394.127	29799
394.206	45869
394.286	157517
394.366	643864
394.446	646814
394.525	152549
394.605	40885
394.685	31240
394.764	57835
394.844	97711
394.924	70057
395.003	25498
395.083	18238
395.163	16713
395.242	15851
395.322	16042
395.402	11438
395.481	17467
395.561	45075
395.640	116408
395.720	97371
395.799	124000
395.879	94106
395.958	65003
396.038	227680
396.117	838005
396.197	859255
396.276	253202
396.356	88317
396.435	62456
396.515	50028
396.594	65776
396.673	133525
396.753	477487
396.832	1249185
396.912	892156
396.991	233761
397.070	70362
397.150	38059
397.229	28028
397.308	38365
397.388	60238
397.467	28824
397.546	14785
397.625	12328
397.705	17942
397.784	16038
397.863	10353
397.942	7872
398.022	8984
398.101	34964
398.180	94949
398.259	45602
398.338	15269
398.417	12715
398.497	7885
398.576	9341
398.655	5363
398.734	5792
398.813	7513
398.892	31583
398.971	104831
399.050	47601
399.129	7795
399.208	5362
399.287	6144
399.366	3288
399.445	4634
399.524	4837
399.603	5427
399.682	13268
399.761	39102
399.840	116885
399.919	79661
399.998	10740
400.077	3385
400.156	2426
400.235	6189
400.313	3708
400.392	8728
400.471	47649
400.550	74176
400.629	17966
400.708	8471
400.786	7976
400.865	20832
400.944	21773
401.023	11201
401.102	2745
401.180	3260
401.259	2975
401.338	5255
401.416	8270
401.495	7119
401.574	5144
401.652	5209
401.731	8750
401.810	7782
401.888	3067
401.967	2663
402.046	5491
402.124	8368
402.203	10322
402.281	6184
402.360	10708
402.438	27378
402.517	17512
402.596	6556
402.674	5792
402.753	3659
402.831	3797
402.910	6391
402.988	36478
403.066	126158
403.145	65434
403.223	39208
403.302	104055
403.380	74247
403.459	73883
403.537	27394
403.615	10206
403.694	2821
403.772	1923
403.850	3181
403.929	1787
404.007	4175
404.085	14422
404.164	17560
404.242	4762
404.320	6790
404.398	17512
404.477	51671
404.555	227815
404.633	183471
404.711	27135
404.789	9493
404.868	7239
404.946	4276
405.024	1799
405.102	2049
405.180	1555
405.258	1885
405.336	3101
405.415	3420
405.493	12225
405.571	11761
405.649	3210
405.727	2960
405.805	7683
405.883	7497
405.961	8131
406.039	7914
406.117	3934
406.195	11065
406.273	54733
406.351	198147
406.429	103286
406.507	15452
406.585	4730
406.663	6825
406.740	9518
406.818	7662
406.896	3555
406.974	5696
407.052	16650
407.130	116445
407.208	150250
407.285	26656
407.363	4638
407.441	4527
407.519	3798
407.596	5733
407.674	18275
407.752	55863
407.830	48611
407.907	18282
407.985	6905
408.063	3433
408.141	2621
408.218	7889
408.296	8161
408.373	6817
408.451	6764
408.529	6188
408.606	2160
408.684	1954
408.762	2008
408.839	914
408.917	1222
408.994	2350
409.072	2647
409.149	2983
409.227	7922
409.304	10465
409.382	8374
409.459	9769
409.537	14508
409.614	12963
409.692	8828
409.769	9172
409.846	14819
409.924	20180
410.001	13792
410.079	9584
410.156	7391
410.233	5963
410.311	6057
410.388	3794
410.465	5502
410.543	6732
410.620	4148
410.697	5776
410.775	7087
410.852	2201
410.929	7184
411.006	9990
411.083	5295
411.161	16555
411.238	15107
411.315	6989
411.392	3381
411.469	8114
411.547	8898
411.624	4054
411.701	3078
411.778	5943
411.855	14573
411.932	6907
412.009	3031
412.086	2883
412.163	3553
412.240	5025
412.317	7354
412.394	6162
412.471	2487
412.548	1805
412.625	2626
412.702	5051
412.779	12472
412.856	6627
412.933	1237
413.010	1724
413.087	6838
413.164	44769
413.241	59549
413.318	13327
413.395	8252
413.471	13953
413.548	4729
413.625	2831
413.702	4726
413.779	2480
413.855	-302
413.932	1054
414.009	345
414.086	539
414.162	1812
414.239	7459
414.316	43016
414.393	93336
414.469	30223
414.546	2603
414.623	624
414.699	1466
414.776	3985
414.853	1698
414.929	2507
415.006	2545
415.082	3411
415.159	2452
415.236	1234
415.312	3219
415.389	8853
415.465	12993
415.542	6065
415.618	3590
415.695	8533
415.771	5791
415.848	4340
415.924	3818
416.000	2227
416.077	2144
416.153	-492
416.230	-185
416.306	780
416.383	1521
416.459	1138
416.535	766
416.612	601
416.688	1038
416.764	1601
416.841	1991
416.917	1707
416.993	2486
417.069	3665
417.146	6869
417.222	7718
417.298	4223
417.374	2044
417.451	3020
417.527	5348
417.603	7289
417.679	3766
417.755	2670
417.831	60
417.908	20
417.984	1032
418.060	1513
418.136	11081
418.212	14698
418.288	4294
418.364	1754
418.440	2677
418.516	6588
418.592	6965
418.668	18337
418.744	28768
418.820	20376
418.896	3146
418.972	228
419.048	2171
419.124	12192
419.200	8451
419.276	1563
419.352	124
419.428	1150
419.504	2817
419.579	5550
419.655	2596
419.731	4115
419.807	18749
419.883	35960
419.959	22361
420.034	6037
420.110	13343
420.186	60996
420.262	41353
420.337	7062
420.413	4686
420.489	1651
420.565	2179
420.640	1762
420.716	2515
420.792	1436
420.867	2153
420.943	2730
421.019	8320
421.094	5883
421.170	2284
421.245	1822
421.321	3478
421.397	4198
421.472	11159
421.548	29074
421.623	19700
421.699	8150
421.774	7269
421.850	8185
421.925	14014
422.001	13805
422.076	10734
422.152	14372
422.227	22353
422.302	27226
422.378	40438
422.453	79281
422.529	193653
422.604	502589
422.679	702778
422.755	495800
422.830	192014
422.905	78510
422.981	41349
423.056	27840
423.131	18587
423.207	15442
423.282	14574
423.357	23531
423.432	15775
423.508	15519
423.583	33384
423.658	23596
423.733	8487
423.808	9646
423.883	10704
423.959	9660
424.034	8654
424.109	6630
424.184	3621
424.259	3851
424.334	2435
424.409	2433
424.484	2813
424.559	3320
424.634	3549
424.709	6416
424.784	8005
424.859	4239
424.934	8878
425.009	42428
425.084	66685
425.159	22183
425.234	4145
425.309	5127
425.384	42202
425.459	64810
425.534	14594
425.609	3227
425.683	1712
425.758	2556
425.833	2423
425.908	5061
425.983	26135
426.058	70820
426.132	27758
426.207	4891
426.282	7350
426.357	5125
426.431	1177
426.506	2110
426.581	2726
426.655	2621
426.730	1686
426.805	1739
426.879	3007
426.954	3598
427.029	11289
427.103	69525
427.178	162645
427.253	63757
427.327	7830
427.402	21424
427.476	62558
427.551	27859
427.625	4641
427.700	4471
427.774	2061
427.849	2790
427.923	1520
427.998	1569
428.072	3680
428.147	12814
428.221	64333
428.296	178074
428.370	81024
428.444	11023
428.519	10310
428.593	20148
428.667	15666
428.742	20556
428.816	26377
428.890	120398
428.965	193425
429.039	60379
429.113	24611
429.188	8203
429.262	2745
429.336	9751
429.410	31082
429.485	18703
429.559	16787
429.633	12384
429.707	5008
429.781	20408
429.855	118840
429.930	164726
430.004	73774
430.078	97190
430.152	101022
430.226	226578
430.300	201903
430.374	31114
430.448	10835
430.522	34242
430.596	93513
430.670	67076
430.744	197895
430.818	251820
430.892	46798
430.966	7038
431.040	2969
431.114	1250
431.188	1274
431.262	866
431.336	1721
431.410	9155
431.484	26952
431.557	16816
431.631	2322
431.705	5440
431.779	37044
431.853	156548
431.927	93413
432.000	9890
432.074	2409
432.148	3669
432.222	2305
432.295	1453
432.369	1063
432.443	7773
432.516	65312
432.590	158063
432.664	49453
432.737	4610
432.811	634
432.885	-247
432.958	-553
433.032	-261
433.106	246
433.179	-59
433.253	-27
433.326	4
433.400	-1224
433.473	236
433.547	-857
433.620	602
433.694	5903
433.767	6498
433.841	1295
433.914	1478
433.988	1358
434.061	1340
434.134	901
434.208	-420
434.281	-828
434.355	-138
434.428	2367
434.501	1446
434.575	-395
434.648	241
434.721	-41
434.795	-1272
434.868	-694
434.941	-294
435.014	-307
435.088	1583
435.161	7159
435.234	10890
435.307	10759
435.381	5265
435.454	4121
435.527	6821
435.600	6446
435.673	5053
435.746	2461
435.819	1622
435.892	1062
435.966	799
436.039	305
436.112	1084
436.185	-265
436.258	-400
436.331	-1353
436.404	-1099
436.477	-381
436.550	-919
436.623	-117
436.696	-435
436.769	511
436.842	459
436.915	698
436.987	2582
437.060	565
437.133	340
437.206	-1127
437.279	258
437.352	-360
437.425	568
437.498	867
437.570	6390
437.643	5443
437.716	262
437.789	330
437.861	6461
437.934	21349
438.007	7726
438.080	745
438.152	1648
438.225	10062
438.298	85606
438.370	216478
438.443	79588
438.516	19519
438.588	3459
438.661	-632
438.734	1240
438.806	1665
438.879	2133
438.951	3948
439.024	10349
439.096	1165
439.169	426
439.241	-199
439.314	191
439.386	2174
439.459	5754
439.531	11011
439.604	2382
439.676	108
439.749	-643
439.821	-650
439.893	-325
439.966	32
440.038	2634
440.110	2351
440.183	933
440.255	-236
440.327	4561
440.400	34320
440.472	139753
440.544	78350
440.617	7956
440.689	6940
440.761	11042
440.833	17306
440.905	8568
440.978	178
441.050	-559
441.122	-274
441.194	-108
441.266	-790
441.338	770
441.411	4916
441.483	44023
441.555	58361
441.627	10664
441.699	5376
441.771	5075
441.843	-186
441.915	-610
441.987	-203
442.059	123
442.131	1587
442.203	5158
442.275	5727
442.347	6184
442.419	13830
442.491	79830
442.563	175076
442.635	64425
442.706	30600
442.778	20346
442.850	3541
442.922	1660
442.994	2680
443.066	5211
443.137	4015
443.209	4676
443.281	8247
443.353	22764
443.425	101830
443.496	334232
443.568	293364
443.640	96491
443.711	17939
443.783	6367
443.855	3236
443.926	1455
443.998	1510
444.070	3065
444.141	2784
444.213	6587
444.285	7688
444.356	7046
444.428	3534
444.499	1176
444.571	-318
444.642	684
444.714	1629
444.785	5796
444.857	7246
444.928	16635
445.000	8364
445.071	10823
445.143	14390
445.214	12217
445.285	19479
445.357	62847
445.428	227075
445.500	465964
445.571	273121
445.642	137633
445.714	47699
445.785	32435
445.856	10483
445.928	9734
445.999	7517
446.070	6626
446.141	5886
446.213	8506
446.284	3667
446.355	3230
446.426	1974
446.497	1382
446.569	5086
446.640	9905
446.711	6651
446.782	1451
446.853	2942
446.924	3543
446.995	2630
447.066	1655
447.138	4764
447.209	2546
447.280	-363
447.351	-684
447.422	-838
447.493	1521
447.564	3298
447.635	6253
447.706	934
447.777	-639
447.847	-1255
447.918	-862
447.989	1804
448.060	3037
448.131	10526
448.202	9977
448.273	5973
448.344	1095
448.414	47
448.485	668
448.556	-563
448.627	-775
448.698	-463
448.768	-1432
448.839	-464
448.910	3988
448.981	2996
449.051	1234
449.122	-706
449.193	-439
449.263	-173
449.334	-871
449.405	2038
449.475	9050
449.546	5403
449.616	5600
449.687	5298
449.758	1761
449.828	128
449.899	383
449.969	-516
450.040	-53
450.110	1406
450.181	1724
450.251	53
450.322	-129
450.392	-195
450.463	-351
450.533	-1298
450.604	186
450.674	-626
450.744	13
450.815	-1111
450.885	353
450.955	-369
451.026	-709
451.096	-654
451.166	762
451.237	6306
451.307	16270
451.377	4864
451.447	-631
451.518	-271
451.588	487
451.658	23
451.728	3176
451.799	17584
451.869	18073
451.939	2937
452.009	84
452.079	-1227
452.149	897
452.219	3493
452.289	20733
452.360	12553
452.430	1789
452.500	2004
452.570	3952
452.640	7791
452.710	22781
452.780	29139
452.850	20642
452.920	17176
452.990	4805
453.060	2035
453.129	4705
453.199	5166
453.269	26003
453.339	51410
453.409	76864
453.479	80719
453.549	112518
453.619	115702
453.688	40186
453.758	5173
453.828	1500
453.898	792
453.968	408
454.037	695
454.087	731
454.107	729
454.168	160
454.177	60
454.247	126
454.249	119
454.316	-493
454.330	-174
454.386	955
454.411	3940
454.456	8718
454.492	11457
454.525	13886
454.574	7005
454.595	4023
454.655	1104
454.665	648
454.734	1540
454.736	1658
454.804	4696
454.817	7285
454.873	17520
454.898	18177
454.943	19052
454.979	12282
455.013	6235
455.060	2902
455.082	1651
455.141	2616
455.152	2641
455.221	11909
455.222	12081
455.291	21611
455.303	19651
455.360	10630
455.384	11519
455.430	13110
455.465	11356
455.499	9401
455.546	13512
455.569	15211
455.627	9673
455.638	8730
455.707	892
455.708	908
455.777	-341
455.789	-248
455.846	201
455.869	0
455.916	-329
455.950	42
455.985	313
456.031	402
456.054	367
456.112	21
456.124	-29
456.193	-351
456.193	-370
456.262	609
456.274	875
456.332	1689
456.355	2117
456.401	2787
456.436	2147
456.470	1484
456.516	438
456.540	-149
456.597	-547
456.609	-593
456.678	482
456.678	469
456.747	450
456.759	373
456.817	16
456.840	9
456.886	-196
456.920	-62
456.955	276
457.001	500
457.024	654
457.082	1604
457.093	1714
457.162	3206
457.163	3234
457.232	4458
457.243	4137
457.301	2159
457.324	1229
457.370	184
457.405	825
457.439	1197
457.485	850
457.508	813
457.566	1797
457.577	2041
457.646	2613
457.647	2661
457.715	8222
457.727	9187
457.784	15389
457.808	20707
457.853	27474
457.889	31486
457.922	30738
457.969	19829
457.991	19843
458.050	26187
458.060	27118
458.129	46692
458.130	47199
458.198	46723
458.211	41924
458.267	21377
458.292	14095
458.336	8486
458.372	7928
458.405	11453
458.453	18654
458.474	24259
458.533	46040
458.543	47822
458.611	78219
458.614	78526
458.680	47583
458.694	37337
458.749	15744
458.775	10490
458.818	5099
458.855	3893
458.887	3229
458.936	2600
458.955	2385
459.016	1963
459.024	1938
459.093	2472
459.097	2502
459.162	2994
459.177	3186
459.230	3624
459.257	3897
459.299	4402
459.338	4515
459.368	4486
459.418	4967
459.437	4786
459.499	3820
459.505	3759
459.574	2697
459.579	2643
459.643	2257
459.659	2156
459.711	2188
459.740	2484
459.780	2898
459.820	3115
459.849	2878
459.900	2737
459.917	3070
459.981	4387
459.986	4430
460.054	4964
460.061	5003
460.123	4525
460.141	4410
460.191	4897
460.222	5358
460.260	5863
460.302	6880
460.328	6738
460.382	5068
460.397	4789
460.462	3585
460.465	3640
460.534	6298
460.543	6624
460.602	17870
460.623	22238
460.671	32734
460.703	45161
460.739	45751
460.783	38503
460.808	32465
460.864	7660
460.876	5314
460.944	3063
460.945	3035
461.013	2889
461.024	2867
461.081	3241
461.104	3782
461.150	4103
461.184	3860
461.218	4047
461.264	4253
461.286	4128
461.345	4224
461.355	4178
461.423	3055
461.425	3039
461.491	3599
461.505	3777
461.559	8106
461.585	10232
461.628	13862
461.665	18011
461.696	19959
461.745	25599
461.764	23707
461.825	8800
461.832	8332
461.901	4573
461.905	4599
461.969	4401
461.985	4190
462.037	4250
462.065	4021
462.105	3729
462.145	4154
462.173	6369
462.225	10397
462.241	11237
462.305	15780
462.310	15454
462.378	10032
462.385	8998
462.446	4839
462.465	4166
462.514	4839
462.545	5348
462.582	5395
462.625	5691
462.650	5256
462.705	3871
462.718	3793
462.785	3724
462.786	3762
462.854	5530
462.865	5975
462.922	8030
462.945	8840
462.990	7154
463.025	5051
463.058	4105
463.104	3029
463.126	3139
463.184	4033
463.194	4121
463.262	4514
463.264	4521
463.330	4236
463.344	4168
463.398	4796
463.424	5152
463.466	5327
463.504	5463
463.533	5173
463.583	4551
463.601	4688
463.663	5069
463.669	5185
463.737	6889
463.743	7054
463.805	11689
463.823	12898
463.873	17548
463.903	20908
463.940	22492
463.982	24969
464.008	21146
464.062	9690
464.076	8843
464.142	5109
464.144	5073
464.211	4380
464.221	4414
464.279	5248
464.301	5455
464.347	5780
464.381	6137
464.414	7081
464.461	8218
464.482	9391
464.540	12820
464.550	13040
464.617	14150
464.620	14178
464.685	10051
464.699	9020
464.753	9672
464.779	10067
464.820	10253
464.859	10427
464.888	10147
464.938	9667
464.956	10050
465.018	11291
465.023	11353
465.091	11954
465.098	11998
465.158	12634
465.177	12874
465.226	12393
465.257	11945
465.293	10787
465.336	9258
465.361	9878
465.416	11417
465.428	11864
465.495	14395
465.496	14466
465.563	22065
465.575	23416
465.631	28171
465.654	30365
465.698	20656
465.734	11572
465.765	10024
465.813	7640
465.833	7626
465.893	8495
465.900	8516
465.968	8344
465.972	8329
466.035	8301
466.052	8245
466.102	8512
466.131	8685
466.170	8977
466.210	9215
466.237	9647
466.290	10468
466.304	10745
466.369	11877
466.372	11897
466.439	11939
466.449	11910
466.506	13412
466.528	13964
466.573	17521
466.607	20150
466.641	26798
466.687	36045
466.708	39623
466.766	49677
466.775	46518
466.842	21799
466.845	20590
466.909	15721
466.925	14631
466.977	14329
467.004	14176
467.044	13850
467.083	13509
467.111	14940
467.163	17567
467.178	17773
467.242	18497
467.245	18439
467.312	16602
467.321	16333
467.379	15677
467.400	15397
467.446	16013
467.480	16412
467.559	14173
467.638	13125
467.717	12708
467.796	14455
467.875	15914
467.955	14485
468.034	19766
468.113	38202
468.192	56883
468.271	20033
468.350	14954
468.429	19945
468.508	21592
468.588	15913
468.667	12627
468.746	13781
468.825	11227
468.904	11235
468.983	11876
469.062	18005
469.141	21586
469.220	9893
469.299	10398
469.378	10983
469.456	13953
469.535	12689
469.614	12686
469.693	12784
469.772	16394
469.851	20963
469.930	16043
470.009	13796
470.088	14067
470.166	19577
470.245	34300
470.324	44608
470.403	29007
470.482	16674
470.560	12911
470.639	14021
470.718	15110
470.797	13519
470.875	13188
470.954	17846
471.033	19002
471.111	8972
471.190	8381
471.269	8772
471.347	8034
471.426	10006
471.505	10772
471.583	11832
471.662	11078
471.740	9875
471.819	11055
471.898	10647
471.976	8907
472.055	9542
472.133	9977
472.212	13727
472.290	13074
472.369	10063
472.447	8959
472.526	8919
472.604	9646
472.683	10773
472.761	10746
472.839	10647
472.918	10134
472.996	10617
473.075	12293
473.153	10622
473.231	9025
473.310	11263
473.388	11279
473.466	9670
473.545	12388
473.623	16206
473.701	17213
473.780	11634
473.858	9691
473.936	12691
474.014	9443
474.093	12371
474.171	14633
474.249	18954
474.327	15070
474.405	9325
474.484	9622
474.562	9410
474.640	8882
474.718	9550
474.796	11311
474.874	9383
474.952	8729
475.030	9561
475.108	11526
475.187	12582
475.265	13618
475.343	19772
475.421	21868
475.499	11737
475.577	12034
475.655	14287
475.733	21796
475.811	36597
475.889	33959
475.966	24264
476.044	9490
476.122	14159
476.200	18825
476.278	16173
476.356	8182
476.434	10121
476.512	12726
476.590	17086
476.667	15194
476.745	8557
476.823	9450
476.901	8756
476.979	9052
477.056	9673
477.134	9555
477.212	9370
477.290	8257
477.367	7614
477.445	7098
477.523	7884
477.601	7171
477.678	8155
477.756	9472
477.834	10767
477.911	8714
477.989	8162
478.066	7890
478.144	9971
478.222	12416
478.299	23141
478.377	21322
478.454	8018
478.532	7195
478.609	8069
478.687	9960
478.764	6712
478.842	8674
478.919	10169
478.997	9395
479.074	6854
479.152	9495
479.229	11060
479.307	8828
479.384	6692
479.461	6581
479.539	7753
479.616	8800
479.694	8097
479.771	8964
479.848	8826
479.926	10447
480.003	14654
480.080	8078
480.157	6385
480.235	7409
480.312	7876
480.389	6403
480.467	13148
480.544	15392
480.621	9854
480.698	9096
480.775	9469
480.853	9155
480.930	7250
481.007	8123
481.084	8814
481.161	10150
481.238	9414
481.315	6677
481.392	6913
481.470	6316
481.547	7649
481.624	6727
481.701	7185
481.778	7449
481.855	8263
481.932	12686
482.009	19995
482.086	16265
482.163	10868
482.240	16469
482.317	31314
482.393	24167
482.470	8736
482.547	9284
482.624	8447
482.701	9841
482.778	8238
482.855	7779
482.932	7608
483.009	6948
483.085	9246
483.162	11037
483.239	11627
483.316	8531
483.393	9546
483.469	7555
483.546	9299
483.623	9052
483.699	7403
483.776	7505
483.853	8707
483.930	12313
484.006	32042
484.083	53652
484.160	33616
484.236	44071
484.313	35321
484.389	26614
484.466	24797
484.543	22593
484.619	24500
484.696	26851
484.772	24832
484.849	25500
484.925	21844
485.002	20242
485.078	23630
485.155	22747
485.231	20145
485.308	19127
485.384	19817
485.461	23131
485.537	35058
485.614	44257
485.690	21220
485.766	18672
485.843	19648
485.919	29142
485.995	33082
486.072	18943
486.148	17599
486.224	18503
486.301	18463
486.377	21025
486.453	21578
486.530	20357
486.606	27140
486.682	30411
486.758	33635
486.835	38036
486.911	31374
486.987	47986
487.063	61591
487.139	76417
487.215	54080
487.292	28767
487.368	23140
487.444	26127
487.520	34734
487.596	38149
487.672	59351
487.748	175668
487.824	272184
487.900	94562
487.976	32561
488.052	26813
488.128	32682
488.204	25761
488.280	20414
488.356	22092
488.432	41925
488.508	61883
488.584	29164
488.660	21146
488.736	20152
488.812	18534
488.888	24941
488.964	33823
489.039	70488
489.115	113100
489.191	72760
489.267	20154
489.343	16997
489.418	15803
489.494	15166
489.570	13626
489.646	15346
489.722	15460
489.797	16177
489.873	23031
489.949	44694
490.024	43263
490.100	15777
490.176	14966
490.251	18519
490.327	26264
490.403	15126
490.478	14083
490.554	12248
490.629	12910
490.705	12667
490.781	14304
490.856	13382
490.932	17173
491.007	17238
491.083	16298
491.158	13943
491.234	17626
491.309	33756
491.385	37253
491.460	15424
491.536	14978
491.611	14615
491.686	15543
491.762	21747
491.837	46033
491.913	77709
491.988	106560
492.063	143779
492.139	41733
492.214	23175
492.289	13667
492.365	11217
492.440	14895
492.515	13745
492.590	13655
492.666	10881
492.741	15097
492.816	21667
492.891	13825
492.967	12241
493.042	10253
493.117	9835
493.192	9987
493.267	14087
493.342	28492
493.418	36154
493.493	13143
493.568	9989
493.643	10720
493.718	13405
493.793	18951
493.868	24300
493.943	16417
494.018	12057
494.093	10011
494.168	10715
494.243	10853
494.318	9773
494.393	9115
494.468	10123
494.543	9475
494.618	12085
494.693	10205
494.768	9861
494.842	10597
494.917	9547
494.992	10234
495.067	9452
495.142	9311
495.217	10702
495.292	10739
495.366	12681
495.441	15741
495.516	20339
495.591	26537
495.665	95245
495.740	238154
495.815	119003
495.890	16643
495.964	10997
496.039	14929
496.114	11931
496.188	14051
496.263	14889
496.338	11763
496.412	12417
496.487	16807
496.561	17701
496.636	19612
496.710	14630
496.785	15233
496.860	18779
496.934	14728
497.009	16031
497.083	15428
497.158	16259
497.232	19011
497.307	24653
497.381	21772
497.455	23603
497.530	29585
497.604	24026
497.679	23425
497.753	36133
497.827	49291
497.902	48785
497.976	51681
498.050	95435
498.125	334431
498.199	392829
498.273	85670
498.348	63224
498.422	51211
498.496	45730
498.570	41631
498.645	30841
498.719	25956
498.793	30418
498.867	38325
498.941	48200
499.016	128214
499.090	353771
499.164	161081
499.238	20875
499.312	17159
499.386	21473
499.460	20474
499.534	17439
499.609	21227
499.683	28137
499.757	26785
499.831	52555
499.905	219626
499.979	241214
500.053	37247
500.127	34865
500.201	29174
500.275	18171
500.349	16329
500.422	18330
500.496	28827
500.570	57289
500.644	132503
500.718	240139
500.792	68314
500.866	15676
500.940	17615
501.013	16033
501.087	15106
501.161	28141
501.235	35865
501.309	64658
501.382	188507
501.456	195061
501.530	41640
501.603	58978
501.677	27877
501.751	12250
501.825	14707
501.898	24035
501.972	71945
502.046	55349
502.119	14839
502.193	33969
502.266	81390
502.340	46997
502.413	32732
502.487	69678
502.561	43037
502.634	16824
502.708	12189
502.781	12049
502.855	9707
502.928	7473
503.002	8807
503.075	7655
503.149	8633
503.222	10308
503.295	9843
503.369	13503
503.442	16216
503.516	51751
503.589	140598
503.662	103865
503.736	32379
503.809	64803
503.882	62072
503.956	79437
504.029	93494
504.102	102009
504.175	146353
504.249	52855
504.322	22210
504.395	16301
504.468	11410
504.542	9433
504.615	7083
504.688	8129
504.761	5767
504.834	10206
504.907	12655
504.980	23641
505.053	11385
505.127	11749
505.200	17482
505.273	12438
505.346	8963
505.419	6554
505.492	7946
505.565	5929
505.638	5012
505.711	4412
505.784	4999
505.857	5474
505.930	7512
506.003	5723
506.076	8472
506.149	7452
506.221	10981
506.294	11442
506.367	27553
506.440	98800
506.513	65909
506.586	14017
506.659	8340
506.731	7419
506.804	8932
506.877	15182
506.950	9073
507.022	7077
507.095	7073
507.168	11931
507.241	8003
507.313	5989
507.386	6831
507.459	12651
507.531	8759
507.604	5939
507.677	5983
507.749	4023
507.822	9155
507.894	18779
507.967	24148
508.040	14156
508.112	11560
508.185	11085
508.257	8955
508.330	16229
508.402	10064
508.475	9183
508.547	10585
508.620	10406
508.692	14992
508.765	10893
508.837	7691
508.909	7207
508.982	7149
509.054	8983
509.127	8463
509.199	6619
509.271	6649
509.344	7119
509.416	5401
509.488	7113
509.560	7298
509.633	8560
509.705	10040
509.777	9402
509.849	14712
509.922	10288
509.994	6874
510.066	7751
510.138	7627
510.210	18607
510.283	17460
510.355	13985
510.427	12488
510.499	13274
510.571	12503
510.643	10357
510.715	18869
510.787	16975
510.859	12083
510.931	12349
511.003	17383
511.076	18017
511.148	9498
511.219	9218
511.291	14558
511.363	18579
511.435	10123
511.507	7237
511.579	9265
511.651	9248
511.723	8328
511.795	8974
511.867	8218
511.939	11251
512.010	19828
512.082	19337
512.154	7947
512.226	10090
512.298	14870
512.369	23221
512.441	18137
512.513	18715
512.585	13621
512.656	13755
512.728	14786
512.800	11254
512.871	10998
512.943	11854
513.015	9390
513.086	11936
513.158	12771
513.230	11932
513.301	18454
513.373	24018
513.444	14249
513.516	10112
513.588	10405
513.659	12298
513.731	15771
513.802	13599
513.874	27274
513.945	53479
514.016	20334
514.088	11310
514.159	11875
514.231	17311
514.302	21876
514.374	16474
514.445	14440
514.516	26317
514.588	20575
514.659	15335
514.730	22716
514.802	22665
514.873	18859
514.944	21198
515.016	16160
515.087	17575
515.158	19630
515.229	25850
515.301	20804
515.372	29621
515.443	19275
515.514	13527
515.585	10316
515.656	12919
515.728	12003
515.799	10284
515.870	11733
515.941	13370
516.012	13264
516.083	18630
516.154	21100
516.225	29110
516.296	29872
516.367	27973
516.438	34079
516.509	44801
516.580	62996
516.651	208861
516.722	801525
516.793	409287
516.864	67960
516.935	61416
517.006	68680
517.077	91234
517.148	199222
517.219	876601
517.289	1542471
517.360	335485
517.431	87097
517.502	29440
517.573	27401
517.643	24264
517.714	26755
517.785	28849
517.856	32673
517.926	43378
517.997	53776
518.068	71952
518.138	96474
518.209	144173
518.280	549223
518.350	2096098
518.421	1013090
518.492	116000
518.562	52946
518.633	42985
518.703	41469
518.774	70290
518.845	175026
518.915	183676
518.986	57681
519.056	34338
519.127	47415
519.197	67914
519.268	127116
519.338	91721
519.408	24882
519.479	30338
519.549	23956
519.620	17252
519.690	11891
519.760	12864
519.831	12728
519.901	13569
519.971	11832
520.042	12790
520.112	15069
520.182	19826
520.253	23810
520.323	21847
520.393	52704
520.463	104408
520.534	65042
520.604	158861
520.674	50170
520.744	40042
520.814	164885
520.885	132023
520.955	41371
521.025	134669
521.095	69204
521.165	14025
521.235	12026
521.305	10113
521.375	9769
521.445	12659
521.515	15209
521.585	19539
521.655	17007
521.725	15157
521.795	14365
521.865	8463
521.935	15069
522.005	13499
522.075	8160
522.145	11654
522.215	10697
522.285	16503
522.355	20641
522.424	36838
522.494	35256
522.564	20537
522.634	35888
522.704	117953
522.774	54172
522.843	13054
522.913	11127
522.983	16000
523.053	12139
523.122	11633
523.192	15285
523.262	60967
523.331	70517
523.401	14859
523.471	8693
523.540	9615
523.610	7444
523.680	7110
523.749	7761
523.819	10154
523.888	9576
523.958	7876
524.027	8308
524.097	9513
524.166	8511
524.236	9360
524.305	10202
524.375	6889
524.444	6769
524.514	9479
524.583	7538
524.653	10575
524.722	14352
524.791	10369
524.861	8891
524.930	7351
524.999	8061
525.069	13235
525.138	10672
525.207	12162
525.277	9387
525.346	8849
525.415	9693
525.484	11028
525.554	11833
525.623	13482
525.692	13950
525.761	16085
525.830	18402
525.900	23823
525.969	34906
526.038	58138
526.107	115074
526.176	361991
526.245	317850
526.314	96958
526.383	181387
526.452	261876
526.522	404085
526.591	448611
526.660	110638
526.729	58634
526.797	55703
526.867	97992
526.935	407600
527.004	907042
527.073	563893
527.142	57470
527.211	22797
527.280	17895
527.349	18643
527.418	10522
527.487	11884
527.555	9475
527.624	8740
527.693	7090
527.762	9301
527.831	6641
527.899	7703
527.968	7247
528.037	6612
528.106	10107
528.174	19225
528.243	16002
528.312	20271
528.380	31043
528.449	9429
528.518	8074
528.586	4432
528.655	6709
528.723	5774
528.792	5157
528.861	5812
528.929	5772
528.998	5748
529.066	6217
529.135	5289
529.203	5795
529.272	5249
529.340	7022
529.409	7260
529.477	5703
529.545	7848
529.614	12721
529.682	14083
529.751	16309
529.819	21897
529.887	13209
529.956	6344
530.024	8640
530.092	6874
530.161	8761
530.229	14151
530.297	8890
530.365	6294
530.434	6183
530.502	4484
530.570	6026
530.638	3394
530.707	6570
530.775	8495
530.843	4526
530.911	5428
530.979	6175
531.047	5099
531.115	6070
531.183	5693
531.252	6646
531.320	6085
531.388	5467
531.456	5900
531.524	4826
531.592	6114
531.660	9194
531.728	5330
531.796	5937
531.864	7064
531.932	7323
532.000	6551
532.067	7541
532.135	7386
532.203	10607
532.271	9924
532.339	18165
532.407	52185
532.475	36305
532.542	16090
532.610	15603
532.678	19615
532.746	80962
532.814	245450
532.881	73715
532.949	14165
533.017	9816
533.084	8042
533.152	7191
533.220	7657
533.287	8872
533.355	6385
533.423	7016
533.490	5791
533.558	6482
533.625	7920
533.693	8571
533.761	8074
533.828	9062
533.896	8085
533.963	17784
534.031	22452
534.098	32635
534.166	17463
534.233	8579
534.300	10444
534.368	11529
534.435	10048
534.503	13401
534.570	23094
534.637	18631
534.705	15512
534.772	20483
534.840	36467
534.907	156536
534.974	227396
535.041	29576
535.109	14841
535.176	9721
535.243	8257
535.310	8867
535.378	8089
535.445	7571
535.512	7727
535.579	8031
535.646	7392
535.714	8026
535.781	10490
535.848	10191
535.915	10044
535.982	9864
536.049	8822
536.116	10162
536.183	8990
536.250	9880
536.317	9975
536.384	11175
536.451	17962
536.518	20580
536.585	12424
536.652	17352
536.719	24462
536.786	20477
536.853	15481
536.920	21851
536.987	34623
537.053	32345
537.120	110974
537.187	114906
537.254	15000
537.321	11142
537.388	11523
537.454	8893
537.521	8782
537.588	8459
537.654	9905
537.721	12435
537.788	12794
537.855	9594
537.921	10209
537.988	10048
538.055	10516
538.121	9867
538.188	11593
538.254	16766
538.321	36080
538.388	25256
538.454	11637
538.521	10889
538.587	9776
538.654	10302
538.720	9892
538.787	10731
538.853	10550
538.920	12522
538.986	12393
539.053	11593
539.119	11263
539.185	11980
539.252	13964
539.318	20916
539.385	17863
539.451	14605
539.517	14299
539.583	16253
539.650	29928
539.716	88145
539.782	30976
539.849	12096
539.915	12086
539.981	13560
540.047	15517
540.114	13452
540.180	13714
540.246	12990
540.312	18453
540.378	35733
540.444	37883
540.510	34068
540.576	99640
540.643	41282
540.709	13048
540.775	12812
540.841	11882
540.907	19072
540.973	42336
541.039	27939
541.105	23596
541.171	13545
541.237	11480
541.303	13801
541.369	14634
541.435	17457
541.500	32842
541.566	23069
541.632	12077
541.698	10098
541.764	11460
541.830	10146
541.896	8890
541.961	11348
542.027	11438
542.093	11972
542.159	12965
542.224	12957
542.290	19483
542.356	30853
542.421	38949
542.487	19196
542.553	12975
542.618	13052
542.684	12276
542.750	12976
542.815	14472
542.881	22588
542.947	82024
543.012	71844
543.078	14279
543.143	12041
543.209	12380
543.274	12672
543.340	14621
543.405	30907
543.471	54969
543.536	16323
543.602	12060
543.667	9940
543.732	11378
543.798	10229
543.863	10231
543.928	10268
543.994	9847
544.059	11140
544.124	10877
544.190	10990
544.255	11825
544.320	12921
544.386	13069
544.451	17709
544.516	21178
544.581	20092
544.646	51307
544.712	93200
544.777	22453
544.842	15188
544.907	14200
544.972	12725
545.037	13568
545.102	14906
545.168	14980
545.233	15368
545.298	16752
545.363	18073
545.428	19979
545.493	32864
545.558	73026
545.623	35970
545.688	15822
545.753	15939
545.818	14362
545.883	16699
545.947	14454
546.012	16350
546.077	17499
546.142	17871
546.207	18150
546.272	21918
546.337	24717
546.401	20783
546.466	19511
546.531	17995
546.596	20638
546.661	20937
546.725	21567
546.790	20420
546.855	21922
546.919	22823
546.984	25872
547.049	28266
547.113	31749
547.178	33278
547.243	37569
547.307	43974
547.372	49144
547.436	51351
547.501	48919
547.565	52570
547.630	53977
547.695	51976
547.759	50855
547.823	48936
547.888	47584
547.952	48329
548.017	49666
548.081	54489
548.146	58487
548.210	55693
548.274	54970
548.339	55397
548.403	50003
548.468	47469
548.532	46633
548.596	47101
548.660	46836
548.725	52048
548.789	59305
548.853	58623
548.917	52674
548.982	57065
549.046	53909
549.110	42616
549.174	42930
549.238	47952
549.303	53425
549.367	55985
549.431	53401
549.495	48764
549.559	49425
549.623	56714
549.687	63808
549.751	69693
549.815	74767
549.879	75606
549.943	68749
550.007	74325
550.071	74998
550.135	72060
550.199	64773
550.263	62974
550.327	60757
550.391	65885
550.455	68377
550.519	70179
550.582	74186
550.646	88962
550.710	93234
550.774	83640
550.838	85346
550.901	87450
550.965	92599
551.029	96158
551.093	105479
551.156	116681
551.220	148952
551.284	181363
551.347	122529
551.411	120869
551.475	127437
551.538	93848
551.602	85573
551.666	78925
551.729	73614
551.793	72435
551.856	70466
551.920	70061
551.983	70210
552.047	68758
552.110	68690
552.174	69673
552.237	71291
552.301	67823
552.364	63744
552.428	62549
552.491	64660
552.554	67879
552.618	67521
552.681	71641
552.745	74251
552.808	103002
552.871	141015
552.934	96780
552.998	72833
553.061	68725
553.124	64503
553.187	62211
553.251	63874
553.314	63670
553.377	63824
553.440	68783
553.503	80396
553.567	91202
553.630	70020
553.693	67396
553.756	67272
553.819	65485
553.882	61494
553.945	64530
554.008	62177
554.071	62376
554.134	65651
554.197	60620
554.260	57495
554.323	60980
554.386	62330
554.449	64423
554.512	62518
554.575	60175
554.638	61116
554.701	61174
554.764	59868
554.827	57432
554.889	55613
554.952	51521
555.015	50104
555.078	51785
555.141	53861
555.203	50992
555.266	52163
555.329	51325
555.391	48667
555.454	49969
555.517	49830
555.580	45674
555.642	44852
555.705	44404
555.768	43805
555.830	43649
555.893	41183
555.955	39374
556.018	40128
556.080	39591
556.143	40980
556.206	40509
556.268	41148
556.330	40030
556.393	38933
556.455	38063
556.518	41407
556.580	43639
556.643	34695
556.705	34151
556.767	31982
556.830	33421
556.892	35836
556.955	44844
557.017	38652
557.079	32647
557.142	31642
557.204	34308
557.266	50744
557.328	48062
557.391	28800
557.453	26983
557.515	27747
557.577	32172
557.639	33824
557.701	29383
557.764	28573
557.826	29326
557.888	32702
557.950	34077
558.012	36073
558.074	46903
558.136	104346
558.198	278907
558.260	108934
558.322	43157
558.384	43218
558.446	48708
558.508	53819
558.570	66011
558.632	89866
558.694	125501
558.756	150883
558.818	462630
558.880	1242744
558.942	434495
559.003	301282
559.065	159291
559.127	61396
559.189	59625
559.251	64482
559.312	87743
559.374	217384
559.436	797718
559.498	430286
559.559	74045
559.621	57116
559.683	62538
559.744	101910
559.806	354539
559.868	589323
559.929	117746
559.991	60687
560.052	87187
560.114	259639
560.176	178233
560.237	143582
560.299	257791
560.360	60673
560.422	25278
560.483	20724
560.545	20676
560.606	18852
560.667	17266
560.729	17554
560.790	16709
560.852	17168
560.913	15794
560.974	16193
561.036	15827
561.097	15966
561.158	16484
561.220	16964
561.281	16683
561.342	16981
561.403	19063
561.465	21598
561.526	48967
561.587	70518
561.648	23593
561.709	16435
561.771	15781
561.832	15056
561.893	15422
561.954	14591
562.015	15547
562.076	14309
562.137	15244
562.198	14545
562.259	15439
562.320	15691
562.381	16870
562.442	24249
562.503	20162
562.564	15102
562.625	14730
562.686	14656
562.747	16924
562.808	15068
562.869	14549
562.930	16418
562.991	15728
563.051	14415
563.112	14686
563.173	12886
563.234	14422
563.294	13275
563.355	14354
563.416	14044
563.477	14202
563.537	14167
563.598	14419
563.659	14734
563.720	14604
563.780	15193
563.841	15388
563.901	14275
563.962	14350
564.023	14479
564.083	14411
564.144	14515
564.204	15010
564.265	14835
564.325	16855
564.386	26423
564.446	26213
564.507	13541
564.567	14314
564.628	14258
564.688	14137
564.749	14293
564.809	15764
564.869	16774
564.930	15540
564.990	14563
565.050	13624
565.111	13589
565.171	13497
565.231	14034
565.292	14946
565.352	13214
565.412	14285
565.472	14676
565.532	15672
565.593	14655
565.653	15201
565.713	15098
565.773	16435
565.833	18561
565.893	23390
565.953	16232
566.013	14919
566.074	15602
566.134	18251
566.194	26120
566.254	29092
566.314	20940
566.374	16225
566.434	17248
566.494	17365
566.554	16657
566.614	17386
566.673	18490
566.733	19036
566.793	20335
566.853	21643
566.913	21023
566.973	22468
567.033	22931
567.092	23871
567.152	22335
567.212	23731
567.272	22162
567.331	24471
567.391	23805
567.451	25848
567.511	30290
567.570	31989
567.630	24452
567.690	22950
567.749	23583
567.809	25918
567.868	28785
567.928	31921
567.988	36676
568.047	42406
568.107	50844
568.166	72016
568.226	117644
568.285	171212
568.345	144323
568.404	110943
568.464	91226
568.523	83637
568.582	82798
568.642	91631
568.701	113695
568.761	173501
568.820	286306
568.879	282687
568.939	199501
568.998	139189
569.057	102213
569.116	79235
569.176	62122
569.235	51949
569.294	43987
569.353	39582
569.413	35346
569.472	31613
569.531	28391
569.590	25195
569.649	24792
569.708	22602
569.767	23267
569.827	26583
569.886	23846
569.945	19834
570.004	19951
570.063	18944
570.122	20170
570.181	19933
570.240	19105
570.299	20210
570.358	22751
570.417	16535
570.475	15226
570.534	16915
570.593	16565
570.652	18521
570.711	18176
570.770	16515
570.829	18330
570.887	18230
570.946	19364
571.005	15476
571.064	16407
571.122	19298
571.181	19115
571.240	15860
571.299	13633
571.357	14963
571.416	14995
571.475	16703
571.533	17178
571.592	15129
571.650	15507
571.709	13951
571.768	14619
571.826	15667
571.885	13233
571.943	12690
572.002	13834
572.060	13379
572.119	12928
572.177	13085
572.236	11084
572.294	12615
572.352	12732
572.411	13385
572.469	11920
572.528	12330
572.586	12974
572.644	13979
572.703	19238
572.761	15135
572.819	12462
572.877	11793
572.936	11015
572.994	11620
573.052	11943
573.110	13921
573.169	12671
573.227	11622
573.285	11368
573.343	12893
573.401	11821
573.459	12778
573.517	12828
573.576	12410
573.634	11788
573.692	13158
573.750	11908
573.808	11983
573.866	11680
573.924	14908
573.982	13893
574.040	11274
574.098	11428
574.155	10698
574.213	10947
574.271	11487
574.329	11759
574.387	11043
574.445	10680
574.503	9784
574.560	9652
574.618	11295
574.676	10586
574.734	10591
574.792	10832
574.849	10736
574.907	9585
574.965	9663
575.022	9463
575.080	9520
575.138	11025
575.195	10687
575.253	10305
575.311	12581
575.368	11459
575.426	10370
575.483	10890
575.541	10084
575.598	9904
575.656	11021
575.713	10140
575.771	10470
575.828	9552
575.886	9878
575.943	9819
576.001	10884
576.058	10442
576.115	11485
576.173	13455
576.230	13652
576.287	15854
576.345	13462
576.402	11963
576.459	11445
576.517	10538
576.574	11229
576.631	12137
576.688	11588
576.746	10018
576.803	10786
576.860	10997
576.917	11052
576.974	10337
577.031	10673
577.089	10828
577.146	10971
577.203	10652
577.260	11451
577.317	11249
577.374	13143
577.431	11828
577.488	11405
577.545	10522
577.602	10004
577.659	10496
577.716	10484
577.773	10083
577.830	10545
577.886	10627
577.943	10405
578.000	10124
578.057	10582
578.114	10980
578.171	11039
578.227	11692
578.284	11269
578.341	11327
578.398	11015
578.454	12018
578.511	12244
578.568	14039
578.625	12664
578.681	11042
578.738	10505
578.794	10764
578.851	10523
578.908	10842
578.964	12253
579.021	12428
579.077	11998
579.134	11710
579.190	11295
579.247	10748
579.303	10300
579.360	10738
579.416	11740
579.473	10369
579.529	10294
579.586	10009
579.642	10676
579.698	10854
579.755	12180
579.811	10113
579.867	11839
579.924	10427
579.980	11103
580.036	11221
580.093	11154
580.149	12100
580.205	12428
580.261	11298
580.317	11529
580.374	12796
580.430	14612
580.486	13365
580.542	12059
580.598	10810
580.619	11344
580.654	12281
580.692	11854
580.710	11657
580.765	12561
580.767	12601
580.823	12115
580.838	11990
580.879	11681
580.911	11697
580.935	11725
580.984	12229
580.991	12306
581.047	12321
581.057	12290
581.103	12230
581.130	12237
581.159	12227
581.203	12249
581.215	12275
581.270	12521
581.276	12435
581.326	11625
581.349	11842
581.382	12224
581.422	12606
581.438	12760
581.494	11852
581.494	11856
581.550	12965
581.567	13052
581.606	13189
581.640	12287
581.661	11775
581.713	12996
581.717	13096
581.773	11983
581.786	12113
581.829	12575
581.859	12750
581.885	12898
581.932	13437
581.940	13537
581.996	13961
582.004	13746
582.052	12514
582.077	12670
582.107	12900
582.150	12918
582.163	12930
582.219	12770
582.223	12811
582.274	13384
582.296	13246
582.330	12968
582.368	13506
582.386	13786
582.441	13711
582.441	13712
582.497	13722
582.514	13479
582.552	13105
582.587	13844
582.608	14155
582.659	13284
582.663	13227
582.719	13915
582.732	13812
582.774	13636
582.805	14100
582.830	14477
582.877	14953
582.885	15009
582.941	13436
582.950	13633
582.996	14724
583.023	14534
583.052	14306
583.095	15345
583.107	15665
583.162	15071
583.168	15214
583.218	16199
583.240	15809
583.273	15222
583.313	14434
583.328	14215
583.384	14151
583.385	14161
583.439	14378
583.458	14526
583.494	14628
583.531	14941
583.549	15265
583.603	15163
583.605	15146
583.660	15304
583.676	15271
583.715	15299
583.748	15693
583.770	16024
583.820	15962
583.825	15942
583.881	16404
583.893	16218
583.936	15671
583.965	15821
583.991	15836
584.038	16477
584.046	16624
584.101	16705
584.110	16686
584.156	16760
584.183	16902
584.211	16744
584.255	16779
584.266	16880
584.321	17416
584.328	17437
584.376	17785
584.400	17940
584.431	17919
584.472	18065
584.486	18130
584.541	18501
584.545	18476
584.596	18514
584.617	18897
584.651	19447
584.689	20253
584.706	20563
584.761	20512
584.762	20513
584.816	21095
584.834	21026
584.871	21067
584.906	21580
584.926	21740
584.978	22045
584.980	22080
585.035	23523
585.051	23951
585.090	25080
585.123	25881
585.145	26363
585.195	28168
585.200	28426
585.254	30973
585.267	31802
585.309	34214
585.340	36099
585.364	37720
585.412	40611
585.419	41129
585.473	46749
585.484	48084
585.528	55829
585.556	64837
585.583	83886
585.628	131030
585.637	148010
585.692	300617
585.700	328557
585.747	429090
585.772	363748
585.801	229692
585.845	88037
585.856	70695
585.910	46421
585.917	44081
585.965	37922
585.989	36102
586.019	35072
586.061	34257
586.074	34159
586.128	34524
586.133	34552
586.183	35668
586.205	35895
586.237	35764
586.277	35897
586.292	36031
586.346	36189
586.349	36174
586.401	36721
586.421	37057
586.455	38046
586.493	39672
586.509	41272
586.564	46697
586.565	46887
586.618	59427
586.637	61280
586.672	56747
586.709	49876
586.727	48232
586.781	48267
586.781	48299
586.835	44946
586.853	44380
586.889	44609
586.925	45132
586.944	45692
586.996	47388
586.998	47481
587.052	49345
587.068	49497
587.106	49840
587.140	51262
587.161	52292
587.212	53869
587.215	54040
587.269	57335
587.284	58097
587.323	59815
587.356	61183
587.377	62257
587.427	64719
587.431	65042
587.485	68477
587.499	69506
587.539	72590
587.571	74838
587.593	76602
587.643	80784
587.648	81348
587.702	86354
587.715	87862
587.755	93468
587.786	97222
587.810	100364
587.858	106566
587.864	107602
587.917	118122
587.930	120416
587.971	129688
588.001	136999
588.025	143547
588.073	155216
588.079	157133
588.133	176263
588.145	180310
588.187	198499
588.217	212131
588.241	226055
588.288	253735
588.295	258294
588.348	298115
588.360	306828
588.402	347215
588.431	376345
588.456	406351
588.503	466745
588.510	478444
588.564	577365
588.575	598762
588.617	710718
588.646	793862
588.671	900539
588.718	1120634
588.725	1170450
588.778	1576861
588.789	1663952
588.832	2066831
588.861	2337090
588.886	2405987
588.932	2396630
588.939	2371906
588.993	2061032
589.004	2051295
589.047	2370642
589.075	2481482
589.100	2271594
589.147	1780714
589.154	1726923
589.207	1339721
589.218	1266964
589.261	1156170
589.290	1096768
589.314	1128224
589.361	1211058
589.368	1248939
589.421	1585107
589.433	1662189
589.475	2034610
589.504	2280677
589.528	2288767
589.576	2153888
589.582	2148673
589.635	2192326
589.647	2172424
589.689	1741087
589.718	1407238
589.742	1196030
589.790	813170
589.795	790459
589.849	593429
589.861	550140
589.902	468663
589.932	410041
589.955	378415
590.004	313590
590.009	309633
590.062	266241
590.075	255492
590.115	233411
590.146	216385
590.168	207284
590.218	187318
590.222	186402
590.275	171148
590.289	167001
590.328	157760
590.360	149942
590.381	145874
590.431	135851
590.435	135547
590.488	126550
590.503	124000
590.541	118984
590.574	114148
590.594	112161
590.645	106776
590.647	106765
590.700	101461
590.716	99727
590.753	97633
590.787	95500
590.806	94308
590.859	90163
590.859	90272
590.912	86978
590.930	85588
590.965	83786
591.001	82130
591.018	82064
591.071	81045
591.072	80878
591.124	78273
591.143	77116
591.177	76359
591.214	75220
591.230	74966
591.283	73803
591.285	73600
591.336	72309
591.356	71746
591.389	71396
591.427	70285
591.442	69802
591.495	67470
591.498	67183
591.547	64674
591.569	63263
591.600	63405
591.640	63345
591.653	63559
591.706	63895
591.711	63812
591.759	63980
591.782	63820
591.811	63964
591.853	63918
591.864	63547
591.917	60771
591.924	60253
591.969	60303
591.995	60214
592.022	60140
592.066	59549
592.075	60064
592.127	62473
592.137	62804
592.180	63975
592.208	64396
592.233	62029
592.279	57150
592.285	57218
592.338	56809
592.350	56608
592.390	56117
592.421	55521
592.443	55625
592.491	55478
592.495	55673
592.548	56721
592.562	56888
592.600	56186
592.633	55341
592.653	54876
592.704	53062
592.705	53399
592.775	55041
592.846	54791
592.916	56279
592.987	55957
593.058	55465
593.128	51348
593.199	52363
593.270	52682
593.341	50960
593.411	52717
593.482	52306
593.553	52719
593.623	51877
593.694	52724
593.764	53703
593.835	51557
593.906	53320
593.976	51452
594.047	53738
594.117	57968
594.188	57144
594.258	51605
594.329	52439
594.399	54335
594.470	52322
594.540	53591
594.611	55712
594.681	53192
594.751	54010
594.822	57668
594.892	58210
594.963	59759
595.033	59042
595.103	59066
595.174	62304
595.244	71187
595.314	76434
595.384	62655
595.455	61710
595.525	64346
595.595	65427
595.665	64687
595.736	62668
595.806	63656
595.876	63119
595.946	63286
596.016	66501
596.087	67525
596.157	65587
596.227	65899
596.297	70583
596.367	73145
596.437	77752
596.507	84644
596.577	89532
596.647	79133
596.717	78845
596.787	81578
596.857	80636
596.927	80874
596.997	79933
597.067	80681
597.137	83358
597.207	83074
597.277	83442
597.347	80458
597.417	78628
597.487	79523
597.557	82677
597.626	83167
597.696	85177
597.766	88899
597.836	91182
597.906	76855
597.975	73001
598.045	74516
598.115	77951
598.185	80854
598.254	90473
598.324	96829
598.394	98475
598.464	96126
598.533	93339
598.603	87112
598.672	86218
598.742	87034
598.812	85723
598.881	88231
598.951	88520
599.020	89136
599.090	91765
599.159	92624
599.229	89292
599.299	85649
599.368	89861
599.437	88665
599.507	81488
599.576	79913
599.646	79590
599.715	77946
599.785	77651
599.854	77523
599.924	77767
599.993	76242
600.062	77784
600.132	76024
600.201	82276
600.270	95330
600.340	98149
600.409	94616
600.478	93764
600.547	97344
600.617	88864
600.686	74045
600.755	67998
600.824	66695
600.894	65009
600.963	62748
601.032	63533
601.101	62503
601.170	59331
601.239	58501
601.308	60154
601.378	60234
601.447	58077
601.516	57658
601.585	60605
601.654	63930
601.723	60264
601.792	61773
601.861	62929
601.930	66803
601.999	68422
602.068	66764
602.137	69854
602.206	69872
602.275	67722
602.343	72618
602.412	72116
602.481	68135
602.550	68082
602.619	70551
602.688	70399
602.756	69703
602.825	71333
602.894	71476
602.963	72868
603.032	74407
603.100	74645
603.169	75130
603.238	75524
603.307	73749
603.375	75715
603.444	76506
603.513	77855
603.581	78810
603.650	80263
603.719	77421
603.787	79864
603.856	82493
603.924	84524
603.993	86922
604.061	88160
604.130	93650
604.198	95232
604.267	95460
604.335	98016
604.404	97692
604.472	98355
604.541	99605
604.609	100879
604.678	100117
604.746	101503
604.815	103951
604.883	105811
604.951	105791
605.020	106580
605.088	108790
605.156	110549
605.225	111355
605.293	111218
605.361	112127
605.429	115011
605.498	116849
605.566	118639
605.634	124767
605.702	127312
605.771	131359
605.839	131338
605.907	128855
605.975	124499
606.043	121534
606.111	123091
606.180	122193
606.248	119182
606.316	120563
606.384	120608
606.452	125641
606.520	128727
606.588	127788
606.656	126046
606.724	124136
606.792	116174
606.860	104401
606.928	95984
606.996	93124
607.064	92136
607.132	92885
607.200	99097
607.267	102311
607.335	104595
607.403	106268
607.471	101780
607.539	99027
607.607	100474
607.674	89025
607.742	91134
607.810	89499
607.878	90249
607.946	90824
608.013	95632
608.081	97613
608.149	98115
608.216	100996
608.284	102614
608.352	102706
608.419	102580
608.487	106631
608.555	100703
608.622	101284
608.690	107507
608.757	118088
608.825	121590
608.893	118896
608.960	116503
609.028	114775
609.095	116216
609.163	106652
609.230	95943
609.298	89524
609.365	93528
609.432	98515
609.500	110275
609.567	124149
609.635	142371
609.702	149493
609.769	143231
609.837	112688
609.904	98936
609.971	101964
610.039	119685
610.106	164187
610.173	320410
610.241	725934
610.308	472280
610.375	207818
610.442	119603
610.509	103314
610.577	101972
610.644	101260
610.711	104020
610.778	106131
610.845	110250
610.912	117273
610.980	120929
611.047	122888
611.114	120128
611.181	114781
611.248	112994
611.315	120932
611.382	123125
611.449	126646
611.516	129681
611.583	127668
611.650	130824
611.717	131908
611.784	134341
611.851	143163
611.918	158829
611.984	190217
612.051	282752
612.118	591476
612.185	1427794
612.252	816646
612.319	217810
612.386	174604
612.452	158084
612.519	151563
612.586	153709
612.653	150711
612.719	153202
612.786	143831
612.853	133960
612.919	129357
612.986	133425
613.053	123846
613.120	117596
613.186	112550
613.253	115655
613.319	114438
613.386	115663
613.453	119245
613.519	123063
613.586	125578
613.652	135273
613.719	127821
613.785	126206
613.852	120145
613.918	117704
613.985	120898
614.051	125059
614.118	128728
614.184	123205
614.250	118687
614.317	119923
614.383	118824
614.449	119564
614.516	120071
614.582	121395
614.648	118268
614.715	117857
614.781	115087
614.847	116937
614.914	114381
614.980	113287
615.046	113600
615.112	116888
615.179	117843
615.245	124646
615.311	132947
615.377	164877
615.443	167097
615.509	135376
615.575	130553
615.642	128137
615.708	133153
615.774	143053
615.840	154658
615.906	179121
615.972	245993
616.038	424285
616.104	799667
616.170	1739208
616.236	1350713
616.302	318899
616.368	226717
616.434	167542
616.500	155424
616.565	168945
616.631	206657
616.697	171566
616.763	178266
616.829	268134
616.895	468056
616.961	426535
617.026	184825
617.092	133138
617.158	124076
617.224	122108
617.289	112336
617.355	108696
617.421	105397
617.487	106245
617.552	99863
617.618	98981
617.684	99759
617.749	102090
617.815	95664
617.880	93249
617.946	94092
618.012	94724
618.077	97400
618.143	94580
618.208	93980
618.274	102455
618.339	102267
618.405	85183
618.470	85700
618.536	87148
618.601	85884
618.667	79781
618.732	76261
618.798	75912
618.863	74826
618.928	73907
618.994	76058
619.059	79148
619.124	88717
619.190	78315
619.255	72830
619.320	74076
619.386	74613
619.451	71220
619.516	69558
619.581	72128
619.647	73171
619.712	74295
619.777	71190
619.842	73131
619.907	73706
619.972	74355
620.038	73744
620.103	70971
620.168	69992
620.233	72808
620.298	72618
620.363	72598
620.428	75321
620.493	75364
620.558	75495
620.623	77907
620.688	76527
620.753	77045
620.818	77881
620.883	77886
620.948	78429
621.013	76709
621.078	76410
621.143	77619
621.207	80635
621.272	79604
621.337	76592
621.402	77317
621.467	82148
621.532	82645
621.596	79392
621.661	76090
621.726	72720
621.791	73266
621.855	76032
621.920	75642
621.985	77064
622.049	81624
622.114	78456
622.179	79002
622.243	80285
622.308	81741
622.373	85209
622.437	83816
622.502	77039
622.566	77254
622.631	77381
622.695	79652
622.760	79314
622.824	77968
622.889	79451
622.953	83281
623.018	99862
623.082	97590
623.147	83868
623.211	81324
623.276	82423
623.340	76498
623.404	75031
623.469	75538
623.533	76075
623.597	74230
623.662	74596
623.726	68251
623.790	65192
623.854	64205
623.919	66365
623.983	66949
624.047	67310
624.111	67655
624.176	69753
624.240	73175
624.304	75638
624.368	69075
624.432	68425
624.496	71595
624.560	76806
624.625	78054
624.689	73740
624.753	76130
624.817	72684
624.881	70021
624.945	65672
625.009	63199
625.073	65213
625.137	69496
625.201	76883
625.265	76005
625.329	66297
625.393	69707
625.456	69164
625.520	71602
625.584	73569
625.648	79709
625.712	93452
625.776	138594
625.839	141225
625.903	78787
625.967	61616
626.031	79557
626.095	104518
626.158	68298
626.222	51241
626.286	48909
626.349	47753
626.413	45823
626.477	46743
626.540	46288
626.604	45097
626.668	46058
626.731	43156
626.795	45370
626.858	44536
626.922	43751
626.986	45391
627.049	42819
627.113	45789
627.176	43239
627.240	42563
627.303	42315
627.366	43037
627.430	44094
627.493	43438
627.557	42138
627.620	43995
627.684	45225
627.747	44366
627.810	40546
627.874	38301
627.937	35589
628.000	41281
628.064	37829
628.127	33967
628.190	35149
628.253	34263
628.317	32031
628.380	31574
628.443	31683
628.506	30547
628.569	31248
628.632	28581
628.696	28952
628.759	28891
628.822	26859
628.885	27126
628.948	27465
629.011	26300
629.074	27121
629.137	25321
629.200	25635
629.263	27091
629.326	24367
629.389	25150
629.452	25610
629.515	25869
629.578	25010
629.641	26067
629.704	25800
629.767	25568
629.830	24042
629.892	24421
629.955	22996
630.018	26497
630.081	27071
630.144	29482
630.207	25072
630.269	26199
630.332	25756
630.395	23680
630.458	22909
630.520	22579
630.583	24001
630.646	22163
630.708	22698
630.771	22164
630.834	23863
630.896	23073
630.959	23310
631.021	21696
631.084	23931
631.146	24149
631.209	25645
631.272	22500
631.334	24000
631.397	22766
631.459	23738
631.522	24819
631.584	25739
631.646	25477
631.709	28844
631.771	31049
631.834	27592
631.896	25010
631.958	23049
632.021	23867
632.083	22177
632.145	22066
632.208	22320
632.270	22748
632.332	20270
632.395	19916
632.457	22876
632.519	21880
632.581	22205
632.643	20780
632.706	21495
632.768	20466
632.830	21346
632.892	20648
632.954	20339
633.016	21192
633.078	21199
633.141	20733
633.203	20695
633.265	21449
633.327	21628
633.389	21122
633.451	24157
633.513	25124
633.575	25127
633.637	24450
633.698	23522
633.760	22663
633.822	23070
633.884	23237
633.946	23061
634.008	23809
634.070	24883
634.132	26038
634.193	26914
634.255	29656
634.317	30663
634.379	30569
634.441	27223
634.502	24959
634.564	23691
634.626	22013
634.687	21243
634.749	21054
634.811	20280
634.873	19365
634.934	19529
634.996	20810
635.057	20902
635.119	19339
635.181	21574
635.242	21354
635.304	18674
635.365	22530
635.427	19664
635.488	20260
635.550	19995
635.611	20548
635.673	19087
635.734	22468
635.796	22367
635.857	25701
635.918	25338
635.980	28023
636.041	28748
636.102	30780
636.164	31761
636.225	30593
636.286	24325
636.348	24277
636.409	22425
636.470	20671
636.531	20488
636.593	21713
636.654	19889
636.715	17925
636.776	18006
636.838	16963
636.899	18015
636.960	16881
637.021	16919
637.082	16666
637.143	17167
637.204	15677
637.265	16520
637.326	16635
637.387	17111
637.448	15339
637.509	16498
637.570	16282
637.631	17263
637.692	14411
637.753	15266
637.814	15689
637.875	15275
637.936	16161
637.997	15298
638.058	14970
638.119	16157
638.179	14705
638.240	15698
638.301	14916
638.362	14038
638.423	14894
638.483	16334
638.544	13033
638.605	15500
638.666	13311
638.726	14692
638.787	15448
638.848	14671
638.908	14342
638.969	14290
639.030	13196
639.090	13358
639.151	13877
639.211	16410
639.272	19032
639.332	25477
639.393	16996
639.453	15042
639.514	15270
639.574	14610
639.635	12594
639.695	13973
639.756	12691
639.816	14190
639.877	15746
639.937	23292
639.997	27140
640.058	14331
640.118	12577
640.178	13326
640.239	12617
640.299	12234
640.359	12610
640.420	14118
640.480	14100
640.540	16896
640.600	16309
640.661	15820
640.721	14449
640.781	18858
640.841	14332
640.901	14326
640.961	13897
641.021	15129
641.082	16456
641.142	20178
641.202	15068
641.262	10857
641.322	13445
641.382	11097
641.442	13252
641.502	12694
641.562	13245
641.622	12197
641.682	13211
641.742	15493
641.802	14607
641.861	14342
641.921	13206
641.981	15472
642.041	14076
642.101	15949
642.161	12133
642.221	12185
642.280	11594
642.340	11403
642.400	10607
642.460	12935
642.519	10900
642.579	12289
642.639	12324
642.698	10447
642.758	13988
642.818	12385
642.877	11653
642.937	13817
642.997	15026
643.056	18460
643.116	13561
643.175	14357
643.235	11620
643.294	13739
643.354	14859
643.414	17101
643.473	19710
643.532	24217
643.592	35164
643.651	56878
643.711	102929
643.770	206545
643.830	514628
643.889	1009348
643.948	215126
644.008	40379
644.067	24042
644.126	19337
644.186	16629
644.245	15437
644.304	12442
644.363	14869
644.423	11455
644.482	12791
644.541	13859
644.600	13518
644.659	17651
644.719	21795
644.778	32598
644.837	56118
644.896	119186
644.955	263782
645.014	77993
645.073	19487
645.132	14923
645.191	15203
645.250	12950
645.309	14673
645.368	15327
645.427	20261
645.486	30409
645.545	51435
645.604	17008
645.663	13220
645.722	12703
645.781	15291
645.840	17701
645.898	23159
645.957	33371
646.016	52036
646.075	97965
646.134	193427
646.192	530474
646.251	713092
646.310	97454
646.369	29003
646.427	23572
646.486	16746
646.545	14082
646.603	14116
646.662	12189
646.721	13001
646.779	10443
646.838	12324
646.896	16520
646.955	21363
647.014	32677
647.072	63961
647.131	168594
647.189	72396
647.248	13793
647.306	12037
647.365	11073
647.423	7700
647.481	9765
647.540	9103
647.598	9362
647.657	8785
647.715	8925
647.773	7900
647.832	8594
647.890	7936
647.948	7832
648.007	8657
648.065	7790
648.123	8233
648.181	8942
648.240	8388
648.298	6836
648.356	7029
648.414	8366
648.472	8165
648.531	8315
648.589	8307
648.647	6720
648.705	7807
648.763	7671
648.821	9048
648.879	8435
648.937	10466
648.995	12997
649.053	16300
649.111	25632
649.169	43259
649.227	77703
649.285	164353
649.343	462195
649.401	196375
649.459	42172
649.516	24884
649.574	13054
649.632	16129
649.690	17619
649.748	18051
649.806	23897
649.863	44113
649.921	117216
649.979	72076
650.037	12187
650.094	7956
650.152	8347
650.210	6537
650.268	7498
650.325	8071
650.383	8127
650.440	5918
650.498	6858
650.556	6051
650.613	6411
650.671	6986
650.728	6576
650.786	7375
650.843	8810
650.901	5825
650.958	5948
651.016	5765
651.073	5451
651.131	5890
651.188	4732
651.246	5239
651.303	4169
651.360	5922
651.418	5108
651.475	6146
651.532	4837
651.590	4642
651.647	5201
651.704	5932
651.762	5570
651.819	6494
651.876	5644
651.933	5534
651.990	5918
652.048	3856
652.105	3809
652.162	5755
652.219	4306
652.276	5333
652.333	5371
652.390	4586
652.448	4770
652.505	5172
652.562	4748
652.619	4900
652.676	6276
652.733	5915
652.790	4774
652.847	3754
652.904	5386
652.961	4235
653.017	3561
653.074	5617
653.131	5353
653.188	4248
653.245	4999
653.302	5014
653.359	4568
653.415	4343
653.472	3519
653.529	4538
653.586	4211
653.642	4632
653.699	5152
653.756	3681
653.813	3787
653.869	5226
653.926	3809
653.983	3919
654.039	4311
654.096	4324
654.152	5472
654.209	3723
654.266	4892
654.322	3835
654.379	5347
654.435	5853
654.492	5103
654.548	8551
654.605	11299
654.661	6788
654.717	4518
654.774	5248
654.830	5284
654.887	5363
654.943	3933
655.000	5206
655.056	4758
655.112	5512
655.168	3945
655.225	5054
655.281	5692
655.337	6591
655.394	9528
655.450	6876
655.506	6549
655.562	9087
655.618	7987
655.675	3469
655.731	4379
655.787	4440
655.843	5095
655.899	4515
655.955	3936
656.011	4893
656.067	2958
656.123	4915
656.179	4206
656.235	5831
656.291	3834
656.347	4897
656.403	4588
656.459	4548
656.515	5311
656.571	5412
656.627	4725
656.683	4202
656.739	4681
656.795	4827
656.850	5032
656.906	5432
656.962	5011
657.018	4101
657.074	4365
657.129	6224
657.185	8623
657.241	16666
657.297	8568
657.352	5001
657.408	3876
657.464	5813
657.519	3782
657.575	2507
657.630	3174
657.686	4754
657.742	2675
657.797	4342
657.853	4300
657.908	4961
657.964	2262
658.019	4728
658.075	3033
658.130	4833
658.186	2847
658.241	4799
658.297	3104
658.352	3107
658.407	4215
658.463	2851
658.518	4039
658.573	4740
658.629	2235
658.684	2541
658.739	4128
658.795	3745
658.850	3604
658.905	3388
658.960	4069
659.016	2874
659.071	3841
659.126	3596
659.181	4305
659.236	7668
659.291	7625
659.346	4373
659.401	4338
659.457	4530
659.512	3386
659.567	4512
659.622	3251
659.677	3891
659.732	3477
659.787	4025
659.842	2607
659.897	4856
659.952	3647
660.007	3828
660.061	4174
660.116	3210
660.171	2761
660.226	4004
660.281	4852
660.336	3319
660.391	4326
660.445	2845
660.500	3198
660.555	4142
660.610	3359
660.664	3541
660.719	2522
660.774	4112
660.828	3806
660.883	4251
660.938	3442
660.992	2404
661.047	2799
661.101	3185
661.156	2947
661.211	2493
661.265	2923
661.320	2449
661.374	2986
661.429	3230
661.483	3709
661.538	3616
661.592	2783
661.647	3613
661.701	4078
661.755	4130
661.810	3143
661.864	3259
661.919	3345
661.973	4079
662.027	3422
662.081	3045
662.136	3459
662.190	4268
662.244	3635
662.299	1997
662.353	3616
662.407	3234
662.461	3029
662.515	4014
662.569	3218
662.624	4063
662.678	3671
662.732	3150
662.786	3094
662.840	3718
662.894	3031
662.948	2811
663.002	2613
663.056	2623
663.110	2612
663.164	3916
663.218	2858
663.272	4814
663.326	4075
663.380	3718
663.434	3581
663.488	3674
663.542	3441
663.595	4053
663.649	2943
663.703	3454
663.757	3023
663.811	3444
663.864	2976
663.918	3390
663.972	3162
664.026	3597
664.079	2882
664.133	3961
664.187	2754
664.240	2898
664.294	2404
664.348	3481
664.401	3460
664.455	3290
664.508	2472
664.562	3442
664.615	3004
664.669	2923
664.722	1844
664.776	3000
664.829	2828
664.883	3749
664.936	3489
664.990	3289
665.043	3557
665.097	3449
665.150	4779
665.203	3023
665.257	3295
665.310	4001
665.363	3824
665.417	4034
665.470	3498
665.523	4265
665.576	3823
665.630	3620
665.683	3810
665.736	3828
665.789	4279
665.842	3145
665.895	4331
665.949	3060
666.002	3538
666.055	3171
666.108	3974
666.161	4083
666.214	4451
666.267	3898
666.320	5175
666.373	4002
666.426	4465
666.479	4296
666.532	3934
666.585	4391
666.638	5514
666.691	3793
666.744	5128
666.796	5700
666.849	3928
666.902	4149
666.955	3482
667.008	3213
667.060	2446
667.113	3147
667.166	2538
667.219	4854
667.271	3025
667.324	3985
667.377	3143
667.430	3662
667.482	3567
667.535	4251
667.587	3858
667.640	5035
667.693	5613
667.745	8186
667.798	7857
667.850	4063
667.903	3742
667.955	3264
668.008	4250
668.060	4363
668.113	3423
668.165	4189
668.218	3706
668.270	3773
668.322	4800
668.375	3350
668.427	4485
668.479	3527
668.532	3890
668.584	4327
668.636	3363
668.689	3832
668.741	3781
668.793	4530
668.845	3191
668.898	4506
668.950	4351
669.002	4324
669.054	3385
669.106	3613
669.158	4084
669.211	3801
669.263	3872
669.315	4809
669.367	3910
669.419	4316
669.471	6106
669.523	5436
669.575	6913
669.627	5993
669.679	4551
669.731	4816
669.783	5367
669.835	6152
669.886	5205
669.938	4827
669.990	5102
670.042	5415
670.094	5214
670.146	6075
670.197	6940
670.249	8636
670.301	11023
670.353	15438
670.404	21548
670.456	32371
670.508	52252
670.560	84460
670.611	144980
670.663	255748
670.715	593100
670.766	840241
670.818	258952
670.869	51269
670.921	26061
670.972	19039
671.024	12882
671.075	11620
671.127	8563
671.178	7946
671.230	7938
671.281	7169
671.333	7714
671.384	7218
671.436	8073
671.487	10070
671.538	11977
671.590	16386
671.641	24813
671.692	42648
671.744	77064
671.795	47756
671.846	16679
671.897	9019
671.949	6713
672.000	5939
672.051	4799
672.102	5381
672.153	4684
672.204	3659
672.256	4625
672.307	4650
672.358	4931
672.409	4984
672.460	3929
672.511	3842
672.562	3691
672.613	3728
672.664	3638
672.715	3927
672.766	4168
672.817	3787
672.868	1707
672.919	3921
672.970	2790
673.021	3527
673.071	3026
673.122	3374
673.173	3783
673.224	2610
673.275	2948
673.326	3976
673.376	3791
673.427	2918
673.478	2841
673.528	4159
673.579	2956
673.630	3685
673.680	3724
673.731	3511
673.782	2521
673.832	3518
673.883	2945
673.934	3149
673.984	2147
674.035	3145
674.085	2188
674.136	3540
674.186	3192
674.237	4632
674.287	5539
674.338	3780
674.388	2287
674.438	2493
674.489	3302
674.539	3406
674.589	2726
674.640	3710
674.690	3081
674.740	3830
674.791	3936
674.841	3363
674.891	3297
674.942	3842
674.992	3137
675.042	3364
675.092	2014
675.142	3086
675.193	2918
675.243	2447
675.293	3052
675.343	2132
675.393	2984
675.443	3730
675.493	2986
675.543	3100
675.593	2727
675.643	3335
675.693	3510
675.743	2618
675.793	1862
675.843	2914
675.893	2533
675.943	3708
675.993	3042
676.043	2426
676.093	2225
676.142	2315
676.192	2075
676.242	2531
676.292	2387
676.341	2111
676.391	1849
676.441	2074
676.491	2348
676.540	2252
676.590	2297
676.640	2182
676.689	2816
676.739	1283
676.789	2331
676.838	2631
676.888	2638
676.937	2478
676.987	1480
677.037	2820
677.086	1867
677.136	1923
677.185	1618
677.235	1835
677.284	2440
677.333	2178
677.383	1727
677.432	1738
677.482	1681
677.531	2843
677.580	2302
677.630	2489
677.679	1050
677.728	2442
677.778	2101
677.827	2820
677.876	1456
677.925	1351
677.975	1670
678.024	2247
678.073	1610
678.122	2842
678.171	2742
678.220	2481
678.269	2329
678.319	2746
678.368	2914
678.417	2506
678.466	2623
678.515	2290
678.564	1960
678.613	1776
678.662	1691
678.711	2074
678.760	1588
678.809	2386
678.857	2247
678.906	2420
678.955	1895
679.004	2628
679.053	1601
679.102	1841
679.151	2062
679.199	1530
679.248	1128
679.297	2391
679.346	2250
679.394	2226
679.443	2214
679.492	2491
679.540	2418
679.589	2544
679.638	1455
679.686	2223
679.735	1984
679.784	2122
679.832	2427
679.881	2131
679.929	1394
679.978	2370
680.026	1838
680.075	2189
680.123	1386
680.172	1556
680.220	1913
680.268	2169
680.317	1406
680.365	745
680.414	959
680.462	1778
680.510	2262
680.559	1293
680.607	1035
680.655	2214
680.703	1301
680.752	1427
680.800	1913
680.848	1731
680.896	893
680.945	1567
680.993	735
681.041	1239
681.089	1972
681.137	1735
681.185	993
681.233	1950
681.258	1797
681.281	1615
681.329	1489
681.377	1539
681.380	1598
681.425	1975
681.473	2333
681.502	2001
681.521	1698
681.569	2484
681.617	1939
681.624	1991
681.665	2060
681.713	3091
681.745	2287
681.761	1847
681.809	2239
681.857	3367
681.867	3274
681.904	2802
681.952	2472
681.989	2307
682.000	2209
682.048	2694
682.096	2035
682.111	2256
682.143	2598
682.191	2142
682.233	3067
682.239	3171
682.286	3897
682.334	2686
682.354	3077
682.382	3513
682.430	2841
682.476	2712
682.477	2676
682.525	3000
682.572	4196
682.598	3563
682.620	2969
682.667	3641
682.715	3319
682.720	3486
682.763	4740
682.810	4128
682.841	3914
682.857	3749
682.905	3980
682.952	4301
682.963	4289
683.000	4096
683.047	4728
683.085	5117
683.095	5177
683.142	5031
683.190	3333
683.206	3631
683.237	4154
683.284	4737
683.328	4783
683.332	4750
683.379	4910
683.426	4611
683.449	4663
683.473	4726
683.521	4216
683.568	5134
683.571	5091
683.615	4092
683.662	4739
683.693	5014
683.709	5120
683.757	4617
683.804	5574
683.814	5532
683.851	5343
683.898	5587
683.936	5399
683.945	5324
683.992	5188
684.039	5827
684.057	5908
684.086	5992
684.133	5636
684.179	5928
684.180	5911
684.227	6485
684.274	6629
684.300	6619
684.321	6579
684.368	5939
684.415	6184
684.422	6219
684.462	6223
684.509	5916
684.543	5906
684.556	5910
684.603	5917
684.649	6307
684.665	6321
684.696	6309
684.743	6783
684.786	6380
684.790	6333
684.837	7009
684.883	7645
684.908	7713
684.930	7679
684.977	7781
685.023	7326
685.029	7366
685.070	7419
685.117	7083
685.150	6927
685.164	6925
685.210	8119
685.257	8333
685.272	8515
685.303	8710
685.350	8470
685.393	8302
685.396	8282
685.443	8328
685.490	8950
685.514	9081
685.536	9099
685.583	8732
685.629	8653
685.636	8657
685.675	8593
685.722	8415
685.757	8552
685.768	8602
685.815	8536
685.861	9188
685.878	8982
685.908	8609
685.954	9166
686.000	9852
686.000	9858
686.047	9283
686.093	10749
686.121	10817
686.139	10611
686.185	9882
686.232	10009
686.242	9949
686.278	9864
686.324	10140
686.363	9486
686.370	9358
686.416	9846
686.463	9230
686.484	9384
686.509	9612
686.555	9131
686.601	9651
686.606	9616
686.647	9207
686.693	9516
686.727	9373
686.739	9364
686.785	9858
686.831	9699
686.848	9854
686.877	9852
686.923	9163
686.969	9208
686.969	9209
687.015	9552
687.061	10292
687.090	10290
687.107	10111
687.153	10465
687.199	10198
687.211	10134
687.245	10152
687.291	9928
687.332	10565
687.336	10643
687.382	10308
687.428	10954
687.453	10933
687.474	10685
687.520	10506
687.565	9844
687.574	9909
687.611	10494
687.657	10565
687.695	11137
687.702	11314
687.748	12031
687.794	12875
687.816	12986
687.839	12522
687.885	11513
687.931	10815
687.937	10730
687.976	10825
688.022	11350
688.058	11598
688.067	11651
688.113	10854
688.158	11390
688.179	11197
688.204	11047
688.249	11532
688.295	11682
688.300	11716
688.340	12015
688.386	12252
688.421	12163
688.431	12106
688.477	11582
688.522	12184
688.542	12283
688.567	12487
688.613	11815
688.658	11992
688.663	11952
688.703	11779
688.749	12147
688.784	12331
688.794	12372
688.839	12123
688.884	12973
688.905	12647
688.930	12236
688.975	12262
689.020	11996
689.026	11993
689.065	12209
689.110	12524
689.146	12470
689.155	12443
689.201	11935
689.246	12055
689.267	12154
689.291	12375
689.336	12253
689.381	12306
689.388	12370
689.426	12571
689.471	12245
689.509	12145
689.516	12188
689.561	12573
689.606	12264
689.630	12345
689.651	12419
689.696	12449
689.741	12689
689.750	12724
689.785	12948
689.830	12958
689.871	13194
689.875	13211
689.920	12699
689.965	12785
689.992	12315
690.010	12091
690.054	12505
690.099	12286
690.112	12440
690.144	12842
690.189	12179
690.233	11931
690.233	11949
690.278	12587
690.323	12785
690.354	12674
690.367	12638
690.412	12969
690.457	12515
690.474	12761
690.501	13039
690.546	12655
690.590	12410
690.595	12370
690.635	12419
690.680	12865
690.716	12697
690.724	12701
690.769	13076
690.813	13198
690.836	13166
690.857	13340
690.902	13694
690.946	14988
690.957	14946
690.991	15573
691.035	17406
691.077	18709
691.080	18711
691.124	17848
691.168	17619
691.198	17334
691.213	17151
691.257	16098
691.301	15531
691.318	15062
691.346	14524
691.390	13979
691.434	13366
691.439	13299
691.478	13792
691.522	13998
691.559	14576
691.567	14686
691.611	14886
691.655	14844
691.680	14759
691.699	14645
691.743	15067
691.787	14801
691.800	14717
691.831	14962
691.875	15609
691.919	15827
691.921	15811
691.964	15731
692.008	16046
692.041	15549
692.052	15462
692.096	15505
692.139	15555
692.162	15515
692.183	15459
692.227	15250
692.271	15074
692.282	15072
692.315	15505
692.359	15726
692.402	15915
692.403	15944
692.447	15811
692.490	15664
692.523	15628
692.534	15763
692.578	15954
692.622	16020
692.643	16079
692.666	15877
692.709	15789
692.753	15246
692.763	15169
692.797	15560
692.840	15565
692.884	15887
692.884	15920
692.928	15813
692.971	15675
693.004	15532
693.015	15543
693.059	15606
693.102	15892
693.124	15918
693.146	16026
693.189	15537
693.233	15994
693.245	16029
693.276	16360
693.320	16563
693.363	16377
693.365	16357
693.407	16820
693.450	17045
693.485	17225
693.493	17377
693.537	17752
693.580	18338
693.605	18531
693.624	18721
693.667	19309
693.710	19761
693.725	19970
693.753	22101
693.797	25293
693.840	28327
693.845	28607
693.883	26626
693.926	24436
693.966	22412
693.970	22279
694.013	20620
694.056	18561
694.086	17443
694.099	17515
694.142	17435
694.185	17163
694.206	17091
694.229	17316
694.272	17484
694.315	17825
694.326	17825
694.358	17760
694.401	17786
694.444	17927
694.446	17868
694.487	17559
694.530	17684
694.566	17616
694.573	17531
694.616	16466
694.659	15726
694.686	15227
694.702	15416
694.745	15646
694.787	16226
694.806	16297
694.830	16100
694.873	15784
694.916	15395
694.926	15279
694.959	15560
695.002	15778
695.044	16142
695.046	16122
695.087	16508
695.130	16610
695.166	16674
695.172	16740
695.215	16892
695.258	17136
695.286	17388
695.301	17470
695.343	17277
695.386	17397
695.406	17203
695.428	17220
695.471	17438
695.514	17659
695.526	17654
695.556	17960
695.599	18516
695.641	18670
695.646	18670
695.684	18281
695.726	17900
695.766	17380
695.769	17429
695.811	17564
695.854	17651
695.886	17654
695.896	17742
695.938	17710
695.981	18017
696.005	18027
696.023	18190
696.065	18511
696.108	19113
696.125	19156
696.150	19138
696.192	19268
696.235	19240
696.245	19166
696.277	18873
696.319	18669
696.361	18370
696.365	18289
696.404	18731
696.446	19353
696.485	19743
696.488	19807
696.530	19926
696.572	20275
696.604	20245
696.614	20154
696.656	19826
696.698	19376
696.724	19061
696.740	19078
696.783	18910
696.825	18952
696.844	18767
696.867	18873
696.909	19270
696.951	19587
696.964	19646
696.992	19597
697.034	19292
697.076	19104
697.083	19018
697.118	19502
697.160	20075
697.202	20529
697.203	20489
697.244	20395
697.286	20196
697.323	19928
697.327	19951
697.369	19716
697.411	19531
697.442	19300
697.453	19501
697.494	20118
697.536	20692
697.562	21005
697.578	20983
697.620	20802
697.661	20647
697.682	20463
697.703	20889
697.744	21711
697.786	22536
697.801	22779
697.828	22741
697.869	22533
697.911	22316
697.921	22205
697.952	21721
697.994	21043
698.035	20318
698.040	20180
698.077	20228
698.118	20184
698.160	20142
698.160	20086
698.201	20082
698.243	20034
698.279	19919
698.284	20022
698.325	20498
698.367	20962
698.399	21262
698.408	21242
698.449	20891
698.491	20539
698.518	20235
698.532	20411
698.573	20808
698.614	21210
698.638	21370
698.656	21391
698.697	21304
698.738	21223
698.757	21125
698.779	21340
698.820	21645
698.862	21946
698.877	22005
698.903	22190
698.944	22371
698.985	22563
698.996	22555
699.026	22562
699.067	22488
699.116	22340
699.235	21783
699.354	21332
699.474	20798
699.593	22671
699.713	21329
699.832	20813
699.951	22680
700.070	20798
700.190	20895
700.309	20386
700.428	20126
700.547	21318
700.667	19816
700.786	20838
700.905	19547
701.024	21282
701.143	19691
701.262	19882
701.381	19832
701.500	20019
701.619	20605
701.738	19340
701.857	18366
701.976	18796
702.095	18448
702.214	20425
702.333	19921
702.452	20012
702.571	19631
702.690	19308
702.809	18468
702.928	18113
703.047	18708
703.165	18372
703.284	17868
703.403	18089
703.522	19071
703.640	17225
703.759	20189
703.878	24616
703.997	18170
704.115	17449
704.234	17399
704.353	17715
704.471	16081
704.590	16542
704.708	16866
704.827	16232
704.946	17193
705.064	18089
705.183	16580
705.301	19654
705.420	25728
705.538	22503
705.656	19814
705.775	19765
705.893	21837
706.012	23068
706.130	20475
706.249	20746
706.367	20424
706.485	21130
706.604	19761
706.722	20389
706.840	24039
706.958	23568
707.077	20016
707.195	19850
707.313	18551
707.431	20016
707.549	17661
707.668	18054
707.786	19504
707.904	17618
708.022	18461
708.140	18536
708.258	17408
708.376	18908
708.494	17998
708.612	20473
708.730	26126
708.848	24122
708.966	23788
709.084	22158
709.202	20553
709.320	21492
709.438	21489
709.556	22546
709.674	21163
709.791	20718
709.909	19681
710.027	20221
710.145	20747
710.263	20850
710.380	20202
710.498	20838
710.616	19729
710.733	19115
710.851	19506
710.969	20676
711.086	18740
711.204	19906
711.322	20228
711.439	19189
711.557	19005
711.674	18765
711.792	18481
711.909	18501
712.027	18121
712.144	17506
712.262	18723
712.379	20258
712.497	27383
712.614	26449
712.732	22547
712.849	22228
712.966	24181
713.084	25938
713.201	23845
713.318	23274
713.436	22168
713.553	22708
713.670	24169
713.787	25051
713.905	23606
714.022	23216
714.139	23435
714.256	27712
714.373	34390
714.490	54197
714.608	140032
714.725	566666
714.842	446246
714.959	41240
715.076	26229
715.193	22589
715.310	22791
715.427	20318
715.544	20436
715.661	19814
715.778	19541
715.895	22204
716.011	20446
716.128	19222
716.245	19559
716.362	21936
716.479	21054
716.596	19382
716.713	20044
716.829	18767
716.946	18714
717.063	17387
717.180	17754
717.296	17017
717.413	18147
717.530	18009
717.646	17209
717.763	16748
717.880	15897
717.996	17128
718.113	17195
718.229	16126
718.346	15331
718.462	16665
718.579	19938
718.695	27796
718.812	21221
718.928	19809
719.045	16404
719.161	15532
719.277	15320
719.394	14926
719.510	16366
719.626	17292
719.743	21181
719.859	26400
719.975	44574
720.092	170122
720.208	307450
720.324	36768
720.440	18572
720.557	19670
720.673	24961
720.789	29950
720.905	49943
721.021	20641
721.137	15370
721.253	16116
721.369	15548
721.486	17286
721.602	19950
721.718	14652
721.834	13029
721.950	15083
722.066	13952
722.181	13005
722.297	14515
722.413	13611
722.529	14170
722.645	12730
722.761	12972
722.877	13257
722.993	13070
723.108	15045
723.224	13099
723.340	12591
723.456	12011
723.571	12605
723.687	11552
723.803	12214
723.918	11303
724.034	12161
724.150	11992
724.265	13857
724.381	23753
724.497	24044
724.612	12496
724.728	11701
724.843	11464
724.959	13430
725.074	22149
725.190	22788
725.305	13355
725.421	12016
725.536	10374
725.651	11326
725.767	11580
725.882	11050
725.997	11148
726.113	11371
726.228	10509
726.343	10268
726.459	10748
726.574	11186
726.689	10046
726.804	10841
726.920	11068
727.035	10931
727.150	10955
727.265	9829
727.380	10784
727.495	10847
727.610	9564
727.725	10655
727.841	9837
727.956	11234
728.071	11584
728.186	9560
728.301	9620
728.416	10093
728.531	9566
728.645	9756
728.760	9975
728.875	10875
728.990	10387
729.105	9522
729.220	10466
729.335	9742
729.449	9496
729.564	8504
729.679	8204
729.794	9216
729.908	8897
730.023	9621
730.138	8221
730.253	9130
730.367	9154
730.482	8535
730.596	9493
730.711	9902
730.826	10096
730.940	10746
731.055	8988
731.169	8621
731.284	8952
731.398	9748
731.513	10637
731.627	9900
731.742	11291
731.856	12030
731.970	11228
732.085	13749
732.199	16644
732.313	26013
732.428	64785
732.542	186306
732.656	86159
732.771	18402
732.885	13405
732.999	13209
733.113	12487
733.227	12449
733.342	11171
733.456	11208
733.570	11692
733.684	10572
733.798	10028
733.912	10903
734.026	9444
734.140	9953
734.254	11413
734.368	15600
734.482	15746
734.596	9939
734.710	9702
734.824	9644
734.938	9898
735.052	9839
735.166	9888
735.280	9906
735.393	9245
735.507	10883
735.621	12117
735.735	16749
735.849	9978
735.962	8856
736.076	9713
736.190	10418
736.303	11138
736.417	14146
736.531	9132
736.644	9332
736.758	8642
736.872	8813
736.985	8931
737.099	9029
737.212	8200
737.326	8033
737.439	8059
737.553	8820
737.666	8374
737.780	7673
737.893	8060
738.007	8158
738.120	8173
738.233	8117
738.347	7949
738.460	8112
738.573	9544
738.687	8367
738.800	8964
738.913	10292
739.026	8414
739.140	8177
739.253	7918
739.366	8328
739.479	7281
739.592	7824
739.705	7421
739.818	7987
739.932	8260
740.045	9095
740.158	7647
740.271	8267
740.384	7646
740.497	7029
740.610	7830
740.723	7812
740.836	7663
740.949	8704
741.062	10249
741.174	8667
741.287	7912
741.400	7739
741.513	8063
741.626	8134
741.739	7512
741.851	7935
741.964	7884
742.077	7257
742.189	6641
742.302	8847
742.415	7932
742.527	7379
742.640	7096
742.753	6264
742.865	6771
742.978	6465
743.090	6845
743.203	6717
743.316	6090
743.428	6331
743.541	7277
743.653	7153
743.766	7320
743.878	6707
743.990	8018
744.103	7503
744.215	6215
744.327	6529
744.440	9120
744.552	10062
744.664	7166
744.777	6248
744.889	5731
745.001	5397
745.113	5643
745.226	5037
745.338	6512
745.450	6214
745.562	6415
745.674	5857
745.786	6541
745.898	6485
746.010	5592
746.122	5824
746.234	8051
746.347	6121
746.459	6019
746.570	5366
746.682	6046
746.794	6010
746.906	6051
747.018	6206
747.130	5921
747.242	5489
747.354	5319
747.466	6674
747.577	5035
747.689	5433
747.801	5571
747.913	5802
748.024	4930
748.136	5506
748.248	4915
748.359	6495
748.471	5589
748.583	5098
748.694	4628
748.806	5588
748.918	7307
749.029	5542
749.141	6233
749.252	6168
749.364	6547
749.475	11467
749.587	6239
749.698	5095
749.809	5787
749.921	4922
750.032	5476
750.144	4699
750.255	5339
750.366	4188
750.478	5139
750.589	5772
750.700	5111
750.811	6348
750.923	6561
751.034	12506
751.145	10703
751.256	4870
751.367	4981
751.479	5093
751.590	4859
751.701	4998
751.812	5131
751.923	4827
752.034	5217
752.145	5223
752.256	4722
752.367	4722
752.478	4405
752.589	5051
752.700	4611
752.811	4411
752.922	3806
753.032	5328
753.143	5557
753.254	4582
753.365	5627
753.476	4864
753.586	5287
753.697	4008
753.808	4271
753.919	4269
754.029	5075
754.140	4576
754.251	5730
754.361	5427
754.472	4615
754.582	4561
754.693	4177
754.804	4912
754.914	4004
755.025	5034
755.135	4081
755.246	4269
755.356	4007
755.466	4430
755.577	4724
755.687	4761
755.798	4187
755.908	4330
756.018	4511
756.129	3900
756.239	4093
756.349	4663
756.460	4593
756.570	4750
756.680	4313
756.790	4417
756.900	5701
757.011	4670
757.121	4196
757.231	3942
757.341	3911
757.451	4222
757.561	3193
757.671	3842
757.781	3663
757.891	4554
758.001	3801
758.111	4289
758.221	5227
758.331	6035
758.441	5604
758.551	6492
758.661	5669
758.771	4945
758.880	4615
758.990	4438
759.100	5022
759.210	4859
759.320	4963
759.429	5310
759.539	5115
759.649	5204
759.758	4789
759.868	6003
759.978	4391
760.087	6604
760.197	5511
760.307	5470
760.416	5063
760.526	5531
760.635	4711
760.745	6423
760.854	5055
760.964	6676
761.073	5772
761.182	5862
761.292	4831
761.401	5856
761.511	5247
761.620	5217
761.729	5159
761.839	4061
761.948	4770
762.057	4492
762.166	4187
762.276	4043
762.385	5791
762.494	4526
762.603	4804
762.712	5366
762.822	4495
762.931	4877
763.040	3755
763.149	4481
763.258	5184
763.367	5188
763.476	4539
763.585	4596
763.694	5417
763.803	5127
763.912	5117
764.021	5713
764.130	4905
764.238	5109
764.347	5389
764.456	6040
764.565	6380
764.674	5676
764.783	5507
764.891	5716
765.000	6171
765.109	7208
765.217	6669
765.326	9616
765.435	10123
765.543	11223
765.652	12457
765.761	13990
765.869	21344
765.978	33653
766.086	60777
766.195	124767
766.303	340119
766.412	853435
766.520	639930
766.629	172881
766.737	65642
766.846	36314
766.954	25553
767.062	21498
767.171	16201
767.279	13215
767.387	10829
767.496	10570
767.604	8669
767.712	8682
767.820	8407
767.928	8313
768.037	7377
768.145	7178
768.253	7747
768.361	6679
768.469	7377
768.577	6278
768.685	7786
768.793	8211
768.901	8173
769.009	8545
769.117	8355
769.225	11975
769.333	17108
769.441	25335
769.549	48931
769.657	117427
769.765	393135
769.873	682062
769.981	216230
770.088	49972
770.196	25315
770.304	18971
770.412	14531
770.519	11606
770.627	9286
770.735	8541
770.842	8517
770.950	8038
771.058	6823
771.165	7841
771.273	7195
771.380	7170
771.488	7240
771.595	6945
771.703	6703
771.810	7567
771.918	6834
772.025	7012
772.133	7196
772.240	6982
772.348	7851
772.455	7230
772.562	6349
772.670	6358
772.777	7523
772.884	6898
772.991	6041
773.099	6825
773.206	6111
773.313	7125
773.420	6566
773.528	6395
773.635	5931
773.742	6990
773.849	5639
773.956	5665
774.063	6591
774.170	6088
774.277	6345
774.384	6498
774.491	6221
774.598	6181
774.705	6513
774.812	7653
774.919	6787
775.026	6348
775.133	6299
775.239	6916
775.346	6631
775.453	6769
775.560	5843
775.667	6531
775.773	5337
775.880	5873
775.987	6028
776.093	6423
776.200	6030
776.307	4889
776.413	6811
776.520	5764
776.627	5720
776.733	6214
776.840	4381
776.946	7145
777.053	5555
777.159	6069
777.266	4892
777.372	6802
777.478	5448
777.585	5928
777.691	4687
777.798	6137
777.904	5759
778.010	7907
778.117	5930
778.223	6169
778.329	4953
778.435	5437
778.542	6245
778.648	5016
778.754	4214
778.860	5373
778.966	4505
779.072	4980
779.178	4269
779.284	4164
779.391	4735
779.497	5083
779.603	5333
779.708	5024
779.815	8781
779.920	21957
780.026	32509
780.132	8278
780.238	4595
780.344	5093
780.450	5739
780.556	4307
780.661	4354
780.767	5320
780.873	3640
780.979	5094
781.085	4471
781.190	3983
781.296	3647
781.402	4271
781.507	3228
781.613	3860
781.719	3663
781.824	4023
781.930	3961
782.035	3860
782.141	4120
782.246	4271
782.352	3983
782.457	4610
782.563	3976
782.668	4195
782.773	4753
782.879	3973
782.984	4865
783.090	5680
783.195	7339
783.300	5095
783.405	4691
783.511	4074
783.616	3307
783.721	4257
783.826	4177
783.932	4268
784.037	3766
784.142	4250
784.247	4085
784.352	4076
784.457	3405
784.562	3861
784.667	4087
784.772	3457
784.877	2969
784.982	3783
785.087	3039
785.192	4718
785.297	2682
785.402	3610
785.507	3820
785.611	4337
785.716	3233
785.821	3876
785.926	3662
786.031	3493
786.135	3645
786.240	3980
786.345	2531
786.450	3530
786.554	4005
786.659	2993
786.763	2161
786.868	3551
786.973	4405
787.077	3057
787.182	2536
787.286	4415
787.391	3964
787.495	1942
787.600	2691
787.704	3012
787.809	3586
787.913	2138
788.017	3593
788.122	3225
788.226	3159
788.330	2643
788.435	3107
788.539	2991
788.643	2238
788.747	2918
788.852	2883
788.956	2495
789.060	3873
789.164	4173
789.268	2368
789.372	3259
789.476	2763
789.580	1859
789.684	1965
789.788	4217
789.892	3520
789.996	3779
790.100	2748
790.204	3490
790.308	3293
790.412	2258
790.516	2615
790.620	3083
790.724	3006
790.828	2409
790.931	2225
791.035	3376
791.139	3314
791.242	3110
791.346	3575
791.450	2885
791.554	2201
791.657	2141
791.761	3976
791.864	3950
791.968	3344
792.072	3725
792.175	3117
792.279	2229
792.382	2377
792.486	3279
792.589	2698
792.693	2889
792.796	1503
792.899	3507
793.003	2876
793.106	1399
793.209	2706
793.313	3603
793.416	1665
793.519	3046
793.623	4895
793.726	4834
793.829	2955
793.932	2663
794.035	2333
794.138	4266
794.242	3171
794.345	3478
794.448	4519
794.551	5802
794.654	12322
794.757	16583
794.860	4223
794.963	3807
795.066	1570
795.169	2984
795.272	1981
795.375	2535
795.477	1083
795.580	3140
795.683	1788
795.786	2803
795.889	2214
795.991	3348
796.094	3413
796.197	895
796.300	3299
796.402	1874
796.505	1960
796.608	2138
796.710	2411
796.813	2610
796.915	1734
797.018	2287
797.120	2359
797.223	1570
797.326	3677
797.428	2388
797.530	2272
797.633	2374
797.735	3697
797.838	4404
797.940	4203
798.042	1497
798.145	2828
798.247	3109
798.349	718
798.452	2222
798.554	2441
798.656	1200
798.758	2377
798.860	2836
798.962	1707
799.065	1671
799.167	1128
799.269	3777
799.371	2789
799.473	3699
799.575	1656
799.677	3290
799.779	4154
799.881	3032
799.983	3207
800.085	2203
800.187	1855
800.289	1865
800.390	2052
800.492	1715
800.594	2241
800.696	1261
800.798	2562
800.899	1457
801.001	1507
801.103	2028
801.205	1841
801.306	2611
801.408	216
801.509	2273
801.611	2166
801.713	1688
801.814	633
801.916	2352
802.017	1791
802.119	767
802.220	1673
802.322	356
802.423	4163
802.525	1765
802.626	2445
802.727	2185
802.829	2568
802.930	-50
803.031	2833
803.133	1355
803.234	840
803.335	1871
803.436	1564
803.538	1545
803.639	624
803.740	3043
803.841	1667
803.942	1897
804.043	2172
804.144	1329
804.245	1571
804.346	933
804.447	1481
804.548	2932
804.649	3750
804.750	2511
804.851	1801
804.952	703
805.053	2283
805.154	910
805.255	1770
805.355	1982
805.456	1456
805.557	1089
805.658	723
805.758	2680
805.859	1457
805.960	1496
806.061	900
806.161	1560
806.262	1929
806.362	765
806.463	1722
806.564	2718
806.664	1076
806.765	1950
806.865	2691
806.966	1255
807.066	1081
807.166	2840
807.267	1870
807.367	1186
807.468	1735
807.568	886
807.668	2376
807.769	2110
807.869	1483
807.969	2033
808.069	2238
808.170	1456
808.270	1272
808.370	2662
808.470	2435
808.570	1266
808.670	722
808.770	2040
808.870	1113
808.970	2405
809.070	1295
809.170	1030
809.271	2199
809.370	1218
809.470	1829
809.570	1806
809.670	1017
809.770	1911
809.870	2024
809.970	2206
810.070	1577
810.169	1672
810.269	636
810.369	2018
810.469	1051
810.568	1195
810.668	945
810.768	1569
810.867	798
810.967	1170
811.066	659
811.166	1670
811.265	2227
811.365	1390
811.464	1178
811.564	1694
811.663	1281
811.763	620
811.862	1929
811.962	2213
812.061	1310
812.160	1202
812.260	1022
812.359	2393
812.458	3150
812.557	10060
812.657	11445
812.756	3946
812.855	1663
812.954	1681
813.053	1543
813.153	2994
813.252	774
813.351	2071
813.450	1389
813.549	1258
813.648	1968
813.747	1580
813.846	1579
813.945	1087
814.044	949
814.143	2305
814.242	2352
814.341	1548
814.439	2453
814.538	2656
814.637	2696
814.736	2257
814.835	2556
814.933	1739
815.032	2567
815.131	2917
815.229	4307
815.328	4388
815.427	4325
815.525	3401
815.624	3627
815.722	3777
815.821	4293
815.919	3630
816.018	3721
816.116	4712
816.215	4725
816.313	4499
816.412	4775
816.510	4808
816.609	6454
816.707	6727
816.805	4898
816.904	6021
817.002	6742
817.100	7440
817.198	7692
817.296	7596
817.395	9522
817.493	11288
817.591	11238
817.689	16675
817.787	21781
817.885	34855
817.983	61510
818.081	128284
818.179	300718
818.277	658708
818.375	486133
818.473	150049
818.571	64599
818.669	43346
818.767	37167
818.865	39269
818.963	44688
819.061	67468
819.158	116377
819.256	237325
819.354	520765
819.452	888319
819.549	553026
819.647	199203
819.745	88364
819.842	55844
819.940	37951
820.038	27986
820.135	21693
820.233	18412
820.330	14183
820.428	13341
820.525	11543
820.623	10262
820.720	8919
820.818	8828
820.915	7822
821.012	7409
821.110	5244
821.207	6790
821.304	4844
821.402	5896
821.499	5365
821.596	5311
821.693	5175
821.791	5831
821.888	6361
821.985	9129
822.082	5514
822.179	4909
822.276	3295
822.373	4100
822.470	3091
822.567	3875
822.664	2637
822.761	4060
822.858	3728
822.955	3578
823.052	2770
823.149	3237
823.246	3624
823.343	2873
823.440	2383
823.536	3077
823.633	2669
823.730	2566
823.827	3339
823.923	3693
824.020	2800
824.117	2441
824.213	2463
824.310	2955
824.407	2668
824.503	2493
824.600	3174
824.696	1793
824.793	2723
824.889	2582
824.986	2679
825.082	1466
825.179	2204
825.275	3170
825.371	2166
825.468	1848
825.564	1318
825.660	2740
825.757	2552
825.853	3246
825.949	510
826.045	1925
826.142	1794
826.238	2677
826.334	2266
826.430	1040
826.526	1395
826.622	1857
826.718	2083
826.814	2500
826.910	2336
827.006	1089
827.102	962
827.198	2464
827.294	1312
827.390	2150
827.486	2534
827.582	669
827.678	962
827.774	2699
827.869	1194
827.965	2543
828.061	800
828.157	1866
828.252	1696
828.348	844
828.444	1883
828.539	1361
828.635	1714
828.731	2134
828.826	439
828.922	2048
829.017	1367
829.113	2207
829.208	1332
829.304	1417
829.399	2963
829.495	2039
829.590	2596
829.685	1348
829.781	2006
829.876	1390
829.971	1343
830.066	1542
830.162	1181
830.257	1647
830.352	1007
830.447	2403
830.543	2595
830.638	350
830.733	1892
830.828	1378
830.923	1912
831.018	1745
831.113	1451
831.208	1087
831.303	1256
831.398	1301
831.493	962
831.588	2394
831.683	909
831.778	1138
831.873	783
831.967	2329
832.062	1109
832.157	371
832.252	2163
832.346	1309
832.441	1983
832.536	2537
832.631	6564
832.725	4160
832.820	1095
832.914	1942
833.009	678
833.104	1226
833.198	1843
833.293	1236
833.387	2019
833.482	1271
833.576	529
833.670	1623
833.765	1356
833.859	1443
833.954	1899
834.048	1315
834.142	991
834.237	1365
834.331	1088
834.425	1909
834.519	638
834.613	1295
834.708	817
834.802	1428
834.896	44
834.990	947
835.084	1194
835.178	698
835.272	955
835.366	1075
835.460	2035
835.554	921
835.648	609
835.742	-825
835.836	1133
835.930	-129
836.024	1160
836.117	1930
836.211	748
836.305	2039
836.399	2357
836.493	211
836.586	1969
836.680	450
836.774	842
836.867	1583
836.961	15
837.055	463
837.148	824
837.242	1057
837.335	520
837.429	1684
837.522	1435
837.616	1979
837.709	2930
837.803	1669
837.896	1426
837.989	849
838.083	2033
838.176	3480
838.269	2289
838.363	2246
838.456	659
838.549	1724
838.642	3288
838.735	6790
838.829	2975
838.922	819
839.015	605
839.108	58
839.201	805
839.294	1181
839.387	995
839.480	33
839.573	1244
839.666	1528
839.759	716
839.852	1063
839.945	581
840.038	40
840.131	436
840.223	657
840.316	1226
840.409	1118
840.502	655
840.594	1362
840.687	-152
840.780	870
840.873	515
840.965	1206
841.058	993
841.150	3562
841.243	2090
841.336	1005
841.428	867
841.521	359
841.613	91
841.706	1018
841.798	265
841.890	1478
841.983	-369
842.075	1175
842.167	549
842.260	433
842.352	964
842.444	1881
842.537	2848
842.629	5041
842.721	944
842.813	502
842.905	-297
842.997	1947
843.090	1055
843.182	1746
843.274	2646
843.366	9279
843.458	14379
843.550	7764
843.642	1146
843.734	1324
843.826	1068
843.918	1746
844.009	857
844.101	9
844.193	-77
844.285	965
844.377	1203
844.469	805
844.560	591
844.652	796
844.744	421
844.835	937
844.927	284
845.019	1246
845.110	1401
845.202	726
845.293	319
845.385	131
845.476	499
845.568	1295
845.659	25
845.751	920
845.842	284
845.934	543
846.025	323
846.116	902
846.208	255
846.299	847
846.390	850
846.482	877
846.573	954
846.664	2060
846.755	1584
846.846	1801
846.937	112
847.029	200
847.120	-84
847.211	285
847.302	939
847.393	101
847.484	499
847.575	741
847.666	348
847.757	960
847.847	769
847.938	813
848.029	493
848.120	573
848.211	620
848.302	491
848.392	268
848.483	1265
848.574	301
848.664	447
848.755	367
848.846	750
848.936	12
849.027	767
849.118	-29
849.208	392
849.299	1247
849.389	3414
849.480	6456
849.570	12845
849.661	25357
849.751	34792
849.841	10236
849.932	986
850.022	1141
850.112	1609
850.203	377
850.293	731
850.383	219
850.474	458
850.564	-370
850.654	-190
850.744	-892
850.834	-58
850.924	245
851.014	943
851.104	709
851.194	365
851.284	924
851.374	1110
851.464	-130
851.554	937
851.644	601
851.734	1709
851.824	535
851.914	632
852.004	379
852.094	-50
852.183	-159
852.273	453
852.363	468
852.452	474
852.542	809
852.632	488
852.721	750
852.811	415
852.901	363
852.990	260
853.080	419
853.169	1007
853.259	859
853.348	1022
853.438	2213
853.527	2750
853.617	4377
853.706	9466
853.795	16816
853.885	40278
853.974	72872
854.063	139150
854.152	190053
854.242	59717
854.331	9690
854.420	3790
854.509	3016
854.598	3737
854.687	1396
854.777	1997
854.866	1065
854.955	1739
855.044	-82
855.133	981
855.222	921
855.311	202
855.400	324
855.488	182
855.577	-177
855.666	188
855.755	1152
855.844	348
855.933	212
856.021	577
856.110	1091
856.199	30
856.288	-296
856.376	94
856.465	-423
856.554	238
856.642	652
856.731	636
856.819	56
856.908	232
856.996	217
857.085	427
857.173	16
857.262	245
857.350	151
857.438	-624
857.527	33
857.615	199
857.703	164
857.792	132
857.880	36
857.968	454
858.056	369
858.145	499
858.233	-133
858.321	276
858.409	1091
858.497	-153
858.585	-492
858.673	656
858.761	-122
858.849	309
858.937	-537
859.025	-88
859.113	1196
859.201	375
859.289	636
859.377	-77
859.465	324
859.552	459
859.640	18
859.728	724
859.816	269
859.903	801
859.991	505
860.079	-464
860.166	137
860.254	544
860.342	-758
860.429	309
860.517	-680
860.604	1018
860.692	-297
860.779	788
860.867	-281
860.954	-79
861.042	201
861.129	1129
861.216	764
861.304	564
861.391	-247
861.478	540
861.565	165
861.653	1995
861.740	-938
861.827	1024
861.914	-25
862.001	-542
862.089	102
862.176	412
862.263	6
862.350	129
862.437	2
862.524	-387
862.611	-514
862.698	713
862.785	-165
862.871	993
862.958	453
863.045	793
863.132	-283
863.219	-916
863.306	-1002
863.392	269
863.479	419
863.566	363
863.652	698
863.739	-72
863.826	278
863.912	1177
863.999	18
864.086	484
864.172	476
864.259	608
864.345	-100
864.432	848
864.518	103
864.604	624
864.691	286
864.777	602
864.863	2442
864.950	1741
865.036	570
865.122	3286
865.209	3443
865.295	3065
865.381	2755
865.467	3854
865.553	4053
865.639	5380
865.726	9805
865.812	19982
865.898	36898
865.984	54691
866.070	106503
866.156	98149
866.242	23144
866.328	5969
866.414	3659
866.499	4029
866.585	2736
866.671	2712
866.757	2532
866.843	3002
866.928	2558
867.014	1515
867.100	1598
867.186	2832
867.271	1739
867.357	2754
867.442	3268
867.528	2694
867.614	2413
867.699	2464
867.785	3442
867.870	1517
867.956	1987
868.041	2698
868.127	2137
868.212	2493
868.297	2756
868.383	2186
868.468	2841
868.553	4316
868.639	3865
868.724	8049
868.809	6746
868.894	2458
868.979	1826
869.065	2463
869.150	364
869.235	1331
869.320	796
869.405	1402
869.490	1791
869.575	1673
869.660	974
869.745	2137
869.830	1395
869.915	673
870.000	1324
870.085	1539
870.169	1606
870.254	2042
870.339	1332
870.424	939
870.509	1405
870.593	795
870.678	1138
870.763	1242
870.847	1155
870.932	1254
871.016	958
871.101	696
871.186	1021
871.270	2265
871.355	1418
871.439	1436
871.523	1384
871.608	1071
871.692	214
871.777	1436
871.861	1383
871.945	1233
872.030	1379
872.114	1317
872.198	883
872.282	886
872.367	641
872.451	1372
872.535	477
872.619	1462
872.703	496
872.787	1857
872.871	850
872.955	434
873.039	629
873.123	2142
873.207	978
873.291	264
873.375	507
873.459	1210
873.543	572
873.627	1283
873.711	1100
873.794	1790
873.878	115
873.962	819
874.045	1404
874.129	680
874.137	750
874.213	1450
874.245	1359
874.296	1208
874.352	801
874.380	606
874.460	1261
874.464	1287
874.547	502
874.568	734
874.631	1416
874.676	1391
874.714	1374
874.784	1224
874.798	1192
874.881	1717
874.892	1575
874.965	662
874.999	644
875.048	551
875.107	1093
875.131	1333
875.215	1127
875.215	1127
875.298	892
875.323	886
875.381	981
875.430	1073
875.465	1081
875.538	1128
875.548	1135
875.631	631
875.646	550
875.714	178
875.753	376
875.798	639
875.861	838
875.881	888
875.964	540
875.968	511
876.047	51
876.076	367
876.130	945
876.183	934
876.213	916
876.291	1093
876.296	1101
876.379	732
876.398	637
876.462	390
876.506	728
876.545	973
876.613	723
876.628	723
876.711	723
876.721	850
876.794	1534
876.828	941
876.877	190
876.935	474
876.960	589
877.043	1140
877.043	1140
877.125	1395
877.150	1391
877.208	1297
877.258	1099
877.291	1013
877.365	1258
877.374	1287
877.456	1127
877.472	1154
877.539	1132
877.579	1270
877.622	1483
877.687	957
877.704	817
877.787	1050
877.794	1044
877.869	862
877.901	1016
877.952	1346
878.008	1150
878.034	1035
878.115	738
878.117	735
878.199	542
878.222	803
878.282	1425
878.329	1477
878.364	1581
878.437	1267
878.447	1166
878.529	277
878.544	297
878.611	875
878.651	979
878.694	912
878.758	1062
878.776	1181
878.858	1241
878.865	1226
878.941	499
878.972	529
879.023	853
879.078	1029
879.105	1102
879.185	1370
879.187	1377
879.269	1700
879.292	1557
879.351	971
879.399	884
879.433	996
879.506	694
879.516	628
879.598	1039
879.613	941
879.680	655
879.720	826
879.762	881
879.827	811
879.844	860
879.926	988
879.933	1072
880.007	1519
880.040	1449
880.089	1682
880.147	2346
880.171	2637
880.253	4660
880.254	4672
880.335	7047
880.360	7601
880.417	10238
880.467	15321
880.499	18847
880.574	23098
880.580	22630
880.662	7346
880.680	5381
880.744	2652
880.787	1626
880.825	1289
880.893	1277
880.907	1319
880.989	1230
881.000	1227
881.070	1146
881.106	1063
881.152	878
881.213	857
881.233	919
881.315	1024
881.319	1008
881.396	673
881.426	564
881.478	286
881.532	629
881.559	997
881.639	421
881.641	396
881.722	842
881.745	723
881.803	876
881.852	1347
881.885	1377
881.958	743
881.966	749
882.047	1635
882.064	1663
882.129	1290
882.171	1496
882.210	2010
882.277	2595
882.291	2592
882.372	1424
882.383	1415
882.454	1512
882.489	1184
882.535	693
882.596	691
882.616	765
882.697	653
882.702	655
882.778	944
882.808	968
882.859	713
882.914	669
882.940	789
883.020	1146
883.021	1148
883.102	628
883.127	582
883.183	854
883.233	828
883.264	637
883.339	655
883.345	661
883.426	726
883.445	692
883.507	821
883.551	802
883.587	880
883.657	1374
883.668	1454
883.749	1599
883.763	1631
883.830	832
883.869	483
883.910	710
883.975	796
883.991	809
884.072	1080
884.081	1129
884.152	1546
884.187	1456
884.233	1041
884.292	901
884.314	889
884.394	551
884.398	543
884.475	516
884.504	399
884.555	500
884.610	781
884.636	835
884.716	908
884.716	915
884.797	1580
884.821	1669
884.877	1191
884.927	928
884.958	1029
885.033	1254
885.038	1241
885.118	689
885.139	563
885.199	725
885.244	1087
885.279	1136
885.350	874
885.359	927
885.439	1752
885.456	1783
885.520	1200
885.561	1002
885.600	922
885.667	638
885.680	642
885.760	892
885.773	930
885.840	882
885.878	814
885.920	983
885.984	1130
886.000	1172
886.080	1560
886.089	1563
886.160	1348
886.195	1368
886.240	1354
886.300	1180
886.320	1183
886.400	1357
886.406	1358
886.480	1349
886.511	1361
886.560	1462
886.616	1539
886.640	1366
886.720	677
886.722	654
886.800	391
886.827	452
886.879	628
886.932	647
886.959	836
887.038	1475
887.039	1476
887.119	894
887.143	853
887.198	800
887.248	578
887.278	496
887.354	203
887.358	216
887.437	562
887.459	659
887.517	1080
887.564	1401
887.596	1432
887.669	1418
887.676	1370
887.755	786
887.774	625
887.835	917
887.880	1202
887.914	1202
887.985	1120
887.994	1133
888.073	1148
888.090	1165
888.153	1135
888.195	1083
888.232	1096
888.300	1160
888.311	1157
888.391	1095
888.405	1077
888.470	1190
888.510	1254
888.549	1241
888.615	1187
888.628	1178
888.708	1140
888.720	1127
888.787	942
888.825	802
888.866	841
888.930	989
888.945	1033
889.024	1209
889.035	1229
889.103	1327
889.140	1354
889.182	1530
889.245	1824
889.261	1882
889.340	2119
889.349	2141
889.419	1440
889.454	1080
889.498	906
889.559	666
889.577	797
889.656	1372
889.664	1428
889.735	1490
889.768	1516
889.814	1423
889.873	1293
889.978	687
890.083	1670
890.187	1007
890.292	1573
890.397	1005
890.501	948
890.606	1361
890.710	1581
890.815	1918
890.919	1627
891.024	689
891.128	1642
891.233	1160
891.337	1064
891.442	790
891.546	1212
891.650	898
891.755	1084
891.859	1649
891.963	1740
892.068	276
892.172	1642
892.276	877
892.380	1179
892.484	1299
892.589	1550
892.693	1806
892.797	603
892.901	725
893.005	750
893.109	915
893.213	1848
893.317	1871
893.421	132
893.525	1022
893.629	793
893.733	987
893.837	216
893.941	51
894.045	1158
894.148	1284
894.252	492
894.356	1069
894.460	2661
894.564	898
894.667	1131
894.771	0
894.875	987
894.978	1158
895.082	1068
895.186	1450
895.289	1366
895.393	589
895.496	1867
895.600	1018
895.703	825
895.807	801
895.910	1028
896.014	336
896.117	1658
896.221	693
896.324	1383
896.427	581
896.531	573
896.634	426
896.737	829
896.840	1183
896.944	456
897.047	1824
897.150	911
897.253	802
897.356	1530
897.460	14
897.563	1156
897.666	326
897.769	1519
897.872	377
897.975	606
898.078	695
898.181	1002
898.284	828
898.387	885
898.490	510
898.593	1165
898.695	240
898.798	1852
898.901	1466
899.004	914
899.107	139
899.209	1102
899.312	990
899.415	728
899.518	563
899.620	520
899.723	968
899.826	1950
899.928	1871
900.031	1359
900.133	996
900.236	688
900.338	471
900.441	785
900.543	713
900.646	394
900.748	755
900.851	1815
900.953	84
901.055	1820
901.158	526
901.260	1410
901.362	532
901.465	384
901.567	1021
901.669	1795
901.771	1326
901.873	632
901.976	975
902.078	1455
902.180	796
902.282	-11
902.384	759
902.486	2319
902.588	1129
902.690	1223
902.792	446
902.894	1289
902.996	351
903.098	722
903.200	181
903.302	1121
903.404	840
903.505	496
903.607	901
903.709	1044
903.811	926
903.913	871
904.014	177
904.116	295
904.218	317
904.319	1751
904.421	1265
904.523	926
904.624	329
904.726	413
904.827	189
904.929	540
905.030	796
905.132	1928
905.233	-71
905.335	384
905.436	1019
905.537	582
905.639	1153
905.740	275
905.841	953
905.943	748
906.044	819
906.145	1208
906.247	1242
906.348	23
906.449	545
906.550	462
906.651	1791
906.752	1081
906.854	427
906.955	936
907.056	192
907.157	1955
907.258	252
907.359	155
907.460	792
907.561	692
907.662	370
907.762	1309
907.863	880
907.964	1916
908.065	1530
908.166	293
908.267	1271
908.367	1011
908.468	133
908.569	1256
908.670	1048
908.770	1410
908.871	1457
908.971	912
909.072	1042
909.173	409
909.273	1046
909.374	696
909.474	863
909.575	525
909.675	452
909.776	924
909.876	572
909.977	993
910.077	1163
910.177	1488
910.278	642
910.378	575
910.478	1158
910.579	1029
910.679	887
910.779	1749
910.879	1230
910.980	1441
911.080	684
911.180	-138
911.280	601
911.380	628
911.480	509
911.580	1196
911.680	93
911.780	1829
911.880	665
911.980	767
912.080	460
912.180	275
912.280	1306
912.380	790
912.480	476
912.580	322
912.679	711
912.779	893
912.879	421
912.979	525
913.078	326
913.178	282
913.278	-72
913.377	862
913.477	1339
913.577	-100
913.676	1032
913.776	975
913.875	616
913.975	6
914.074	664
914.174	666
914.273	16
914.373	1184
914.472	890
914.572	1078
914.671	-124
914.770	1014
914.870	-308
914.969	87
915.068	174
915.167	1224
915.267	444
915.366	619
915.465	162
915.564	1082
915.663	648
915.763	624
915.862	617
915.961	1270
916.060	455
916.159	708
916.258	68
916.357	298
916.456	763
916.555	810
916.654	-37
916.752	930
916.851	713
916.950	336
917.049	395
917.148	759
917.247	429
917.345	620
917.444	-190
917.543	107
917.642	211
917.740	-302
917.839	468
917.937	1248
918.036	746
918.135	588
918.233	302
918.332	375
918.430	127
918.529	417
918.627	268
918.726	1138
918.824	-196
918.923	243
919.021	1154
919.119	669
919.218	486
919.316	1256
919.414	828
919.512	421
919.611	278
919.709	630
919.807	364
919.905	482
920.003	730
920.102	1519
920.200	793
920.298	914
920.396	593
920.494	259
920.592	420
920.690	979
920.788	560
920.886	621
920.984	1372
921.082	373
921.180	1825
921.277	527
921.375	1268
921.473	1894
921.571	1168
921.669	671
921.766	1765
921.864	1990
921.962	1704
922.060	1838
922.157	475
922.255	1045
922.352	1704
922.450	2184
922.548	1993
922.645	1990
922.743	1969
922.840	3204
922.938	3316
923.035	3543
923.133	2224
923.230	3593
923.327	4603
923.425	4803
923.522	3840
923.619	4057
923.717	3202
923.814	3519
923.911	3282
924.008	4230
924.106	3178
924.203	3317
924.300	3324
924.397	2903
924.494	2861
924.591	3935
924.688	3191
924.786	4022
924.883	3614
924.979	2885
925.077	3483
925.173	2952
925.270	3195
925.367	3303
925.464	3587
925.561	4377
925.658	3472
925.755	3346
925.852	3174
925.948	4329
926.045	3038
926.142	3098
926.239	3328
926.335	3471
926.432	3183
926.529	2977
926.625	3349
926.722	3511
926.818	3149
926.915	3555
927.011	2870
927.108	3678
927.204	2702
927.301	2650
927.397	3503
927.494	3152
927.590	1954
927.687	2316
927.783	3292
927.879	3655
927.976	2204
928.072	3119
928.168	3633
928.264	2454
928.361	2280
928.457	3651
928.553	2036
928.649	2823
928.745	2699
928.841	2582
928.937	2609
929.033	2838
929.129	3032
929.225	2691
929.321	2304
929.417	2434
929.513	3452
929.609	2682
929.705	2233
929.801	2769
929.897	2199
929.993	2071
930.089	2415
930.184	2105
930.280	1963
930.376	3560
930.471	1936
930.567	1370
930.663	1465
930.758	1799
930.854	1803
930.950	2744
931.045	1561
931.141	2215
931.236	3301
931.332	2446
931.427	1701
931.523	2360
931.618	2572
931.714	1786
931.809	2132
931.905	2977
932.000	1096
932.095	892
932.191	2113
932.286	2672
932.381	1935
932.476	2011
932.572	2150
932.667	1633
932.762	1796
932.857	2165
932.952	2102
933.047	1821
933.142	545
933.237	2150
933.332	974
933.427	2173
933.522	1481
933.617	1193
933.712	1819
933.807	2091
933.902	2603
933.997	3239
934.092	1669
934.187	2404
934.282	1591
934.376	1870
934.471	1462
934.566	1624
934.661	1477
934.755	1828
934.850	994
934.945	1699
935.039	1306
935.134	1901
935.228	945
935.323	2402
935.417	2000
935.512	450
935.606	1600
935.701	2225
935.795	1787
935.890	2010
935.984	903
936.079	1250
936.173	1779
936.267	887
936.362	223
936.456	1973
936.550	1763
936.644	2007
936.738	1386
936.833	1952
936.927	1801
937.021	1802
937.115	1795
937.209	1737
937.303	1675
937.397	654
937.491	1626
937.585	2349
937.679	1409
937.773	1839
937.867	996
937.961	1976
938.055	1531
938.149	1713
938.243	788
938.337	1560
938.430	1262
938.524	2126
938.618	1219
938.712	1990
938.805	1250
938.899	1609
938.993	1597
939.086	1256
939.180	812
939.274	1434
939.367	1910
939.461	2071
939.554	1218
939.648	826
939.741	1314
939.835	1535
939.928	1158
940.022	1759
940.115	1193
940.208	1735
940.302	1731
940.395	2127
940.488	1222
940.582	2206
940.675	532
940.768	982
940.861	1287
940.954	2402
941.048	780
941.141	1644
941.234	1332
941.327	2761
941.420	3147
941.513	1783
941.606	1169
941.699	2562
941.792	1614
941.885	1093
941.978	1555
942.071	1589
942.164	447
942.257	553
942.349	911
942.442	1468
942.535	840
942.628	983
942.721	1566
942.813	964
942.906	1888
942.999	1442
943.091	643
943.184	1689
943.277	911
943.369	1651
943.462	878
943.554	1129
943.647	621
943.739	1847
943.832	1126
943.924	66
944.017	1222
944.109	575
944.201	1061
944.294	960
944.386	765
944.478	1017
944.571	294
944.663	1240
944.755	1593
944.847	2080
944.940	504
945.032	442
945.124	664
945.216	1553
945.308	546
945.400	1680
945.492	474
945.584	1764
945.676	905
945.768	1631
945.860	704
945.952	1667
946.044	1612
946.136	1207
946.228	1262
946.320	1112
946.412	713
946.503	1726
946.595	1285
946.687	1431
946.779	205
946.870	1402
946.962	-819
947.054	633
947.145	1249
947.237	1619
947.329	815
947.420	1260
947.512	1214
947.603	644
947.695	932
947.786	417
947.878	651
947.969	1624
948.061	884
948.152	249
948.243	126
948.335	594
948.426	245
948.517	1390
948.609	774
948.700	644
948.791	224
948.882	561
948.973	219
949.065	618
949.156	748
949.247	238
949.338	941
949.429	225
949.520	130
949.611	509
949.702	1849
949.793	423
949.884	-100
949.975	912
950.066	222
950.157	1146
950.247	407
950.338	504
950.429	1129
950.520	902
950.611	149
950.701	659
950.792	371
950.883	1307
950.973	940
951.064	1508
951.155	1340
951.245	1005
951.336	846
951.427	733
951.517	1059
951.608	1206
951.698	-303
951.788	825
951.879	-312
951.969	-29
952.060	-186
952.150	1012
952.240	884
952.331	-782
952.421	1586
952.511	539
952.602	110
952.692	-154
952.782	184
952.872	214
952.962	74
953.052	1275
953.143	-136
953.233	1339
953.323	195
953.413	657
953.503	499
953.593	144
953.683	385
953.773	-12
953.863	-9
953.953	-98
954.042	1096
954.132	368
954.222	800
954.312	514
954.402	167
954.492	197
954.581	1019
954.671	734
954.761	-2
954.850	1966
954.940	-525
955.030	-317
955.119	-619
955.209	229
955.298	-201
955.388	433
955.477	773
955.567	61
955.656	-189
955.746	31
955.835	-82
955.925	-227
956.014	643
956.103	445
956.193	485
956.282	412
956.371	-184
956.461	101
956.550	172
956.639	327
956.728	-426
956.817	253
956.906	740
956.995	1235
957.085	60
957.174	710
957.263	-415
957.352	-458
957.441	375
957.530	28
957.619	109
957.708	314
957.796	46
957.885	742
957.974	353
958.063	525
958.152	-349
958.241	459
958.329	-360
958.418	-386
958.507	-747
958.596	1403
958.684	-1358
958.773	799
958.861	-44
958.950	-143
959.039	426
959.127	398
959.216	721
959.304	932
959.393	130
959.481	855
959.570	768
959.658	-77
959.746	-111
959.835	761
959.923	228
960.011	-255
960.100	-654
960.188	408
960.276	90
960.365	-113
960.453	-321
960.541	-571
960.629	-69
960.717	-74
960.805	-104
960.893	37
960.981	-112
961.069	1516
961.158	417
961.245	494
961.333	391
961.421	-154
961.509	-487
961.597	335
961.685	49
961.773	111
961.861	-388
961.949	948
962.036	-182
962.124	218
962.212	-390
962.299	-397
962.387	-438
962.475	689
962.562	-743
962.650	783
962.738	518
962.825	96
962.913	203
963.000	242
963.088	-25
963.175	340
963.263	22
963.350	423
963.438	58
963.525	-488
963.612	1930
963.700	2862
963.787	5620
963.874	2477
963.962	-318
964.049	-390
964.136	-551
964.223	-635
964.310	-399
964.398	-565
964.485	-703
964.572	95
964.659	780
964.746	261
964.833	-423
964.920	-670
965.007	-44
965.094	131
965.181	-707
965.268	742
965.355	-71
965.441	148
965.528	-714
965.615	996
965.702	-201
965.789	-185
965.875	-275
965.962	480
966.049	-129
966.136	121
966.222	-1354
966.309	832
966.395	-429
966.482	954
966.569	-262
966.655	196
966.742	-415
966.828	268
966.915	-842
967.001	-368
967.087	-886
967.174	352
967.260	63
967.347	361
967.433	703
967.519	3597
967.605	518
967.692	-167
967.778	124
967.864	-31
967.950	-107
968.036	50
968.123	-41
968.209	325
968.295	-1439
968.381	1316
968.467	455
968.553	-1291
968.639	116
968.725	-52
968.811	565
968.897	865
968.983	515
969.069	-884
969.154	256
969.240	1095
969.326	-578
969.412	-70
969.497	-874
969.583	-292
969.669	-298
969.755	535
969.840	-479
969.926	1092
970.012	23
970.097	976
970.183	1238
970.268	481
970.354	-165
970.439	40
970.525	2865
970.610	-15
970.696	-3
970.781	-91
970.866	-1072
970.952	305
971.037	-944
971.122	52
971.208	-575
971.293	742
971.378	-1106
971.463	624
971.549	535
971.634	-27
971.719	-334
971.804	238
971.889	925
971.974	-303
972.059	-739
972.144	138
972.229	-390
972.314	-772
972.399	391
972.484	-390
972.569	342
972.654	-136
972.739	982
972.824	546
972.908	-328
972.993	2
973.078	-809
973.163	-600
973.247	-583
973.332	-1707
973.417	46
973.501	-1609
973.586	-549
973.671	-171
973.755	-455
973.840	681
973.924	648
974.009	-103
974.093	-76
974.178	1161
974.262	502
974.346	-6
974.431	-479
974.515	-235
974.600	-521
974.684	614
974.768	27
974.852	910
974.937	-1888
975.021	436
975.105	-256
975.189	154
975.273	531
975.358	-768
975.442	-1531
975.526	659
975.610	-683
975.694	-526
975.778	626
975.862	-148
975.946	-2024
976.030	629
976.114	-630
976.198	-372
976.281	-1145
976.365	987
976.449	-606
976.533	465
976.617	-1183
976.700	-19
976.784	-185
976.868	-259
976.951	227
977.035	176
977.119	154
977.202	-250
977.286	202
977.369	-224
977.453	50
977.536	1
977.620	-692
977.703	431
977.787	-861
977.870	781
977.953	739
978.037	-1204
978.120	751
978.203	433
978.287	-31
978.370	336
978.453	-569
978.536	507
978.620	49
978.703	808
978.786	327
978.869	-487
978.952	-648
979.035	1377
979.118	525
979.201	-602
979.284	-513
979.367	213
979.450	33
979.533	-367
979.616	-403
979.699	-325
979.782	-137
979.865	563
979.948	-479
980.030	-220
980.113	-898
980.196	-463
980.279	443
980.361	16
980.444	-432
980.526	221
980.609	593
980.692	-196
980.774	-125
980.857	-1334
980.939	77
981.022	144
981.104	-801
981.187	-766
981.269	340
981.352	-590
981.434	-267
981.516	-66
981.599	573
981.681	238
981.763	-165
981.846	-9
981.928	-524
982.010	106
982.092	-988
982.174	34
982.256	-460
982.339	-706
982.421	-656
982.503	612
982.585	-297
982.667	273
982.749	-578
982.831	405
982.913	-294
982.995	273
983.077	-1513
983.158	725
983.240	-620
983.322	216
983.404	-58
983.486	-799
983.568	168
983.649	-80
983.731	-111
983.813	-251
983.894	144
983.976	-438
984.058	-649
984.139	146
984.221	-829
984.302	432
984.384	-970
984.465	-533
984.547	-923
984.628	-1330
984.710	110
984.791	261
984.872	-355
984.954	-121
985.035	370
985.116	-85
985.198	-498
985.279	483
985.360	-989
985.441	558
985.522	865
985.604	561
985.685	-1907
985.766	163
985.847	995
985.928	-422
986.009	522
986.090	-211
986.171	-45
986.252	-868
986.333	392
986.414	4
986.495	-322
986.576	-10
986.656	144
986.737	399
986.818	-354
986.899	-522
986.980	-42
987.060	423
987.141	-1359
987.222	670
987.302	665
987.383	788
987.464	320
987.544	882
987.625	395
987.705	1373
987.786	174
987.866	-302
987.947	-116
988.027	442
988.108	-114
988.188	1123
988.268	-395
988.349	240
988.429	465
988.509	789
988.589	-237
988.670	-1982
988.750	1584
988.830	679
988.910	156
988.990	520
989.070	-101
989.151	465
989.231	-585
989.311	525
989.391	46
989.471	263
989.551	-289
989.631	-191
989.711	734
989.791	-446
989.870	-413
989.950	1841
990.030	202
990.110	614
990.190	-811
990.269	-366
990.349	-570
990.429	205
990.509	-58
990.588	-690
990.668	-417
990.747	-142
990.827	-549
990.907	543
990.986	-416
991.066	-180
991.145	-1400
991.225	296
991.304	421
991.383	901
991.463	280
991.542	275
991.622	-149
991.701	-211
991.780	-565
991.859	11
991.939	-343
992.018	-306
992.097	-101
992.176	238
992.256	-143
992.335	-766
992.414	-203
992.493	-732
992.572	-40
992.651	534
992.730	-669
992.809	-483
992.888	-1054
992.967	-312
993.046	-378
993.125	-1223
993.203	-607
993.282	18
993.361	-397
993.440	-337
993.519	-1175
993.597	-540
993.676	-1111
993.755	227
993.834	195
993.912	-735
993.991	266
994.069	-987
994.148	-860
994.226	-1223
994.305	-115
994.384	-409
994.462	836
994.540	-437
994.619	-1065
994.697	-1267
994.776	-1316
994.854	-597
994.932	-842
995.011	-386
995.089	-333
995.167	548
995.245	-650
995.324	-713
995.402	-639
995.480	-782
995.558	-554
995.636	-718
995.714	-1378
995.792	132
995.870	-1858
995.948	-977
996.026	-631
996.104	-1605
996.182	162
996.260	-1352
996.338	-397
996.416	-1039
996.494	-1104
996.572	76
996.649	-946
996.727	-1670
996.805	-449
996.883	-798
996.960	-1579
997.038	-338
997.116	-346
997.193	-1136
997.271	-570
997.348	-975
997.426	-913
997.504	-822
997.581	-83
997.658	21
997.736	-1356
997.813	-1017
997.891	-266
997.968	-785
998.046	-1097
998.123	-925
998.200	-623
998.277	-1315
998.355	-1006
998.432	-1498
998.509	-448
998.586	-716
998.663	-1166
998.741	-977
998.818	-1695
998.895	-767
998.972	-551
999.049	-1097
999.126	-878
999.203	-242
999.280	-1107
999.357	-1000
999.434	-2199
999.511	-490
999.587	-96
999.664	-1293
999.741	-755
999.818	-415
999.895	-1147
999.971	-1584
1000.048	-854
1000.125	-249
1000.202	-1838
1000.278	-1718
1000.355	-1059
1000.431	-1531
1000.508	-1576
1000.584	-1027
1000.661	-1311
1000.738	-1264
1000.814	-1300
1000.890	-443
1000.967	-851
1001.043	-712
1001.120	-1644
1001.196	-739
1001.272	-2173
1001.349	-1228
1001.425	-994
1001.501	-779
1001.577	-1665
1001.654	-871
1001.730	-774
1001.806	-1246
1001.882	-2427
1001.958	-400
1002.034	-1167
1002.110	-1301
1002.186	-2051
1002.262	-1198
1002.338	-2023
1002.414	-38
1002.490	-614
1002.566	-1768
1002.642	-1114
1002.718	-698
1002.794	-1810
1002.870	-906
1002.945	-1560
1003.021	-1302
1003.097	-1534
1003.173	-1114
1003.248	-1982
1003.324	-1185
1003.400	-1298
1003.475	-1549
1003.551	-821
1003.626	-660
1003.702	-1580
1003.777	-1208
1003.853	-1008
1003.928	-1071
1004.004	-1877
1004.079	-579
1004.155	-1581
1004.230	-2207
1004.305	-1289
1004.381	-1614
1004.456	-1815
1004.531	-1180
1004.607	-769
1004.682	-1022
1004.757	-1327
1004.832	-1054
1004.907	-1327
1004.982	-793
1005.057	-823
1005.133	-1071
1005.208	-1851
1005.283	-1520
1005.358	-1016
1005.433	-1683
1005.508	-751
1005.583	-1745
1005.657	-978
1005.732	-767
1005.807	-1087
1005.882	-1302
1005.957	-1429
1006.032	-191
1006.106	-1751
1006.181	-879
1006.256	-832
1006.331	-1229
1006.405	-1640
1006.480	-1295
1006.554	-1270
1006.629	-1872
1006.704	-1502
1006.778	-570
1006.853	-1509
1006.927	-2107
1007.002	-1700
1007.076	-622
1007.150	-1336
1007.225	-577
1007.299	-1322
1007.373	-2126
1007.448	-1309
1007.522	-64
1007.596	-835
1007.671	-1036
1007.745	-1304
1007.819	-2076
1007.893	-2268
1007.967	-1144
1008.041	-2832
1008.115	-1259
1008.190	-1644
1008.264	-550
1008.338	-2224
1008.412	-1584
1008.486	-1830
1008.560	-1263
1008.633	-1809
1008.707	-1095
1008.781	-1140
1008.855	-1163
1008.929	-1541
1009.003	-2166
1009.076	-1587
1009.150	-1798
1009.224	-1610
1009.298	-1473
1009.371	-1807
1009.445	-807
1009.519	-1237
1009.592	-1988
1009.666	-2105
1009.739	-971
1009.813	-2245
1009.886	-522
1009.960	-1784
1010.033	-1120
1010.107	-775
1010.180	-1643
1010.253	-1506
1010.327	-1273
1010.400	-1542
1010.473	-1710
1010.547	-263
1010.620	-1888
1010.693	-1653
1010.766	-2027
1010.840	-1119
1010.913	-1248
1010.986	-2134
1011.059	-2225
1011.132	-1529
1011.205	-775
1011.278	-1851
1011.351	-1002
1011.424	-1728
1011.497	-1537
1011.570	-1658
1011.643	-1207
1011.716	-2360
1011.789	-1897
1011.862	-1025
1011.934	-644
1012.007	-2570
1012.080	-496
1012.153	-2119
1012.225	-1048
1012.298	-1104
1012.371	-1714
1012.443	-1452
1012.516	-1877
1012.588	-1114
1012.661	-768
1012.733	-2214
1012.806	-591
1012.879	-2161
1012.951	-797
1013.023	-1874
1013.096	-820
1013.168	-1069
1013.241	-951
1013.313	-1244
1013.385	-1253
1013.458	-1687
1013.530	-886
1013.602	-2118
1013.674	-823
1013.746	-2636
1013.819	-2432
1013.891	-1491
1013.963	-1387
1014.035	-1895
1014.107	-1123
1014.179	-1441
1014.251	-1666
1014.323	-1016
1014.395	-1399
1014.467	-1268
1014.539	-549
1014.611	-1746
1014.683	-1619
1014.754	-1865
1014.826	-1269
1014.898	-1607
1014.970	-1814
1015.042	-367
1015.113	-1428
1015.185	-1220
1015.257	-1678
1015.328	-1427
1015.400	-1012
1015.471	-2045
1015.543	-1885
1015.615	-2086
1015.686	-1078
1015.757	-1585
1015.829	-397
1015.901	-766
1015.972	-1532
1016.043	-1861
1016.115	-1329
1016.186	-1830
1016.257	-2213
1016.328	-1005
1016.400	-297
1016.471	-1921
1016.542	-1507
1016.613	-1815
1016.685	-581
1016.756	-1009
1016.827	-641
1016.898	-1840
1016.969	-1006
1017.040	-1518
1017.111	-1220
1017.182	-1845
1017.253	-1635
1017.324	-1383
1017.395	-1647
1017.466	-1477
1017.537	-1261
1017.608	-1941
1017.678	-1745
1017.749	-2501
1017.820	-1294
1017.891	-2083
1017.961	-1753
1018.032	-2161
1018.103	-710
1018.173	-1817
1018.244	-1016
1018.315	-2137
1018.385	-570
1018.456	-1710
1018.526	-1523
1018.597	-1376
1018.667	-1364
1018.738	-1666
1018.808	-1375
1018.878	-2230
1018.949	-1210
1019.019	-1631
1019.089	-1728
1019.160	-1321
1019.230	-1668
1019.300	-921
1019.371	-1627
1019.441	-1429
1019.511	-1068
1019.581	-1936
1019.651	-1221
1019.721	-1609
1019.791	-961
1019.861	-1744
1019.931	-1787
1020.001	-1661
1020.071	-518
1020.141	-1219
1020.211	-1192
1020.281	-1244
1020.351	-1767
1020.421	-1495
1020.491	-338
1020.560	-1997
1020.630	-1582
1020.700	-1222
1020.770	-1547
1020.839	-1640
1020.909	-618
1020.979	-1654
1021.048	-1433
1021.118	-1304
1021.187	-1016
1021.257	-2010
1021.326	-995
1021.396	-2046
1021.465	-914
1021.535	-1445
1021.604	-1470
1021.674	-1503
1021.743	-869
1021.812	-1481
1021.882	-1106
1021.951	-1732
1022.020	-1298
1022.089	-1301
1022.159	-1125
1022.228	-1627
1022.297	-1184
1022.366	-1101
1022.435	-602
1022.504	-2102
1022.573	-1587
1022.642	-1213
1022.711	-1682
1022.781	-804
1022.849	-801
1022.918	-2043
1022.987	-786
1023.056	-1331
1023.125	-1400
1023.194	-1522
1023.263	-1176
1023.331	-1334
1023.400	-1967
1023.469	-2254
1023.538	-851
1023.606	-2058
1023.675	-1429
1023.744	-1620
1023.812	-1067
1023.881	-1525
1023.949	-1043
1024.018	-1297
1024.086	-1320
1024.155	-1662
1024.223	-1096
1024.292	-2202
1024.360	-1206
1024.429	-2064
1024.497	-1214
1024.565	-765
1024.634	-1425
1024.702	-1509
1024.770	-1195
1024.838	-1723
1024.907	-905
1024.975	-2173
1025.043	-1081
1025.111	-2498
1025.179	-839
1025.247	-1612
1025.315	-1933
1025.383	-1839
1025.451	-2245
1025.519	-1239
1025.587	-1487
1025.655	-960
1025.723	-1963
1025.791	-2167
1025.859	-1188
1025.927	-1049
1025.995	-1540
1026.062	-1248
1026.130	-1357
1026.198	-1886
1026.266	-1450
1026.333	-979
1026.401	-652
1026.469	-2029
1026.536	-1438
1026.604	-2012
1026.671	-994
1026.739	-1562
1026.806	-1589
1026.874	-1981
1026.941	-1219
1027.009	-1899
1027.076	-1292
1027.144	-1248
1027.211	-2188
1027.278	-1493
1027.345	-1548
1027.413	-1189
1027.480	-1915
1027.547	-2059
1027.614	-1318
1027.682	-1389
1027.749	-2032
1027.816	-1369
1027.883	-1198
1027.950	-1298
1028.017	-1725
1028.084	-1627
1028.151	-1539
1028.218	-1797
1028.285	-1069
1028.352	-1452
1028.419	-1971
1028.486	-1963
1028.553	-1257
1028.619	-2454
1028.686	-269
1028.753	-1314
1028.820	-1592
1028.886	-1902
1028.953	-1308
1029.020	-1172
1029.086	-2191
1029.153	-2381
1029.220	-1841
1029.286	-1348
1029.353	-1169
1029.419	-2087
1029.486	-1354
1029.552	-1564
1029.619	-1111
1029.685	-2057
1029.751	-1134
1029.818	-782
1029.884	-1022
1029.951	-2111
1030.017	-1435
1030.083	-1476
1030.149	-1090
1030.216	-2150
1030.282	-1558
1030.348	-1476
1030.414	-1670
1030.480	-1937
1030.546	-1601
1030.612	-1768
1030.678	-2607
1030.744	-1526
1030.810	-1588
1030.876	-1557
1030.942	-1814
1031.008	-1890
1031.074	-2098
1031.140	-2076
1031.206	-958
1031.272	-2076
1031.337	-809
1031.403	-1042
1031.469	-1343
1031.534	-2155
1031.600	-1495
1031.666	-1656
1031.731	-1394
1031.797	-1201
1031.863	-904
1031.928	-2502
1031.994	-2129
1032.059	-1543
1032.125	-988
1032.190	-2330
1032.256	-1826
1032.321	-2491
1032.386	-1534
1032.452	-1123
1032.517	-1819
1032.582	-1013
1032.647	-1444
1032.713	-2119
1032.778	-2085
1032.843	-1637
1032.908	-2241
1032.974	-1965
1033.039	-1609
1033.104	-1518
1033.169	-1973
1033.234	-1459
1033.299	-854
1033.364	-403
1033.429	-524
1033.494	-1498
1033.559	-2382
1033.624	-1206
1033.688	-1233
1033.753	-1926
1033.818	-1486
1033.883	-828
1033.948	-688
1034.013	-1792
1034.077	-281
1034.142	55
1034.207	478
1034.271	950
1034.336	840
1034.400	511
1034.465	-422
1034.530	-930
1034.594	-1622
1034.658	-1219
1034.723	-2164
1034.787	-1643
1034.852	-2099
1034.916	-2233
1034.981	-1483
1035.045	-1935
1035.109	-2307
1035.173	-1331
1035.238	-1642
1035.302	-1544
1035.366	-1134
1035.430	-1629
1035.495	-945
1035.559	-1714
1035.623	-1762
1035.687	-3330
1035.751	-1347
1035.815	-1510
1035.879	-2074
1035.943	-2121
1036.007	-1993
1036.071	-1898
1036.135	-1342
1036.198	-1454
1036.262	-1656
1036.326	-1402
1036.390	-1080
1036.454	-1069
1036.517	-772
1036.581	-1293
1036.645	319
1036.709	-856
1036.772	-1963
1036.836	-1594
1036.900	-1455
1036.963	-3001
1037.026	-1641
1037.090	-2416
1037.154	-1507
1037.217	-2075
1037.280	-1416
1037.344	-2017
1037.407	-1853
1037.471	-1893
1037.534	-1183
1037.597	-2286
1037.661	-2468
1037.724	-2413
1037.787	-2100
1037.850	-1866
1037.913	-1350
1037.977	-1622
1038.040	-1632
1038.103	-2721
1038.166	-1802
1038.229	-1618
1038.292	-1497
1038.355	-2449
1038.418	-1641
1038.481	-1694
1038.544	-2016
1038.607	-1929
1038.670	-1250
1038.732	-2371
1038.795	-2280
1038.858	-1550
1038.921	-1696
1038.984	-2034
1039.046	-1967
1039.109	-1835
1039.172	-1486
1039.234	-2331
1039.297	-1685
1039.360	-1775
1039.422	-2288
1039.485	-2338
1039.547	-1762
1039.610	-2039
1039.672	-1930
1039.734	-2144
1039.797	-2515
1039.859	-1770
1039.922	-2495
1039.984	-2047
1040.046	-1496
1040.109	-1616
1040.171	-2103
1040.233	-2393
1040.295	-2071
1040.358	-1973
1040.420	-2437
1040.482	-1626
1040.544	-1568
1040.606	-1785
1040.668	-1742
1040.730	-2090
1040.792	-2137
1040.854	-2294
1040.916	-1849
1040.978	-1962
1041.040	-1258
1041.102	-2011
1041.164	-1612
1041.225	-2279
1041.287	-2407
1041.349	-1707
1041.411	-2080
1041.472	-2718
1041.534	-2138
1041.596	-2234
1041.657	-1811
1041.719	-1645
1041.781	-1930
1041.842	-2050
1041.904	-1923
1041.965	-2463
1042.027	-2340
1042.088	-1475
1042.150	-1852
1042.211	-2089
1042.272	-1215
1042.334	-2050
1042.395	-1752
1042.456	-2385
1042.518	-2178
1042.579	-2306
1042.640	-1420
1042.701	-1546
1042.763	-2153
1042.824	-2454
1042.885	-1637
1042.946	-1455
1043.007	-1469
1043.068	-1914
1043.129	-2544
1043.190	-1988
1043.251	-1860
1043.312	-1210
1043.373	-2048
1043.434	-1679
1043.495	-1599
1043.556	-2580
1043.616	-1734
1043.677	-2153
1043.738	-1885
1043.799	-2879
1043.859	-1348
1043.920	-2615
1043.981	-1857
1044.041	-2267
1044.102	-2031
1044.162	-2097
1044.223	-1847
1044.284	-2311
1044.344	-1651
1044.405	-2650
1044.465	-1091
1044.525	-2550
1044.586	-1516
1044.646	-2509
1044.707	-1330
1044.767	-2118
1044.827	-1063
1044.887	-1885
1044.948	-1695
1045.008	-2191
1045.068	-2353
1045.128	-1486
1045.188	-1461
1045.249	-1319
1045.309	-1458
1045.369	-1800
1045.429	-1934
1045.489	-2405
1045.549	-2294
1045.609	-2239
1045.669	-1452
1045.729	-2602
1045.789	-1814
1045.848	-2406
1045.908	-1580
1045.968	-1061
1046.028	-1498
1046.088	-2301
1046.147	-1496
1046.207	-2108
1046.267	-1443
1046.326	-1873
1046.386	-1696
1046.446	-896
1046.505	-1052
1046.565	-1747
1046.624	-960
1046.684	-1614
1046.743	-505
1046.803	-1296
1046.862	256
1046.922	0
