'Start Wavelength	183.907
'End Wavelength	1046.922
'Gate Delay	5.000
'Gate Width (ms)	1.050
'Laser Output Level	0.000
'X Position	0.000
'Y Position	0.000
'Z Position	0.000
'Grid Point Number	1.000
'Shot Number	100.000
183.907	283.000
183.977	280.000
184.047	-64
184.116	306
184.186	-298
184.256	199
184.325	141
184.395	-689
184.465	711
184.534	62
184.604	-141
184.674	888
184.743	-555
184.813	381
184.883	529
184.952	337
185.022	152
185.092	-570
185.161	186
185.231	194
185.301	-18
185.370	877
185.440	-177
185.509	-349
185.579	814
185.649	-253
185.718	87
185.788	101
185.857	-644
185.927	-203
185.996	-5
186.066	679
186.136	259
186.205	-151
186.275	-44
186.344	-256
186.414	148
186.483	-180
186.553	1278
186.622	623
186.692	-268
186.761	734
186.831	939
186.900	35
186.970	320
187.039	161
187.109	976
187.178	-780
187.248	-51
187.317	415
187.387	-304
187.456	318
187.526	953
187.595	885
187.664	347
187.734	674
187.803	526
187.873	285
187.942	10
188.012	906
188.081	1243
188.150	-209
188.220	469
188.289	1110
188.358	1013
188.428	677
188.497	213
188.567	814
188.636	916
188.705	752
188.775	17
188.844	-391
188.913	1341
188.983	289
189.052	-313
189.121	323
189.191	-102
189.260	1433
189.329	712
189.399	386
189.468	979
189.537	562
189.606	801
189.676	1123
189.745	852
189.814	1065
189.883	619
189.953	1114
190.022	1208
190.091	2931
190.161	2816
190.230	1543
190.299	402
190.368	657
190.437	758
190.507	1008
190.576	251
190.645	816
190.714	-22
190.783	534
190.853	1200
190.922	1216
190.991	701
191.060	504
191.129	-330
191.198	1426
191.268	-127
191.337	442
191.406	1021
191.475	828
191.544	168
191.613	574
191.682	657
191.752	1041
191.821	290
191.890	505
191.959	762
192.028	670
192.097	679
192.166	640
192.235	43
192.304	1117
192.373	305
192.442	608
192.511	372
192.580	462
192.650	173
192.719	687
192.788	630
192.857	-52
192.926	586
192.995	445
193.064	1205
193.133	1863
193.202	1306
193.271	1677
193.340	1945
193.409	1468
193.478	2124
193.547	1342
193.615	2639
193.684	2914
193.753	1920
193.822	1380
193.891	372
193.960	1295
194.029	1448
194.098	777
194.167	1230
194.236	1507
194.305	-93
194.374	789
194.443	1018
194.512	1281
194.580	1374
194.649	1597
194.718	1162
194.787	1026
194.856	389
194.925	1114
194.994	326
195.062	1851
195.131	1282
195.200	2214
195.269	1645
195.338	1961
195.407	1209
195.475	1351
195.544	1711
195.613	1269
195.682	1448
195.751	2005
195.819	1293
195.888	1887
195.957	1950
196.026	1860
196.094	1564
196.163	2135
196.232	1540
196.301	1896
196.369	697
196.438	1728
196.507	1127
196.576	732
196.644	891
196.713	1204
196.782	481
196.850	453
196.919	858
196.988	818
197.056	1273
197.125	988
197.194	1018
197.262	688
197.331	1183
197.400	751
197.468	840
197.537	473
197.606	870
197.674	1821
197.743	3167
197.812	1272
197.880	2645
197.949	2732
198.017	2424
198.086	2135
198.155	1210
198.223	739
198.292	3242
198.360	2452
198.429	1081
198.497	847
198.566	2183
198.635	3574
198.703	1453
198.772	1677
198.840	2786
198.909	4251
198.977	1507
199.046	1624
199.114	1302
199.183	1265
199.251	1069
199.320	812
199.388	703
199.457	607
199.525	1241
199.594	1610
199.662	673
199.731	1169
199.799	1494
199.867	1226
199.936	643
200.004	1479
200.073	446
200.141	1373
200.210	815
200.278	2304
200.346	1431
200.415	1446
200.483	1645
200.552	2018
200.620	1062
200.688	874
200.757	818
200.825	650
200.893	301
200.962	1374
201.030	772
201.098	1339
201.167	1615
201.235	1408
201.303	783
201.372	1545
201.440	1529
201.508	1933
201.577	1103
201.645	2244
201.713	1989
201.781	1722
201.850	2047
201.918	2105
201.986	1496
202.055	1783
202.123	965
202.191	1109
202.259	885
202.327	1428
202.396	466
202.464	1608
202.532	2071
202.600	6008
202.669	4070
202.737	2054
202.805	1073
202.873	1036
202.941	1216
203.009	1228
203.078	-45
203.146	2053
203.214	1047
203.282	665
203.350	1574
203.418	1252
203.487	1607
203.555	1182
203.623	845
203.691	1835
203.759	853
203.827	1505
203.895	1048
203.963	1401
204.031	366
204.099	1490
204.168	1501
204.236	1855
204.304	1316
204.372	1132
204.440	1463
204.508	1313
204.576	918
204.644	1319
204.712	890
204.780	1196
204.848	1824
204.916	783
204.984	1409
205.052	1650
205.120	1418
205.188	1734
205.256	1472
205.324	620
205.392	1866
205.460	1366
205.528	1398
205.596	2220
205.664	1191
205.732	1639
205.799	4385
205.867	7071
205.935	1679
206.003	2883
206.071	1815
206.139	2312
206.207	1592
206.275	2118
206.343	1280
206.411	1549
206.478	1770
206.546	988
206.614	1590
206.682	1321
206.750	2487
206.818	2464
206.885	2559
206.953	1352
207.021	1665
207.089	2156
207.157	1698
207.225	1501
207.292	1456
207.360	1560
207.428	1605
207.496	1674
207.563	1111
207.631	1379
207.699	1438
207.767	1581
207.834	1499
207.902	1817
207.970	2585
208.038	1512
208.105	1802
208.173	1921
208.241	2650
208.309	2538
208.376	2159
208.444	4617
208.512	2962
208.579	1735
208.647	2119
208.715	3476
208.782	1955
208.850	2160
208.918	1689
208.985	2354
209.053	2316
209.120	2010
209.188	1273
209.256	2550
209.323	2071
209.391	2295
209.459	3141
209.526	2367
209.594	812
209.661	1868
209.729	2097
209.796	2018
209.864	2343
209.932	1869
209.999	2725
210.067	3782
210.134	2161
210.202	2182
210.269	3707
210.337	3319
210.404	2250
210.472	2065
210.539	2439
210.607	2401
210.674	2944
210.742	2064
210.809	2276
210.877	2646
210.944	3340
211.012	2078
211.079	5148
211.146	1869
211.214	2247
211.281	3884
211.349	3038
211.416	3584
211.484	2870
211.551	1829
211.618	2355
211.686	2793
211.753	2238
211.821	2946
211.888	2223
211.955	2754
212.023	2293
212.090	2999
212.157	2832
212.225	3585
212.292	5236
212.359	8860
212.427	17505
212.494	9958
212.561	3771
212.629	4147
212.696	2234
212.763	3092
212.831	2046
212.898	3719
212.965	2401
213.032	3655
213.100	4034
213.167	3039
213.234	4456
213.301	2537
213.369	3287
213.436	2260
213.503	1910
213.570	3396
213.638	3209
213.705	2930
213.772	1720
213.839	2788
213.906	4435
213.973	3178
214.041	2624
214.108	3078
214.175	2833
214.242	3455
214.309	2398
214.376	3421
214.444	2640
214.511	3715
214.578	3116
214.645	3492
214.712	3942
214.779	3913
214.846	3119
214.913	3954
214.980	4584
215.048	4565
215.115	4844
215.182	4812
215.249	3771
215.316	3111
215.383	3658
215.450	3386
215.517	2947
215.584	2933
215.651	3052
215.718	3125
215.785	3715
215.852	3692
215.919	4128
215.986	4555
216.053	2856
216.120	2416
216.187	3500
216.254	4249
216.321	3342
216.388	3592
216.455	3816
216.522	3966
216.589	5461
216.656	7526
216.722	7429
216.789	5203
216.856	5455
216.923	4595
216.990	4419
217.057	4335
217.124	5609
217.191	4788
217.258	5457
217.324	6804
217.391	6710
217.458	5586
217.525	5083
217.592	4790
217.659	3282
217.725	4229
217.792	5219
217.859	5222
217.926	3380
217.993	3002
218.059	3648
218.126	3320
218.193	2844
218.260	2280
218.327	2230
218.393	3726
218.460	3507
218.527	3160
218.594	2859
218.660	6131
218.727	5565
218.794	3549
218.860	3421
218.927	2147
218.994	2556
219.061	2066
219.127	3951
219.194	5324
219.261	3494
219.327	1936
219.394	2728
219.461	1739
219.527	2061
219.594	4684
219.661	3061
219.727	2398
219.794	2679
219.860	1364
219.927	3284
219.994	4384
220.060	7508
220.127	6508
220.193	4354
220.260	3238
220.326	5147
220.393	7548
220.460	9440
220.526	6781
220.593	5037
220.659	5468
220.726	6361
220.792	10719
220.859	10755
220.925	12463
220.992	15020
221.058	15144
221.125	13869
221.191	10799
221.258	5560
221.324	4479
221.391	3737
221.457	3529
221.524	3331
221.590	4550
221.657	11883
221.723	9290
221.789	8298
221.856	8556
221.922	4569
221.989	3778
222.055	4032
222.121	2504
222.188	5147
222.254	3956
222.321	3508
222.387	2392
222.453	2956
222.520	2999
222.586	2449
222.652	3181
222.719	1921
222.785	3294
222.851	2637
222.918	2489
222.984	2965
223.050	4251
223.116	2129
223.183	3223
223.249	1797
223.315	1433
223.382	1686
223.448	1658
223.514	1743
223.580	2291
223.647	1866
223.713	1374
223.779	2345
223.845	2997
223.911	2427
223.978	1427
224.044	2352
224.110	2137
224.176	2679
224.242	1917
224.309	975
224.375	2552
224.441	1452
224.507	2140
224.573	1855
224.639	2510
224.705	2071
224.772	2940
224.838	2028
224.904	2851
224.970	2515
225.036	2243
225.102	2027
225.168	4069
225.234	2267
225.300	2493
225.366	2188
225.432	1498
225.499	2476
225.565	3210
225.631	3139
225.697	3375
225.763	3333
225.829	4131
225.895	4332
225.961	7031
226.027	5876
226.093	5682
226.159	6660
226.225	8505
226.291	15803
226.357	24374
226.423	15996
226.489	9787
226.554	7715
226.620	6984
226.686	8791
226.752	13240
226.818	15478
226.884	29883
226.950	26514
227.016	13914
227.082	8428
227.148	7279
227.214	7220
227.279	7266
227.345	5130
227.411	5578
227.477	5404
227.543	9656
227.609	10422
227.674	7807
227.740	5024
227.806	4786
227.872	3782
227.938	4640
228.003	7764
228.069	4878
228.135	2803
228.201	2497
228.267	3121
228.332	3822
228.398	4285
228.464	3590
228.530	2060
228.595	2961
228.661	2201
228.727	4514
228.792	5162
228.858	3472
228.924	3061
228.990	5672
229.055	4775
229.121	5385
229.187	3745
229.252	4382
229.318	3014
229.384	3658
229.449	4353
229.515	1290
229.581	1252
229.646	3467
229.712	3538
229.777	7535
229.843	8595
229.909	7347
229.974	6713
230.040	7048
230.105	4922
230.171	5850
230.236	7038
230.302	9895
230.368	8122
230.433	4608
230.499	4398
230.564	7236
230.630	3430
230.695	3299
230.761	4366
230.826	2899
230.892	6306
230.957	3190
231.023	2745
231.088	3738
231.154	3613
231.219	3987
231.284	3729
231.350	6511
231.415	3029
231.481	3601
231.546	2418
231.612	3343
231.677	2273
231.742	1941
231.808	4255
231.873	2844
231.939	1542
232.004	6040
232.069	7131
232.135	3255
232.200	3211
232.265	3223
232.331	2926
232.396	1984
232.461	2813
232.527	2718
232.592	2616
232.657	2804
232.723	5370
232.788	4988
232.853	3761
232.918	3066
232.984	2596
233.049	2076
233.114	5047
233.179	6369
233.245	7013
233.310	9505
233.375	2296
233.440	3773
233.506	3482
233.571	2491
233.636	2912
233.701	2858
233.766	5290
233.832	8619
233.897	4001
233.962	4324
234.027	6389
234.092	5349
234.157	3655
234.222	4236
234.288	7052
234.353	15476
234.418	16739
234.483	11171
234.548	8630
234.613	6517
234.678	5772
234.743	5906
234.808	18394
234.873	12532
234.938	7312
235.004	5515
235.069	4408
235.134	4518
235.199	4988
235.264	4217
235.329	1908
235.394	5368
235.459	5849
235.524	4962
235.589	4242
235.654	4095
235.719	2730
235.784	4259
235.849	4592
235.913	10429
235.978	10867
236.043	13958
236.108	5872
236.173	4938
236.238	7428
236.303	4754
236.368	4089
236.433	7415
236.498	11795
236.563	9236
236.627	13840
236.692	37921
236.757	35531
236.822	17678
236.887	13947
236.952	11424
237.017	8141
237.081	10438
237.146	10815
237.211	20345
237.276	36532
237.341	59723
237.405	36037
237.470	16276
237.535	12960
237.600	8897
237.664	7267
237.729	5342
237.794	6938
237.859	14631
237.923	12736
237.988	7379
238.053	9894
238.118	10068
238.182	20272
238.247	21584
238.312	11569
238.376	10135
238.441	7056
238.506	7985
238.570	2814
238.635	5036
238.700	3457
238.764	3696
238.829	9769
238.893	12922
238.958	7274
239.023	6990
239.087	4642
239.152	6064
239.216	3932
239.281	4166
239.346	4403
239.410	4179
239.475	5036
239.539	19546
239.604	17770
239.668	6788
239.733	5564
239.797	7051
239.862	15973
239.926	20168
239.991	8658
240.055	5524
240.120	5529
240.184	5098
240.249	4410
240.313	4393
240.378	3953
240.442	13169
240.507	21319
240.571	7996
240.635	9691
240.700	14452
240.764	5702
240.829	4947
240.893	2847
240.957	5345
241.022	10784
241.086	21150
241.151	11559
241.215	4765
241.279	7122
241.344	12324
241.408	7328
241.472	5973
241.537	6450
241.601	6618
241.665	4035
241.730	4974
241.794	6054
241.858	5263
241.922	5975
241.987	6873
242.051	4917
242.115	4761
242.179	5455
242.244	3986
242.308	5430
242.372	5549
242.436	7332
242.501	6307
242.565	4217
242.629	4255
242.693	4565
242.757	3631
242.822	4756
242.886	5277
242.950	6387
243.014	5376
243.078	6481
243.142	7810
243.206	4719
243.271	6468
243.335	5574
243.399	9491
243.463	24119
243.527	60702
243.591	24449
243.655	12401
243.719	6882
243.783	8182
243.847	11397
243.911	15323
243.975	19291
244.040	15741
244.104	9249
244.168	6508
244.232	10188
244.296	14930
244.360	14319
244.424	9648
244.488	8129
244.552	6947
244.615	4420
244.679	5707
244.743	6579
244.807	7482
244.871	4692
244.935	5292
244.999	3715
245.063	5914
245.127	7149
245.191	9977
245.255	10201
245.319	9247
245.383	8994
245.446	7708
245.510	4965
245.574	6679
245.638	6914
245.702	6177
245.766	14154
245.829	10374
245.893	7694
245.957	6818
246.021	8261
246.085	8466
246.149	10033
246.212	19224
246.276	27558
246.340	14635
246.404	10726
246.467	10336
246.531	14814
246.595	10576
246.659	9698
246.722	9314
246.786	11742
246.850	11527
246.913	13127
246.977	6425
247.041	6939
247.104	8940
247.168	8050
247.232	18094
247.295	35148
247.359	21204
247.423	9886
247.486	16588
247.550	12330
247.614	8489
247.677	13331
247.741	9706
247.804	7119
247.868	10230
247.932	15748
247.995	36498
248.059	16815
248.122	9110
248.186	11411
248.249	19159
248.313	50614
248.376	58695
248.440	40257
248.503	17997
248.567	14814
248.630	18751
248.694	27261
248.757	32650
248.821	56677
248.884	42444
248.948	34823
249.011	49597
249.075	64184
249.138	61598
249.202	29507
249.265	18065
249.328	22093
249.392	16115
249.455	14332
249.519	9860
249.582	12904
249.645	20818
249.709	15369
249.772	10796
249.835	10611
249.899	12425
249.962	10098
250.025	9866
250.089	22745
250.152	35092
250.215	19221
250.279	14175
250.342	13502
250.405	13288
250.468	11383
250.532	14491
250.595	22165
250.658	54839
250.721	92544
250.785	42038
250.848	24636
250.911	15237
250.974	14612
251.038	17812
251.101	36230
251.164	22120
251.227	21488
251.290	20480
251.354	24763
251.417	73069
251.480	83237
251.543	59930
251.606	124012
251.669	111232
251.732	52061
251.795	50881
251.859	49999
251.922	87133
251.985	63212
252.048	27906
252.111	22214
252.174	20997
252.237	35042
252.300	67663
252.363	71251
252.426	113100
252.489	61378
252.552	36722
252.615	25565
252.678	25940
252.741	50088
252.804	64297
252.867	114188
252.930	86713
252.993	51682
253.056	32991
253.119	26276
253.182	20465
253.245	29468
253.308	25452
253.371	25626
253.434	25593
253.497	22442
253.559	35873
253.622	29803
253.685	37971
253.748	41711
253.811	20076
253.874	23998
253.937	24297
254.000	18814
254.062	26450
254.125	39103
254.188	36802
254.251	33927
254.314	18281
254.376	28768
254.439	34427
254.502	31300
254.565	28829
254.628	47650
254.690	35282
254.753	20604
254.816	17267
254.878	18467
254.941	27673
255.004	30223
255.067	16493
255.129	17771
255.192	10631
255.255	9088
255.317	11670
255.380	9343
255.443	5962
255.505	7547
255.568	7752
255.631	7596
255.693	8842
255.756	6759
255.819	7886
255.881	6152
255.944	6281
256.006	6542
256.069	6492
256.132	6600
256.194	9693
256.257	21682
256.319	17687
256.382	16695
256.444	10614
256.507	7667
256.569	6166
256.632	7586
256.694	13001
256.757	23273
256.819	64062
256.882	31582
256.944	15339
257.007	13719
257.069	15729
257.132	9880
257.194	8910
257.257	7237
257.319	8868
257.381	8171
257.444	19428
257.506	65428
257.569	89395
257.631	56587
257.693	31183
257.756	15389
257.818	14624
257.880	9315
257.943	9049
258.005	7745
258.067	7712
258.130	8160
258.192	9128
258.254	22698
258.317	14656
258.379	8998
258.441	19835
258.503	20224
258.566	23225
258.628	32177
258.690	10646
258.753	10596
258.815	21259
258.877	13837
258.939	8436
259.001	8022
259.064	6985
259.126	9265
259.188	13975
259.250	9431
259.312	11904
259.375	29112
259.437	21961
259.499	8962
259.561	8555
259.623	9089
259.685	9426
259.747	8319
259.809	21079
259.872	42145
259.934	54267
259.996	58351
260.058	21208
260.120	9632
260.182	8184
260.244	6572
260.306	6402
260.368	8442
260.430	7480
260.492	15352
260.554	30573
260.616	24491
260.678	31383
260.740	46004
260.802	14526
260.864	12285
260.926	9589
260.988	10673
261.050	9538
261.112	20327
261.174	46810
261.236	35986
261.298	14580
261.359	19577
261.421	30959
261.483	10470
261.545	9117
261.607	5719
261.669	7426
261.731	13371
261.793	34908
261.854	18079
261.916	11727
261.978	9780
262.040	12345
262.102	8774
262.164	14565
262.225	13559
262.287	7439
262.349	18766
262.411	15795
262.472	9167
262.534	12937
262.596	30885
262.658	12199
262.719	7240
262.781	10523
262.843	28035
262.904	15026
262.966	10179
263.028	12538
263.090	42205
263.151	109377
263.213	43398
263.275	27160
263.336	12653
263.398	9714
263.459	6914
263.521	7323
263.583	17613
263.644	14317
263.706	6774
263.767	5112
263.829	5331
263.891	4655
263.952	4941
264.014	5410
264.075	9234
264.137	24278
264.198	13441
264.260	6624
264.321	5877
264.383	14123
264.444	37164
264.506	12620
264.567	9389
264.629	13787
264.690	28567
264.752	13352
264.813	8845
264.875	6892
264.936	7182
264.998	5335
265.059	5196
265.120	7001
265.182	8645
265.243	31525
265.305	38536
265.366	11503
265.427	7738
265.489	7587
265.550	4900
265.611	7294
265.673	7688
265.734	6988
265.795	5183
265.857	4927
265.918	5593
265.979	10701
266.040	49482
266.102	50995
266.163	17877
266.224	16809
266.286	9685
266.347	6466
266.408	6341
266.469	7637
266.530	6027
266.592	5037
266.653	12662
266.714	23752
266.775	9066
266.836	6551
266.898	5394
266.959	10810
267.020	9266
267.081	6288
267.142	4958
267.203	5801
267.264	4496
267.326	7104
267.387	5822
267.448	5070
267.509	6307
267.570	5839
267.631	5421
267.692	4073
267.753	4453
267.814	4962
267.875	10424
267.936	24878
267.997	14118
268.058	12825
268.119	8034
268.180	7739
268.241	6101
268.302	5746
268.363	4792
268.424	7172
268.485	6587
268.546	4861
268.607	4023
268.668	3772
268.729	4404
268.790	5630
268.851	6172
268.912	15543
268.972	22364
269.033	12494
269.094	6209
269.155	4861
269.216	4466
269.277	6449
269.338	5975
269.398	5675
269.459	6739
269.520	11293
269.581	13727
269.642	17118
269.702	12066
269.763	9101
269.824	6056
269.885	8803
269.945	14734
270.006	8083
270.067	4288
270.128	5215
270.188	4419
270.249	5093
270.310	4789
270.370	5328
270.431	6005
270.492	4655
270.553	5955
270.613	14462
270.674	25505
270.734	12727
270.795	7653
270.856	11814
270.916	10579
270.977	5937
271.038	8176
271.098	8692
271.159	13823
271.219	14745
271.280	7264
271.340	6083
271.401	6980
271.462	19231
271.522	12821
271.583	7875
271.643	7725
271.704	6787
271.764	8569
271.825	18978
271.885	54282
271.946	75183
272.006	30839
272.066	33790
272.127	57984
272.187	22797
272.248	13763
272.308	13310
272.369	35149
272.429	24669
272.489	20715
272.550	22893
272.610	21465
272.671	20064
272.731	15378
272.791	26859
272.852	16157
272.912	13957
272.972	9061
273.033	8284
273.093	13947
273.153	14663
273.214	9666
273.274	11336
273.334	29736
273.394	59480
273.455	30844
273.515	25122
273.575	52244
273.635	26022
273.696	30561
273.756	56712
273.816	28438
273.876	16972
273.936	27649
273.997	51919
274.057	17444
274.117	13530
274.177	18846
274.237	63191
274.297	61501
274.358	46243
274.418	43837
274.478	39602
274.538	18181
274.598	14511
274.658	38822
274.718	56262
274.778	24125
274.838	13830
274.898	24131
274.958	73264
275.018	59052
275.078	40814
275.138	19653
275.198	12153
275.258	8510
275.318	13117
275.378	21893
275.438	24849
275.498	16370
275.558	29423
275.618	62868
275.678	41635
275.738	27331
275.798	25201
275.858	14495
275.918	7790
275.978	10407
276.038	11305
276.098	8441
276.157	15492
276.217	44636
276.277	23589
276.337	17805
276.397	10503
276.457	12078
276.517	9203
276.576	6575
276.636	7286
276.696	13321
276.756	26727
276.815	22216
276.875	11712
276.935	13214
276.995	12175
277.055	7669
277.114	7827
277.174	10627
277.234	32783
277.293	17649
277.353	11842
277.413	8646
277.472	9233
277.532	9596
277.592	10378
277.651	27302
277.711	55085
277.771	21798
277.830	59936
277.890	56213
277.950	36958
278.009	90937
278.069	42648
278.128	37193
278.188	60077
278.248	29082
278.307	58395
278.367	41146
278.426	15485
278.486	10541
278.545	8548
278.605	7713
278.664	7407
278.724	8898
278.783	20286
278.843	51645
278.902	20128
278.962	13116
279.021	15725
279.081	19457
279.140	20040
279.199	17091
279.259	14746
279.318	16108
279.378	20911
279.437	35152
279.496	99928
279.556	232619
279.615	214152
279.675	74456
279.734	43931
279.793	57755
279.853	83892
279.912	35591
279.971	21868
280.031	20833
280.090	30011
280.149	52863
280.208	48180
280.268	157163
280.327	185214
280.386	58546
280.445	40746
280.505	38767
280.564	20549
280.623	16807
280.682	20512
280.742	31645
280.801	13740
280.860	10883
280.919	10398
280.978	9225
281.037	8568
281.097	8070
281.156	8380
281.215	8691
281.274	10439
281.333	31492
281.392	28884
281.451	8952
281.510	8179
281.569	7823
281.628	7235
281.688	6905
281.747	8845
281.806	8768
281.865	7471
281.924	6844
281.983	6609
282.042	5725
282.101	5345
282.160	6100
282.219	5423
282.278	8074
282.337	22209
282.396	17771
282.454	8649
282.513	10428
282.572	32693
282.631	24159
282.690	9207
282.749	7486
282.808	10447
282.867	9494
282.926	10157
282.985	5573
283.043	5690
283.102	6310
283.161	8652
283.220	15374
283.279	35381
283.338	13793
283.396	8775
283.455	9302
283.514	9822
283.573	15194
283.631	11895
283.690	9145
283.749	8287
283.808	15932
283.866	21850
283.925	9233
283.984	9993
284.043	12436
284.101	14024
284.160	9880
284.219	13301
284.277	12121
284.336	16950
284.395	46098
284.453	42353
284.512	18607
284.570	23623
284.629	23424
284.688	21603
284.746	23812
284.805	27999
284.863	35886
284.922	44663
284.981	52524
285.039	72759
285.098	116660
285.156	201941
285.215	227911
285.273	227355
285.332	223005
285.390	145873
285.449	95132
285.507	68143
285.566	48778
285.624	38870
285.683	30382
285.741	25242
285.799	21026
285.858	19297
285.916	17804
285.975	15014
286.033	13274
286.091	11667
286.150	10716
286.208	9949
286.267	12568
286.325	11715
286.383	18250
286.442	16107
286.500	9397
286.558	8351
286.616	7781
286.675	11906
286.733	10500
286.791	9660
286.850	10212
286.908	13374
286.966	22680
287.024	11572
287.083	7513
287.141	6743
287.199	7617
287.257	11666
287.315	9178
287.374	9465
287.432	21181
287.490	16539
287.548	10248
287.606	8743
287.664	7252
287.723	10915
287.781	15545
287.839	8919
287.897	9575
287.955	11539
288.013	17422
288.071	36159
288.129	107043
288.187	271396
288.245	152527
288.303	53236
288.361	29838
288.419	24521
288.477	16980
288.535	13495
288.593	10310
288.651	9452
288.709	6312
288.767	7269
288.825	7692
288.883	6050
288.941	5452
288.999	6541
289.057	5759
289.115	5719
289.173	7031
289.231	6736
289.289	7152
289.346	7094
289.404	7965
289.462	14228
289.520	14849
289.578	8841
289.636	5023
289.694	4942
289.751	4699
289.809	4333
289.867	5048
289.925	7068
289.983	9768
290.040	5999
290.098	4741
290.156	7334
290.214	9072
290.271	6539
290.329	5486
290.387	3763
290.444	4779
290.502	4395
290.560	4570
290.617	5551
290.675	5018
290.733	4566
290.790	7962
290.848	5288
290.906	6114
290.963	6855
291.021	5323
291.078	7082
291.136	6701
291.194	17665
291.251	40740
291.309	14443
291.366	6236
291.424	6218
291.481	6860
291.539	7050
291.596	6435
291.654	5053
291.711	4265
291.769	6807
291.826	15570
291.884	11670
291.941	5894
291.999	5948
292.056	6726
292.114	9056
292.171	4879
292.228	6101
292.286	8522
292.343	15442
292.401	20723
292.458	13550
292.515	8543
292.573	11412
292.630	10906
292.687	11624
292.745	8478
292.802	10362
292.859	25262
292.917	42181
292.974	27910
293.031	10374
293.089	7678
293.146	6743
293.203	5550
293.260	5754
293.318	7739
293.375	12986
293.432	7890
293.489	5097
293.546	6287
293.604	10927
293.661	24475
293.718	58882
293.775	37602
293.832	19719
293.889	15655
293.947	17043
294.004	11909
294.061	12280
294.118	20001
294.175	38783
294.232	49447
294.289	24102
294.346	12126
294.403	11177
294.460	10389
294.517	9314
294.574	7757
294.631	7264
294.688	9269
294.745	20156
294.802	61598
294.859	77911
294.916	34285
294.973	21805
295.030	17632
295.087	15290
295.144	10192
295.201	8703
295.258	7929
295.315	10259
295.372	24345
295.429	48290
295.486	24804
295.542	14771
295.599	28770
295.656	54284
295.713	37816
295.770	46390
295.827	21763
295.883	11707
295.940	11956
295.997	19619
296.054	20559
296.111	9930
296.167	7746
296.224	6141
296.281	5552
296.338	5915
296.394	6302
296.451	8575
296.508	21284
296.564	42445
296.621	31753
296.678	49313
296.734	79240
296.791	34042
296.848	18871
296.904	17954
296.961	39132
297.018	53262
297.074	43300
297.131	18393
297.187	13575
297.244	19428
297.301	43291
297.357	84568
297.414	35382
297.470	15108
297.527	11265
297.583	9583
297.640	10548
297.696	8363
297.753	7330
297.809	6479
297.866	5561
297.922	5731
297.979	5876
298.035	7715
298.092	12143
298.148	29194
298.204	33061
298.261	17733
298.317	24945
298.374	61973
298.430	43326
298.486	22132
298.543	16501
298.599	14611
298.656	14469
298.712	22741
298.768	51710
298.824	39075
298.881	14683
298.937	9894
298.993	9722
299.050	12677
299.106	11551
299.162	9227
299.218	9852
299.275	9066
299.331	9879
299.387	16214
299.443	50965
299.500	64082
299.556	29182
299.612	14588
299.668	14048
299.724	17081
299.780	20053
299.837	12935
299.893	16276
299.949	46678
300.005	63100
300.061	49814
300.117	77839
300.173	44838
300.229	21962
300.285	24702
300.341	30754
300.397	17851
300.453	12224
300.510	9749
300.566	10695
300.622	12882
300.678	30408
300.734	58995
300.790	51093
300.845	57047
300.901	40559
300.957	55091
301.013	45816
301.069	20125
301.125	14290
301.181	16583
301.237	12810
301.293	8522
301.349	7782
301.405	7416
301.461	6939
301.516	8423
301.572	9363
301.628	19853
301.684	19917
301.740	21877
301.796	36731
301.851	26498
301.907	41042
301.963	45866
302.019	56732
302.074	134935
302.130	149409
302.186	74306
302.242	31868
302.297	22960
302.353	20642
302.409	33071
302.464	33656
302.520	27870
302.576	56646
302.631	70510
302.687	45042
302.743	20653
302.798	12062
302.854	10832
302.910	11071
302.965	14402
303.021	23783
303.076	25595
303.132	29266
303.187	36571
303.243	20789
303.299	11437
303.354	9042
303.410	8280
303.465	8392
303.521	7713
303.576	8613
303.632	11287
303.687	17181
303.743	46362
303.798	46882
303.853	20694
303.909	12753
303.964	11423
304.020	17131
304.075	27556
304.130	24057
304.186	41464
304.241	45382
304.297	35690
304.352	20491
304.358	19749
304.407	13733
304.449	13351
304.463	13229
304.518	14270
304.539	13488
304.573	12231
304.629	11831
304.630	11944
304.684	17675
304.720	29666
304.739	35568
304.794	59060
304.811	51253
304.850	32417
304.902	17408
304.905	16467
304.960	11976
304.992	11861
305.015	11782
305.071	10994
305.083	10775
305.126	9856
305.173	7976
305.181	7701
305.236	7229
305.264	7454
305.292	7739
305.347	10476
305.354	10645
305.402	11642
305.445	11939
305.457	12061
305.512	14413
305.535	15239
305.567	16158
305.622	16129
305.626	16443
305.678	25511
305.716	45022
305.733	51523
305.788	64347
305.807	56485
305.843	43467
305.897	49088
305.898	49101
305.953	52657
305.988	36931
306.008	28572
306.063	19744
306.078	17994
306.118	13694
306.168	9689
306.173	9377
306.228	8668
306.259	8036
306.283	7689
306.338	7071
306.349	7267
306.393	8036
306.440	8830
306.448	8974
306.503	9947
306.530	11033
306.558	14833
306.613	31493
306.620	34132
306.668	50063
306.711	59972
306.723	60091
306.778	49505
306.801	38606
306.833	26377
306.888	13809
306.892	13358
306.943	10521
306.982	9373
306.997	9058
307.052	8831
307.072	8924
307.107	10080
307.162	13059
307.163	13130
307.217	21015
307.253	25211
307.272	26050
307.327	28335
307.343	26289
307.381	21905
307.434	19365
307.436	19795
307.491	35937
307.524	52078
307.546	56034
307.600	55313
307.614	49840
307.655	32274
307.704	17331
307.710	16753
307.765	19660
307.795	23541
307.819	27464
307.874	44384
307.885	44680
307.929	36418
307.975	24740
307.984	24427
308.038	30067
308.065	36001
308.093	59149
308.148	115549
308.156	127859
308.202	188671
308.246	235411
308.257	231011
308.312	138512
308.336	102055
308.366	79959
308.421	55665
308.426	53025
308.475	34593
308.517	24167
308.530	22538
308.585	19321
308.607	18726
308.639	19444
308.694	21860
308.697	22127
308.748	37898
308.787	55191
308.803	55173
308.857	44789
308.877	37971
308.912	32671
308.967	30520
308.967	30539
309.021	42178
309.058	51983
309.076	64197
309.130	108449
309.148	124607
309.185	190416
309.238	295171
309.239	296053
309.293	322853
309.328	311006
309.348	276995
309.402	155200
309.418	123550
309.457	91618
309.508	61140
309.511	60628
309.566	60215
309.598	62251
309.620	75458
309.674	114213
309.688	124786
309.729	119584
309.778	100608
309.783	98366
309.837	68458
309.868	53427
309.892	59629
309.946	79121
309.959	85631
310.001	104208
310.049	121388
310.055	117479
310.109	71219
310.139	44234
310.163	35560
310.218	22651
310.229	20557
310.272	17045
310.319	13650
310.326	13294
310.381	11871
310.409	11153
310.435	11022
310.489	10775
310.499	10781
310.543	11259
310.589	12028
310.598	11958
310.652	11575
310.679	11141
310.706	10242
310.760	8295
310.769	8027
310.814	7878
310.859	7796
310.868	7737
310.923	7605
310.948	7551
310.977	8640
311.031	10715
311.038	11049
311.085	10730
311.128	9894
311.139	9779
311.193	9270
311.218	9086
311.247	8570
311.301	7518
311.308	7376
311.356	7520
311.398	7913
311.410	7876
311.464	7478
311.488	7321
311.518	7422
311.572	7595
311.578	7636
311.626	12456
311.668	16758
311.680	16407
311.734	14352
311.758	13480
311.788	13262
311.842	12870
311.847	12819
311.896	16701
311.937	20166
311.950	19801
312.004	18087
312.027	17249
312.058	14655
312.112	10067
312.117	9612
312.165	9066
312.207	8612
312.297	14032
312.386	10975
312.476	11418
312.566	26614
312.656	11924
312.745	7123
312.835	9229
312.925	10517
313.015	9535
313.104	10391
313.194	7503
313.284	9181
313.374	13544
313.463	11695
313.553	8251
313.643	8494
313.732	7099
313.822	6621
313.912	8096
314.001	12143
314.091	11689
314.180	15710
314.270	15065
314.360	16860
314.449	14284
314.539	8367
314.628	7441
314.718	10686
314.808	13295
314.897	7978
314.987	8666
315.076	13781
315.166	16702
315.255	14543
315.345	15507
315.434	15007
315.524	13196
315.613	15455
315.703	21754
315.792	28775
315.881	76180
315.971	29099
316.060	29622
316.150	39507
316.239	38026
316.328	15198
316.418	8394
316.507	10587
316.597	14757
316.686	12973
316.775	18434
316.865	39426
316.954	9916
317.043	7845
317.133	9632
317.222	8608
317.311	8346
317.400	8400
317.490	14809
317.579	17181
317.668	13341
317.757	20714
317.847	42219
317.936	129330
318.025	61709
318.114	35516
318.203	22867
318.293	29681
318.382	54239
318.471	41314
318.560	50433
318.649	81768
318.738	19753
318.828	18372
318.917	18825
319.006	21248
319.095	47538
319.184	104953
319.273	67449
319.362	40249
319.451	15873
319.540	15194
319.629	35297
319.718	57006
319.807	23540
319.896	40578
319.985	128689
320.074	52586
320.163	16519
320.252	26555
320.341	20935
320.430	18932
320.519	30250
320.608	17252
320.697	13625
320.786	14658
320.875	20647
320.964	27044
321.053	42718
321.142	60467
321.230	61873
321.319	44304
321.408	102562
321.497	40406
321.586	41676
321.675	44214
321.764	42034
321.852	28316
321.941	60093
322.030	39557
322.119	41335
322.207	104157
322.296	61261
322.385	34828
322.474	42771
322.562	126846
322.651	61489
322.740	48389
322.829	65881
322.917	57170
323.006	37800
323.095	33309
323.183	23017
323.272	34733
323.361	55839
323.449	137900
323.538	48860
323.626	104261
323.715	60734
323.804	28839
323.892	98387
323.981	57706
324.069	19607
324.158	51899
324.246	44210
324.335	24434
324.424	39000
324.512	14564
324.601	20823
324.689	40529
324.778	69311
324.866	44630
324.954	14005
325.043	15091
325.131	27245
325.220	42732
325.308	48896
325.397	37232
325.485	22313
325.574	9989
325.662	9174
325.750	11884
325.839	9270
325.927	8571
326.015	12112
326.104	18901
326.192	25074
326.280	9680
326.369	9267
326.457	17439
326.545	31005
326.634	12928
326.722	7511
326.810	9210
326.898	8400
326.987	11599
327.075	29127
327.163	26766
327.251	13819
327.340	27340
327.428	36057
327.516	10064
327.604	9388
327.692	9574
327.781	11969
327.869	19924
327.957	13582
328.045	13846
328.133	7549
328.221	10743
328.309	10148
328.397	8352
328.485	12745
328.574	19804
328.662	64730
328.750	32568
328.838	12704
328.926	8395
329.014	8063
329.102	14165
329.190	34762
329.278	24008
329.366	7115
329.454	5844
329.542	7462
329.630	5840
329.718	7413
329.806	11449
329.893	9516
329.981	9826
330.069	13927
330.157	42518
330.245	113626
330.333	59820
330.421	14672
330.509	20683
330.597	80822
330.684	48228
330.772	17494
330.860	21244
330.948	26987
331.036	12332
331.123	5929
331.211	7306
331.299	10086
331.387	23683
331.475	40552
331.562	14574
331.650	6765
331.738	10070
331.825	13008
331.913	7330
332.001	7046
332.089	11865
332.176	22922
332.264	51184
332.352	38740
332.439	14666
332.527	9992
332.614	8743
332.702	11263
332.790	9865
332.877	26511
332.965	52427
333.052	18513
333.140	19424
333.228	48584
333.315	14779
333.403	11402
333.490	31281
333.578	31752
333.665	59007
333.753	29032
333.840	10134
333.928	12788
334.015	33460
334.103	45898
334.190	123387
334.278	33041
334.365	18021
334.452	14548
334.540	9928
334.627	13957
334.715	19966
334.802	39376
334.889	165807
334.977	146046
335.064	26604
335.151	15051
335.239	14149
335.326	18424
335.413	61882
335.501	77733
335.588	15408
335.675	11801
335.762	14783
335.850	25973
335.937	20763
336.024	48910
336.111	170404
336.199	73565
336.286	18848
336.373	9745
336.460	8056
336.547	8440
336.635	12433
336.722	11330
336.809	10209
336.896	16942
336.983	48165
337.070	101642
337.157	123384
337.245	104716
337.332	68022
337.419	11354
337.506	8237
337.593	11319
337.680	35333
337.767	94027
337.854	31169
337.941	35265
338.028	44666
338.115	15574
338.202	18387
338.289	34195
338.376	109192
338.463	34730
338.550	58131
338.637	55798
338.724	25146
338.811	34339
338.898	8864
338.984	7411
339.071	11239
339.158	14119
339.245	39535
339.332	22198
339.419	27118
339.506	24087
339.593	6016
339.679	8566
339.766	7829
339.853	12416
339.940	28816
340.027	9131
340.113	10553
340.200	15687
340.287	10467
340.374	15137
340.460	25625
340.547	11214
340.634	20831
340.720	71438
340.807	38005
340.894	8107
340.980	9571
341.067	7965
341.154	10483
341.240	17369
341.327	37402
341.414	12542
341.500	14233
341.587	9488
341.674	8557
341.760	26320
341.847	30867
341.933	9748
342.020	4932
342.106	5281
342.193	11261
342.279	20508
342.366	15439
342.452	26809
342.539	14427
342.625	34949
342.712	77832
342.798	31966
342.885	13850
342.971	5336
343.058	5361
343.144	6642
343.230	6680
343.317	7509
343.403	6659
343.490	5670
343.576	5008
343.662	7109
343.749	9146
343.835	12645
343.921	21655
344.008	103232
344.094	206898
344.180	49764
344.267	24945
344.353	66500
344.439	69508
344.525	39114
344.612	15380
344.698	13605
344.784	9552
344.870	6918
344.957	8240
345.043	15304
345.129	12773
345.215	25564
345.301	13790
345.387	7816
345.474	5620
345.560	5788
345.646	9187
345.732	8321
345.818	10843
345.904	8924
345.990	10946
346.076	10457
346.162	19392
346.249	8842
346.335	7223
346.421	8255
346.507	28297
346.593	86261
346.679	22305
346.765	8712
346.851	9600
346.937	8804
347.023	8038
347.108	10274
347.194	8411
347.280	7469
347.366	10681
347.452	31410
347.538	106642
347.624	81771
347.710	66386
347.796	12845
347.882	8402
347.967	7418
348.053	11179
348.139	8408
348.225	7305
348.311	7719
348.397	6572
348.482	10698
348.568	12045
348.654	6007
348.740	10300
348.825	10989
348.911	15877
348.997	52998
349.083	91602
349.168	17601
349.254	9398
349.340	9073
349.425	6690
349.511	12734
349.597	13433
349.682	26457
349.768	70946
349.854	31800
349.939	8535
350.025	6690
350.110	6596
350.196	5668
350.282	4477
350.367	5727
350.453	13103
350.538	13307
350.624	11935
350.709	11316
350.795	6187
350.880	8100
350.966	8792
351.051	13726
351.137	10653
351.222	9051
351.308	28102
351.393	66586
351.479	18441
351.564	8183
351.649	7571
351.735	5645
351.820	5527
351.906	7992
351.991	11711
352.076	45947
352.162	62824
352.247	15379
352.332	11392
352.418	23598
352.503	27685
352.588	105055
352.673	86971
352.759	22103
352.844	10841
352.929	13469
353.014	18388
353.100	12685
353.185	24183
353.270	35827
353.355	30181
353.441	9973
353.526	11176
353.611	28450
353.696	33047
353.781	18853
353.866	9457
353.952	11306
354.037	29753
354.122	64760
354.207	57698
354.292	20666
354.377	9029
354.462	8303
354.547	12786
354.632	12124
354.717	18807
354.802	26250
354.887	10822
354.972	7222
355.057	5841
355.142	7105
355.227	10993
355.312	19128
355.397	43540
355.482	99921
355.567	46443
355.652	34371
355.737	35534
355.822	82107
355.907	63211
355.991	13237
356.076	8663
356.161	7663
356.246	6852
356.331	8749
356.416	21421
356.501	120161
356.585	115667
356.670	22458
356.755	16897
356.840	25763
356.924	107886
357.009	302331
357.094	115224
357.179	35263
357.263	21910
357.348	22704
357.433	21914
357.517	20401
357.602	16478
357.687	12324
357.771	17331
357.856	27589
357.941	23299
358.025	74218
358.110	270410
358.195	127480
358.279	28287
358.364	21827
358.448	72421
358.533	172367
358.617	125157
358.702	115364
358.787	45381
358.871	31320
358.956	25038
359.040	9473
359.125	7192
359.209	7676
359.294	13322
359.378	20859
359.462	23569
359.547	14954
359.631	9935
359.716	6347
359.800	8852
359.885	14479
359.969	10334
360.053	7711
360.138	8732
360.222	15335
360.306	29962
360.391	21034
360.475	29205
360.559	62621
360.644	71087
360.728	50513
360.812	73907
360.896	171566
360.981	88793
361.065	52128
361.149	15242
361.233	15061
361.318	12602
361.402	14540
361.486	13347
361.570	10548
361.654	15137
361.739	38046
361.823	128742
361.907	166395
361.991	36722
362.075	27395
362.159	60558
362.243	41028
362.327	38053
362.411	44167
362.495	25122
362.580	13762
362.664	10319
362.748	9791
362.832	13885
362.916	23123
363.000	71381
363.084	178562
363.168	207231
363.252	57716
363.336	24585
363.420	33024
363.503	92524
363.587	95785
363.671	23425
363.755	19554
363.839	29579
363.923	13725
364.007	32766
364.091	34654
364.175	40769
364.258	140447
364.342	112437
364.426	138411
364.510	75513
364.594	38753
364.677	44600
364.761	154416
364.845	103405
364.929	52033
365.013	41991
365.096	34797
365.180	40016
365.264	41271
365.347	127561
365.431	53958
365.515	20010
365.598	12914
365.682	11747
365.766	18970
365.849	22443
365.933	14469
366.017	18159
366.100	13381
366.184	6536
366.267	9106
366.351	9113
366.435	7658
366.518	5852
366.602	6951
366.685	8657
366.769	10879
366.852	19880
366.936	34096
367.019	20742
367.103	14812
367.186	25133
367.270	8798
367.353	6126
367.436	8675
367.520	8016
367.603	12798
367.687	20552
367.770	36000
367.853	19540
367.937	50482
368.020	77352
368.104	22723
368.187	27583
368.270	38540
368.353	33313
368.437	40180
368.520	79540
368.603	52171
368.687	66804
368.770	110847
368.853	31192
368.936	34652
369.020	31662
369.103	12790
369.186	9415
369.269	11494
369.352	25193
369.436	33944
369.519	21440
369.602	10296
369.685	11619
369.768	13666
369.851	11107
369.934	7795
370.018	12978
370.101	30400
370.184	24177
370.267	16291
370.350	29355
370.433	42798
370.516	86365
370.599	101901
370.682	43324
370.765	76040
370.848	82990
370.931	128662
371.014	48822
371.097	13806
371.180	11436
371.263	7095
371.346	5833
371.429	7793
371.511	8994
371.594	19540
371.677	30094
371.760	29288
371.843	27431
371.926	108363
372.009	218737
372.091	76693
372.174	58914
372.257	110475
372.340	44317
372.423	44312
372.505	46295
372.588	22781
372.671	49740
372.754	132984
372.836	62615
372.919	49554
373.002	86051
373.085	32333
373.167	29608
373.250	66787
373.332	118768
373.415	160027
373.498	298638
373.580	119844
373.663	162332
373.746	193157
373.828	52814
373.911	26182
373.993	28324
374.076	84438
374.159	74615
374.241	43468
374.324	120359
374.406	76614
374.489	94177
374.571	235527
374.654	98245
374.736	55150
374.819	149896
374.901	217966
374.983	207297
375.066	41604
375.148	19414
375.231	68303
375.313	121272
375.395	50180
375.478	14452
375.560	11337
375.643	16649
375.725	53526
375.807	190868
375.890	148432
375.972	72224
376.054	45480
376.136	64290
376.219	28597
376.301	60212
376.383	158832
376.465	62400
376.548	54299
376.630	57884
376.712	141721
376.794	60788
376.877	11138
376.959	7193
377.041	11174
377.123	21227
377.205	23716
377.287	6904
377.369	6899
377.452	7858
377.534	7344
377.616	8248
377.698	8855
377.780	6723
377.862	9516
377.944	9177
378.026	5383
378.108	6695
378.190	6642
378.272	6570
378.354	5323
378.436	4571
378.518	14883
378.600	48334
378.682	41304
378.764	85101
378.846	60534
378.928	22580
379.010	33829
379.091	17253
379.173	8208
379.255	7873
379.337	13352
379.419	45092
379.501	112059
379.583	43314
379.664	14664
379.746	37709
379.828	89696
379.910	113380
379.991	89413
380.073	17636
380.155	12912
380.237	11570
380.318	7203
380.400	9294
380.482	24691
380.564	36635
380.645	38328
380.727	34783
380.809	19346
380.890	14512
380.972	10484
381.053	10261
381.135	12941
381.217	33415
381.298	91120
381.380	44747
381.461	38852
381.543	149239
381.624	165942
381.706	36017
381.787	22666
381.869	25229
381.951	72472
382.032	229738
382.113	147159
382.195	42651
382.276	31017
382.358	60935
382.439	136338
382.521	145845
382.602	211877
382.684	112703
382.765	212785
382.846	274466
382.928	432465
383.009	239654
383.090	190353
383.172	562321
383.253	726835
383.334	274720
383.416	227267
383.497	123356
383.578	87219
383.659	168188
383.741	498661
383.822	959841
383.903	515688
383.984	209240
384.066	272715
384.147	164455
384.228	45557
384.309	38127
384.390	28092
384.471	21804
384.553	22454
384.634	32268
384.715	31568
384.796	17406
384.877	22889
384.958	82021
385.039	93391
385.120	39028
385.201	19614
385.282	23722
385.363	23301
385.444	22660
385.525	36917
385.606	103035
385.687	79766
385.768	26044
385.849	34436
385.930	119396
386.011	177843
386.092	51589
386.173	16723
386.254	14310
386.335	13557
386.416	17295
386.496	56590
386.577	85053
386.658	32355
386.739	22100
386.820	19123
386.901	15874
386.981	15447
387.062	11258
387.143	23021
387.224	84625
387.304	74263
387.385	31257
387.466	19820
387.547	24074
387.627	18101
387.708	34901
387.789	136893
387.869	152604
387.950	40663
388.031	11580
388.111	10880
388.192	28681
388.273	40020
388.353	24553
388.434	15330
388.514	30973
388.595	115022
388.676	149312
388.756	81973
388.837	85180
388.917	51403
388.998	12881
389.078	12089
389.159	10809
389.239	10091
389.320	20728
389.400	17348
389.480	32842
389.561	80341
389.641	37132
389.722	19372
389.802	32086
389.883	38976
389.963	89223
390.043	56970
390.124	21866
390.204	34953
390.284	102276
390.365	61737
390.445	69653
390.525	163174
390.605	138331
390.686	51579
390.766	19801
390.846	11289
390.927	8711
391.007	10344
391.087	11980
391.167	12311
391.247	10468
391.328	17083
391.408	25725
391.488	17986
391.568	8386
391.648	14974
391.728	21728
391.808	20136
391.888	23231
391.969	48078
392.049	72753
392.129	33431
392.209	38261
392.289	87292
392.369	48467
392.449	43672
392.529	30388
392.609	25258
392.689	32617
392.769	89019
392.849	73786
392.929	60108
393.009	128361
393.089	103239
393.169	104011
393.248	294142
393.328	804650
393.408	789357
393.488	277757
393.568	95802
393.648	50536
393.728	31944
393.807	23746
393.887	20176
393.967	17564
394.047	20967
394.127	24103
394.206	34985
394.286	108831
394.366	411223
394.446	417998
394.525	103589
394.605	31845
394.685	29025
394.764	61197
394.844	99353
394.924	67472
395.003	25177
395.083	18450
395.163	16224
395.242	15198
395.322	15482
395.402	10672
395.481	15667
395.561	43917
395.640	112736
395.720	90915
395.799	111653
395.879	80726
395.958	48211
396.038	158815
396.117	535040
396.197	553324
396.276	186336
396.356	70599
396.435	54237
396.515	41975
396.594	52494
396.673	95336
396.753	295644
396.832	733978
396.912	558334
396.991	167696
397.070	53200
397.150	30605
397.229	22385
397.308	30608
397.388	47698
397.467	24887
397.546	11870
397.625	9911
397.705	15922
397.784	18299
397.863	9930
397.942	7574
398.022	8805
398.101	34048
398.180	91051
398.259	46634
398.338	15795
398.417	12598
398.497	8855
398.576	10457
398.655	6320
398.734	6377
398.813	7762
398.892	31102
398.971	96379
399.050	44837
399.129	7179
399.208	5473
399.287	5588
399.366	4730
399.445	5519
399.524	6998
399.603	5883
399.682	16249
399.761	41800
399.840	105699
399.919	71961
399.998	11540
400.077	5277
400.156	5256
400.235	9061
400.313	6399
400.392	10604
400.471	49843
400.550	76147
400.629	20909
400.708	10044
400.786	9730
400.865	25819
400.944	28509
401.023	14755
401.102	3762
401.180	4412
401.259	5603
401.338	7597
401.416	12523
401.495	9836
401.574	7319
401.652	6736
401.731	11905
401.810	10984
401.888	5920
401.967	3457
402.046	5761
402.124	9750
402.203	13867
402.281	8084
402.360	12070
402.438	31321
402.517	22464
402.596	8780
402.674	8058
402.753	4979
402.831	4974
402.910	8217
402.988	34113
403.066	105747
403.145	56150
403.223	35919
403.302	90295
403.380	65469
403.459	69002
403.537	27199
403.615	11569
403.694	3308
403.772	4926
403.850	3724
403.929	3035
404.007	5621
404.085	15793
404.164	19710
404.242	7221
404.320	7986
404.398	17898
404.477	45255
404.555	178197
404.633	141395
404.711	24879
404.789	9611
404.868	8952
404.946	5666
405.024	2925
405.102	4031
405.180	2984
405.258	2558
405.336	4821
405.415	5240
405.493	14852
405.571	14073
405.649	5422
405.727	4305
405.805	8848
405.883	9387
405.961	10203
406.039	9991
406.117	5347
406.195	11556
406.273	49934
406.351	159477
406.429	87997
406.507	17060
406.585	8022
406.663	8105
406.740	12495
406.818	10025
406.896	5637
406.974	6837
407.052	17469
407.130	99502
407.208	127947
407.285	24534
407.363	5609
407.441	6617
407.519	5858
407.596	7823
407.674	16933
407.752	39437
407.830	41099
407.907	19575
407.985	8616
408.063	5130
408.141	4362
408.218	10174
408.296	10694
408.373	9832
408.451	9504
408.529	9545
408.606	4539
408.684	3028
408.762	3141
408.839	2673
408.917	1795
408.994	3411
409.072	4186
409.149	3620
409.227	8703
409.304	10856
409.382	7885
409.459	8845
409.537	13951
409.614	11462
409.692	7590
409.769	9691
409.846	14432
409.924	17948
410.001	13545
410.079	8718
410.156	7429
410.233	6747
410.311	6164
410.388	4588
410.465	6689
410.543	7936
410.620	5272
410.697	7806
410.775	9306
410.852	3523
410.929	9215
411.006	12122
411.083	6480
411.161	17762
411.238	16564
411.315	9351
411.392	4524
411.469	9250
411.547	10019
411.624	4576
411.701	4733
411.778	7996
411.855	19036
411.932	9912
412.009	4879
412.086	4435
412.163	6061
412.240	7440
412.317	8789
412.394	7941
412.471	3545
412.548	3267
412.625	4598
412.702	7594
412.779	14356
412.856	8795
412.933	3173
413.010	4237
413.087	9117
413.164	48724
413.241	64353
413.318	15948
413.395	10974
413.471	16683
413.548	7235
413.625	4659
413.702	7638
413.779	4991
413.855	2078
413.932	1841
414.009	1821
414.086	3316
414.162	3168
414.239	8838
414.316	46714
414.393	97251
414.469	30600
414.546	4613
414.623	3218
414.699	3575
414.776	7249
414.853	3277
414.929	5061
415.006	4353
415.082	5819
415.159	4806
415.236	4110
415.312	4143
415.389	13544
415.465	17236
415.542	9174
415.618	5191
415.695	12183
415.771	7710
415.848	6698
415.924	5987
416.000	4079
416.077	3913
416.153	1455
416.230	759
416.306	2668
416.383	2801
416.459	2719
416.535	1481
416.612	3089
416.688	2598
416.764	2653
416.841	2875
416.917	3706
416.993	3702
417.069	5425
417.146	7600
417.222	10880
417.298	6631
417.374	3758
417.451	4916
417.527	8472
417.603	8962
417.679	6634
417.755	4639
417.831	2549
417.908	2478
417.984	2660
418.060	3132
418.136	14427
418.212	18965
418.288	6787
418.364	4135
418.440	4679
418.516	8396
418.592	11605
418.668	23981
418.744	36435
418.820	25306
418.896	6845
418.972	3324
419.048	4463
419.124	16604
419.200	12348
419.276	3992
419.352	1559
419.428	3257
419.504	5550
419.579	7326
419.655	5574
419.731	5863
419.807	24160
419.883	42001
419.959	26054
420.034	7896
420.110	16671
420.186	62367
420.262	43937
420.337	9072
420.413	8270
420.489	3539
420.565	3671
420.640	3361
420.716	4892
420.792	3229
420.867	5391
420.943	4361
421.019	11626
421.094	8617
421.170	4169
421.245	3029
421.321	4422
421.397	5495
421.472	9237
421.548	21335
421.623	17596
421.699	9568
421.774	9623
421.850	9253
421.925	16924
422.001	14697
422.076	11098
422.152	15070
422.227	23508
422.302	26341
422.378	37726
422.453	67546
422.529	153539
422.604	345549
422.679	446074
422.755	353906
422.830	161541
422.905	68989
422.981	39202
423.056	25854
423.131	18517
423.207	15041
423.282	15486
423.357	27901
423.432	17745
423.508	17663
423.583	39629
423.658	27128
423.733	10632
423.808	11296
423.883	13840
423.959	12117
424.034	9375
424.109	7320
424.184	4317
424.259	4195
424.334	3975
424.409	3477
424.484	4301
424.559	5619
424.634	4977
424.709	8261
424.784	10403
424.859	6585
424.934	12653
425.009	49486
425.084	75191
425.159	24575
425.234	4783
425.309	2985
425.384	5472
425.459	6355
425.534	4183
425.609	4159
425.683	3454
425.758	3204
425.833	4855
425.908	7112
425.983	31786
426.058	81416
426.132	32775
426.207	7184
426.282	10471
426.357	9090
426.431	3617
426.506	4036
426.581	4271
426.655	4277
426.730	4627
426.805	4524
426.879	5814
426.954	4810
427.029	14166
427.103	69684
427.178	142151
427.253	55903
427.327	7932
427.402	9199
427.476	16059
427.551	7042
427.625	5383
427.700	4759
427.774	3590
427.849	4932
427.923	3172
427.998	3681
428.072	5720
428.147	13087
428.221	52846
428.296	127730
428.370	59066
428.444	10907
428.519	13298
428.593	24073
428.667	19923
428.742	25092
428.816	25948
428.890	85753
428.965	117239
429.039	37896
429.113	28413
429.188	11418
429.262	5089
429.336	12330
429.410	37397
429.485	22081
429.559	20926
429.633	16099
429.707	6585
429.781	19869
429.855	100734
429.930	143036
430.004	76422
430.078	106897
430.152	92607
430.226	155347
430.300	139009
430.374	23880
430.448	11730
430.522	36234
430.596	96712
430.670	60876
430.744	146923
430.818	191317
430.892	38920
430.966	8835
431.040	4400
431.114	2530
431.188	3037
431.262	2784
431.336	3693
431.410	11847
431.484	33698
431.557	22263
431.631	4456
431.705	5917
431.779	25324
431.853	106403
431.927	67927
432.000	9381
432.074	3888
432.148	5513
432.222	4807
432.295	2966
432.369	3452
432.443	9467
432.516	59127
432.590	132870
432.664	47194
432.737	7130
432.811	1915
432.885	1658
432.958	1874
433.032	2000
433.106	1179
433.179	1114
433.253	1890
433.326	1901
433.400	766
433.473	1655
433.547	1313
433.620	2843
433.694	9756
433.767	7984
433.841	2933
433.914	1224
433.988	1794
434.061	2026
434.134	2760
434.208	486
434.281	1020
434.355	1119
434.428	2086
434.501	1392
434.575	2147
434.648	1783
434.721	1372
434.795	838
434.868	1163
434.941	1322
435.014	1041
435.088	2517
435.161	4307
435.234	9471
435.307	12054
435.381	6247
435.454	4589
435.527	6202
435.600	6809
435.673	4875
435.746	3703
435.819	3540
435.892	2927
435.966	2039
436.039	2411
436.112	3238
436.185	1423
436.258	811
436.331	213
436.404	651
436.477	675
436.550	520
436.623	1158
436.696	1564
436.769	2846
436.842	2216
436.915	3370
436.987	6030
437.060	1937
437.133	1264
437.206	1217
437.279	1834
437.352	1970
437.425	2205
437.498	2505
437.570	11168
437.643	9762
437.716	2671
437.789	1711
437.861	8232
437.934	23456
438.007	9718
438.080	2291
438.152	3391
438.225	10932
438.298	73459
438.370	174197
438.443	72462
438.516	21351
438.588	4930
438.661	1756
438.734	1732
438.806	4164
438.879	5287
438.951	6849
439.024	11816
439.096	4560
439.169	1612
439.241	294
439.314	1306
439.386	5480
439.459	8694
439.531	13000
439.604	4605
439.676	1800
439.749	585
439.821	367
439.893	2268
439.966	2601
440.038	4568
440.110	5303
440.183	2301
440.255	2753
440.327	6099
440.400	33775
440.472	125255
440.544	73700
440.617	11288
440.689	9408
440.761	13057
440.833	20173
440.905	12608
440.978	2759
441.050	1276
441.122	1907
441.194	763
441.266	1589
441.338	1563
441.411	7757
441.483	47304
441.555	64039
441.627	14615
441.699	8666
441.771	7458
441.843	3744
441.915	1986
441.987	1569
442.059	2778
442.131	4644
442.203	7655
442.275	9092
442.347	8589
442.419	12712
442.491	59736
442.563	135549
442.635	57155
442.706	37276
442.778	27522
442.850	6458
442.922	3976
442.994	5879
443.066	8721
443.137	6585
443.209	5102
443.281	9037
443.353	20183
443.425	75590
443.496	240106
443.568	223832
443.640	81396
443.711	17977
443.783	8164
443.855	4875
443.926	2835
443.998	4702
444.070	6120
444.141	5621
444.213	9623
444.285	12409
444.356	9485
444.428	7502
444.499	3520
444.571	1690
444.642	2407
444.714	4518
444.785	9999
444.857	10963
444.928	22762
445.000	13871
445.071	16509
445.143	19650
445.214	12796
445.285	21060
445.357	57466
445.428	166258
445.500	332550
445.571	218673
445.642	116471
445.714	48763
445.785	40037
445.856	15438
445.928	13500
445.999	12258
446.070	8779
446.141	9912
446.213	12203
446.284	6335
446.355	6011
446.426	4373
446.497	4720
446.569	8367
446.640	14202
446.711	10401
446.782	3217
446.853	5626
446.924	6802
446.995	5007
447.066	4160
447.138	8168
447.209	4865
447.280	1466
447.351	662
447.422	1396
447.493	4555
447.564	7190
447.635	9543
447.706	3647
447.777	1195
447.847	1293
447.918	1591
447.989	5841
448.060	6683
448.131	15659
448.202	15115
448.273	11006
448.344	4518
448.414	3119
448.485	2841
448.556	2565
448.627	1442
448.698	1769
448.768	564
448.839	2153
448.910	7956
448.981	8010
449.051	4153
449.122	2055
449.193	589
449.263	1889
449.334	1991
449.405	4979
449.475	13592
449.546	9339
449.616	9480
449.687	7691
449.758	2468
449.828	2034
449.899	1221
449.969	2039
450.040	1265
450.110	3956
450.181	4827
450.251	2215
450.322	1179
450.392	2406
450.463	2225
450.533	1181
450.604	1886
450.674	2310
450.744	1933
450.815	2325
450.885	1932
450.955	2631
451.026	1187
451.096	1747
451.166	3279
451.237	10126
451.307	23535
451.377	9819
451.447	2694
451.518	1874
451.588	1839
451.658	3310
451.728	5598
451.799	25905
451.869	27377
451.939	6358
452.009	1646
452.079	1893
452.149	1948
452.219	7130
452.289	28804
452.360	21274
452.430	5026
452.500	5245
452.570	7446
452.640	8862
452.710	25222
452.780	35432
452.850	27602
452.920	24907
452.990	8804
453.060	5620
453.129	7492
453.199	9769
453.269	32188
453.339	63957
453.409	95765
453.479	99503
453.549	143607
453.619	151799
453.688	61342
453.758	10609
453.828	4607
453.898	2839
453.968	3030
454.037	2914
454.087	2654
454.107	2531
454.168	1580
454.177	1416
454.247	2488
454.249	2505
454.316	2522
454.330	2676
454.386	3041
454.411	7541
454.456	14475
454.492	18210
454.525	21530
454.574	11713
454.595	7540
454.655	3998
454.665	3482
454.734	4444
454.736	4650
454.804	9299
454.817	13129
454.873	27082
454.898	29053
454.943	31983
454.979	21853
455.013	13058
455.060	7444
455.082	5491
455.141	7698
455.152	7778
455.221	20830
455.222	21145
455.291	33420
455.303	30939
455.360	20050
455.384	20573
455.430	21667
455.465	19830
455.499	17424
455.546	23765
455.569	25840
455.627	18037
455.638	16891
455.707	4806
455.708	4817
455.777	3156
455.789	3189
455.846	3174
455.869	3082
455.916	2939
455.950	3338
455.985	3602
456.031	3312
456.054	3155
456.112	2833
456.124	2777
456.193	2829
456.193	2802
456.262	3926
456.274	4364
456.332	6031
456.355	6269
456.401	6037
456.436	5347
456.470	4636
456.516	3162
456.540	2616
456.597	2436
456.609	2329
456.678	2404
456.678	2388
456.747	2841
456.759	2787
456.817	2284
456.840	2229
456.886	2101
456.920	2352
456.955	2781
457.001	3074
457.024	3475
457.082	5103
457.093	5376
457.162	8495
457.163	8544
457.232	8765
457.243	8336
457.301	5540
457.324	4330
457.370	3076
457.405	3272
457.439	3468
457.485	3513
457.508	3642
457.566	4687
457.577	4893
457.646	5984
457.647	6020
457.715	10103
457.727	10982
457.784	16306
457.808	20494
457.853	25726
457.889	29722
457.922	29191
457.969	19856
457.991	20184
458.050	25902
458.060	26846
458.129	44106
458.130	44575
458.198	42335
458.211	38150
458.267	21584
458.292	15204
458.336	10144
458.372	9564
458.405	12756
458.453	19246
458.474	24410
458.533	43778
458.543	45258
458.611	71112
458.614	71470
458.680	44787
458.694	35489
458.749	16828
458.775	12540
458.818	7929
458.855	6438
458.887	5816
458.936	5938
458.955	5879
459.016	5906
459.024	5944
459.093	6071
459.097	6098
459.162	6585
459.177	6795
459.230	7595
459.257	8384
459.299	8936
459.338	8521
459.368	8385
459.418	9473
459.437	9342
459.499	6974
459.505	6829
459.574	5883
459.579	5863
459.643	5588
459.659	5382
459.711	5131
459.740	5384
459.780	6056
459.820	6916
459.849	7066
459.900	7152
459.917	7216
459.981	7367
459.986	7319
460.054	6038
460.061	5984
460.123	6933
460.141	7270
460.191	8697
460.222	9893
460.260	11062
460.302	12769
460.328	11842
460.382	8222
460.397	8110
460.462	7143
460.465	7186
460.534	9754
460.543	10120
460.602	22384
460.623	27166
460.671	39757
460.703	51840
460.739	48846
460.783	40193
460.808	34186
460.864	10909
460.876	9026
460.944	6757
460.945	6735
461.013	7037
461.024	7149
461.081	7885
461.104	8343
461.150	7682
461.184	7007
461.218	7135
461.264	6941
461.286	6981
461.345	7389
461.355	7330
461.423	7462
461.425	7445
461.491	7438
461.505	7486
461.559	14614
461.585	18187
461.628	28677
461.665	39311
461.696	43274
461.745	53212
461.764	47297
461.825	17257
461.832	16622
461.901	9762
461.905	9653
461.969	8544
461.985	8206
462.037	7866
462.065	7885
462.105	8874
462.145	9764
462.173	13816
462.225	21639
462.241	23945
462.305	35752
462.310	34821
462.378	18961
462.385	16608
462.446	10479
462.465	9086
462.514	8220
462.545	8544
462.582	8329
462.625	7807
462.650	7833
462.705	7668
462.718	7776
462.785	8909
462.786	8990
462.854	13450
462.865	14264
462.922	17669
462.945	19329
462.990	15010
463.025	10109
463.058	8757
463.104	7452
463.126	7388
463.184	7331
463.194	7428
463.262	8387
463.264	8429
463.330	9098
463.344	9167
463.398	9588
463.424	9780
463.466	9672
463.504	9733
463.533	10140
463.583	10425
463.601	10764
463.663	12246
463.669	12601
463.737	16589
463.743	16968
463.805	25748
463.823	28317
463.873	41150
463.903	49269
463.940	52356
463.982	56922
464.008	45984
464.062	18561
464.076	17066
464.142	9038
464.144	8956
464.211	7971
464.221	7929
464.279	8818
464.301	9149
464.347	10695
464.381	11922
464.414	13037
464.461	14554
464.482	15118
464.540	16507
464.550	15983
464.617	12102
464.620	11939
464.685	12363
464.699	12535
464.753	14654
464.779	15833
464.820	16249
464.859	16325
464.888	16383
464.938	16354
464.956	16688
465.018	18247
465.023	17944
465.091	13229
465.098	12724
465.158	12005
465.177	11822
465.226	12741
465.257	13279
465.293	13929
465.336	14703
465.361	16120
465.416	19252
465.428	20701
465.495	28741
465.496	28893
465.563	45827
465.575	48812
465.631	60064
465.654	65189
465.698	41032
465.734	19235
465.765	16674
465.813	12913
465.833	12480
465.893	12362
465.900	12433
465.968	12828
465.972	12834
466.035	12146
466.052	11924
466.102	12680
466.131	13150
466.170	12961
466.210	12624
466.237	13170
466.290	14269
466.304	14545
466.369	15634
466.372	15673
466.439	16042
466.449	16074
466.506	18391
466.528	19223
466.573	27296
466.607	33271
466.641	49588
466.687	72298
466.708	79225
466.766	98416
466.775	90876
466.842	32586
466.845	29756
466.909	21722
466.925	19919
466.977	18504
467.004	17837
467.044	18311
467.083	18707
467.111	19832
467.163	21877
467.178	22246
467.242	23598
467.245	23594
467.312	22676
467.321	22516
467.379	22316
467.400	22181
467.446	23922
467.480	25107
467.559	21600
467.638	18902
467.717	19761
467.796	23337
467.875	25861
467.955	23958
468.034	35216
468.113	82517
468.192	118608
468.271	31615
468.350	21614
468.429	25022
468.508	26126
468.588	21933
468.667	19664
468.746	22101
468.825	19243
468.904	18844
468.983	20146
469.062	34195
469.141	41403
469.220	18266
469.299	16387
469.378	18414
469.456	20332
469.535	19609
469.614	18597
469.693	20721
469.772	26931
469.851	36946
469.930	26082
470.009	18283
470.088	19227
470.166	24302
470.245	35605
470.324	43787
470.403	29476
470.482	22021
470.560	18016
470.639	20234
470.718	23303
470.797	19608
470.875	23647
470.954	32436
471.033	33884
471.111	15235
471.190	14410
471.269	13576
471.347	14121
471.426	15727
471.505	18552
471.583	19013
471.662	17013
471.740	14748
471.819	15255
471.898	14922
471.976	14488
472.055	15726
472.133	17884
472.212	23528
472.290	24185
472.369	16746
472.447	14516
472.526	13032
472.604	14863
472.683	17119
472.761	17684
472.839	16510
472.918	15812
472.996	15914
473.075	18442
473.153	18345
473.231	15342
473.310	19126
473.388	19760
473.466	16870
473.545	20104
473.623	25655
473.701	26248
473.780	16107
473.858	15122
473.936	19222
474.014	15581
474.093	18312
474.171	26794
474.249	38073
474.327	25075
474.405	14593
474.484	13960
474.562	15011
474.640	15139
474.718	16690
474.796	14710
474.874	14607
474.952	12678
475.030	13876
475.108	14731
475.187	16428
475.265	17540
475.343	27631
475.421	32386
475.499	16081
475.577	16317
475.655	22348
475.733	45396
475.811	80670
475.889	72054
475.966	46244
476.044	17083
476.122	21843
476.200	29129
476.278	22410
476.356	14302
476.434	16304
476.512	21071
476.590	28612
476.667	23694
476.745	14754
476.823	15958
476.901	16278
476.979	15598
477.056	16174
477.134	15556
477.212	17463
477.290	16214
477.367	14000
477.445	13609
477.523	14501
477.601	13546
477.678	15656
477.756	17585
477.834	21359
477.911	14977
477.989	14223
478.066	13915
478.144	16977
478.222	21771
478.299	34912
478.377	31508
478.454	14887
478.532	13356
478.609	15540
478.687	16046
478.764	13080
478.842	15394
478.919	17045
478.997	16052
479.074	13206
479.152	16528
479.229	22507
479.307	14728
479.384	11699
479.461	12086
479.539	13981
479.616	16835
479.694	14604
479.771	15984
479.848	17148
479.926	22990
480.003	26093
480.080	12765
480.157	13218
480.235	12374
480.312	13166
480.389	16059
480.467	26988
480.544	33796
480.621	17757
480.698	16298
480.775	18630
480.853	19135
480.930	14981
481.007	14670
481.084	18231
481.161	18607
481.238	18877
481.315	13466
481.392	14000
481.470	14403
481.547	15537
481.624	13338
481.701	13741
481.778	14257
481.855	16394
481.932	25841
482.009	43915
482.086	29791
482.163	17308
482.240	24936
482.317	43876
482.393	33078
482.470	16434
482.547	15506
482.624	14585
482.701	15010
482.778	15188
482.855	12158
482.932	11857
483.009	12003
483.085	15135
483.162	18410
483.239	18477
483.316	13870
483.393	14342
483.469	14266
483.546	17530
483.623	18482
483.699	14390
483.776	15521
483.853	17617
483.930	25303
484.006	66197
484.083	110206
484.160	46606
484.236	54874
484.313	45231
484.389	34854
484.466	31922
484.543	29673
484.619	32177
484.696	33581
484.772	35579
484.849	36973
484.925	29524
485.002	28651
485.078	32182
485.155	32517
485.231	27948
485.308	27614
485.384	29766
485.461	36685
485.537	64983
485.614	78869
485.690	31226
485.766	27211
485.843	30321
485.919	45557
485.995	49033
486.072	25916
486.148	24722
486.224	24442
486.301	27169
486.377	33271
486.453	33160
486.530	30610
486.606	36409
486.682	40988
486.758	54793
486.835	65223
486.911	51979
486.987	85808
487.063	97391
487.139	125619
487.215	81699
487.292	36081
487.368	30385
487.444	34252
487.520	43834
487.596	42779
487.672	63068
487.748	166033
487.824	244973
487.900	82457
487.976	36835
488.052	36423
488.128	44288
488.204	35453
488.280	29752
488.356	35290
488.432	78875
488.508	119148
488.584	41227
488.660	27245
488.736	27692
488.812	30292
488.888	37007
488.964	52020
489.039	120300
489.115	188239
489.191	106523
489.267	28642
489.343	25794
489.418	22867
489.494	22646
489.570	20243
489.646	23928
489.722	22950
489.797	22887
489.873	38964
489.949	89269
490.024	74550
490.100	23250
490.176	21946
490.251	31331
490.327	40112
490.403	23140
490.478	20195
490.554	18588
490.629	18950
490.705	18666
490.781	20556
490.856	21401
490.932	24780
491.007	26323
491.083	23638
491.158	22850
491.234	29907
491.309	67101
491.385	69482
491.460	23948
491.536	24988
491.611	22009
491.686	25059
491.762	36974
491.837	78877
491.913	129913
491.988	183444
492.063	229552
492.139	61048
492.214	34118
492.289	18312
492.365	19235
492.440	22744
492.515	22887
492.590	21802
492.666	19005
492.741	25753
492.816	39926
492.891	21414
492.967	17541
493.042	14440
493.117	15741
493.192	16583
493.267	23479
493.342	47161
493.418	56194
493.493	18916
493.568	14934
493.643	15132
493.718	21709
493.793	36361
493.868	40572
493.943	24412
494.018	18397
494.093	16492
494.168	17005
494.243	13871
494.318	13921
494.393	14254
494.468	13166
494.543	14661
494.618	18438
494.693	16956
494.768	16767
494.842	16572
494.917	15149
494.992	16456
495.067	14673
495.142	14305
495.217	16405
495.292	17208
495.366	20857
495.441	26561
495.516	33836
495.591	46187
495.665	167002
495.740	400370
495.815	157919
495.890	28426
495.964	20915
496.039	23083
496.114	20657
496.188	21120
496.263	22584
496.338	19502
496.412	22616
496.487	26684
496.561	28893
496.636	29655
496.710	23631
496.785	24988
496.860	28545
496.934	23161
497.009	22820
497.083	21246
497.158	21582
497.232	27224
497.307	34449
497.381	27008
497.455	32628
497.530	42830
497.604	30007
497.679	31066
497.753	50455
497.827	64767
497.902	58173
497.976	61799
498.050	140178
498.125	536978
498.199	538823
498.273	93213
498.348	65817
498.422	50931
498.496	49744
498.570	43900
498.645	32722
498.719	32663
498.793	40659
498.867	61140
498.941	79173
499.016	220060
499.090	593990
499.164	200565
499.238	29433
499.312	24792
499.386	32435
499.460	29598
499.534	28105
499.609	33884
499.683	51445
499.757	46725
499.831	96858
499.905	395385
499.979	364203
500.053	62338
500.127	61447
500.201	46765
500.275	30593
500.349	28555
500.422	33007
500.496	48978
500.570	100780
500.644	233791
500.718	417470
500.792	93156
500.866	26735
500.940	34804
501.013	30358
501.087	30549
501.161	53637
501.235	68113
501.309	133689
501.382	374110
501.456	319402
501.530	75222
501.603	125640
501.677	50026
501.751	22822
501.825	27516
501.898	51443
501.972	153624
502.046	93002
502.119	29007
502.193	68083
502.266	165664
502.340	78340
502.413	70510
502.487	141522
502.561	81092
502.634	27128
502.708	22824
502.781	20593
502.855	17599
502.928	14672
503.002	14551
503.075	14285
503.149	17289
503.222	17674
503.295	20118
503.369	25174
503.442	31948
503.516	109737
503.589	285726
503.662	182592
503.736	57810
503.809	131285
503.882	106380
503.956	153731
504.029	142811
504.102	107404
504.175	136514
504.249	49006
504.322	29344
504.395	23549
504.468	17073
504.542	17630
504.615	13082
504.688	13540
504.761	11889
504.834	19473
504.907	23575
504.980	39375
505.053	19556
505.127	25479
505.200	27890
505.273	26108
505.346	15829
505.419	13423
505.492	12264
505.565	11165
505.638	10374
505.711	10930
505.784	11165
505.857	10925
505.930	12670
506.003	12195
506.076	14161
506.149	18974
506.221	24003
506.294	22495
506.367	57681
506.440	202361
506.513	103735
506.586	26896
506.659	16459
506.731	13688
506.804	18005
506.877	27412
506.950	16584
507.022	12865
507.095	16546
507.168	22576
507.241	14593
507.313	12532
507.386	14410
507.459	22203
507.531	14820
507.604	11532
507.677	11704
507.749	9490
507.822	15216
507.894	29626
507.967	32253
508.040	17018
508.112	15426
508.185	15473
508.257	15080
508.330	24859
508.402	14989
508.475	14339
508.547	15084
508.620	15896
508.692	26660
508.765	16874
508.837	12364
508.909	12210
508.982	12268
509.054	14972
509.127	13118
509.199	11454
509.271	10609
509.344	10852
509.416	11180
509.488	11902
509.560	11987
509.633	14288
509.705	16136
509.777	15802
509.849	23672
509.922	15373
509.994	12268
510.066	13003
510.138	12137
510.210	24749
510.283	21727
510.355	18850
510.427	16024
510.499	16852
510.571	15868
510.643	15418
510.715	28516
510.787	24640
510.859	16611
510.931	20566
511.003	27662
511.076	25031
511.148	13471
511.219	15548
511.291	24486
511.363	29899
511.435	14772
511.507	12231
511.579	12382
511.651	13289
511.723	13176
511.795	12087
511.867	13390
511.939	17689
512.010	37501
512.082	30399
512.154	14942
512.226	14540
512.298	20176
512.369	30346
512.441	24235
512.513	26184
512.585	18064
512.656	19818
512.728	22689
512.800	17070
512.871	15839
512.943	15650
513.015	13574
513.086	16395
513.158	17119
513.230	17591
513.301	28429
513.373	35293
513.444	18251
513.516	14613
513.588	15438
513.659	18373
513.731	24159
513.802	20473
513.874	44435
513.945	80650
514.016	27011
514.088	17026
514.159	17004
514.231	25167
514.302	29399
514.374	21072
514.445	19497
514.516	42707
514.588	30114
514.659	21072
514.730	39989
514.802	30157
514.873	20766
514.944	21048
515.016	18924
515.087	21800
515.158	29361
515.229	38670
515.301	20332
515.372	25433
515.443	16152
515.514	14663
515.585	12652
515.656	15159
515.728	14784
515.799	13578
515.870	15985
515.941	17780
516.012	15702
516.083	23034
516.154	25462
516.225	36403
516.296	34170
516.367	30317
516.438	35136
516.509	45377
516.580	63079
516.651	195892
516.722	705439
516.793	311848
516.864	67312
516.935	62854
517.006	68974
517.077	91169
517.148	198897
517.219	722845
517.289	1099925
517.360	318594
517.431	94018
517.502	32800
517.573	28634
517.643	28341
517.714	29152
517.785	33051
517.856	34290
517.926	42585
517.997	51843
518.068	65195
518.138	83352
518.209	120714
518.280	449846
518.350	1590250
518.421	621096
518.492	86537
518.562	48392
518.633	44811
518.703	41299
518.774	66145
518.845	155784
518.915	149809
518.986	55887
519.056	44051
519.127	70942
519.197	103717
519.268	223896
519.338	132411
519.408	36807
519.479	45285
519.549	34070
519.620	22565
519.690	16849
519.760	18399
519.831	19301
519.901	19259
519.971	16594
520.042	17413
520.112	20955
520.182	25043
520.253	26728
520.323	17357
520.393	17259
520.463	23532
520.534	18032
520.604	30859
520.674	21963
520.744	23564
520.814	33971
520.885	39259
520.955	66138
521.025	247361
521.095	90467
521.165	21412
521.235	17256
521.305	15907
521.375	15464
521.445	17366
521.515	24439
521.585	29166
521.655	26922
521.725	23309
521.795	21037
521.865	14002
521.935	24920
522.005	21502
522.075	14397
522.145	16998
522.215	18773
522.285	27668
522.355	37188
522.424	71390
522.494	59060
522.564	30872
522.634	62476
522.704	183494
522.774	67905
522.843	20498
522.913	17838
522.983	25308
523.053	18746
523.122	19320
523.192	26624
523.262	102066
523.331	94437
523.401	21488
523.471	14583
523.540	15665
523.610	11471
523.680	12330
523.749	12425
523.819	16983
523.888	17186
523.958	11815
524.027	13530
524.097	14986
524.166	13966
524.236	16548
524.305	16383
524.375	12984
524.444	12350
524.514	15311
524.583	13958
524.653	17366
524.722	20330
524.791	14298
524.861	14977
524.930	12380
524.999	15215
525.069	21870
525.138	16661
525.207	21441
525.277	14882
525.346	15408
525.415	14780
525.484	17136
525.554	18621
525.623	20070
525.692	15663
525.761	19478
525.830	21251
525.900	24762
525.969	35964
526.038	54040
526.107	100542
526.176	294420
526.245	238801
526.314	87774
526.383	156751
526.452	205258
526.522	338537
526.591	347667
526.660	121853
526.729	63114
526.797	61902
526.867	120629
526.935	500255
527.004	802534
527.073	414319
527.142	49636
527.211	24685
527.280	25075
527.349	23545
527.418	12991
527.487	14566
527.555	12695
527.624	11764
527.693	10308
527.762	13467
527.831	10250
527.899	11651
527.968	12907
528.037	11763
528.106	17470
528.174	31845
528.243	25025
528.312	35169
528.380	48176
528.449	15921
528.518	12624
528.586	9120
528.655	10251
528.723	10093
528.792	10436
528.861	11541
528.929	10406
528.998	10579
529.066	9534
529.135	9957
529.203	9942
529.272	9672
529.340	11616
529.409	13179
529.477	11584
529.545	14411
529.614	18525
529.682	16038
529.751	20886
529.819	20873
529.887	15051
529.956	11562
530.024	13951
530.092	10696
530.161	15048
530.229	24385
530.297	14642
530.365	11680
530.434	11979
530.502	9701
530.570	11095
530.638	9927
530.707	11723
530.775	14234
530.843	11297
530.911	10891
530.979	11354
531.047	10541
531.115	12094
531.183	11400
531.252	11359
531.320	11712
531.388	10399
531.456	11218
531.524	10138
531.592	12057
531.660	14400
531.728	10714
531.796	11040
531.864	11466
531.932	13328
532.000	13041
532.067	13093
532.135	14418
532.203	16974
532.271	17553
532.339	29076
532.407	82140
532.475	47712
532.542	23876
532.610	25239
532.678	31172
532.746	130342
532.814	327560
532.881	82701
532.949	19589
533.017	15152
533.084	13248
533.152	12600
533.220	13738
533.287	15091
533.355	13104
533.423	13274
533.490	11003
533.558	13379
533.625	14016
533.693	14911
533.761	14116
533.828	15202
533.896	14164
533.963	28439
534.031	33032
534.098	48501
534.166	22550
534.233	13070
534.300	15233
534.368	15089
534.435	14185
534.503	14514
534.570	16031
534.637	15817
534.705	18160
534.772	21445
534.840	30732
534.907	134204
534.974	168600
535.041	28169
535.109	21828
535.176	14082
535.243	13295
535.310	14794
535.378	13223
535.445	12199
535.512	11116
535.579	13137
535.646	11687
535.714	12712
535.781	15328
535.848	14555
535.915	14167
535.982	13851
536.049	14402
536.116	15618
536.183	13854
536.250	15062
536.317	15193
536.384	17928
536.451	28147
536.518	28905
536.585	19392
536.652	24976
536.719	35346
536.786	28692
536.853	22627
536.920	32792
536.987	50546
537.053	46996
537.120	167268
537.187	142092
537.254	20767
537.321	16706
537.388	16005
537.454	13557
537.521	13307
537.588	13261
537.654	15749
537.721	17340
537.788	16535
537.855	14322
537.921	15543
537.988	15476
538.055	16026
538.121	15423
538.188	15943
538.254	26048
538.321	52621
538.388	32088
538.454	17246
538.521	15797
538.587	14482
538.654	14192
538.720	13359
538.787	15078
538.853	15625
538.920	20148
538.986	19229
539.053	16906
539.119	17378
539.185	17585
539.252	20850
539.318	32065
539.385	23223
539.451	19809
539.517	20562
539.583	22948
539.650	50547
539.716	129730
539.782	38500
539.849	17675
539.915	18222
539.981	18724
540.047	22476
540.114	20122
540.180	20558
540.246	19856
540.312	27125
540.378	53391
540.444	50531
540.510	53511
540.576	145120
540.643	46806
540.709	17508
540.775	16935
540.841	15684
540.907	20863
540.973	28185
541.039	28359
541.105	31918
541.171	18550
541.237	16886
541.303	18466
541.369	21598
541.435	26836
541.500	46891
541.566	28730
541.632	16224
541.698	14034
541.764	14769
541.830	14635
541.896	15307
541.961	16654
542.027	16007
542.093	17317
542.159	17315
542.224	18673
542.290	26276
542.356	45299
542.421	52542
542.487	24743
542.553	18337
542.618	19689
542.684	17837
542.750	19934
542.815	22104
542.881	37066
542.947	125803
543.012	90340
543.078	18632
543.143	16729
543.209	18525
543.274	18847
543.340	20255
543.405	49281
543.471	76594
543.536	22132
543.602	16693
543.667	16548
543.732	16065
543.798	15270
543.863	16535
543.928	14665
543.994	13690
544.059	15309
544.124	15872
544.190	15509
544.255	16757
544.320	17455
544.386	18475
544.451	25110
544.516	29224
544.581	28030
544.646	78675
544.712	120969
544.777	27726
544.842	21744
544.907	22495
544.972	19671
545.037	18192
545.102	20658
545.168	20989
545.233	22439
545.298	23723
545.363	25976
545.428	29194
545.493	49304
545.558	104365
545.623	44679
545.688	22296
545.753	22059
545.818	20496
545.883	22161
545.947	20143
546.012	24711
546.077	23169
546.142	24053
546.207	23050
546.272	30951
546.337	31380
546.401	25821
546.466	24948
546.531	23791
546.596	27016
546.661	26863
546.725	25749
546.790	24703
546.855	26383
546.919	27073
546.984	29175
547.049	32251
547.113	37430
547.178	35264
547.243	40837
547.307	46163
547.372	52562
547.436	54673
547.501	48592
547.565	52582
547.630	56273
547.695	54304
547.759	55481
547.823	52271
547.888	48275
547.952	48593
548.017	51033
548.081	55509
548.146	63680
548.210	57529
548.274	54078
548.339	53972
548.403	50498
548.468	47980
548.532	46619
548.596	48431
548.660	48178
548.725	53895
548.789	60674
548.853	59020
548.917	55199
548.982	61744
549.046	57046
549.110	44990
549.174	44505
549.238	49556
549.303	51873
549.367	55038
549.431	53496
549.495	49890
549.559	50153
549.623	56646
549.687	64755
549.751	75084
549.815	73049
549.879	71568
549.943	66459
550.007	72847
550.071	72164
550.135	74644
550.199	66345
550.263	61588
550.327	61786
550.391	68892
550.455	66800
550.519	68649
550.582	73733
550.646	90048
550.710	91763
550.774	81491
550.838	80844
550.901	83945
550.965	88165
551.029	93464
551.093	99257
551.156	112827
551.220	153451
551.284	169667
551.347	114335
551.411	141360
551.475	141322
551.538	89573
551.602	82148
551.666	77108
551.729	70828
551.793	70049
551.856	70298
551.920	69165
551.983	68987
552.047	68418
552.110	67416
552.174	68580
552.237	69808
552.301	66166
552.364	62972
552.428	62642
552.491	65368
552.554	66730
552.618	66495
552.681	69976
552.745	71210
552.808	93185
552.871	114337
552.934	82246
552.998	69202
553.061	67728
553.124	63783
553.187	63643
553.251	65250
553.314	65647
553.377	63434
553.440	70802
553.503	84289
553.567	94547
553.630	71470
553.693	69648
553.756	68758
553.819	66540
553.882	64454
553.945	64560
554.008	64851
554.071	65542
554.134	65724
554.197	62336
554.260	60441
554.323	65030
554.386	64257
554.449	66777
554.512	64241
554.575	62595
554.638	63788
554.701	62832
554.764	60969
554.827	57654
554.889	57132
554.952	54017
555.015	51622
555.078	54247
555.141	53941
555.203	53194
555.266	54680
555.329	53950
555.391	51683
555.454	53738
555.517	51756
555.580	49049
555.642	46371
555.705	46128
555.768	46773
555.830	47024
555.893	43269
555.955	42944
556.018	42715
556.080	43273
556.143	43650
556.206	44414
556.268	43136
556.330	45278
556.393	42730
556.455	41959
556.518	50390
556.580	49634
556.643	38561
556.705	37519
556.767	36871
556.830	38026
556.892	40660
556.955	52930
557.017	42813
557.079	36010
557.142	35316
557.204	39459
557.266	63587
557.328	53069
557.391	32999
557.453	31902
557.515	31594
557.577	37357
557.639	37423
557.701	31560
557.764	30744
557.826	32267
557.888	35038
557.950	35846
558.012	37274
558.074	45343
558.136	90991
558.198	215371
558.260	82907
558.322	41595
558.384	41689
558.446	46510
558.508	51536
558.570	64958
558.632	94265
558.694	125177
558.756	127480
558.818	374319
558.880	875959
558.942	280486
559.003	231063
559.065	114684
559.127	52673
559.189	52980
559.251	57324
559.312	75568
559.374	181421
559.436	594677
559.498	283181
559.559	61651
559.621	51714
559.683	57268
559.744	91590
559.806	289753
559.868	417823
559.929	87771
559.991	56215
560.052	78917
560.114	207640
560.176	131592
560.237	122342
560.299	196632
560.360	51130
560.422	29387
560.483	26159
560.545	24205
560.606	23318
560.667	22927
560.729	22193
560.790	22325
560.852	22861
560.913	22952
560.974	21173
561.036	22211
561.097	22255
561.158	22179
561.220	23167
561.281	23297
561.342	24050
561.403	27658
561.465	34561
561.526	73659
561.587	91283
561.648	30206
561.709	22096
561.771	21907
561.832	21105
561.893	22185
561.954	20941
562.015	20894
562.076	20754
562.137	20867
562.198	21282
562.259	21965
562.320	21584
562.381	24880
562.442	32183
562.503	26988
562.564	21060
562.625	21404
562.686	21115
562.747	23453
562.808	21636
562.869	21969
562.930	25383
562.991	24825
563.051	22111
563.112	22334
563.173	20785
563.234	20045
563.294	20718
563.355	20525
563.416	21555
563.477	20840
563.537	21424
563.598	22039
563.659	21155
563.720	21380
563.780	22722
563.841	22256
563.901	22178
563.962	21147
564.023	20343
564.083	22229
564.144	22148
564.204	21806
564.265	21494
564.325	24619
564.386	41664
564.446	36177
564.507	20558
564.567	20694
564.628	20632
564.688	21210
564.749	21316
564.809	22840
564.869	26431
564.930	21582
564.990	20765
565.050	20150
565.111	20445
565.171	19641
565.231	19890
565.292	20427
565.352	19869
565.412	20821
565.472	20945
565.532	22995
565.593	21503
565.653	21163
565.713	20614
565.773	21951
565.833	25139
565.893	31748
565.953	22173
566.013	19856
566.074	21416
566.134	26902
566.194	39969
566.254	40000
566.314	27637
566.374	22775
566.434	22065
566.494	21470
566.554	21282
566.614	22406
566.673	21534
566.733	23591
566.793	23308
566.853	24290
566.913	23772
566.973	24510
567.033	24837
567.092	26118
567.152	24276
567.212	25792
567.272	25068
567.331	25493
567.391	24828
567.451	27717
567.511	33331
567.570	34546
567.630	25223
567.690	23964
567.749	24349
567.809	25699
567.868	26915
567.928	29227
567.988	32732
568.047	34027
568.107	37490
568.166	48020
568.226	73011
568.285	97666
568.345	78227
568.404	60938
568.464	52974
568.523	49841
568.582	50130
568.642	56079
568.701	68346
568.761	100059
568.820	160088
568.879	147650
568.939	104886
568.998	74093
569.057	56603
569.116	46578
569.176	39831
569.235	34412
569.294	30411
569.353	29134
569.413	27341
569.472	26458
569.531	24806
569.590	23566
569.649	23435
569.708	21697
569.767	21984
569.827	27276
569.886	23890
569.945	20375
570.004	20953
570.063	21963
570.122	22437
570.181	24858
570.240	24925
570.299	24575
570.358	26359
570.417	21072
570.475	19600
570.534	21765
570.593	21935
570.652	23109
570.711	22905
570.770	21427
570.829	23088
570.887	23129
570.946	24541
571.005	20243
571.064	20422
571.122	23081
571.181	22957
571.240	18781
571.299	18519
571.357	20659
571.416	21080
571.475	22875
571.533	23334
571.592	19792
571.650	21711
571.709	18607
571.768	19235
571.826	19436
571.885	17239
571.943	17793
572.002	17758
572.060	19226
572.119	17261
572.177	16918
572.236	16864
572.294	15811
572.352	17405
572.411	18012
572.469	16410
572.528	18167
572.586	17736
572.644	20328
572.703	24039
572.761	20238
572.819	16441
572.877	16656
572.936	16274
572.994	16321
573.052	16175
573.110	16973
573.169	18022
573.227	16462
573.285	16104
573.343	16107
573.401	16068
573.459	15956
573.517	15448
573.576	16298
573.634	16611
573.692	16632
573.750	16731
573.808	15852
573.866	17782
573.924	21812
573.982	19900
574.040	17700
574.098	14873
574.155	15313
574.213	15142
574.271	16102
574.329	16509
574.387	15721
574.445	14357
574.503	14109
574.560	13643
574.618	13943
574.676	14342
574.734	13774
574.792	14237
574.849	15204
574.907	13829
574.965	13562
575.022	13079
575.080	13423
575.138	13796
575.195	15161
575.253	15322
575.311	16712
575.368	13795
575.426	13031
575.483	14650
575.541	12943
575.598	13044
575.656	15351
575.713	14865
575.771	13864
575.828	14640
575.886	14248
575.943	15693
576.001	15769
576.058	15322
576.115	16812
576.173	19509
576.230	20935
576.287	22463
576.345	17962
576.402	15832
576.459	15716
576.517	15861
576.574	17164
576.631	17368
576.688	15707
576.746	15224
576.803	15256
576.860	14927
576.917	15145
576.974	14864
577.031	14844
577.089	14475
577.146	15895
577.203	13687
577.260	15863
577.317	16440
577.374	19309
577.431	16456
577.488	16137
577.545	14723
577.602	14259
577.659	15275
577.716	14761
577.773	13613
577.830	14204
577.886	13780
577.943	13616
578.000	14118
578.057	15238
578.114	14724
578.171	14457
578.227	14492
578.284	13801
578.341	15212
578.398	15511
578.454	16121
578.511	17750
578.568	19019
578.625	17328
578.681	14481
578.738	14433
578.794	14720
578.851	13885
578.908	14716
578.964	16066
579.021	17012
579.077	16289
579.134	14579
579.190	14329
579.247	15232
579.303	15048
579.360	13902
579.416	14201
579.473	13906
579.529	13853
579.586	14563
579.642	15021
579.698	14284
579.755	15812
579.811	14512
579.867	15041
579.924	13557
579.980	14284
580.036	14550
580.093	14992
580.149	14875
580.205	15440
580.261	15125
580.317	16343
580.374	16317
580.430	20113
580.486	17919
580.542	15813
580.598	16291
580.619	16160
580.654	15942
580.692	15727
580.710	15638
580.765	15613
580.767	15622
580.823	15952
580.838	15988
580.879	16119
580.911	15510
580.935	15066
580.984	15699
580.991	15802
581.047	14776
581.057	14833
581.103	15120
581.130	15045
581.159	14972
581.203	15395
581.215	15518
581.270	15897
581.276	15874
581.326	15713
581.349	16045
581.382	16555
581.422	16478
581.438	16447
581.494	16016
581.494	16012
581.550	16299
581.567	16404
581.606	16575
581.640	16203
581.661	15983
581.713	16299
581.717	16329
581.773	16546
581.786	16521
581.829	16531
581.859	16856
581.885	17084
581.932	17001
581.940	16992
581.996	16400
582.004	16446
582.052	16702
582.077	16904
582.107	17118
582.150	16960
582.163	16940
582.219	16673
582.223	16730
582.274	17526
582.296	17785
582.330	18112
582.368	18095
582.386	18126
582.441	17327
582.441	17325
582.497	16600
582.514	16774
582.552	17361
582.587	17810
582.608	18002
582.659	17216
582.663	17161
582.719	17269
582.732	17359
582.774	17720
582.805	17832
582.830	17845
582.877	18325
582.885	18431
582.941	18035
582.950	18088
582.996	18305
583.023	18301
583.052	18332
583.095	18941
583.107	19106
583.162	18831
583.168	18842
583.218	18770
583.240	18778
583.273	18706
583.313	18387
583.328	18386
583.384	19016
583.385	19047
583.439	19477
583.458	18996
583.494	18189
583.531	17931
583.549	17890
583.603	18610
583.605	18625
583.660	19076
583.676	19086
583.715	19352
583.748	20026
583.770	20491
583.820	20647
583.825	20619
583.881	19896
583.893	19960
583.936	20418
583.965	19864
583.991	19398
584.038	19744
584.046	19816
584.101	20229
584.110	20326
584.156	20636
584.183	20456
584.211	20261
584.255	19740
584.266	19657
584.321	20186
584.328	20229
584.376	20736
584.400	20822
584.431	20838
584.472	20519
584.486	20435
584.541	21136
584.545	21183
584.596	22184
584.617	22409
584.651	22956
584.689	23360
584.706	23509
584.761	23611
584.762	23603
584.816	23479
584.834	23514
584.871	23818
584.906	24176
584.926	24308
584.978	25246
584.980	25311
585.035	25997
585.051	26521
585.090	28331
585.123	29625
585.145	30348
585.195	32269
585.200	32516
585.254	34229
585.267	35046
585.309	37810
585.340	39428
585.364	40801
585.412	43526
585.419	44050
585.473	48536
585.484	49894
585.528	58947
585.556	67717
585.583	88213
585.628	134876
585.637	153277
585.692	305260
585.700	330534
585.747	412108
585.772	363847
585.801	233638
585.845	90400
585.856	76221
585.910	49657
585.917	46913
585.965	41940
585.989	39425
586.019	37863
586.061	37384
586.074	37498
586.128	37562
586.133	37609
586.183	39287
586.205	39756
586.237	39639
586.277	38903
586.292	38658
586.346	37414
586.349	37387
586.401	38514
586.421	38777
586.455	40188
586.493	42430
586.509	45204
586.564	55361
586.565	55706
586.618	78812
586.637	81262
586.672	68398
586.709	53696
586.727	50459
586.781	47466
586.781	47517
586.835	44202
586.853	43482
586.889	43379
586.925	43079
586.944	43269
586.996	44818
586.998	44925
587.052	45986
587.068	46252
587.106	47313
587.140	48191
587.161	48759
587.212	49270
587.215	49394
587.269	51766
587.284	52047
587.323	53131
587.356	54487
587.377	55359
587.427	56848
587.431	57097
587.485	59454
587.499	60019
587.539	62173
587.571	63730
587.593	65102
587.643	67835
587.648	68277
587.702	72229
587.715	73174
587.755	76245
587.786	77943
587.810	80005
587.858	84546
587.864	85331
587.917	92197
587.930	93791
587.971	100813
588.001	105471
588.025	109470
588.073	116432
588.079	117813
588.133	130032
588.145	132664
588.187	144739
588.217	153116
588.241	162337
588.288	180927
588.295	184453
588.348	213418
588.360	219369
588.402	245919
588.431	265241
588.456	286534
588.503	328037
588.510	336379
588.564	403613
588.575	417830
588.617	497172
588.646	554400
588.671	633992
588.718	794609
588.725	836545
588.778	1174624
588.789	1247231
588.832	1638696
588.861	1912220
588.886	2016873
588.932	2138488
588.939	2126850
588.993	1904326
589.004	1880314
589.047	2037706
589.075	2061167
589.100	1811511
589.147	1319982
589.154	1276116
589.207	958409
589.218	896201
589.261	820987
589.290	778002
589.314	808676
589.361	877243
589.368	912202
589.421	1212417
589.433	1279720
589.475	1659108
589.504	1926780
589.528	1973325
589.576	1955161
589.582	1949225
589.635	1871788
589.647	1832699
589.689	1367580
589.718	1038959
589.742	872326
589.790	565931
589.795	551481
589.849	419701
589.861	390095
589.902	342232
589.932	305361
589.955	279264
590.004	223041
590.009	220709
590.062	193958
590.075	186995
590.115	171947
590.146	160115
590.168	155486
590.218	144074
590.222	143617
590.275	133631
590.289	130719
590.328	126111
590.360	121868
590.381	118968
590.431	110905
590.435	110833
590.488	105242
590.503	103510
590.541	101736
590.574	99647
590.594	98236
590.645	93834
590.647	93940
590.700	90244
590.716	88930
590.753	88155
590.787	87039
590.806	86441
590.859	84022
590.859	84216
590.912	82473
590.930	81620
590.965	80791
591.001	79820
591.018	79500
591.071	77748
591.072	77524
591.124	77660
591.143	77523
591.177	77008
591.214	76100
591.230	76577
591.283	77307
591.285	77130
591.336	78584
591.356	78893
591.389	78287
591.427	76866
591.442	75940
591.495	71845
591.498	71350
591.547	70766
591.569	70227
591.600	69868
591.640	68882
591.653	69153
591.706	69602
591.711	69449
591.759	71626
591.782	72497
591.811	74615
591.853	77163
591.864	76337
591.917	70803
591.924	69814
591.969	69431
591.995	68931
592.022	69932
592.066	71086
592.075	71993
592.127	76267
592.137	76879
592.180	80812
592.208	82796
592.233	78804
592.279	70586
592.285	70487
592.338	68053
592.350	67304
592.390	67435
592.421	67192
592.443	67545
592.491	67710
592.495	67886
592.548	67567
592.562	67287
592.600	67833
592.633	67936
592.653	67985
592.704	67233
592.705	67619
592.775	67501
592.846	69777
592.916	70313
592.987	73841
593.058	70008
593.128	65222
593.199	65793
593.270	66226
593.341	63872
593.411	66458
593.482	66758
593.553	66321
593.623	66728
593.694	68478
593.764	71004
593.835	66795
593.906	66496
593.976	66929
594.047	68963
594.117	77259
594.188	77444
594.258	67218
594.329	66562
594.399	68067
594.470	68520
594.540	70469
594.611	68123
594.681	69428
594.751	69732
594.822	74883
594.892	78088
594.963	75736
595.033	77352
595.103	78714
595.174	81334
595.244	102985
595.314	113363
595.384	80950
595.455	79480
595.525	82114
595.595	84156
595.665	83500
595.736	82125
595.806	82312
595.876	81695
595.946	82416
596.016	84202
596.087	85890
596.157	85644
596.227	85463
596.297	90879
596.367	95117
596.437	100672
596.507	116339
596.577	127027
596.647	101627
596.717	100348
596.787	101340
596.857	101141
596.927	101613
596.997	101911
597.067	103490
597.137	104774
597.207	106105
597.277	105157
597.347	102111
597.417	101125
597.487	103660
597.557	106506
597.626	107834
597.696	109924
597.766	119666
597.836	128107
597.906	103320
597.975	96087
598.045	96521
598.115	98628
598.185	104616
598.254	114205
598.324	123312
598.394	126136
598.464	123452
598.533	117755
598.603	108990
598.672	109787
598.742	110711
598.812	109707
598.881	112078
598.951	111730
599.020	111700
599.090	115157
599.159	115310
599.229	110934
599.299	110477
599.368	112629
599.437	110253
599.507	106427
599.576	103783
599.646	101096
599.715	100988
599.785	101062
599.854	101383
599.924	104002
599.993	99162
600.062	99727
600.132	99957
600.201	106179
600.270	122415
600.340	123415
600.409	119428
600.478	119063
600.547	121884
600.617	113487
600.686	97195
600.755	91254
600.824	92567
600.894	87537
600.963	84710
601.032	82942
601.101	82611
601.170	80525
601.239	81238
601.308	85203
601.378	82902
601.447	80028
601.516	80025
601.585	84858
601.654	90676
601.723	85039
601.792	85787
601.861	86668
601.930	94332
601.999	96110
602.068	91208
602.137	100273
602.206	100253
602.275	95516
602.343	104383
602.412	103944
602.481	92217
602.550	91979
602.619	96029
602.688	97449
602.756	96773
602.825	95646
602.894	98076
602.963	97606
603.032	100235
603.100	98386
603.169	100087
603.238	100232
603.307	99088
603.375	99916
603.444	102296
603.513	102409
603.581	103345
603.650	105721
603.719	100040
603.787	103390
603.856	104465
603.924	109467
603.993	111726
604.061	113648
604.130	117920
604.198	121592
604.267	121843
604.335	123065
604.404	123024
604.472	124511
604.541	126504
604.609	127350
604.678	128618
604.746	129333
604.815	132007
604.883	132753
604.951	133823
605.020	134197
605.088	136516
605.156	138365
605.225	137868
605.293	139411
605.361	139723
605.429	140945
605.498	143855
605.566	147997
605.634	154046
605.702	156084
605.771	160952
605.839	162329
605.907	157857
605.975	151136
606.043	148680
606.111	149134
606.180	150838
606.248	148927
606.316	147432
606.384	153735
606.452	160419
606.520	169974
606.588	156004
606.656	151622
606.724	148172
606.792	139755
606.860	127855
606.928	116771
606.996	112451
607.064	111390
607.132	114012
607.200	121079
607.267	124258
607.335	127023
607.403	128790
607.471	123298
607.539	122988
607.607	121603
607.674	109537
607.742	111201
607.810	112707
607.878	111383
607.946	112185
608.013	116386
608.081	120624
608.149	119393
608.216	120651
608.284	126721
608.352	125090
608.419	127317
608.487	136865
608.555	125493
608.622	123418
608.690	130952
608.757	142189
608.825	146197
608.893	143440
608.960	143876
609.028	146402
609.095	148109
609.163	131910
609.230	119275
609.298	109087
609.365	112894
609.432	122839
609.500	132029
609.567	150498
609.635	170090
609.702	177326
609.769	170547
609.837	138566
609.904	120240
609.971	124479
610.039	140667
610.106	194402
610.173	380103
610.241	858607
610.308	520239
610.375	215621
610.442	137745
610.509	123914
610.577	122787
610.644	123683
610.711	124997
610.778	130055
610.845	134318
610.912	141911
610.980	147686
611.047	149353
611.114	147209
611.181	137988
611.248	137757
611.315	146093
611.382	147792
611.449	152113
611.516	155223
611.583	154153
611.650	154746
611.717	157871
611.784	162917
611.851	171855
611.918	188978
611.984	222964
612.051	330184
612.118	690141
612.185	1644737
612.252	980281
612.319	268889
612.386	209019
612.452	189361
612.519	183672
612.586	192154
612.653	182273
612.719	182472
612.786	174323
612.853	162032
612.919	158091
612.986	158680
613.053	150074
613.120	140989
613.186	136883
613.253	138884
613.319	138012
613.386	141133
613.453	145288
613.519	151995
613.586	163688
613.652	187425
613.719	169868
613.785	161208
613.852	145443
613.918	142694
613.985	144752
614.051	155193
614.118	170153
614.184	161190
614.250	141626
614.317	144911
614.383	142032
614.449	144585
614.516	143799
614.582	147238
614.648	141936
614.715	141420
614.781	139926
614.847	140804
614.914	141161
614.980	138147
615.046	138160
615.112	141503
615.179	141458
615.245	145742
615.311	153859
615.377	176398
615.443	181297
615.509	158920
615.575	156556
615.642	151554
615.708	159110
615.774	169766
615.840	182075
615.906	207159
615.972	271537
616.038	454918
616.104	895922
616.170	1964637
616.236	1565587
616.302	396730
616.368	282720
616.434	206241
616.500	191175
616.565	209042
616.631	255750
616.697	210838
616.763	219959
616.829	330624
616.895	580530
616.961	537207
617.026	238629
617.092	167603
617.158	154679
617.224	149420
617.289	140360
617.355	133903
617.421	132878
617.487	133309
617.552	124058
617.618	123790
617.684	121844
617.749	124670
617.815	119004
617.880	116148
617.946	117826
618.012	120692
618.077	122492
618.143	116903
618.208	118748
618.274	127370
618.339	127541
618.405	107838
618.470	110318
618.536	109933
618.601	112771
618.667	104191
618.732	99448
618.798	98156
618.863	96541
618.928	96515
618.994	100504
619.059	107878
619.124	129676
619.190	105984
619.255	96023
619.320	96392
619.386	95585
619.451	93536
619.516	90899
619.581	93455
619.647	95385
619.712	95848
619.777	92387
619.842	93460
619.907	96497
619.972	96514
620.038	97634
620.103	93649
620.168	91628
620.233	92173
620.298	92057
620.363	94415
620.428	95859
620.493	98931
620.558	98890
620.623	98418
620.688	98968
620.753	99194
620.818	100596
620.883	101273
620.948	98962
621.013	99630
621.078	99616
621.143	100353
621.207	104985
621.272	104501
621.337	103726
621.402	104877
621.467	113833
621.532	115638
621.596	107053
621.661	99895
621.726	96741
621.791	99227
621.855	101833
621.920	103960
621.985	105576
622.049	112941
622.114	108546
622.179	104324
622.243	108273
622.308	108061
622.373	114359
622.437	111794
622.502	104096
622.566	103275
622.631	102588
622.695	106751
622.760	106306
622.824	105100
622.889	108103
622.953	114964
623.018	147845
623.082	139366
623.147	112690
623.211	109382
623.276	110619
623.340	101855
623.404	99218
623.469	100514
623.533	102405
623.597	97424
623.662	98719
623.726	92645
623.790	89262
623.854	87965
623.919	89910
623.983	89992
624.047	91537
624.111	91377
624.176	93390
624.240	98458
624.304	103671
624.368	92478
624.432	93216
624.496	95609
624.560	106541
624.625	109315
624.689	97696
624.753	99967
624.817	95807
624.881	93139
624.945	86813
625.009	84156
625.073	88216
625.137	95708
625.201	111603
625.265	107456
625.329	91242
625.393	95804
625.456	92083
625.520	94957
625.584	100835
625.648	112447
625.712	139881
625.776	235956
625.839	245253
625.903	117734
625.967	88516
626.031	122729
626.095	164318
626.158	96438
626.222	71161
626.286	69379
626.349	66385
626.413	64931
626.477	69978
626.540	65129
626.604	64132
626.668	62980
626.731	61507
626.795	64545
626.858	65060
626.922	61343
626.986	61890
627.049	59804
627.113	63237
627.176	59987
627.240	59651
627.303	59717
627.366	59065
627.430	61818
627.493	60757
627.557	59364
627.620	61377
627.684	62261
627.747	62254
627.810	57558
627.874	54262
627.937	52510
628.000	55926
628.064	55326
628.127	49095
628.190	50463
628.253	49725
628.317	47284
628.380	46614
628.443	46714
628.506	47447
628.569	46035
628.632	42126
628.696	42116
628.759	42725
628.822	41497
628.885	42099
628.948	40709
629.011	42366
629.074	41294
629.137	39201
629.200	39847
629.263	43468
629.326	37884
629.389	38443
629.452	39000
629.515	40434
629.578	38459
629.641	41326
629.704	39723
629.767	41792
629.830	37663
629.892	37708
629.955	36027
630.018	41187
630.081	44905
630.144	53085
630.207	42549
630.269	42848
630.332	41856
630.395	38326
630.458	35451
630.520	34453
630.583	35005
630.646	35789
630.708	34443
630.771	35229
630.834	36450
630.896	35061
630.959	34272
631.021	34205
631.084	35815
631.146	38284
631.209	41573
631.272	35818
631.334	35577
631.397	35643
631.459	35705
631.522	38747
631.584	37914
631.646	39002
631.709	42817
631.771	51470
631.834	41817
631.896	37524
631.958	34511
632.021	35729
632.083	34186
632.145	35907
632.208	33393
632.270	34905
632.332	31983
632.395	32686
632.457	34664
632.519	32171
632.581	32656
632.643	31694
632.706	32025
632.768	30465
632.830	30853
632.892	31375
632.954	32153
633.016	33964
633.078	32018
633.141	31491
633.203	31871
633.265	32432
633.327	31493
633.389	31803
633.451	36588
633.513	42423
633.575	41798
633.637	40712
633.698	38642
633.760	34408
633.822	34233
633.884	35293
633.946	34486
634.008	34781
634.070	36150
634.132	38220
634.193	39667
634.255	42215
634.317	43314
634.379	42876
634.441	38635
634.502	36537
634.564	33977
634.626	32907
634.687	31928
634.749	31801
634.811	30750
634.873	29953
634.934	30175
634.996	30983
635.057	29583
635.119	29525
635.181	31705
635.242	31438
635.304	29618
635.365	32897
635.427	31919
635.488	32345
635.550	30594
635.611	30682
635.673	29118
635.734	34956
635.796	34074
635.857	38286
635.918	37015
635.980	40265
636.041	41613
636.102	44967
636.164	44861
636.225	43444
636.286	38480
636.348	35766
636.409	33862
636.470	30289
636.531	30080
636.593	32348
636.654	31355
636.715	28045
636.776	26783
636.838	26280
636.899	27223
636.960	26342
637.021	26507
637.082	25783
637.143	26034
637.204	23873
637.265	23733
637.326	25438
637.387	26073
637.448	23281
637.509	25236
637.570	24806
637.631	25803
637.692	22910
637.753	22664
637.814	24670
637.875	24200
637.936	25031
637.997	23630
638.058	25066
638.119	24569
638.179	23790
638.240	24102
638.301	23222
638.362	22509
638.423	22533
638.483	23980
638.544	21181
638.605	22304
638.666	20799
638.726	22874
638.787	22483
638.848	21584
638.908	21344
638.969	22476
639.030	21317
639.090	21092
639.151	22766
639.211	24714
639.272	32128
639.332	48164
639.393	29027
639.453	23310
639.514	24227
639.574	21946
639.635	20456
639.695	21897
639.756	20698
639.816	23822
639.877	28637
639.937	45423
639.997	55920
640.058	25151
640.118	21092
640.178	21771
640.239	19823
640.299	19987
640.359	19262
640.420	21146
640.480	23113
640.540	24425
640.600	24795
640.661	23656
640.721	24492
640.781	30356
640.841	22034
640.901	22103
640.961	21695
641.021	24098
641.082	29071
641.142	37226
641.202	25271
641.262	17997
641.322	19383
641.382	17692
641.442	19020
641.502	17775
641.562	18831
641.622	19463
641.682	20784
641.742	22871
641.802	21327
641.861	22615
641.921	23060
641.981	25193
642.041	25024
642.101	28885
642.161	20453
642.221	17999
642.280	16998
642.340	17884
642.400	17445
642.460	19031
642.519	18294
642.579	18558
642.639	19286
642.698	15593
642.758	21360
642.818	19438
642.877	19136
642.937	20881
642.997	24458
643.056	35074
643.116	21507
643.175	20699
643.235	19770
643.294	20240
643.354	21122
643.414	22897
643.473	26347
643.532	31991
643.592	43490
643.651	66081
643.711	118171
643.770	238909
643.830	590751
643.889	1143919
643.948	247920
644.008	51283
644.067	34089
644.126	26824
644.186	22868
644.245	21319
644.304	18345
644.363	21526
644.423	17691
644.482	19905
644.541	20249
644.600	19051
644.659	25186
644.719	29719
644.778	44290
644.837	73581
644.896	151560
644.955	330866
645.014	98913
645.073	29321
645.132	23129
645.191	22098
645.250	19502
645.309	22694
645.368	21803
645.427	27790
645.486	43132
645.545	67954
645.604	24586
645.663	19268
645.722	18635
645.781	19988
645.840	22286
645.898	28192
645.957	41458
646.016	61260
646.075	113132
646.134	226499
646.192	619246
646.251	818568
646.310	115349
646.369	37787
646.427	31918
646.486	23859
646.545	21556
646.603	19275
646.662	19454
646.721	17242
646.779	17121
646.838	17669
646.896	22793
646.955	28760
647.014	44454
647.072	84158
647.131	216003
647.189	91547
647.248	20119
647.306	16958
647.365	15463
647.423	13347
647.481	15475
647.540	13116
647.598	14319
647.657	13759
647.715	14233
647.773	13248
647.832	14094
647.890	12307
647.948	13090
648.007	14396
648.065	12041
648.123	13531
648.181	15496
648.240	13599
648.298	12660
648.356	12639
648.414	13846
648.472	12433
648.531	13814
648.589	13185
648.647	12935
648.705	12810
648.763	13466
648.821	13999
648.879	13149
648.937	15630
648.995	18456
649.053	23125
649.111	33058
649.169	53100
649.227	95015
649.285	202724
649.343	559153
649.401	237397
649.459	75227
649.516	42670
649.574	23252
649.632	30307
649.690	31864
649.748	27287
649.806	34186
649.863	61137
649.921	154175
649.979	89220
650.037	18228
650.094	13246
650.152	14024
650.210	11646
650.268	11174
650.325	12924
650.383	12667
650.440	10472
650.498	12033
650.556	10982
650.613	10132
650.671	11138
650.728	11560
650.786	12915
650.843	13668
650.901	10054
650.958	10405
651.016	10649
651.073	9980
651.131	10107
651.188	9645
651.246	9848
651.303	8784
651.360	10037
651.418	9735
651.475	10456
651.532	9033
651.590	9782
651.647	9190
651.704	9854
651.762	9066
651.819	10489
651.876	9009
651.933	9497
651.990	9185
652.048	7825
652.105	9899
652.162	9272
652.219	8149
652.276	9731
652.333	9547
652.390	8042
652.448	8455
652.505	8956
652.562	9060
652.619	9016
652.676	10714
652.733	11432
652.790	8855
652.847	7949
652.904	9173
652.961	7555
653.017	8523
653.074	9369
653.131	8678
653.188	8551
653.245	8233
653.302	8426
653.359	8327
653.415	9975
653.472	8485
653.529	9196
653.586	7976
653.642	8933
653.699	8811
653.756	8027
653.813	8273
653.869	8143
653.926	7429
653.983	7584
654.039	8184
654.096	9153
654.152	9220
654.209	7268
654.266	9201
654.322	8320
654.379	10534
654.435	10504
654.492	11805
654.548	16810
654.605	23281
654.661	11800
654.717	8544
654.774	9269
654.830	9065
654.887	8902
654.943	9290
655.000	9501
655.056	8955
655.112	9096
655.168	8133
655.225	8117
655.281	10626
655.337	12700
655.394	20159
655.450	14758
655.506	13509
655.562	20514
655.618	15899
655.675	8915
655.731	8614
655.787	7526
655.843	9510
655.899	8157
655.955	8737
656.011	8594
656.067	7855
656.123	9268
656.179	9698
656.235	9077
656.291	7086
656.347	9116
656.403	9295
656.459	9150
656.515	10261
656.571	10215
656.627	9385
656.683	9520
656.739	8988
656.795	9603
656.850	9580
656.906	11408
656.962	8789
657.018	7647
657.074	8622
657.129	10219
657.185	13474
657.241	22534
657.297	13691
657.352	8515
657.408	8563
657.464	10260
657.519	9297
657.575	6930
657.630	7207
657.686	7642
657.742	6762
657.797	7524
657.853	8264
657.908	7969
657.964	6848
658.019	8102
658.075	7353
658.130	8202
658.186	6557
658.241	7829
658.297	6617
658.352	7482
658.407	7830
658.463	7104
658.518	7885
658.573	7367
658.629	6924
658.684	6979
658.739	7527
658.795	6353
658.850	7336
658.905	7431
658.960	7421
659.016	6819
659.071	7133
659.126	8287
659.181	9691
659.236	16606
659.291	16701
659.346	10284
659.401	8688
659.457	8240
659.512	7022
659.567	7603
659.622	7138
659.677	7421
659.732	7294
659.787	8151
659.842	9785
659.897	11564
659.952	7883
660.007	7495
660.061	7840
660.116	6714
660.171	6599
660.226	6715
660.281	8621
660.336	5866
660.391	8137
660.445	6333
660.500	8217
660.555	7191
660.610	6253
660.664	6631
660.719	6817
660.774	7397
660.828	7091
660.883	7847
660.938	7646
660.992	6295
661.047	7879
661.101	6864
661.156	6637
661.211	5914
661.265	6343
661.320	6845
661.374	6907
661.429	6975
661.483	7102
661.538	6353
661.592	6705
661.647	7194
661.701	7900
661.755	7552
661.810	7363
661.864	6746
661.919	6515
661.973	7564
662.027	6473
662.081	6728
662.136	7018
662.190	7934
662.244	8205
662.299	7570
662.353	6995
662.407	6845
662.461	7194
662.515	7366
662.569	7560
662.624	7798
662.678	8144
662.732	6886
662.786	7195
662.840	7830
662.894	7920
662.948	6805
663.002	6518
663.056	6902
663.110	6670
663.164	7351
663.218	7202
663.272	7681
663.326	8207
663.380	9199
663.434	7844
663.488	7044
663.542	7958
663.595	7256
663.649	7731
663.703	8325
663.757	7402
663.811	6630
663.864	6859
663.918	7924
663.972	6838
664.026	6726
664.079	6893
664.133	7674
664.187	7841
664.240	6774
664.294	6992
664.348	7249
664.401	7737
664.455	6955
664.508	6497
664.562	6827
664.615	6764
664.669	6537
664.722	7086
664.776	7042
664.829	6798
664.883	6391
664.936	7051
664.990	7441
665.043	7907
665.097	8090
665.150	8971
665.203	8033
665.257	7242
665.310	7538
665.363	7704
665.417	7969
665.470	7039
665.523	7802
665.576	7142
665.630	8027
665.683	8695
665.736	8540
665.789	8002
665.842	7308
665.895	7272
665.949	7534
666.002	7304
666.055	7281
666.108	8060
666.161	7779
666.214	8585
666.267	9333
666.320	11289
666.373	8692
666.426	8141
666.479	8907
666.532	8164
666.585	9599
666.638	11336
666.691	9674
666.744	10546
666.796	8600
666.849	9008
666.902	8594
666.955	7966
667.008	5903
667.060	7255
667.113	7480
667.166	7825
667.219	7997
667.271	7543
667.324	7479
667.377	8375
667.430	6737
667.482	9093
667.535	8481
667.587	8703
667.640	9196
667.693	11539
667.745	18862
667.798	17294
667.850	9186
667.903	8806
667.955	8478
668.008	8663
668.060	8700
668.113	9263
668.165	9067
668.218	9080
668.270	8712
668.322	8115
668.375	7938
668.427	8618
668.479	7850
668.532	8291
668.584	9488
668.636	7759
668.689	7888
668.741	7545
668.793	8589
668.845	7859
668.898	7995
668.950	8341
669.002	8467
669.054	7627
669.106	7680
669.158	9186
669.211	8018
669.263	7966
669.315	9362
669.367	8641
669.419	8547
669.471	9675
669.523	10740
669.575	12931
669.627	10651
669.679	9254
669.731	8850
669.783	9602
669.835	10167
669.886	9524
669.938	8656
669.990	8722
670.042	8200
670.094	9123
670.146	9958
670.197	10323
670.249	11693
670.301	12988
670.353	15901
670.404	22895
670.456	30802
670.508	46464
670.560	76449
670.611	128964
670.663	225981
670.715	544785
670.766	763206
670.818	212067
670.869	43321
670.921	25552
670.972	18181
671.024	15643
671.075	12478
671.127	12694
671.178	10756
671.230	10618
671.281	10500
671.333	10506
671.384	11050
671.436	12701
671.487	15602
671.538	16955
671.590	22852
671.641	33678
671.692	54866
671.744	96125
671.795	61197
671.846	23609
671.897	15718
671.949	12579
672.000	10990
672.051	10431
672.102	9732
672.153	9323
672.204	9342
672.256	9158
672.307	8779
672.358	8615
672.409	8252
672.460	8521
672.511	7380
672.562	7402
672.613	7690
672.664	7944
672.715	8055
672.766	8079
672.817	7519
672.868	7302
672.919	7445
672.970	6586
673.021	7763
673.071	6987
673.122	7315
673.173	7986
673.224	7935
673.275	6484
673.326	7125
673.376	7479
673.427	6890
673.478	6580
673.528	7266
673.579	6343
673.630	6669
673.680	8223
673.731	6413
673.782	6149
673.832	7029
673.883	7594
673.934	6585
673.984	6570
674.035	7968
674.085	7074
674.136	7125
674.186	8579
674.237	9983
674.287	12794
674.338	8906
674.388	6652
674.438	6777
674.489	8165
674.539	8100
674.589	7638
674.640	8331
674.690	7300
674.740	7305
674.791	7902
674.841	7794
674.891	7319
674.942	7172
674.992	6620
675.042	6266
675.092	6548
675.142	6614
675.193	6634
675.243	6251
675.293	7004
675.343	7461
675.393	7290
675.443	6561
675.493	5956
675.543	6053
675.593	7516
675.643	7094
675.693	7694
675.743	6132
675.793	6743
675.843	6055
675.893	5720
675.943	7040
675.993	6575
676.043	6486
676.093	6245
676.142	6185
676.192	5905
676.242	6250
676.292	5489
676.341	7225
676.391	7089
676.441	5647
676.491	6130
676.540	5309
676.590	6334
676.640	6267
676.689	6018
676.739	6064
676.789	5266
676.838	5976
676.888	5812
676.937	5381
676.987	5569
677.037	5557
677.086	5175
677.136	5240
677.185	5454
677.235	4900
677.284	5072
677.333	5395
677.383	5187
677.432	5172
677.482	4784
677.531	5592
677.580	5186
677.630	4806
677.679	5532
677.728	5557
677.778	5164
677.827	4896
677.876	5344
677.925	4814
677.975	5343
678.024	5351
678.073	5322
678.122	5387
678.171	7037
678.220	5457
678.269	7492
678.319	7385
678.368	6447
678.417	6399
678.466	6106
678.515	5882
678.564	5806
678.613	6025
678.662	5711
678.711	5538
678.760	6007
678.809	5997
678.857	6123
678.906	5992
678.955	5784
679.004	6218
679.053	5250
679.102	5569
679.151	5225
679.199	5246
679.248	5049
679.297	5451
679.346	6248
679.394	4930
679.443	5417
679.492	5529
679.540	6180
679.589	6053
679.638	5202
679.686	4951
679.735	5650
679.784	5244
679.832	6275
679.881	5892
679.929	4850
679.978	4293
680.026	4794
680.075	5801
680.123	4983
680.172	4801
680.220	4936
680.268	5842
680.317	5291
680.365	5088
680.414	4847
680.462	4739
680.510	5509
680.559	5143
680.607	4611
680.655	4720
680.703	5724
680.752	4659
680.800	4886
680.848	3766
680.896	4141
680.945	4904
680.993	3849
681.041	4816
681.089	4513
681.137	4407
681.185	4767
681.233	5877
681.258	5272
681.281	4659
681.329	4424
681.377	4702
681.380	4773
681.425	5278
681.473	5544
681.502	5623
681.521	5601
681.569	5874
681.617	5286
681.624	5393
681.665	5760
681.713	5321
681.745	5350
681.761	5303
681.809	4549
681.857	5889
681.867	5986
681.904	6150
681.952	5946
681.989	5940
682.000	5883
682.048	5242
682.096	6363
682.111	6356
682.143	6198
682.191	6512
682.233	6868
682.239	6879
682.286	6305
682.334	5842
682.354	5940
682.382	6000
682.430	7092
682.476	6476
682.477	6424
682.525	7111
682.572	7028
682.598	6792
682.620	6528
682.667	7151
682.715	7373
682.720	7414
682.763	7403
682.810	7801
682.841	7784
682.857	7715
682.905	7111
682.952	8097
682.963	7970
683.000	7338
683.047	8140
683.085	8421
683.095	8452
683.142	6971
683.190	7255
683.206	7423
683.237	7731
683.284	7702
683.328	8183
683.332	8186
683.379	7485
683.426	7600
683.449	7936
683.473	8193
683.521	8005
683.568	8085
683.571	8057
683.615	7392
683.662	8944
683.693	8722
683.709	8519
683.757	7933
683.804	8906
683.814	8902
683.851	8817
683.898	9134
683.936	9322
683.945	9342
683.992	8815
684.039	9648
684.057	9853
684.086	10148
684.133	10438
684.179	10007
684.180	9957
684.227	10193
684.274	10244
684.300	10557
684.321	10781
684.368	9958
684.415	10274
684.422	10193
684.462	9441
684.509	9135
684.543	9402
684.556	9498
684.603	9325
684.649	9312
684.665	9359
684.696	9553
684.743	10592
684.786	10819
684.790	10815
684.837	10502
684.883	11753
684.908	11803
684.930	11782
684.977	11765
685.023	11428
685.029	11406
685.070	10768
685.117	11176
685.150	11338
685.164	11515
685.210	12233
685.257	12655
685.272	12650
685.303	12464
685.350	12409
685.393	12997
685.396	13040
685.443	13515
685.490	14714
685.514	14337
685.536	13714
685.583	13302
685.629	13209
685.636	13134
685.675	12678
685.722	13634
685.757	13540
685.768	13556
685.815	13414
685.861	13814
685.878	13848
685.908	13817
685.954	13416
686.000	14587
686.000	14607
686.047	14761
686.093	17215
686.121	17241
686.139	16595
686.185	15077
686.232	14335
686.242	14160
686.278	13773
686.324	13684
686.363	13042
686.370	12989
686.416	12638
686.463	13421
686.484	13334
686.509	13240
686.555	13102
686.601	13844
686.606	13860
686.647	13765
686.693	12723
686.727	13022
686.739	13220
686.785	13317
686.831	13766
686.848	13546
686.877	13018
686.923	12813
686.969	13014
686.969	13013
687.015	13395
687.061	14090
687.090	14277
687.107	14257
687.153	13984
687.199	14078
687.211	13909
687.245	13848
687.291	14105
687.332	14344
687.336	14344
687.382	14406
687.428	14745
687.453	14676
687.474	14466
687.520	14028
687.565	14326
687.574	14177
687.611	13991
687.657	14470
687.695	14837
687.702	14918
687.748	15454
687.794	15608
687.816	15564
687.839	15137
687.885	14589
687.931	13896
687.937	13806
687.976	13999
688.022	14622
688.058	15271
688.067	15358
688.113	15167
688.158	14601
688.179	14726
688.204	15047
688.249	14945
688.295	14958
688.300	15012
688.340	15453
688.386	16084
688.421	15671
688.431	15488
688.477	15522
688.522	15366
688.542	15357
688.567	15512
688.613	15221
688.658	15079
688.663	15109
688.703	15503
688.749	15817
688.784	15873
688.794	15839
688.839	16154
688.884	15934
688.905	15480
688.930	15064
688.975	15588
689.020	15982
689.026	15945
689.065	15817
689.110	15929
689.146	15760
689.155	15695
689.201	15508
689.246	15477
689.267	15152
689.291	15033
689.336	15983
689.381	16579
689.388	16488
689.426	15887
689.471	16274
689.509	16115
689.516	16081
689.561	16044
689.606	15650
689.630	15609
689.651	15814
689.696	16405
689.741	16449
689.750	16534
689.785	16659
689.830	16528
689.871	16116
689.875	16057
689.920	15750
689.965	15253
689.992	14773
690.010	14941
690.054	15783
690.099	16492
690.112	16652
690.144	16535
690.189	16721
690.233	15846
690.233	15863
690.278	16260
690.323	16352
690.354	16053
690.367	16027
690.412	16660
690.457	16658
690.474	16757
690.501	16561
690.546	15898
690.590	15654
690.595	15526
690.635	15227
690.680	15697
690.716	15912
690.724	16009
690.769	16852
690.813	17079
690.836	17013
690.857	16897
690.902	16986
690.946	17119
690.957	17122
690.991	17812
691.035	19019
691.077	19960
691.080	20008
691.124	19916
691.168	20049
691.198	20191
691.213	20068
691.257	20064
691.301	19093
691.318	18921
691.346	18626
691.390	17495
691.434	17044
691.439	16954
691.478	17632
691.522	18800
691.559	18996
691.567	18992
691.611	19269
691.655	19442
691.680	19238
691.699	18986
691.743	18812
691.787	18854
691.800	18758
691.831	18986
691.875	19296
691.919	19668
691.921	19644
691.964	19660
692.008	19524
692.041	19617
692.052	19701
692.096	19703
692.139	19791
692.162	19758
692.183	19767
692.227	19742
692.271	19989
692.282	19898
692.315	19675
692.359	19405
692.402	19311
692.403	19346
692.447	19237
692.490	19050
692.523	19101
692.534	19322
692.578	19824
692.622	20158
692.643	20346
692.666	20088
692.709	19407
692.753	18787
692.763	18656
692.797	18922
692.840	19073
692.884	19085
692.884	19121
692.928	19266
692.971	19234
693.004	19397
693.015	19510
693.059	19902
693.102	20136
693.124	20134
693.146	20243
693.189	20300
693.233	20634
693.245	20707
693.276	21023
693.320	21374
693.363	21190
693.365	21158
693.407	21110
693.450	20854
693.485	20988
693.493	21224
693.537	21830
693.580	22348
693.605	22565
693.624	22565
693.667	22768
693.710	22772
693.725	22854
693.753	24274
693.797	26127
693.840	28050
693.845	28210
693.883	26961
693.926	25380
693.966	23964
693.970	23877
694.013	22613
694.056	21147
694.086	20180
694.099	20381
694.142	20996
694.185	21475
694.206	21786
694.229	22016
694.272	22103
694.315	22317
694.326	22230
694.358	22501
694.401	23061
694.444	23932
694.446	23902
694.487	23659
694.530	23480
694.566	23239
694.573	23053
694.616	21496
694.659	19996
694.686	19131
694.702	19255
694.745	19424
694.787	19568
694.806	19642
694.830	20027
694.873	20238
694.916	20750
694.926	20820
694.959	20861
695.002	20775
695.044	20917
695.046	20861
695.087	20919
695.130	21214
695.166	21435
695.172	21491
695.215	21401
695.258	21357
695.286	21309
695.301	21234
695.343	20748
695.386	20546
695.406	20291
695.428	20501
695.471	20719
695.514	21199
695.526	21234
695.556	21224
695.599	21450
695.641	21381
695.646	21325
695.684	21188
695.726	21052
695.766	20843
695.769	20897
695.811	20897
695.854	21084
695.886	21159
695.896	21238
695.938	21238
695.981	21390
696.005	21277
696.023	21252
696.065	21254
696.108	21412
696.125	21317
696.150	21654
696.192	22284
696.235	22789
696.245	22886
696.277	22728
696.319	22316
696.361	22092
696.365	22009
696.404	21844
696.446	21607
696.485	21458
696.488	21523
696.530	21574
696.572	21703
696.604	21638
696.614	21661
696.656	21668
696.698	21731
696.724	21651
696.740	21630
696.783	21432
696.825	21278
696.844	21153
696.867	21300
696.909	21511
696.951	21582
696.964	21585
696.992	21685
697.034	21730
697.076	21755
697.083	21701
697.118	21825
697.160	21985
697.202	22214
697.203	22161
697.244	21891
697.286	21719
697.323	21392
697.327	21484
697.369	21821
697.411	22252
697.442	22548
697.453	22752
697.494	23276
697.536	23846
697.562	24106
697.578	24216
697.620	24394
697.661	24585
697.682	24601
697.703	24762
697.744	24975
697.786	25221
697.801	25223
697.828	25560
697.869	25982
697.911	26407
697.921	26457
697.952	25749
697.994	24694
698.035	23655
698.040	23466
698.077	23380
698.118	23247
698.160	23064
698.160	23004
698.201	23075
698.243	22918
698.279	22848
698.284	22927
698.325	23093
698.367	23237
698.399	23253
698.408	23274
698.449	23133
698.491	23009
698.518	22844
698.532	22884
698.573	22834
698.614	22793
698.638	22707
698.656	22745
698.697	22702
698.738	22652
698.757	22568
698.779	23187
698.820	24265
698.862	25334
698.877	25669
698.903	25571
698.944	25296
698.985	25029
698.996	24893
699.026	24585
699.067	24070
699.116	23398
699.235	23249
699.354	23979
699.474	23930
699.593	26501
699.713	24209
699.832	25001
699.951	26252
700.070	24528
700.190	22078
700.309	24026
700.428	24813
700.547	23423
700.667	22291
700.786	25396
700.905	21506
701.024	24778
701.143	22228
701.262	21389
701.381	21340
701.500	23647
701.619	24208
701.738	21532
701.857	20527
701.976	19763
702.095	20928
702.214	24915
702.333	24134
702.452	22594
702.571	20747
702.690	21122
702.809	20245
702.928	19557
703.047	20953
703.165	20126
703.284	20253
703.403	19480
703.522	22397
703.640	21832
703.759	26584
703.878	32378
703.997	20644
704.115	19838
704.234	19573
704.353	19617
704.471	18306
704.590	18704
704.708	17920
704.827	17525
704.946	18955
705.064	21039
705.183	19100
705.301	23073
705.420	31251
705.538	28297
705.656	23145
705.775	23240
705.893	26384
706.012	29064
706.130	23549
706.249	25730
706.367	25230
706.485	26504
706.604	25568
706.722	25405
706.840	29877
706.958	29302
707.077	23952
707.195	22566
707.313	22565
707.431	23206
707.549	21993
707.668	21484
707.786	21885
707.904	21825
708.022	21344
708.140	20924
708.258	21156
708.376	22812
708.494	21883
708.612	25636
708.730	34905
708.848	31873
708.966	30372
709.084	28290
709.202	26314
709.320	27150
709.438	27427
709.556	27655
709.674	26545
709.791	27200
709.909	25251
710.027	26627
710.145	24797
710.263	26354
710.380	25645
710.498	25659
710.616	24182
710.733	25738
710.851	25699
710.969	26909
711.086	25267
711.204	24381
711.322	25105
711.439	24605
711.557	24356
711.674	24512
711.792	23711
711.909	23559
712.027	22651
712.144	23018
712.262	23017
712.379	26762
712.497	36804
712.614	35843
712.732	30089
712.849	29908
712.966	32742
713.084	38335
713.201	31104
713.318	30640
713.436	29222
713.553	30476
713.670	31575
713.787	33941
713.905	31984
714.022	29617
714.139	29571
714.256	35080
714.373	40578
714.490	59190
714.608	139439
714.725	544328
714.842	435446
714.959	47154
715.076	31978
715.193	29147
715.310	26713
715.427	26137
715.544	25445
715.661	26031
715.778	26174
715.895	28117
716.011	26753
716.128	25355
716.245	26577
716.362	31466
716.479	30358
716.596	24839
716.713	24794
716.829	25521
716.946	23689
717.063	23006
717.180	22527
717.296	22715
717.413	22222
717.530	22760
717.646	22570
717.763	22226
717.880	21097
717.996	21308
718.113	23792
718.229	22089
718.346	19961
718.462	22647
718.579	29446
718.695	47620
718.812	33200
718.928	30772
719.045	22193
719.161	20513
719.277	19316
719.394	19524
719.510	20904
719.626	22157
719.743	26622
719.859	32571
719.975	49350
720.092	168124
720.208	306567
720.324	41689
720.440	23303
720.557	27015
720.673	39018
720.789	48917
720.905	89471
721.021	30312
721.137	18487
721.253	19890
721.369	21247
721.486	23337
721.602	30357
721.718	19412
721.834	17060
721.950	19118
722.066	17761
722.181	18194
722.297	19664
722.413	17698
722.529	17761
722.645	16467
722.761	17274
722.877	16000
722.993	16205
723.108	18795
723.224	17069
723.340	17607
723.456	15430
723.571	16387
723.687	15784
723.803	16650
723.918	16605
724.034	16913
724.150	15849
724.265	18942
724.381	37525
724.497	41816
724.612	15471
724.728	14581
724.843	15356
724.959	18928
725.074	35167
725.190	35160
725.305	17566
725.421	16118
725.536	12688
725.651	13762
725.767	12645
725.882	14429
725.997	13763
726.113	15195
726.228	12783
726.343	13737
726.459	12630
726.574	14724
726.689	14005
726.804	13732
726.920	13048
727.035	13102
727.150	14197
727.265	13819
727.380	14530
727.495	13216
727.610	11846
727.725	13001
727.841	12956
727.956	15674
728.071	15860
728.186	13463
728.301	10823
728.416	14400
728.531	12591
728.645	11761
728.760	13180
728.875	15509
728.990	12655
729.105	12600
729.220	13612
729.335	13519
729.449	11800
729.564	11662
729.679	10909
729.794	11844
729.908	13486
730.023	11942
730.138	9813
730.253	12202
730.367	9574
730.482	9795
730.596	10211
730.711	12430
730.826	11363
730.940	11447
731.055	12728
731.169	11457
731.284	10628
731.398	11561
731.513	12530
731.627	13581
731.742	15521
731.856	15761
731.970	12770
732.085	15337
732.199	17754
732.313	28205
732.428	66750
732.542	186084
732.656	89659
732.771	22663
732.885	14914
732.999	14199
733.113	14317
733.227	13209
733.342	12314
733.456	12829
733.570	11164
733.684	12121
733.798	12151
733.912	11640
734.026	10667
734.140	11388
734.254	13176
734.368	22094
734.482	23221
734.596	11521
734.710	10677
734.824	10986
734.938	10923
735.052	11193
735.166	12214
735.280	11538
735.393	10188
735.507	11181
735.621	14824
735.735	24786
735.849	11247
735.962	10821
736.076	11157
736.190	11930
736.303	15760
736.417	18107
736.531	10410
736.644	11402
736.758	8484
736.872	9990
736.985	10069
737.099	9120
737.212	9601
737.326	10212
737.439	9536
737.553	9731
737.666	9562
737.780	9706
737.893	9381
738.007	9588
738.120	8884
738.233	9281
738.347	9158
738.460	9234
738.573	10541
738.687	10664
738.800	10585
738.913	14365
739.026	10072
739.140	9361
739.253	8165
739.366	9021
739.479	8425
739.592	8597
739.705	8317
739.818	9196
739.932	8170
740.045	9769
740.158	8736
740.271	9777
740.384	8096
740.497	8597
740.610	9576
740.723	9367
740.836	9044
740.949	10743
741.062	14646
741.174	11901
741.287	8983
741.400	8643
741.513	8510
741.626	9981
741.739	9046
741.851	8698
741.964	8016
742.077	9027
742.189	8606
742.302	11184
742.415	8429
742.527	8855
742.640	7800
742.753	7504
742.865	7147
742.978	8158
743.090	7147
743.203	8302
743.316	7791
743.428	6842
743.541	6443
743.653	7218
743.766	7462
743.878	8522
743.990	10355
744.103	10923
744.215	8909
744.327	7933
744.440	11007
744.552	16150
744.664	9050
744.777	7225
744.889	6670
745.001	7856
745.113	7150
745.226	6640
745.338	6860
745.450	8167
745.562	7385
745.674	6622
745.786	6415
745.898	6494
746.010	6809
746.122	6618
746.234	6808
746.347	6434
746.459	7045
746.570	6790
746.682	7003
746.794	8961
746.906	6140
747.018	6914
747.130	7035
747.242	6373
747.354	6468
747.466	6985
747.577	5823
747.689	6951
747.801	6684
747.913	6404
748.024	6113
748.136	5947
748.248	6068
748.359	6474
748.471	6227
748.583	6694
748.694	6094
748.806	7712
748.918	8553
749.029	7305
749.141	7599
749.252	7771
749.364	9974
749.475	19136
749.587	11924
749.698	6862
749.809	6386
749.921	6379
750.032	5730
750.144	5820
750.255	5339
750.366	5632
750.478	5470
750.589	6600
750.700	7318
750.811	7548
750.923	9570
751.034	22871
751.145	18356
751.256	5838
751.367	5747
751.479	5442
751.590	5261
751.701	5129
751.812	4359
751.923	5026
752.034	5639
752.145	5071
752.256	5396
752.367	5388
752.478	4442
752.589	5305
752.700	5264
752.811	5615
752.922	5792
753.032	6712
753.143	7110
753.254	4995
753.365	6256
753.476	5276
753.586	5208
753.697	5187
753.808	4786
753.919	5183
754.029	4615
754.140	5791
754.251	4453
754.361	5328
754.472	5364
754.582	5819
754.693	4728
754.804	5342
754.914	4215
755.025	4440
755.135	4440
755.246	4786
755.356	5779
755.466	5229
755.577	4535
755.687	5488
755.798	5178
755.908	5147
756.018	5021
756.129	4770
756.239	4762
756.349	4948
756.460	4340
756.570	6742
756.680	5178
756.790	5550
756.900	6051
757.011	5213
757.121	4340
757.231	4919
757.341	4330
757.451	5339
757.561	3490
757.671	4922
757.781	3547
757.891	5908
758.001	4673
758.111	5754
758.221	5567
758.331	7165
758.441	6417
758.551	9301
758.661	8145
758.771	5806
758.880	5824
758.990	5525
759.100	4996
759.210	4799
759.320	4881
759.429	4754
759.539	5170
759.649	5651
759.758	6171
759.868	6530
759.978	4873
760.087	6583
760.197	6084
760.307	6267
760.416	4623
760.526	5374
760.635	5601
760.745	6665
760.854	6905
760.964	7003
761.073	6774
761.182	6606
761.292	6605
761.401	7399
761.511	5606
761.620	6168
761.729	5570
761.839	4465
761.948	5703
762.057	6791
762.166	5797
762.276	4435
762.385	5470
762.494	5205
762.603	5338
762.712	5487
762.822	5330
762.931	5997
763.040	4490
763.149	4947
763.258	5287
763.367	5991
763.476	4923
763.585	5868
763.694	5776
763.803	6118
763.912	5746
764.021	5986
764.130	5505
764.238	5938
764.347	6175
764.456	6128
764.565	6608
764.674	6173
764.783	6153
764.891	5849
765.000	6701
765.109	7934
765.217	7027
765.326	9260
765.435	11547
765.543	9796
765.652	10100
765.761	13494
765.869	17932
765.978	26386
766.086	48851
766.195	98648
766.303	266380
766.412	658251
766.520	454127
766.629	116399
766.737	46209
766.846	28754
766.954	18984
767.062	17231
767.171	13007
767.279	11366
767.387	10294
767.496	8564
767.604	7634
767.712	8092
767.820	7529
767.928	8010
768.037	7284
768.145	7926
768.253	7486
768.361	7535
768.469	7371
768.577	7369
768.685	7126
768.793	7659
768.901	8035
769.009	8584
769.117	8452
769.225	11228
769.333	14819
769.441	21391
769.549	39351
769.657	94457
769.765	313287
769.873	504614
769.981	144816
770.088	35525
770.196	18481
770.304	14839
770.412	12268
770.519	10788
770.627	8228
770.735	8588
770.842	8255
770.950	7240
771.058	6943
771.165	8371
771.273	7330
771.380	7233
771.488	7719
771.595	7822
771.703	6705
771.810	7154
771.918	6785
772.025	7395
772.133	7632
772.240	7472
772.348	8225
772.455	8103
772.562	6927
772.670	7354
772.777	6503
772.884	6506
772.991	6007
773.099	6837
773.206	6319
773.313	7227
773.420	5985
773.528	6371
773.635	6508
773.742	6919
773.849	5940
773.956	6675
774.063	5808
774.170	6856
774.277	6699
774.384	6325
774.491	6888
774.598	7226
774.705	6672
774.812	9662
774.919	7017
775.026	6752
775.133	6568
775.239	7312
775.346	5935
775.453	5717
775.560	5287
775.667	7303
775.773	4952
775.880	7131
775.987	6457
776.093	6449
776.200	5811
776.307	5196
776.413	5615
776.520	6345
776.627	5804
776.733	6874
776.840	4394
776.946	8608
777.053	7409
777.159	10573
777.266	6201
777.372	10855
777.478	8604
777.585	7358
777.691	5103
777.798	5896
777.904	6825
778.010	10393
778.117	8531
778.223	5453
778.329	5528
778.435	5720
778.542	6414
778.648	5844
778.754	4976
778.860	5687
778.966	5456
779.072	5674
779.178	4657
779.284	5583
779.391	4251
779.497	4278
779.603	5721
779.708	4767
779.815	7547
779.920	14794
780.026	16878
780.132	5747
780.238	4429
780.344	5247
780.450	6143
780.556	4517
780.661	4517
780.767	5584
780.873	4267
780.979	5671
781.085	5192
781.190	5210
781.296	4250
781.402	4521
781.507	3456
781.613	4586
781.719	4133
781.824	4048
781.930	5128
782.035	5215
782.141	4911
782.246	4288
782.352	3827
782.457	4573
782.563	4553
782.668	5608
782.773	4648
782.879	4539
782.984	5334
783.090	6594
783.195	9364
783.300	7447
783.405	4934
783.511	4772
783.616	5469
783.721	4624
783.826	3584
783.932	5391
784.037	5336
784.142	4757
784.247	4636
784.352	4419
784.457	3771
784.562	5093
784.667	4100
784.772	4859
784.877	3863
784.982	4632
785.087	4193
785.192	4539
785.297	4168
785.402	4699
785.507	3581
785.611	4356
785.716	3846
785.821	4913
785.926	2784
786.031	3593
786.135	4440
786.240	4429
786.345	2960
786.450	4980
786.554	2765
786.659	4978
786.763	2588
786.868	4014
786.973	4869
787.077	4149
787.182	2656
787.286	3695
787.391	3208
787.495	3939
787.600	3292
787.704	3459
787.809	3624
787.913	3249
788.017	3991
788.122	4185
788.226	3604
788.330	2688
788.435	3529
788.539	4114
788.643	3923
788.747	3501
788.852	2982
788.956	3169
789.060	3682
789.164	4414
789.268	1581
789.372	4450
789.476	3378
789.580	3619
789.684	2347
789.788	3790
789.892	3607
789.996	4308
790.100	2437
790.204	4358
790.308	3134
790.412	3676
790.516	3877
790.620	3164
790.724	3004
790.828	3003
790.931	1983
791.035	4823
791.139	2904
791.242	2149
791.346	2775
791.450	2981
791.554	2822
791.657	2297
791.761	3508
791.864	4287
791.968	3739
792.072	4057
792.175	2642
792.279	3832
792.382	2811
792.486	3160
792.589	3634
792.693	3866
792.796	2471
792.899	4489
793.003	3788
793.106	2591
793.209	2269
793.313	5096
793.416	1641
793.519	5171
793.623	7090
793.726	9354
793.829	4791
793.932	3541
794.035	2271
794.138	4334
794.242	3966
794.345	5404
794.448	6085
794.551	8716
794.654	10874
794.757	9727
794.860	4730
794.963	4148
795.066	2211
795.169	3366
795.272	2036
795.375	3719
795.477	2382
795.580	3519
795.683	1384
795.786	3239
795.889	1768
795.991	3796
796.094	4324
796.197	2612
796.300	3233
796.402	1576
796.505	2217
796.608	2256
796.710	2791
796.813	3375
796.915	2040
797.018	3555
797.120	1918
797.223	1583
797.326	3570
797.428	2371
797.530	2246
797.633	2885
797.735	4706
797.838	6342
797.940	4789
798.042	1884
798.145	2643
798.247	3981
798.349	1253
798.452	2653
798.554	1927
798.656	2289
798.758	3483
798.860	2794
798.962	1767
799.065	2347
799.167	1012
799.269	4183
799.371	3271
799.473	4090
799.575	3709
799.677	4784
799.779	6105
799.881	6592
799.983	4039
800.085	2759
800.187	2250
800.289	2643
800.390	1955
800.492	3143
800.594	3025
800.696	1867
800.798	1742
800.899	2063
801.001	1126
801.103	2900
801.205	1540
801.306	2759
801.408	1524
801.509	2189
801.611	2188
801.713	3181
801.814	1736
801.916	1896
802.017	1659
802.119	904
802.220	2621
802.322	423
802.423	5084
802.525	1631
802.626	1984
802.727	2986
802.829	2968
802.930	341
803.031	3341
803.133	1565
803.234	2317
803.335	1807
803.436	1083
803.538	1680
803.639	182
803.740	2470
803.841	1333
803.942	2812
804.043	2297
804.144	763
804.245	1614
804.346	1495
804.447	2355
804.548	4555
804.649	4734
804.750	1823
804.851	1115
804.952	2213
805.053	1569
805.154	1058
805.255	2403
805.355	2154
805.456	1570
805.557	2171
805.658	562
805.758	2266
805.859	1557
805.960	1182
806.061	1723
806.161	2675
806.262	1379
806.362	1541
806.463	1698
806.564	2139
806.664	1824
806.765	3442
806.865	3031
806.966	1491
807.066	1232
807.166	2592
807.267	2294
807.367	900
807.468	1814
807.568	134
807.668	1520
807.769	2419
807.869	1414
807.969	1687
808.069	1608
808.170	1803
808.270	1331
808.370	2569
808.470	3905
808.570	1951
808.670	1387
808.770	1987
808.870	1865
808.970	1841
809.070	1282
809.170	1382
809.271	1356
809.370	992
809.470	1979
809.570	1083
809.670	928
809.770	1055
809.870	1030
809.970	1558
810.070	1872
810.169	1766
810.269	51
810.369	2112
810.469	1552
810.568	1912
810.668	746
810.768	1857
810.867	1368
810.967	1911
811.066	1238
811.166	1699
811.265	2249
811.365	1000
811.464	739
811.564	1753
811.663	1925
811.763	684
811.862	1528
811.962	2081
812.061	1819
812.160	1011
812.260	1601
812.359	1255
812.458	2097
812.557	6721
812.657	7960
812.756	3470
812.855	1420
812.954	1762
813.053	1322
813.153	1338
813.252	1251
813.351	2324
813.450	1382
813.549	949
813.648	1204
813.747	1055
813.846	1793
813.945	522
814.044	1105
814.143	2067
814.242	2367
814.341	1562
814.439	1590
814.538	2265
814.637	1422
814.736	1657
814.835	2187
814.933	1796
815.032	2325
815.131	1975
815.229	3318
815.328	4189
815.427	2389
815.525	3655
815.624	2974
815.722	2687
815.821	3580
815.919	3052
816.018	1680
816.116	4307
816.215	2498
816.313	4325
816.412	3613
816.510	4600
816.609	6145
816.707	4959
816.805	3822
816.904	4564
817.002	3936
817.100	6435
817.198	5120
817.296	5427
817.395	6400
817.493	7909
817.591	8152
817.689	12184
817.787	14391
817.885	23443
817.983	40391
818.081	86267
818.179	204441
818.277	459000
818.375	340396
818.473	101142
818.571	43866
818.669	30257
818.767	25658
818.865	25941
818.963	30312
819.061	45062
819.158	76535
819.256	159946
819.354	362790
819.452	651442
819.549	399107
819.647	135100
819.745	58663
819.842	37561
819.940	26388
820.038	18478
820.135	14549
820.233	13721
820.330	10034
820.428	8382
820.525	8167
820.623	7954
820.720	5856
820.818	6600
820.915	5660
821.012	5748
821.110	4321
821.207	5457
821.304	3648
821.402	4515
821.499	4686
821.596	5364
821.693	4209
821.791	5363
821.888	5517
821.985	12815
822.082	8282
822.179	4834
822.276	4042
822.373	3150
822.470	2598
822.567	3748
822.664	1622
822.761	2671
822.858	2160
822.955	3488
823.052	2830
823.149	3703
823.246	3151
823.343	2488
823.440	2662
823.536	1495
823.633	1935
823.730	2921
823.827	2606
823.923	2906
824.020	2895
824.117	2343
824.213	2031
824.310	2758
824.407	1913
824.503	2859
824.600	2144
824.696	2733
824.793	3218
824.889	2200
824.986	1418
825.082	2411
825.179	1987
825.275	2514
825.371	2415
825.468	2449
825.564	765
825.660	1623
825.757	1857
825.853	3052
825.949	1725
826.045	2324
826.142	1940
826.238	1680
826.334	1821
826.430	2150
826.526	1080
826.622	1741
826.718	1990
826.814	1969
826.910	1375
827.006	709
827.102	949
827.198	2964
827.294	1289
827.390	2367
827.486	1422
827.582	613
827.678	247
827.774	2331
827.869	-440
827.965	2182
828.061	552
828.157	1526
828.252	1936
828.348	1494
828.444	1935
828.539	1351
828.635	754
828.731	2177
828.826	632
828.922	1806
829.017	924
829.113	1962
829.208	506
829.304	1334
829.399	2428
829.495	1629
829.590	2232
829.685	1523
829.781	1912
829.876	1444
829.971	655
830.066	1380
830.162	1037
830.257	2039
830.352	350
830.447	2205
830.543	2123
830.638	756
830.733	1540
830.828	805
830.923	1853
831.018	1161
831.113	1631
831.208	777
831.303	304
831.398	863
831.493	640
831.588	1966
831.683	436
831.778	1840
831.873	313
831.967	2677
832.062	1308
832.157	1435
832.252	2049
832.346	1837
832.441	2868
832.536	3467
832.631	9382
832.725	7951
832.820	1425
832.914	1181
833.009	1141
833.104	2360
833.198	3218
833.293	1801
833.387	1541
833.482	1593
833.576	443
833.670	1359
833.765	1653
833.859	2079
833.954	2109
834.048	1618
834.142	1126
834.237	1201
834.331	980
834.425	1860
834.519	385
834.613	1145
834.708	953
834.802	1264
834.896	790
834.990	960
835.084	1574
835.178	460
835.272	173
835.366	1819
835.460	1159
835.554	1232
835.648	1334
835.742	529
835.836	920
835.930	431
836.024	1612
836.117	2412
836.211	943
836.305	2929
836.399	3272
836.493	1241
836.586	1818
836.680	948
836.774	41
836.867	2474
836.961	257
837.055	418
837.148	274
837.242	935
837.335	907
837.429	904
837.522	729
837.616	2472
837.709	4883
837.803	2841
837.896	1546
837.989	1550
838.083	3533
838.176	6559
838.269	4506
838.363	2482
838.456	904
838.549	3435
838.642	4553
838.735	11339
838.829	4462
838.922	965
839.015	649
839.108	-42
839.201	764
839.294	1739
839.387	873
839.480	1167
839.573	2008
839.666	2802
839.759	637
839.852	407
839.945	1152
840.038	724
840.131	776
840.223	1308
840.316	1560
840.409	1284
840.502	475
840.594	1320
840.687	-185
840.780	1270
840.873	-355
840.965	1289
841.058	2876
841.150	5999
841.243	2863
841.336	1761
841.428	1089
841.521	288
841.613	953
841.706	1178
841.798	1094
841.890	544
841.983	216
842.075	1760
842.167	61
842.260	2269
842.352	2790
842.444	2893
842.537	5753
842.629	8807
842.721	1547
842.813	982
842.905	-617
842.997	901
843.090	1438
843.182	4131
843.274	6218
843.366	14900
843.458	27226
843.550	14908
843.642	2070
843.734	2166
843.826	1680
843.918	2248
844.009	1610
844.101	-319
844.193	549
844.285	1094
844.377	872
844.469	3267
844.560	1270
844.652	2178
844.744	1152
844.835	1646
844.927	688
845.019	1561
845.110	734
845.202	1031
845.293	459
845.385	385
845.476	387
845.568	1457
845.659	-10
845.751	1501
845.842	380
845.934	281
846.025	722
846.116	552
846.208	341
846.299	745
846.390	759
846.482	1185
846.573	2264
846.664	3263
846.755	3515
846.846	3437
846.937	-26
847.029	672
847.120	202
847.211	1014
847.302	1022
847.393	-122
847.484	684
847.575	683
847.666	661
847.757	181
847.847	395
847.938	1254
848.029	77
848.120	643
848.211	780
848.302	496
848.392	71
848.483	1745
848.574	-219
848.664	827
848.755	698
848.846	348
848.936	-475
849.027	646
849.118	63
849.208	719
849.299	2052
849.389	4033
849.480	7176
849.570	14074
849.661	27153
849.751	43936
849.841	13148
849.932	2428
850.022	678
850.112	1857
850.203	88
850.293	796
850.383	160
850.474	630
850.564	437
850.654	551
850.744	281
850.834	224
850.924	-160
851.014	959
851.104	207
851.194	1437
851.284	1418
851.374	2361
851.464	1457
851.554	1607
851.644	1132
851.734	2363
851.824	1160
851.914	14
852.004	896
852.094	798
852.183	196
852.273	807
852.363	617
852.452	659
852.542	829
852.632	-600
852.721	-71
852.811	308
852.901	833
852.990	1345
853.080	773
853.169	1294
853.259	659
853.348	1451
853.438	1982
853.527	3906
853.617	4563
853.706	9901
853.795	18695
853.885	41917
853.974	79077
854.063	150873
854.152	214944
854.242	72338
854.331	12181
854.420	5208
854.509	3448
854.598	4162
854.687	2844
854.777	2760
854.866	1177
854.955	2029
855.044	677
855.133	1334
855.222	690
855.311	639
855.400	218
855.488	990
855.577	742
855.666	2062
855.755	1591
855.844	873
855.933	274
856.021	1249
856.110	979
856.199	334
856.288	96
856.376	609
856.465	-280
856.554	882
856.642	-198
856.731	501
856.819	847
856.908	1360
856.996	1247
857.085	126
857.173	131
857.262	321
857.350	608
857.438	459
857.527	849
857.615	213
857.703	541
857.792	6
857.880	584
857.968	893
858.056	-290
858.145	1033
858.233	37
858.321	535
858.409	-72
858.497	-117
858.585	1305
858.673	464
858.761	141
858.849	-579
858.937	-236
859.025	290
859.113	109
859.201	353
859.289	360
859.377	795
859.465	-158
859.552	756
859.640	-392
859.728	752
859.816	-163
859.903	1465
859.991	-754
860.079	288
860.166	468
860.254	754
860.342	243
860.429	31
860.517	-282
860.604	1065
860.692	274
860.779	203
860.867	608
860.954	678
861.042	804
861.129	1912
861.216	584
861.304	969
861.391	177
861.478	447
861.565	173
861.653	541
861.740	-425
861.827	66
861.914	156
862.001	1172
862.089	523
862.176	-47
862.263	-853
862.350	1184
862.437	344
862.524	-13
862.611	-137
862.698	456
862.785	1605
862.871	609
862.958	157
863.045	393
863.132	0
863.219	282
863.306	127
863.392	154
863.479	204
863.566	441
863.652	104
863.739	996
863.826	199
863.912	1188
863.999	-101
864.086	1064
864.172	385
864.259	1332
864.345	351
864.432	849
864.518	127
864.604	1049
864.691	786
864.777	1537
864.863	1419
864.950	995
865.036	631
865.122	3722
865.209	2534
865.295	3161
865.381	3576
865.467	3459
865.553	3918
865.639	5621
865.726	10202
865.812	21777
865.898	41299
865.984	62102
866.070	119077
866.156	115222
866.242	27255
866.328	6905
866.414	3793
866.499	3505
866.585	3095
866.671	2409
866.757	1886
866.843	2270
866.928	1670
867.014	1558
867.100	2591
867.186	2071
867.271	3004
867.357	3686
867.442	3633
867.528	2744
867.614	1217
867.699	1976
867.785	1948
867.870	2725
867.956	2430
868.041	2522
868.127	2323
868.212	2269
868.297	2227
868.383	2593
868.468	4178
868.553	5667
868.639	6165
868.724	13828
868.809	10915
868.894	3391
868.979	1673
869.065	1658
869.150	1124
869.235	1260
869.320	406
869.405	735
869.490	811
869.575	1018
869.660	1188
869.745	2427
869.830	742
869.915	949
870.000	822
870.085	1042
870.169	1327
870.254	1577
870.339	-361
870.424	1723
870.509	534
870.593	1401
870.678	674
870.763	1525
870.847	527
870.932	162
871.016	1083
871.101	1562
871.186	110
871.270	1088
871.355	-19
871.439	1085
871.523	931
871.608	817
871.692	280
871.777	1352
871.861	793
871.945	1105
872.030	920
872.114	968
872.198	303
872.282	937
872.367	883
872.451	-109
872.535	671
872.619	892
872.703	514
872.787	869
872.871	1262
872.955	892
873.039	-210
873.123	616
873.207	693
873.291	858
873.375	453
873.459	813
873.543	677
873.627	992
873.711	618
873.794	1522
873.878	608
873.962	598
874.045	596
874.129	584
874.137	580
874.213	546
874.245	665
874.296	864
874.352	167
874.380	-184
874.460	554
874.464	585
874.547	747
874.568	807
874.631	957
874.676	709
874.714	502
874.784	768
874.798	821
874.881	1122
874.892	1024
874.965	414
874.999	536
875.048	663
875.107	1498
875.131	1844
875.215	174
875.215	175
875.298	671
875.323	542
875.381	267
875.430	1066
875.465	1610
875.538	1412
875.548	1395
875.631	889
875.646	739
875.714	-69
875.753	228
875.798	617
875.861	573
875.881	533
875.964	1201
875.968	1146
876.047	275
876.076	502
876.130	942
876.183	1062
876.213	1078
876.291	1713
876.296	1761
876.379	839
876.398	711
876.462	322
876.506	379
876.545	452
876.613	537
876.628	553
876.711	389
876.721	389
876.794	179
876.828	304
876.877	661
876.935	745
876.960	730
877.043	640
877.043	643
877.125	1379
877.150	1372
877.208	1215
877.258	1200
877.291	1244
877.365	918
877.374	876
877.456	971
877.472	844
877.539	237
877.579	913
877.622	1621
877.687	908
877.704	768
877.787	1183
877.794	1178
877.869	751
877.901	727
877.952	924
878.008	749
878.034	558
878.115	119
878.117	118
878.199	548
878.222	709
878.282	866
878.329	694
878.364	777
878.437	925
878.447	904
878.529	871
878.544	904
878.611	1075
878.651	889
878.694	693
878.758	823
878.776	910
878.858	923
878.865	959
878.941	904
878.972	657
879.023	583
879.078	474
879.105	411
879.185	1246
879.187	1266
879.269	1174
879.292	1218
879.351	763
879.399	535
879.433	755
879.506	445
879.516	352
879.598	85
879.613	58
879.680	139
879.720	583
879.762	1089
879.827	930
879.844	859
879.926	1310
879.933	1278
880.007	870
880.040	1073
880.089	1736
880.147	2847
880.171	3177
880.253	4901
880.254	4917
880.335	7296
880.360	7641
880.417	9656
880.467	15220
880.499	18912
880.574	21176
880.580	20794
880.662	6506
880.680	4913
880.744	2386
880.787	1581
880.825	1023
880.893	923
880.907	982
880.989	765
881.000	901
881.070	1433
881.106	925
881.152	422
881.213	762
881.233	852
881.315	18
881.319	47
881.396	1135
881.426	1089
881.478	464
881.532	661
881.559	1013
881.639	828
881.641	806
881.722	745
881.745	482
881.803	657
881.852	1308
881.885	1275
881.958	875
881.966	948
882.047	2052
882.064	2100
882.129	1657
882.171	1999
882.210	2891
882.277	4033
882.291	3946
882.372	1769
882.383	1565
882.454	1092
882.489	1232
882.535	1225
882.596	790
882.616	762
882.697	539
882.702	561
882.778	504
882.808	278
882.859	334
882.914	842
882.940	956
883.020	808
883.021	812
883.102	1156
883.127	1135
883.183	931
883.233	826
883.264	767
883.339	864
883.345	874
883.426	553
883.445	602
883.507	962
883.551	1058
883.587	1076
883.657	1278
883.668	1374
883.749	1836
883.763	1829
883.830	937
883.869	608
883.910	774
883.975	1416
883.991	1402
884.072	430
884.081	419
884.152	1286
884.187	1368
884.233	1129
884.292	893
884.314	819
884.394	935
884.398	909
884.475	138
884.504	67
884.555	561
884.610	811
884.636	818
884.716	1039
884.716	1044
884.797	1158
884.821	1050
884.877	633
884.927	487
884.958	728
885.033	1166
885.038	1133
885.118	569
885.139	400
885.199	1002
885.244	1563
885.279	1382
885.350	1036
885.359	1116
885.439	1426
885.456	1499
885.520	1297
885.561	1259
885.600	1204
885.667	870
885.680	913
885.760	1421
885.773	1446
885.840	999
885.878	1033
885.920	1089
885.984	583
886.000	577
886.080	985
886.089	1010
886.160	915
886.195	845
886.240	1221
886.300	1738
886.320	1541
886.400	721
886.406	670
886.480	1270
886.511	1499
886.560	1509
886.616	1316
886.640	1192
886.720	1145
886.722	1133
886.800	1123
886.827	1182
886.879	990
886.932	756
886.959	968
887.038	1663
887.039	1666
887.119	1293
887.143	1242
887.198	1064
887.248	779
887.278	895
887.354	1238
887.358	1220
887.437	703
887.459	591
887.517	1306
887.564	1795
887.596	1585
887.669	1135
887.676	1130
887.755	980
887.774	933
887.835	1125
887.880	1282
887.914	1212
887.985	1179
887.994	1175
888.073	894
888.090	863
888.153	1728
888.195	2225
888.232	1913
888.300	1411
888.311	1443
888.391	1533
888.405	1548
888.470	1274
888.510	1112
888.549	1233
888.615	1544
888.628	1477
888.708	814
888.720	719
888.787	1190
888.825	1441
888.866	1300
888.930	1131
888.945	1196
889.024	1460
889.035	1500
889.103	1417
889.140	1319
889.182	1385
889.245	1528
889.261	1454
889.340	1051
889.349	1004
889.419	1360
889.454	1524
889.498	1357
889.559	1122
889.577	1241
889.656	1750
889.664	1796
889.735	1704
889.768	1650
889.814	1599
889.873	1523
889.978	963
890.083	2011
890.187	1943
890.292	1004
890.397	1108
890.501	1846
890.606	565
890.710	2334
890.815	1165
890.919	1558
891.024	1506
891.128	2299
891.233	552
891.337	1354
891.442	1106
891.546	1335
891.650	926
891.755	1508
891.859	2037
891.963	2208
892.068	774
892.172	1693
892.276	532
892.380	2322
892.484	603
892.589	2092
892.693	1404
892.797	1234
892.901	860
893.005	1159
893.109	1834
893.213	1800
893.317	1221
893.421	1007
893.525	269
893.629	1527
893.733	1162
893.837	1790
893.941	709
894.045	2891
894.148	303
894.252	1415
894.356	2141
894.460	2269
894.564	1011
894.667	819
894.771	875
894.875	1597
894.978	1019
895.082	1726
895.186	1459
895.289	1666
895.393	753
895.496	1785
895.600	1121
895.703	968
895.807	488
895.910	1987
896.014	784
896.117	1004
896.221	961
896.324	1304
896.427	1076
896.531	1253
896.634	831
896.737	1391
896.840	1561
896.944	1787
897.047	1059
897.150	2073
897.253	637
897.356	1110
897.460	379
897.563	1210
897.666	1290
897.769	1081
897.872	206
897.975	1174
898.078	1060
898.181	1669
898.284	837
898.387	1673
898.490	1073
898.593	1605
898.695	731
898.798	1637
898.901	640
899.004	1628
899.107	655
899.209	1633
899.312	595
899.415	1593
899.518	859
899.620	1270
899.723	1361
899.826	2202
899.928	3135
900.031	2021
900.133	651
900.236	1347
900.338	414
900.441	1256
900.543	626
900.646	1044
900.748	479
900.851	1031
900.953	881
901.055	657
901.158	1338
901.260	1220
901.362	715
901.465	1454
901.567	670
901.669	1915
901.771	855
901.873	1374
901.976	343
902.078	1574
902.180	904
902.282	737
902.384	848
902.486	1611
902.588	1386
902.690	1004
902.792	312
902.894	2287
902.996	1222
903.098	1504
903.200	608
903.302	1055
903.404	1162
903.505	706
903.607	1109
903.709	2245
903.811	1393
903.913	1845
904.014	78
904.116	799
904.218	585
904.319	1754
904.421	2133
904.523	2347
904.624	1177
904.726	1542
904.827	260
904.929	1359
905.030	338
905.132	1786
905.233	803
905.335	929
905.436	916
905.537	1514
905.639	859
905.740	1019
905.841	1221
905.943	1518
906.044	566
906.145	1169
906.247	210
906.348	1185
906.449	667
906.550	1407
906.651	1853
906.752	865
906.854	594
906.955	1164
907.056	698
907.157	1493
907.258	1527
907.359	1003
907.460	1073
907.561	1668
907.662	789
907.762	2090
907.863	1047
907.964	648
908.065	1118
908.166	1334
908.267	742
908.367	647
908.468	915
908.569	1462
908.670	667
908.770	2272
908.871	1835
908.971	2799
909.072	1830
909.173	1032
909.273	1070
909.374	828
909.474	592
909.575	1238
909.675	631
909.776	1358
909.876	237
909.977	1626
910.077	418
910.177	1042
910.278	1103
910.378	762
910.478	771
910.579	1642
910.679	1098
910.779	1365
910.879	1473
910.980	498
911.080	1040
911.180	1583
911.280	975
911.380	474
911.480	938
911.580	1281
911.680	1237
911.780	1979
911.880	926
911.980	1237
912.080	530
912.180	1476
912.280	671
912.380	1346
912.480	720
912.580	1405
912.679	182
912.779	1268
912.879	647
912.979	1315
913.078	676
913.178	383
913.278	74
913.377	1151
913.477	510
913.577	1809
913.676	1310
913.776	807
913.875	660
913.975	2230
914.074	1166
914.174	659
914.273	-498
914.373	1813
914.472	473
914.572	1369
914.671	757
914.770	439
914.870	417
914.969	863
915.068	443
915.167	1232
915.267	1165
915.366	1065
915.465	1242
915.564	1444
915.663	476
915.763	1246
915.862	1424
915.961	1926
916.060	110
916.159	1559
916.258	158
916.357	988
916.456	991
916.555	1290
916.654	403
916.752	1700
916.851	893
916.950	1749
917.049	203
917.148	1045
917.247	315
917.345	1212
917.444	-37
917.543	1077
917.642	993
917.740	882
917.839	876
917.937	1721
918.036	1417
918.135	773
918.233	859
918.332	1056
918.430	1131
918.529	1743
918.627	877
918.726	1411
918.824	1150
918.923	1450
919.021	1226
919.119	1723
919.218	326
919.316	1703
919.414	191
919.512	1204
919.611	421
919.709	935
919.807	1182
919.905	976
920.003	896
920.102	1167
920.200	666
920.298	1110
920.396	637
920.494	1554
920.592	81
920.690	1567
920.788	292
920.886	1921
920.984	1144
921.082	1530
921.180	1708
921.277	2264
921.375	665
921.473	1944
921.571	1147
921.669	2245
921.766	1441
921.864	2435
921.962	2175
922.060	1544
922.157	1956
922.255	3008
922.352	1755
922.450	2075
922.548	1339
922.645	1589
922.743	1808
922.840	4189
922.938	3295
923.035	3303
923.133	3714
923.230	4483
923.327	3320
923.425	5187
923.522	3856
923.619	3465
923.717	2686
923.814	3439
923.911	2518
924.008	3893
924.106	3151
924.203	3650
924.300	3248
924.397	2966
924.494	3800
924.591	3216
924.688	2686
924.786	3205
924.883	1856
924.979	2871
925.077	2871
925.173	3092
925.270	2966
925.367	3175
925.464	2950
925.561	4210
925.658	3676
925.755	3980
925.852	3536
925.948	3920
926.045	3146
926.142	4560
926.239	4081
926.335	3105
926.432	2718
926.529	3590
926.625	3015
926.722	3303
926.818	2895
926.915	2658
927.011	2463
927.108	3118
927.204	2145
927.301	2727
927.397	2942
927.494	2595
927.590	1439
927.687	2411
927.783	2942
927.879	3439
927.976	1983
928.072	3839
928.168	2847
928.264	3049
928.361	1894
928.457	3144
928.553	2023
928.649	3268
928.745	2327
928.841	2054
928.937	1548
929.033	3394
929.129	2087
929.225	3210
929.321	1826
929.417	2321
929.513	2113
929.609	2943
929.705	2193
929.801	2928
929.897	2176
929.993	2209
930.089	2943
930.184	3114
930.280	2427
930.376	3431
930.471	1820
930.567	2090
930.663	2115
930.758	2213
930.854	2428
930.950	2458
931.045	2081
931.141	3668
931.236	2288
931.332	3057
931.427	1061
931.523	2751
931.618	2600
931.714	1952
931.809	1755
931.905	3156
932.000	1966
932.095	1533
932.191	2404
932.286	2565
932.381	1939
932.476	2045
932.572	1991
932.667	2140
932.762	927
932.857	3166
932.952	2859
933.047	1756
933.142	1645
933.237	2625
933.332	1365
933.427	3663
933.522	1362
933.617	1562
933.712	1732
933.807	3386
933.902	1945
933.997	3271
934.092	1941
934.187	2387
934.282	813
934.376	2736
934.471	1989
934.566	2046
934.661	1651
934.755	2234
934.850	1791
934.945	1392
935.039	1804
935.134	1620
935.228	1368
935.323	2867
935.417	1414
935.512	889
935.606	592
935.701	1402
935.795	584
935.890	1751
935.984	1416
936.079	1682
936.173	2172
936.267	1879
936.362	1287
936.456	1562
936.550	2679
936.644	1574
936.738	1108
936.833	1640
936.927	1998
937.021	1398
937.115	929
937.209	1694
937.303	1859
937.397	1624
937.491	1387
937.585	2320
937.679	1512
937.773	1877
937.867	1528
937.961	2220
938.055	1743
938.149	2645
938.243	26
938.337	1576
938.430	1096
938.524	2691
938.618	2053
938.712	2198
938.805	1827
938.899	1866
938.993	1305
939.086	1721
939.180	726
939.274	2427
939.367	2434
939.461	2326
939.554	1322
939.648	1360
939.741	535
939.835	1653
939.928	2105
940.022	2015
940.115	1349
940.208	2282
940.302	1865
940.395	2662
940.488	514
940.582	1930
940.675	1184
940.768	1819
940.861	835
940.954	1936
941.048	596
941.141	1531
941.234	921
941.327	2267
941.420	2286
941.513	2389
941.606	880
941.699	2011
941.792	1072
941.885	2014
941.978	184
942.071	1577
942.164	781
942.257	1014
942.349	1049
942.442	2342
942.535	595
942.628	1478
942.721	995
942.813	822
942.906	1278
942.999	1451
943.091	522
943.184	1483
943.277	764
943.369	1608
943.462	780
943.554	1765
943.647	38
943.739	2356
943.832	1140
943.924	953
944.017	1218
944.109	1300
944.201	1292
944.294	1563
944.386	663
944.478	924
944.571	364
944.663	1170
944.755	610
944.847	1918
944.940	733
945.032	1057
945.124	803
945.216	1756
945.308	182
945.400	1271
945.492	1074
945.584	2282
945.676	1161
945.768	1527
945.860	1604
945.952	1526
946.044	1671
946.136	153
946.228	592
946.320	878
946.412	614
946.503	1555
946.595	1842
946.687	318
946.779	629
946.870	1083
946.962	-50
947.054	1120
947.145	1158
947.237	346
947.329	420
947.420	1763
947.512	-99
947.603	1527
947.695	207
947.786	-16
947.878	1077
947.969	1662
948.061	161
948.152	1706
948.243	81
948.335	1358
948.426	186
948.517	564
948.609	679
948.700	1523
948.791	693
948.882	1308
948.973	-681
949.065	982
949.156	938
949.247	751
949.338	589
949.429	490
949.520	-172
949.611	1000
949.702	1025
949.793	1260
949.884	31
949.975	824
950.066	288
950.157	1176
950.247	264
950.338	630
950.429	141
950.520	990
950.611	2
950.701	1386
950.792	1022
950.883	2000
950.973	251
951.064	806
951.155	1299
951.245	2057
951.336	784
951.427	417
951.517	1130
951.608	552
951.698	316
951.788	345
951.879	-12
951.969	826
952.060	699
952.150	1210
952.240	105
952.331	-83
952.421	1756
952.511	89
952.602	-847
952.692	190
952.782	535
952.872	-45
952.962	478
953.052	587
953.143	-220
953.233	1669
953.323	269
953.413	-5
953.503	274
953.593	883
953.683	282
953.773	780
953.863	-397
953.953	873
954.042	249
954.132	303
954.222	562
954.312	171
954.402	1151
954.492	1131
954.581	1943
954.671	1191
954.761	217
954.850	759
954.940	-513
955.030	109
955.119	-402
955.209	1244
955.298	141
955.388	788
955.477	788
955.567	-27
955.656	756
955.746	391
955.835	-107
955.925	834
956.014	-186
956.103	431
956.193	384
956.282	585
956.371	333
956.461	802
956.550	55
956.639	855
956.728	-95
956.817	-135
956.906	-409
956.995	777
957.085	-1038
957.174	-124
957.263	309
957.352	-79
957.441	-603
957.530	1145
957.619	573
957.708	686
957.796	-615
957.885	777
957.974	-684
958.063	807
958.152	-1375
958.241	394
958.329	417
958.418	109
958.507	-345
958.596	1527
958.684	-528
958.773	1215
958.861	25
958.950	721
959.039	512
959.127	540
959.216	587
959.304	1320
959.393	98
959.481	1115
959.570	147
959.658	808
959.746	327
959.835	821
959.923	1641
960.011	535
960.100	-139
960.188	-9
960.276	-277
960.365	431
960.453	-12
960.541	751
960.629	210
960.717	-105
960.805	-719
960.893	566
960.981	30
961.069	1332
961.158	291
961.245	1545
961.333	215
961.421	39
961.509	-388
961.597	803
961.685	-533
961.773	417
961.861	-240
961.949	13
962.036	-1373
962.124	1129
962.212	-115
962.299	-513
962.387	-438
962.475	761
962.562	-580
962.650	812
962.738	51
962.825	-475
962.913	-296
963.000	124
963.088	-10
963.175	166
963.263	-214
963.350	165
963.438	-846
963.525	1569
963.612	1223
963.700	4714
963.787	11378
963.874	5235
963.962	-607
964.049	400
964.136	-385
964.223	557
964.310	-890
964.398	-13
964.485	-718
964.572	1039
964.659	1583
964.746	2060
964.833	-49
964.920	-122
965.007	350
965.094	447
965.181	41
965.268	904
965.355	-425
965.441	232
965.528	-701
965.615	1393
965.702	100
965.789	19
965.875	-660
965.962	297
966.049	-633
966.136	1171
966.222	-405
966.309	831
966.395	-738
966.482	1014
966.569	-539
966.655	611
966.742	-1379
966.828	456
966.915	-423
967.001	-33
967.087	-518
967.174	257
967.260	-681
967.347	1694
967.433	3148
967.519	8013
967.605	1741
967.692	33
967.778	164
967.864	-358
967.950	-1111
968.036	-492
968.123	349
968.209	385
968.295	-1044
968.381	540
968.467	-255
968.553	-940
968.639	974
968.725	80
968.811	861
968.897	1539
968.983	-553
969.069	-207
969.154	83
969.240	929
969.326	272
969.412	-207
969.497	-414
969.583	-214
969.669	-336
969.755	8
969.840	71
969.926	565
970.012	138
970.097	1755
970.183	69
970.268	1136
970.354	373
970.439	1347
970.525	5473
970.610	1204
970.696	-188
970.781	-164
970.866	-1174
970.952	779
971.037	-697
971.122	167
971.208	-188
971.293	-213
971.378	-1224
971.463	-315
971.549	-244
971.634	-873
971.719	166
971.804	1260
971.889	411
971.974	-107
972.059	-295
972.144	249
972.229	-7
972.314	-227
972.399	392
972.484	-402
972.569	446
972.654	362
972.739	1809
972.824	2574
972.908	286
972.993	-450
973.078	-386
973.163	-21
973.247	-614
973.332	-1258
973.417	260
973.501	82
973.586	-234
973.671	1293
973.755	-225
973.840	1136
973.924	-64
974.009	535
974.093	317
974.178	2253
974.262	1052
974.346	2054
974.431	604
974.515	-605
974.600	-686
974.684	567
974.768	-307
974.852	802
974.937	-1841
975.021	780
975.105	-645
975.189	-263
975.273	-430
975.358	-249
975.442	-1137
975.526	954
975.610	-946
975.694	-393
975.778	200
975.862	-359
975.946	-1664
976.030	2256
976.114	-1290
976.198	-350
976.281	74
976.365	542
976.449	-705
976.533	584
976.617	-593
976.700	-177
976.784	-775
976.868	-228
976.951	508
977.035	913
977.119	-549
977.202	-19
977.286	-377
977.369	-45
977.453	680
977.536	347
977.620	-241
977.703	650
977.787	-482
977.870	709
977.953	1142
978.037	-871
978.120	755
978.203	1021
978.287	2636
978.370	947
978.453	-590
978.536	1499
978.620	484
978.703	1692
978.786	-560
978.869	-219
978.952	-950
979.035	1570
979.118	27
979.201	-297
979.284	-76
979.367	-707
979.450	-801
979.533	-285
979.616	-512
979.699	315
979.782	145
979.865	268
979.948	-653
980.030	340
980.113	518
980.196	-353
980.279	-110
980.361	-160
980.444	-874
980.526	-529
980.609	-50
980.692	12
980.774	373
980.857	-743
980.939	-223
981.022	52
981.104	-573
981.187	-69
981.269	-109
981.352	118
981.434	-786
981.516	-393
981.599	859
981.681	835
981.763	13
981.846	110
981.928	-245
982.010	203
982.092	-1351
982.174	505
982.256	-576
982.339	96
982.421	11
982.503	-165
982.585	-335
982.667	276
982.749	-124
982.831	-268
982.913	-891
982.995	1783
983.077	-650
983.158	1772
983.240	-1668
983.322	1577
983.404	-36
983.486	-122
983.568	769
983.649	310
983.731	-149
983.813	-529
983.894	-358
983.976	-117
984.058	-1224
984.139	786
984.221	-1119
984.302	672
984.384	12
984.465	-178
984.547	-656
984.628	-572
984.710	-12
984.791	40
984.872	113
984.954	-462
985.035	-102
985.116	-116
985.198	-923
985.279	811
985.360	-261
985.441	79
985.522	648
985.604	33
985.685	-2039
985.766	1337
985.847	488
985.928	-395
986.009	-359
986.090	-197
986.171	359
986.252	-374
986.333	-43
986.414	-77
986.495	401
986.576	-477
986.656	-270
986.737	757
986.818	-547
986.899	226
986.980	-620
987.060	978
987.141	-1314
987.222	589
987.302	338
987.383	541
987.464	-417
987.544	574
987.625	-664
987.705	1051
987.786	67
987.866	-118
987.947	353
988.027	966
988.108	95
988.188	137
988.268	-692
988.349	325
988.429	-140
988.509	447
988.589	-501
988.670	-975
988.750	320
988.830	-192
988.910	275
988.990	88
989.070	-265
989.151	142
989.231	-587
989.311	697
989.391	-318
989.471	73
989.551	-1046
989.631	265
989.711	31
989.791	254
989.870	-1066
989.950	1219
990.030	-939
990.110	309
990.190	-1720
990.269	-14
990.349	-149
990.429	58
990.509	-530
990.588	-210
990.668	-451
990.747	305
990.827	-518
990.907	-316
990.986	312
991.066	497
991.145	-1325
991.225	843
991.304	164
991.383	594
991.463	-961
991.542	1031
991.622	-1140
991.701	-427
991.780	-610
991.859	-570
991.939	-874
992.018	212
992.097	-669
992.176	175
992.256	-681
992.335	-864
992.414	1396
992.493	158
992.572	-945
992.651	1036
992.730	-18
992.809	544
992.888	-814
992.967	166
993.046	-792
993.125	-1094
993.203	-261
993.282	130
993.361	-731
993.440	319
993.519	-1210
993.597	-413
993.676	-1382
993.755	415
993.834	-320
993.912	-820
993.991	44
994.069	-452
994.148	-628
994.226	-38
994.305	-432
994.384	-1851
994.462	-501
994.540	-600
994.619	-1333
994.697	-451
994.776	-1063
994.854	-679
994.932	-1178
995.011	-203
995.089	-728
995.167	317
995.245	-771
995.324	-745
995.402	-1168
995.480	-874
995.558	-930
995.636	-1177
995.714	-1970
995.792	31
995.870	-701
995.948	-825
996.026	-709
996.104	-1040
996.182	-366
996.260	-621
996.338	-923
996.416	-1095
996.494	-966
996.572	561
996.649	-1336
996.727	-1031
996.805	-400
996.883	-302
996.960	-411
997.038	270
997.116	-516
997.193	-826
997.271	-438
997.348	-1300
997.426	-1607
997.504	-620
997.581	-227
997.658	-450
997.736	-1765
997.813	-892
997.891	-70
997.968	-223
998.046	-1174
998.123	12
998.200	-976
998.277	-1447
998.355	-778
998.432	-842
998.509	-868
998.586	151
998.663	-709
998.741	-683
998.818	-339
998.895	-642
998.972	-325
999.049	-57
999.126	-1114
999.203	-535
999.280	-834
999.357	-254
999.434	-590
999.511	-368
999.587	-859
999.664	-1053
999.741	-1391
999.818	-1029
999.895	-680
999.971	-850
1000.048	-897
1000.125	-629
1000.202	-1838
1000.278	-854
1000.355	-934
1000.431	-764
1000.508	-1487
1000.584	-288
1000.661	-1933
1000.738	-1891
1000.814	-723
1000.890	-49
1000.967	-1504
1001.043	33
1001.120	-2532
1001.196	-537
1001.272	-1460
1001.349	-316
1001.425	-1042
1001.501	-85
1001.577	-1664
1001.654	-478
1001.730	-1823
1001.806	-1418
1001.882	-2101
1001.958	-312
1002.034	-778
1002.110	-529
1002.186	-1460
1002.262	-1389
1002.338	-1374
1002.414	-349
1002.490	-560
1002.566	-1111
1002.642	-1206
1002.718	-295
1002.794	-1608
1002.870	-1062
1002.945	-1328
1003.021	-875
1003.097	-1450
1003.173	-1202
1003.248	-1625
1003.324	-867
1003.400	-665
1003.475	-999
1003.551	-1610
1003.626	-1384
1003.702	-1105
1003.777	-1153
1003.853	-2077
1003.928	-1690
1004.004	-944
1004.079	-1158
1004.155	-1556
1004.230	-1554
1004.305	-824
1004.381	-1996
1004.456	-1130
1004.531	-1065
1004.607	-1138
1004.682	-1744
1004.757	-1369
1004.832	-867
1004.907	-891
1004.982	-842
1005.057	-1930
1005.133	-999
1005.208	-1834
1005.283	-884
1005.358	-1417
1005.433	-1550
1005.508	-1178
1005.583	-1488
1005.657	-1556
1005.732	-584
1005.807	-2533
1005.882	-537
1005.957	-2179
1006.032	-919
1006.106	-1525
1006.181	-792
1006.256	-1305
1006.331	-1349
1006.405	-1625
1006.480	-522
1006.554	-1988
1006.629	-560
1006.704	-1706
1006.778	-1325
1006.853	-1847
1006.927	-741
1007.002	-1973
1007.076	-851
1007.150	-1443
1007.225	-1008
1007.299	-2229
1007.373	-971
1007.448	-848
1007.522	-1076
1007.596	-1752
1007.671	-869
1007.745	-1331
1007.819	-800
1007.893	-1069
1007.967	-873
1008.041	-2658
1008.115	-310
1008.190	-2104
1008.264	-936
1008.338	-3177
1008.412	-1382
1008.486	-1620
1008.560	-714
1008.633	-1683
1008.707	-543
1008.781	-917
1008.855	-1230
1008.929	-1885
1009.003	-1087
1009.076	-1827
1009.150	-608
1009.224	-1484
1009.298	-1128
1009.371	-2036
1009.445	-509
1009.519	-1345
1009.592	-1693
1009.666	-1509
1009.739	-682
1009.813	-1942
1009.886	49
1009.960	-3032
1010.033	-347
1010.107	-1801
1010.180	-1852
1010.253	-1434
1010.327	-2036
1010.400	-2690
1010.473	-1904
1010.547	-689
1010.620	-1851
1010.693	-2588
1010.766	-1380
1010.840	-1422
1010.913	-1048
1010.986	-1575
1011.059	-1148
1011.132	-2742
1011.205	-734
1011.278	-2185
1011.351	-1256
1011.424	-1778
1011.497	-2175
1011.570	-1857
1011.643	-1820
1011.716	-2659
1011.789	-1745
1011.862	-1198
1011.934	-1188
1012.007	-2905
1012.080	-1273
1012.153	-1278
1012.225	-924
1012.298	-3243
1012.371	-1738
1012.443	-1520
1012.516	-2215
1012.588	-1180
1012.661	-1019
1012.733	-2035
1012.806	354
1012.879	-2364
1012.951	-1149
1013.023	-1889
1013.096	-1627
1013.168	-1616
1013.241	-461
1013.313	-1225
1013.385	-1807
1013.458	-2089
1013.530	-714
1013.602	-2031
1013.674	-812
1013.746	-2285
1013.819	-1280
1013.891	-1667
1013.963	-2331
1014.035	-1533
1014.107	-1107
1014.179	-2447
1014.251	-1372
1014.323	-1825
1014.395	-1395
1014.467	-2568
1014.539	-1187
1014.611	-1610
1014.683	-1352
1014.754	-2444
1014.826	-2529
1014.898	-1585
1014.970	-1224
1015.042	-765
1015.113	-1006
1015.185	-1545
1015.257	-1784
1015.328	-1846
1015.400	-1116
1015.471	-1964
1015.543	-2775
1015.615	-1678
1015.686	-1289
1015.757	-2243
1015.829	-1150
1015.901	-2341
1015.972	-1505
1016.043	-1935
1016.115	-1053
1016.186	-2236
1016.257	-1983
1016.328	-1854
1016.400	-366
1016.471	-2268
1016.542	-1523
1016.613	-1779
1016.685	-878
1016.756	-1936
1016.827	-912
1016.898	-2207
1016.969	-886
1017.040	-2211
1017.111	-2338
1017.182	-2595
1017.253	-834
1017.324	-2453
1017.395	-1651
1017.466	-1795
1017.537	-1499
1017.608	-2520
1017.678	-1307
1017.749	-2520
1017.820	-501
1017.891	-2922
1017.961	-1487
1018.032	-2104
1018.103	-1702
1018.173	-2216
1018.244	-1723
1018.315	-1948
1018.385	-620
1018.456	-2540
1018.526	-2059
1018.597	-1508
1018.667	-1708
1018.738	-3334
1018.808	-1664
1018.878	-2166
1018.949	-1399
1019.019	-2296
1019.089	-1311
1019.160	-1854
1019.230	-2805
1019.300	-2238
1019.371	-2500
1019.441	-2470
1019.511	-1700
1019.581	-842
1019.651	-751
1019.721	-2050
1019.791	-1382
1019.861	-1961
1019.931	-2031
1020.001	-2250
1020.071	-938
1020.141	-1961
1020.211	-971
1020.281	-2734
1020.351	-1691
1020.421	-2029
1020.491	-1150
1020.560	-2699
1020.630	-1070
1020.700	-2354
1020.770	-1644
1020.839	-2132
1020.909	-1771
1020.979	-2738
1021.048	-1869
1021.118	-1897
1021.187	-1862
1021.257	-2573
1021.326	-1223
1021.396	-2667
1021.465	-1584
1021.535	-1799
1021.604	-2442
1021.674	-2001
1021.743	-1646
1021.812	-2259
1021.882	-1869
1021.951	-2323
1022.020	-1415
1022.089	-1363
1022.159	-1572
1022.228	-2321
1022.297	-1922
1022.366	-2459
1022.435	-1218
1022.504	-2399
1022.573	-1676
1022.642	-2687
1022.711	-1299
1022.781	-2565
1022.849	-1365
1022.918	-2586
1022.987	-1550
1023.056	-2771
1023.125	-1522
1023.194	-2414
1023.263	-2454
1023.331	-1568
1023.400	-2625
1023.469	-1670
1023.538	-1029
1023.606	-2135
1023.675	-1444
1023.744	-2705
1023.812	-1922
1023.881	-2204
1023.949	-2104
1024.018	-1960
1024.086	-1842
1024.155	-2670
1024.223	-2177
1024.292	-2118
1024.360	-1107
1024.429	-1698
1024.497	-2318
1024.565	-1321
1024.634	-1855
1024.702	-1653
1024.770	-1248
1024.838	-2371
1024.907	-1962
1024.975	-2501
1025.043	-664
1025.111	-2161
1025.179	-827
1025.247	-2309
1025.315	-584
1025.383	-2471
1025.451	-1766
1025.519	-2743
1025.587	-1807
1025.655	-2317
1025.723	-2474
1025.791	-3047
1025.859	-1324
1025.927	-1186
1025.995	-1863
1026.062	-2049
1026.130	-1576
1026.198	-2616
1026.266	-1758
1026.333	-1989
1026.401	-780
1026.469	-1852
1026.536	-2014
1026.604	-2808
1026.671	-1393
1026.739	-2686
1026.806	-876
1026.874	-1913
1026.941	-1320
1027.009	-1748
1027.076	-1697
1027.144	-1844
1027.211	-1978
1027.278	-2019
1027.345	-1790
1027.413	-2309
1027.480	-1345
1027.547	-2372
1027.614	-2199
1027.682	-2334
1027.749	-1414
1027.816	-2070
1027.883	-1603
1027.950	-1933
1028.017	-2030
1028.084	-2243
1028.151	-1820
1028.218	-1695
1028.285	-2321
1028.352	-2559
1028.419	-2459
1028.486	-2095
1028.553	-1483
1028.619	-3237
1028.686	-1273
1028.753	-2025
1028.820	-1685
1028.886	-2634
1028.953	-1245
1029.020	-1903
1029.086	-2253
1029.153	-2678
1029.220	-1523
1029.286	-2074
1029.353	-2486
1029.419	-2052
1029.486	-2359
1029.552	-1825
1029.619	-1532
1029.685	-2490
1029.751	-2285
1029.818	-1302
1029.884	-1727
1029.951	-1359
1030.017	-2561
1030.083	-2355
1030.149	-1875
1030.216	-2419
1030.282	-1921
1030.348	-2264
1030.414	-1393
1030.480	-2729
1030.546	-1352
1030.612	-1594
1030.678	-1099
1030.744	-1190
1030.810	-1139
1030.876	-1432
1030.942	-1846
1031.008	-2124
1031.074	-2235
1031.140	-1732
1031.206	-1339
1031.272	-2271
1031.337	-1138
1031.403	-2035
1031.469	-1110
1031.534	-2445
1031.600	-1493
1031.666	-1831
1031.731	-1741
1031.797	-1552
1031.863	-1907
1031.928	-2439
1031.994	-1641
1032.059	-1936
1032.125	-1577
1032.190	-2403
1032.256	-1972
1032.321	-2892
1032.386	-1679
1032.452	-1906
1032.517	-1534
1032.582	-2843
1032.647	-1446
1032.713	-2161
1032.778	-957
1032.843	-2291
1032.908	-1906
1032.974	-2078
1033.039	-1419
1033.104	-1828
1033.169	-2121
1033.234	-1178
1033.299	-1009
1033.364	-1631
1033.429	-1426
1033.494	-1546
1033.559	-1113
1033.624	-2571
1033.688	-1399
1033.753	-2352
1033.818	-1229
1033.883	-1841
1033.948	-841
1034.013	-1941
1034.077	-1393
1034.142	-822
1034.207	-829
1034.271	136
1034.336	24
1034.400	-1172
1034.465	43
1034.530	-721
1034.594	-960
1034.658	-1966
1034.723	-1640
1034.787	-1853
1034.852	-1289
1034.916	-1890
1034.981	-1851
1035.045	-1548
1035.109	-1778
1035.173	-2218
1035.238	-1463
1035.302	-2147
1035.366	-1034
1035.430	-2243
1035.495	-1215
1035.559	-1134
1035.623	-869
1035.687	-1504
1035.751	-1825
1035.815	-1782
1035.879	-1398
1035.943	-1262
1036.007	-2161
1036.071	-2512
1036.135	-1838
1036.198	-1266
1036.262	-1614
1036.326	-1409
1036.390	-1519
1036.454	-2254
1036.517	-893
1036.581	-1542
1036.645	10
1036.709	-196
1036.772	-1555
1036.836	-1809
1036.900	-1227
1036.963	-1955
1037.026	-1211
1037.090	-1598
1037.154	-1546
1037.217	-2118
1037.280	-973
1037.344	-2438
1037.407	-1896
1037.471	-1081
1037.534	-1221
1037.597	-1736
1037.661	-1365
1037.724	-1438
1037.787	-1522
1037.850	-2113
1037.913	-1703
1037.977	-1842
1038.040	-969
1038.103	-1038
1038.166	-938
1038.229	-1996
1038.292	-2476
1038.355	-2079
1038.418	-877
1038.481	-1702
1038.544	-1688
1038.607	-1270
1038.670	-1334
1038.732	-3143
1038.795	-1399
1038.858	-2263
1038.921	-1282
1038.984	-1773
1039.046	-1197
1039.109	-2338
1039.172	-1499
1039.234	-2219
1039.297	-680
1039.360	-2035
1039.422	-1295
1039.485	-2176
1039.547	-1623
1039.610	-1146
1039.672	-511
1039.734	-1824
1039.797	-1300
1039.859	-1837
1039.922	-2266
1039.984	-2266
1040.046	-1337
1040.109	-1530
1040.171	-1484
1040.233	-1798
1040.295	-1224
1040.358	-1623
1040.420	-1759
1040.482	-1971
1040.544	-1565
1040.606	-2081
1040.668	-2121
1040.730	-1837
1040.792	-965
1040.854	-1735
1040.916	-1441
1040.978	-2100
1041.040	-1116
1041.102	-1316
1041.164	-1905
1041.225	-2293
1041.287	-1707
1041.349	-1839
1041.411	-1055
1041.472	-1953
1041.534	-1221
1041.596	-2652
1041.657	-1247
1041.719	-1682
1041.781	-562
1041.842	-2752
1041.904	-1267
1041.965	-1783
1042.027	-1311
1042.088	-1331
1042.150	-959
1042.211	-1623
1042.272	-1263
1042.334	-2224
1042.395	-1778
1042.456	-1760
1042.518	-1226
1042.579	-1632
1042.640	-1330
1042.701	-2311
1042.763	-1575
1042.824	-2597
1042.885	-1319
1042.946	-1636
1043.007	-1381
1043.068	-2262
1043.129	-1069
1043.190	-1710
1043.251	-868
1043.312	-2100
1043.373	-1210
1043.434	-1075
1043.495	-651
1043.556	-1125
1043.616	-1859
1043.677	-2804
1043.738	-1848
1043.799	-2036
1043.859	-1013
1043.920	-1921
1043.981	-1901
1044.041	-2658
1044.102	-1404
1044.162	-1644
1044.223	-2031
1044.284	-2020
1044.344	-1519
1044.405	-2264
1044.465	-1002
1044.525	-2698
1044.586	-911
1044.646	-1702
1044.707	-903
1044.767	-1438
1044.827	-1574
1044.887	-2612
1044.948	-1499
1045.008	-1954
1045.068	-814
1045.128	-788
1045.188	-2070
1045.249	-1196
1045.309	-1916
1045.369	-1810
1045.429	-1462
1045.489	-912
1045.549	-1456
1045.609	-2089
1045.669	-1986
1045.729	-2366
1045.789	-983
1045.848	-1818
1045.908	-1066
1045.968	-1403
1046.028	-1528
1046.088	-1658
1046.147	-953
1046.207	-1074
1046.267	-1578
1046.326	-1983
1046.386	-579
1046.446	-192
1046.505	-405
1046.565	-769
1046.624	-127
1046.684	-1491
1046.743	-321
1046.803	-413
1046.862	-525
1046.922	0
