'Start Wavelength	183.907
'End Wavelength	1046.922
'Gate Delay	5.000
'Gate Width (ms)	1.050
'Laser Output Level	0.000
'X Position	0.000
'Y Position	0.000
'Z Position	0.000
'Grid Point Number	1.000
'Shot Number	100.000
183.907	168.000
183.977	-73.000
184.047	221
184.116	298
184.186	559
184.256	910
184.325	466
184.395	-147
184.465	399
184.534	32
184.604	171
184.674	507
184.743	-420
184.813	1040
184.883	439
184.952	466
185.022	509
185.092	670
185.161	36
185.231	268
185.301	-366
185.370	672
185.440	340
185.509	357
185.579	63
185.649	16
185.718	42
185.788	877
185.857	670
185.927	314
185.996	907
186.066	1038
186.136	258
186.205	568
186.275	472
186.344	195
186.414	364
186.483	-108
186.553	1643
186.622	1753
186.692	832
186.761	1109
186.831	392
186.900	-436
186.970	818
187.039	639
187.109	685
187.178	1192
187.248	443
187.317	1222
187.387	410
187.456	390
187.526	632
187.595	680
187.664	412
187.734	289
187.803	810
187.873	1
187.942	926
188.012	1010
188.081	498
188.150	497
188.220	1626
188.289	1074
188.358	467
188.428	984
188.497	-1
188.567	1221
188.636	-129
188.705	464
188.775	58
188.844	213
188.913	590
188.983	-295
189.052	632
189.121	406
189.191	468
189.260	833
189.329	586
189.399	321
189.468	1159
189.537	-34
189.606	687
189.676	653
189.745	1026
189.814	1398
189.883	-10
189.953	46
190.022	1053
190.091	2512
190.161	2777
190.230	1375
190.299	491
190.368	366
190.437	358
190.507	711
190.576	-145
190.645	472
190.714	1033
190.783	639
190.853	804
190.922	935
190.991	876
191.060	388
191.129	-128
191.198	280
191.268	898
191.337	633
191.406	885
191.475	794
191.544	759
191.613	1510
191.682	251
191.752	1190
191.821	1217
191.890	83
191.959	883
192.028	218
192.097	825
192.166	260
192.235	-274
192.304	816
192.373	180
192.442	136
192.511	733
192.580	336
192.650	701
192.719	464
192.788	568
192.857	1335
192.926	479
192.995	346
193.064	834
193.133	867
193.202	683
193.271	1959
193.340	825
193.409	1394
193.478	1637
193.547	1315
193.615	2122
193.684	2401
193.753	2292
193.822	1745
193.891	1270
193.960	918
194.029	615
194.098	664
194.167	119
194.236	1533
194.305	194
194.374	564
194.443	839
194.512	970
194.580	1201
194.649	912
194.718	933
194.787	1115
194.856	268
194.925	841
194.994	874
195.062	1120
195.131	882
195.200	1642
195.269	1413
195.338	1453
195.407	1589
195.475	676
195.544	1466
195.613	1450
195.682	995
195.751	600
195.819	692
195.888	1529
195.957	2246
196.026	1182
196.094	1283
196.163	1481
196.232	1255
196.301	1338
196.369	1320
196.438	668
196.507	889
196.576	742
196.644	625
196.713	464
196.782	1117
196.850	1569
196.919	1199
196.988	749
197.056	913
197.125	1005
197.194	1065
197.262	-62
197.331	1200
197.400	592
197.468	1698
197.537	482
197.606	388
197.674	1091
197.743	2079
197.812	815
197.880	1661
197.949	1847
198.017	2217
198.086	1430
198.155	573
198.223	1653
198.292	2799
198.360	1316
198.429	383
198.497	956
198.566	2010
198.635	2176
198.703	994
198.772	1733
198.840	2147
198.909	3307
198.977	754
199.046	818
199.114	1038
199.183	1493
199.251	677
199.320	827
199.388	1018
199.457	524
199.525	1308
199.594	905
199.662	778
199.731	1242
199.799	751
199.867	1327
199.936	982
200.004	1255
200.073	1276
200.141	1019
200.210	586
200.278	1269
200.346	1133
200.415	915
200.483	1515
200.552	1775
200.620	357
200.688	1657
200.757	1855
200.825	1299
200.893	319
200.962	953
201.030	1053
201.098	923
201.167	1304
201.235	1414
201.303	1534
201.372	1969
201.440	1120
201.508	1580
201.577	1471
201.645	1669
201.713	713
201.781	1741
201.850	2142
201.918	1415
201.986	1134
202.055	1388
202.123	968
202.191	870
202.259	1692
202.327	216
202.396	998
202.464	850
202.532	2172
202.600	4812
202.669	3467
202.737	1445
202.805	1427
202.873	1765
202.941	1356
203.009	1816
203.078	1154
203.146	947
203.214	737
203.282	610
203.350	1557
203.418	780
203.487	1275
203.555	1302
203.623	931
203.691	1544
203.759	478
203.827	900
203.895	524
203.963	1910
204.031	1220
204.099	1134
204.168	827
204.236	1239
204.304	833
204.372	864
204.440	1643
204.508	617
204.576	863
204.644	1697
204.712	841
204.780	1378
204.848	1534
204.916	729
204.984	797
205.052	1263
205.120	999
205.188	1281
205.256	894
205.324	595
205.392	1576
205.460	2310
205.528	1252
205.596	1394
205.664	791
205.732	1475
205.799	2727
205.867	5307
205.935	1914
206.003	1826
206.071	1445
206.139	1126
206.207	1216
206.275	1285
206.343	681
206.411	818
206.478	1391
206.546	1831
206.614	1082
206.682	1622
206.750	863
206.818	2474
206.885	2327
206.953	744
207.021	2065
207.089	1070
207.157	851
207.225	1757
207.292	1163
207.360	928
207.428	1669
207.496	985
207.563	2136
207.631	1952
207.699	1266
207.767	1478
207.834	1193
207.902	1386
207.970	1452
208.038	2028
208.105	1320
208.173	1783
208.241	1898
208.309	2786
208.376	1933
208.444	3491
208.512	2041
208.579	1009
208.647	2645
208.715	2314
208.782	1321
208.850	1771
208.918	1006
208.985	1492
209.053	1380
209.120	1541
209.188	1723
209.256	1948
209.323	2049
209.391	1494
209.459	3658
209.526	995
209.594	1454
209.661	1595
209.729	1796
209.796	1410
209.864	2192
209.932	631
209.999	2445
210.067	2540
210.134	2488
210.202	1295
210.269	2900
210.337	3494
210.404	1620
210.472	1583
210.539	2109
210.607	1703
210.674	3031
210.742	2090
210.809	1876
210.877	1639
210.944	3014
211.012	2382
211.079	3134
211.146	1459
211.214	1775
211.281	3350
211.349	3639
211.416	2027
211.484	2705
211.551	2340
211.618	2223
211.686	2028
211.753	1562
211.821	2640
211.888	1807
211.955	2107
212.023	2323
212.090	2607
212.157	1700
212.225	1881
212.292	3883
212.359	5634
212.427	13890
212.494	7318
212.561	3927
212.629	1985
212.696	2391
212.763	2792
212.831	1824
212.898	2896
212.965	1599
213.032	2405
213.100	2448
213.167	1807
213.234	2682
213.301	2451
213.369	2341
213.436	2107
213.503	2043
213.570	2878
213.638	3271
213.705	1612
213.772	1178
213.839	2082
213.906	2723
213.973	2497
214.041	1797
214.108	2505
214.175	2119
214.242	2381
214.309	2071
214.376	1733
214.444	2945
214.511	3395
214.578	3022
214.645	3120
214.712	3007
214.779	2675
214.846	2108
214.913	2241
214.980	3258
215.048	3485
215.115	4086
215.182	3857
215.249	2960
215.316	2739
215.383	2605
215.450	2605
215.517	2769
215.584	2128
215.651	2594
215.718	2724
215.785	2928
215.852	2820
215.919	3812
215.986	3496
216.053	2935
216.120	2435
216.187	3036
216.254	3105
216.321	2422
216.388	3206
216.455	2859
216.522	2569
216.589	3703
216.656	5805
216.722	4941
216.789	4399
216.856	3954
216.923	2997
216.990	2864
217.057	3237
217.124	3805
217.191	3711
217.258	4640
217.324	4822
217.391	5250
217.458	4360
217.525	3441
217.592	2955
217.659	2302
217.725	4170
217.792	4337
217.859	4816
217.926	2462
217.993	2679
218.059	2675
218.126	3180
218.193	2336
218.260	2928
218.327	1709
218.393	2750
218.460	2685
218.527	2309
218.594	2394
218.660	3803
218.727	5309
218.794	2445
218.860	2975
218.927	2396
218.994	2313
219.061	2681
219.127	3442
219.194	4525
219.261	3036
219.327	1690
219.394	2314
219.461	1738
219.527	2079
219.594	3576
219.661	2521
219.727	1165
219.794	3069
219.860	2014
219.927	2475
219.994	4678
220.060	6898
220.127	6624
220.193	4288
220.260	2901
220.326	4798
220.393	5533
220.460	7118
220.526	6366
220.593	3492
220.659	5326
220.726	4383
220.792	8514
220.859	8391
220.925	9406
220.992	11609
221.058	11266
221.125	12113
221.191	8132
221.258	4483
221.324	3947
221.391	3778
221.457	3053
221.524	3582
221.590	4443
221.657	10044
221.723	8001
221.789	7004
221.856	7383
221.922	4287
221.989	3812
222.055	4101
222.121	2004
222.188	5561
222.254	3522
222.321	3501
222.387	3205
222.453	2241
222.520	1577
222.586	1763
222.652	2405
222.719	1723
222.785	2844
222.851	2040
222.918	2156
222.984	2469
223.050	2537
223.116	1541
223.183	3549
223.249	2309
223.315	1367
223.382	2268
223.448	1766
223.514	1406
223.580	2427
223.647	2341
223.713	1587
223.779	1481
223.845	2310
223.911	2271
223.978	2414
224.044	2380
224.110	1944
224.176	2542
224.242	1889
224.309	1509
224.375	2173
224.441	2163
224.507	1581
224.573	2005
224.639	2346
224.705	860
224.772	2326
224.838	1623
224.904	2763
224.970	2707
225.036	1431
225.102	1389
225.168	2995
225.234	2576
225.300	2223
225.366	2540
225.432	2113
225.499	2720
225.565	2225
225.631	2756
225.697	2449
225.763	3929
225.829	4095
225.895	3834
225.961	5176
226.027	4822
226.093	4371
226.159	5057
226.225	7899
226.291	11985
226.357	18957
226.423	12347
226.489	7724
226.554	5814
226.620	4484
226.686	5915
226.752	8414
226.818	12015
226.884	23449
226.950	21939
227.016	10395
227.082	7339
227.148	5389
227.214	5770
227.279	4867
227.345	4213
227.411	4439
227.477	4793
227.543	10737
227.609	11501
227.674	6219
227.740	4794
227.806	4122
227.872	2778
227.938	3899
228.003	5153
228.069	2505
228.135	2529
228.201	2692
228.267	2725
228.332	3718
228.398	3623
228.464	3018
228.530	2514
228.595	2650
228.661	2357
228.727	3936
228.792	4060
228.858	2289
228.924	2198
228.990	4578
229.055	2328
229.121	4512
229.187	2939
229.252	3001
229.318	2145
229.384	2805
229.449	3631
229.515	1599
229.581	890
229.646	3295
229.712	3782
229.777	6243
229.843	5907
229.909	5197
229.974	5236
230.040	5319
230.105	4211
230.171	4396
230.236	5636
230.302	7366
230.368	6068
230.433	4528
230.499	4411
230.564	4746
230.630	3081
230.695	3699
230.761	3781
230.826	1822
230.892	5154
230.957	3160
231.023	3031
231.088	2934
231.154	2677
231.219	4207
231.284	4314
231.350	5285
231.415	2497
231.481	3176
231.546	3632
231.612	3090
231.677	2525
231.742	2021
231.808	4250
231.873	1714
231.939	1703
232.004	4630
232.069	5613
232.135	2762
232.200	2429
232.265	3079
232.331	2189
232.396	1931
232.461	2521
232.527	2750
232.592	2131
232.657	3464
232.723	3468
232.788	3824
232.853	3006
232.918	2884
232.984	2359
233.049	2001
233.114	3205
233.179	4161
233.245	4736
233.310	5477
233.375	2414
233.440	3112
233.506	1943
233.571	1567
233.636	2975
233.701	1948
233.766	3273
233.832	5104
233.897	2936
233.962	3067
234.027	4174
234.092	3403
234.157	2936
234.222	3281
234.288	4480
234.353	9404
234.418	9947
234.483	6963
234.548	5571
234.613	4280
234.678	4531
234.743	4770
234.808	11129
234.873	6656
234.938	5004
235.004	3609
235.069	4135
235.134	3423
235.199	3500
235.264	3555
235.329	2628
235.394	4336
235.459	4544
235.524	3231
235.589	3779
235.654	3309
235.719	2187
235.784	3540
235.849	2460
235.913	5667
235.978	5825
236.043	7229
236.108	4082
236.173	3163
236.238	5083
236.303	3233
236.368	3392
236.433	5566
236.498	6521
236.563	6491
236.627	10429
236.692	30232
236.757	27333
236.822	12098
236.887	8545
236.952	8421
237.017	6183
237.081	7371
237.146	8522
237.211	15523
237.276	29439
237.341	48628
237.405	25869
237.470	12525
237.535	9507
237.600	6858
237.664	6174
237.729	4403
237.794	5183
237.859	10595
237.923	7964
237.988	5377
238.053	6353
238.118	6275
238.182	12576
238.247	13541
238.312	5403
238.376	5426
238.441	2845
238.506	5220
238.570	2205
238.635	4330
238.700	3198
238.764	2806
238.829	6132
238.893	7416
238.958	5895
239.023	5521
239.087	4299
239.152	4622
239.216	3261
239.281	3843
239.346	3701
239.410	3312
239.475	3910
239.539	12015
239.604	10595
239.668	5852
239.733	4206
239.797	8184
239.862	19360
239.926	17211
239.991	7447
240.055	5019
240.120	3460
240.184	4781
240.249	2266
240.313	3486
240.378	3417
240.442	7279
240.507	11731
240.571	4221
240.635	6154
240.700	8148
240.764	4969
240.829	3923
240.893	1521
240.957	3474
241.022	6833
241.086	11488
241.151	6521
241.215	2379
241.279	4492
241.344	6727
241.408	5339
241.472	5315
241.537	5511
241.601	4854
241.665	3663
241.730	4436
241.794	5174
241.858	4035
241.922	4559
241.987	4620
242.051	4513
242.115	3271
242.179	4220
242.244	3691
242.308	4541
242.372	4969
242.436	4590
242.501	4993
242.565	3445
242.629	3728
242.693	3802
242.757	3430
242.822	3556
242.886	4403
242.950	4516
243.014	3811
243.078	4630
243.142	5731
243.206	4582
243.271	4526
243.335	4159
243.399	7108
243.463	17988
243.527	46630
243.591	17430
243.655	8462
243.719	5386
243.783	6843
243.847	8209
243.911	11968
243.975	12454
244.040	8930
244.104	6103
244.168	4417
244.232	6146
244.296	9427
244.360	10120
244.424	5961
244.488	4167
244.552	4487
244.615	2455
244.679	4272
244.743	4858
244.807	5242
244.871	4586
244.935	4085
244.999	2872
245.063	3946
245.127	4826
245.191	6879
245.255	7589
245.319	6234
245.383	4769
245.446	5659
245.510	3593
245.574	4897
245.638	4580
245.702	3954
245.766	9419
245.829	8725
245.893	4288
245.957	5115
246.021	5624
246.085	4753
246.149	5847
246.212	13145
246.276	19482
246.340	10273
246.404	7496
246.467	7044
246.531	8897
246.595	7333
246.659	6419
246.722	5464
246.786	8124
246.850	7602
246.913	8469
246.977	4954
247.041	4783
247.104	5413
247.168	6250
247.232	12403
247.295	26308
247.359	15008
247.423	6843
247.486	11119
247.550	8330
247.614	5847
247.677	8495
247.741	6614
247.804	4939
247.868	7062
247.932	11426
247.995	25965
248.059	10821
248.122	5763
248.186	8125
248.249	11805
248.313	37247
248.376	42700
248.440	29081
248.503	11840
248.567	10660
248.630	12500
248.694	17151
248.757	21638
248.821	42536
248.884	29585
248.948	23848
249.011	34086
249.075	48076
249.138	45018
249.202	19610
249.265	12127
249.328	13462
249.392	9628
249.455	9721
249.519	8175
249.582	10206
249.645	15038
249.709	11282
249.772	8785
249.835	8022
249.899	8555
249.962	8500
250.025	7207
250.089	16885
250.152	23444
250.215	12932
250.279	8582
250.342	8668
250.405	9248
250.468	8143
250.532	10898
250.595	14668
250.658	42987
250.721	75966
250.785	30440
250.848	18142
250.911	10993
250.974	10756
251.038	14677
251.101	26791
251.164	14975
251.227	14718
251.290	14831
251.354	18387
251.417	59375
251.480	65418
251.543	45146
251.606	103927
251.669	88523
251.732	38954
251.795	37550
251.859	37921
251.922	70566
251.985	47920
252.048	19582
252.111	14938
252.174	14054
252.237	23781
252.300	50965
252.363	50114
252.426	91245
252.489	43866
252.552	23071
252.615	15245
252.678	16890
252.741	37716
252.804	46751
252.867	92885
252.930	62841
252.993	33562
253.056	22013
253.119	15518
253.182	12041
253.245	19144
253.308	15592
253.371	13530
253.434	13339
253.497	12624
253.559	23588
253.622	17673
253.685	19955
253.748	22374
253.811	11448
253.874	12355
253.937	11627
254.000	9796
254.062	17108
254.125	26927
254.188	22326
254.251	18985
254.314	9915
254.376	17107
254.439	21222
254.502	17125
254.565	16311
254.628	30879
254.690	18514
254.753	10123
254.816	9583
254.878	9648
254.941	17666
255.004	20080
255.067	9437
255.129	9700
255.192	6275
255.255	5178
255.317	7525
255.380	5090
255.443	4865
255.505	4604
255.568	4250
255.631	4475
255.693	5024
255.756	4189
255.819	5079
255.881	3744
255.944	4022
256.006	4151
256.069	4745
256.132	4016
256.194	6018
256.257	11258
256.319	7367
256.382	8525
256.444	7591
256.507	5336
256.569	5743
256.632	5345
256.694	8215
256.757	17609
256.819	51913
256.882	23597
256.944	11564
257.007	9804
257.069	9568
257.132	6861
257.194	6458
257.257	5992
257.319	6613
257.381	6436
257.444	14449
257.506	53582
257.569	67435
257.631	37567
257.693	21493
257.756	10197
257.818	8605
257.880	6343
257.943	6436
258.005	4918
258.067	5309
258.130	4580
258.192	6738
258.254	11292
258.317	7741
258.379	6831
258.441	14123
258.503	14859
258.566	13524
258.628	17478
258.690	6630
258.753	7774
258.815	12755
258.877	7921
258.939	5887
259.001	5764
259.064	5331
259.126	5706
259.188	8194
259.250	6670
259.312	7747
259.375	18371
259.437	13448
259.499	7024
259.561	6302
259.623	7797
259.685	5175
259.747	5299
259.809	12681
259.872	22952
259.934	31817
259.996	33481
260.058	11503
260.120	6072
260.182	5455
260.244	5403
260.306	4827
260.368	5237
260.430	4980
260.492	8487
260.554	16588
260.616	14721
260.678	19013
260.740	26227
260.802	8708
260.864	7135
260.926	5435
260.988	6611
261.050	5775
261.112	10505
261.174	24604
261.236	20663
261.298	8074
261.359	11082
261.421	16847
261.483	6599
261.545	6692
261.607	3088
261.669	5061
261.731	6714
261.793	16613
261.854	9692
261.916	7729
261.978	5421
262.040	7014
262.102	5263
262.164	7571
262.225	6558
262.287	5622
262.349	12329
262.411	10798
262.472	6422
262.534	6761
262.596	15328
262.658	6163
262.719	4040
262.781	6020
262.843	13317
262.904	8392
262.966	6049
263.028	6694
263.090	25174
263.151	69481
263.213	27005
263.275	15411
263.336	8196
263.398	6338
263.459	4802
263.521	5036
263.583	11030
263.644	9913
263.706	5156
263.767	3634
263.829	3520
263.891	2800
263.952	2646
264.014	3321
264.075	5431
264.137	12474
264.198	8884
264.260	3322
264.321	3557
264.383	8821
264.444	19558
264.506	7498
264.567	5911
264.629	7643
264.690	14831
264.752	8113
264.813	4899
264.875	3058
264.936	4458
264.998	3593
265.059	4162
265.120	3880
265.182	6439
265.243	25070
265.305	29010
265.366	8965
265.427	5491
265.489	5166
265.550	3209
265.611	4781
265.673	5305
265.734	3861
265.795	3110
265.857	3639
265.918	3672
265.979	8535
266.040	40621
266.102	38366
266.163	11894
266.224	10219
266.286	6763
266.347	3846
266.408	5312
266.469	4802
266.530	4728
266.592	3284
266.653	8458
266.714	14670
266.775	6541
266.836	4276
266.898	3630
266.959	5842
267.020	5035
267.081	5174
267.142	4565
267.203	4196
267.264	3579
267.326	5449
267.387	4006
267.448	3758
267.509	4631
267.570	4594
267.631	4059
267.692	2846
267.753	4203
267.814	3549
267.875	6918
267.936	17326
267.997	8876
268.058	8944
268.119	5999
268.180	5168
268.241	4226
268.302	4795
268.363	3361
268.424	4026
268.485	3295
268.546	3145
268.607	3461
268.668	3122
268.729	2664
268.790	4085
268.851	4314
268.912	9316
268.972	13189
269.033	8051
269.094	3703
269.155	3940
269.216	3296
269.277	3449
269.338	3887
269.398	3794
269.459	4547
269.520	6230
269.581	8268
269.642	9394
269.702	6139
269.763	5876
269.824	5118
269.885	5898
269.945	10181
270.006	5013
270.067	3273
270.128	3400
270.188	4014
270.249	3944
270.310	3958
270.370	3721
270.431	3901
270.492	3549
270.553	4427
270.613	8670
270.674	16221
270.734	8826
270.795	5186
270.856	6923
270.916	5494
270.977	4513
271.038	5769
271.098	5760
271.159	8110
271.219	8265
271.280	5357
271.340	4121
271.401	4911
271.462	8781
271.522	6525
271.583	4989
271.643	5536
271.704	5731
271.764	5911
271.825	12859
271.885	39622
271.946	56741
272.006	21844
272.066	24005
272.127	43772
272.187	17822
272.248	10710
272.308	9807
272.369	27886
272.429	19104
272.489	12395
272.550	14262
272.610	14137
272.671	11715
272.731	8928
272.791	12296
272.852	10044
272.912	9062
272.972	5599
273.033	5452
273.093	7896
273.153	8751
273.214	6495
273.274	8130
273.334	19639
273.394	40655
273.455	20033
273.515	17718
273.575	35803
273.635	17871
273.696	20244
273.756	39782
273.816	20070
273.876	11808
273.936	15801
273.997	26168
274.057	10388
274.117	8743
274.177	12149
274.237	45854
274.297	41705
274.358	25266
274.418	31060
274.478	26208
274.538	11733
274.598	8030
274.658	18976
274.718	26164
274.778	12311
274.838	7523
274.898	12192
274.958	33434
275.018	36434
275.078	27541
275.138	12177
275.198	7130
275.258	5397
275.318	7132
275.378	12700
275.438	15180
275.498	9293
275.558	16578
275.618	35070
275.678	28971
275.738	17496
275.798	14097
275.858	8279
275.918	5352
275.978	6280
276.038	6479
276.098	5643
276.157	9893
276.217	29276
276.277	14683
276.337	11789
276.397	7581
276.457	8655
276.517	6724
276.576	4868
276.636	5453
276.696	8200
276.756	16683
276.815	14897
276.875	7632
276.935	8034
276.995	8472
277.055	5804
277.114	6431
277.174	7718
277.234	23338
277.293	12223
277.353	7202
277.413	5871
277.472	6379
277.532	7099
277.592	7602
277.651	22904
277.711	47149
277.771	17012
277.830	48485
277.890	45931
277.950	29676
278.009	80852
278.069	36025
278.128	32822
278.188	51370
278.248	23913
278.307	49495
278.367	35460
278.426	11283
278.486	8234
278.545	7104
278.605	6424
278.664	6270
278.724	6921
278.783	15974
278.843	40107
278.902	15087
278.962	9737
279.021	10334
279.081	12326
279.140	12367
279.199	10960
279.259	11288
279.318	11819
279.378	16170
279.437	27626
279.496	79738
279.556	179966
279.615	159293
279.675	52876
279.734	30506
279.793	40053
279.853	63388
279.912	28253
279.971	16472
280.031	15361
280.090	23806
280.149	45185
280.208	35446
280.268	118301
280.327	140193
280.386	40519
280.445	28222
280.505	26622
280.564	13914
280.623	11400
280.682	14726
280.742	23486
280.801	10061
280.860	7378
280.919	6551
280.978	5898
281.037	6196
281.097	4756
281.156	6532
281.215	6303
281.274	7863
281.333	24447
281.392	22119
281.451	7247
281.510	6657
281.569	5529
281.628	5412
281.688	5689
281.747	5709
281.806	6309
281.865	5319
281.924	4810
281.983	5760
282.042	3828
282.101	4093
282.160	4340
282.219	4769
282.278	5741
282.337	15002
282.396	12711
282.454	6112
282.513	8279
282.572	23637
282.631	17133
282.690	6720
282.749	5898
282.808	7098
282.867	6658
282.926	7509
282.985	4644
283.043	4092
283.102	5221
283.161	6410
283.220	11249
283.279	26297
283.338	10449
283.396	6365
283.455	7214
283.514	7319
283.573	11564
283.631	9696
283.690	6658
283.749	6919
283.808	13307
283.866	15584
283.925	7807
283.984	7863
284.043	9583
284.101	10685
284.160	8878
284.219	9399
284.277	10194
284.336	14190
284.395	34248
284.453	33150
284.512	15689
284.570	19980
284.629	19817
284.688	19678
284.746	22353
284.805	25976
284.863	32229
284.922	42390
284.981	50935
285.039	74191
285.098	115619
285.156	196042
285.215	233190
285.273	230860
285.332	215331
285.390	142782
285.449	94571
285.507	66818
285.566	50125
285.624	38998
285.683	30871
285.741	23118
285.799	20735
285.858	18262
285.916	15833
285.975	13671
286.033	11097
286.091	10747
286.150	9893
286.208	9505
286.267	10061
286.325	9708
286.383	14045
286.442	12835
286.500	7781
286.558	7817
286.616	7431
286.675	9518
286.733	8837
286.791	7513
286.850	8413
286.908	9381
286.966	15813
287.024	8575
287.083	6483
287.141	6361
287.199	6489
287.257	8622
287.315	7387
287.374	7142
287.432	15146
287.490	12182
287.548	7294
287.606	6693
287.664	6158
287.723	8534
287.781	10365
287.839	6976
287.897	7212
287.955	9999
288.013	13974
288.071	29012
288.129	89529
288.187	234274
288.245	125376
288.303	42174
288.361	24962
288.419	18150
288.477	13496
288.535	10497
288.593	8636
288.651	7395
288.709	6086
288.767	5229
288.825	5278
288.883	5339
288.941	4764
288.999	4628
289.057	4830
289.115	3654
289.173	4532
289.231	3612
289.289	5710
289.346	4670
289.404	5442
289.462	9360
289.520	9116
289.578	5305
289.636	3814
289.694	4554
289.751	3878
289.809	3999
289.867	4644
289.925	5989
289.983	6789
290.040	4505
290.098	3785
290.156	5555
290.214	6467
290.271	4108
290.329	4051
290.387	3544
290.444	4008
290.502	3184
290.560	3258
290.617	3566
290.675	3722
290.733	3122
290.790	5212
290.848	3773
290.906	4004
290.963	4714
291.021	3955
291.078	3645
291.136	4272
291.194	10781
291.251	26796
291.309	9967
291.366	5242
291.424	4588
291.481	5100
291.539	5745
291.596	4732
291.654	3155
291.711	3172
291.769	3519
291.826	8642
291.884	6906
291.941	4154
291.999	3962
292.056	4840
292.114	5103
292.171	3106
292.228	4508
292.286	5202
292.343	9055
292.401	11380
292.458	8024
292.515	5479
292.573	7297
292.630	6361
292.687	5472
292.745	5173
292.802	5921
292.859	14774
292.917	28655
292.974	19075
293.031	7451
293.089	5357
293.146	4834
293.203	4353
293.260	4150
293.318	4572
293.375	7355
293.432	5984
293.489	4256
293.546	4191
293.604	7071
293.661	16796
293.718	46650
293.775	25808
293.832	13333
293.889	11329
293.947	10955
294.004	7984
294.061	8928
294.118	13878
294.175	27772
294.232	32238
294.289	16529
294.346	8326
294.403	8189
294.460	6462
294.517	5977
294.574	5606
294.631	5314
294.688	7160
294.745	13990
294.802	46372
294.859	52363
294.916	22342
294.973	13747
295.030	10389
295.087	9201
295.144	6829
295.201	6823
295.258	5277
295.315	6547
295.372	17901
295.429	37954
295.486	18258
295.542	10081
295.599	17800
295.656	33679
295.713	24791
295.770	34235
295.827	15803
295.883	8804
295.940	7231
295.997	12388
296.054	12576
296.111	6375
296.167	5058
296.224	5533
296.281	5024
296.338	3923
296.394	4738
296.451	6426
296.508	14424
296.564	30940
296.621	21578
296.678	38959
296.734	61341
296.791	25740
296.848	13104
296.904	13741
296.961	26856
297.018	40101
297.074	32256
297.131	13593
297.187	10572
297.244	14283
297.301	35838
297.357	70808
297.414	28668
297.470	12479
297.527	8299
297.583	7807
297.640	7151
297.696	5804
297.753	5425
297.809	5510
297.866	3112
297.922	4075
297.979	4301
298.035	5766
298.092	8877
298.148	22342
298.204	25306
298.261	12707
298.317	18711
298.374	48767
298.430	32957
298.486	14365
298.543	11687
298.599	10774
298.656	14099
298.712	19673
298.768	39055
298.824	31081
298.881	12972
298.937	8281
298.993	6716
299.050	8789
299.106	8406
299.162	6714
299.218	8349
299.275	6820
299.331	7634
299.387	13411
299.443	42428
299.500	56784
299.556	27015
299.612	13291
299.668	12148
299.724	18032
299.780	20846
299.837	11437
299.893	14140
299.949	38458
300.005	52887
300.061	40164
300.117	66349
300.173	36912
300.229	17125
300.285	17751
300.341	22013
300.397	12720
300.453	8274
300.510	7878
300.566	8942
300.622	12012
300.678	30376
300.734	54200
300.790	41296
300.845	47653
300.901	35412
300.957	46613
301.013	36417
301.069	15723
301.125	10462
301.181	11250
301.237	9482
301.293	6798
301.349	6019
301.405	6745
301.461	7575
301.516	11304
301.572	9615
301.628	14539
301.684	13929
301.740	17805
301.796	31258
301.851	21522
301.907	31210
301.963	33746
302.019	46348
302.074	114929
302.130	126890
302.186	63967
302.242	26782
302.297	18267
302.353	16129
302.409	27875
302.464	28531
302.520	21174
302.576	43205
302.631	53439
302.687	32449
302.743	14965
302.798	9404
302.854	8194
302.910	8119
302.965	9560
303.021	16945
303.076	17125
303.132	18563
303.187	23342
303.243	14010
303.299	7229
303.354	6118
303.410	6719
303.465	6139
303.521	5507
303.576	6282
303.632	8533
303.687	13196
303.743	37881
303.798	36738
303.853	16502
303.909	9119
303.964	8490
304.020	11385
304.075	18925
304.130	16954
304.186	28244
304.241	30449
304.297	24432
304.352	13025
304.358	12603
304.407	9177
304.449	8701
304.463	8550
304.518	8985
304.539	8521
304.573	7770
304.629	8745
304.630	8808
304.684	12146
304.720	22259
304.739	27290
304.794	47438
304.811	40903
304.850	25255
304.902	12084
304.905	11242
304.960	8363
304.992	7722
305.015	7274
305.071	8534
305.083	8393
305.126	7863
305.173	6271
305.181	6015
305.236	4784
305.264	5057
305.292	5355
305.347	7434
305.354	7690
305.402	9344
305.445	8868
305.457	8717
305.512	9903
305.535	10174
305.567	10502
305.622	11205
305.626	11432
305.678	17383
305.716	31305
305.733	36152
305.788	47641
305.807	41289
305.843	30652
305.897	36632
305.898	36666
305.953	41564
305.988	28385
306.008	21237
306.063	13816
306.078	12656
306.118	9834
306.168	7408
306.173	7224
306.228	5651
306.259	5368
306.283	5106
306.338	4390
306.349	4558
306.393	5417
306.440	5619
306.448	5622
306.503	6644
306.530	6760
306.558	7739
306.613	15011
306.620	16404
306.668	26930
306.711	37429
306.723	38685
306.778	33760
306.801	26281
306.833	17350
306.888	9305
306.892	8994
306.943	6764
306.982	5497
306.997	5071
307.052	5744
307.072	5766
307.107	5811
307.162	6545
307.163	6575
307.217	9335
307.253	10030
307.272	10189
307.327	12239
307.343	11690
307.381	10653
307.434	10052
307.436	10191
307.491	16608
307.524	24245
307.546	27278
307.600	32904
307.614	30021
307.655	19270
307.704	11014
307.710	10554
307.765	9717
307.795	11482
307.819	13050
307.874	18684
307.885	18874
307.929	18027
307.975	15546
307.984	15672
308.038	20200
308.065	24947
308.093	41793
308.148	85169
308.156	95508
308.202	147750
308.246	186234
308.257	184030
308.312	105437
308.336	75637
308.366	56812
308.421	38291
308.426	36529
308.475	23553
308.517	16628
308.530	15363
308.585	13149
308.607	12472
308.639	12002
308.694	12511
308.697	12623
308.748	17287
308.787	23127
308.803	23717
308.857	21781
308.877	19818
308.912	18229
308.967	18131
308.967	18182
309.021	26038
309.058	33607
309.076	41434
309.130	70579
309.148	82112
309.185	135642
309.238	223591
309.239	224187
309.293	252820
309.328	239165
309.348	211729
309.402	111983
309.418	87284
309.457	62542
309.508	41106
309.511	40572
309.566	40257
309.598	41999
309.620	49807
309.674	75010
309.688	81964
309.729	79717
309.778	66544
309.783	64972
309.837	43972
309.868	33992
309.892	35848
309.946	44578
309.959	48128
310.001	58678
310.049	68400
310.055	66436
310.109	40553
310.139	25928
310.163	20491
310.218	12779
310.229	11583
310.272	9330
310.319	7359
310.326	7145
310.381	6230
310.409	5942
310.435	5685
310.489	5073
310.499	5035
310.543	4959
310.589	5003
310.598	4998
310.652	5017
310.679	4991
310.706	4664
310.760	3877
310.769	3787
310.814	3736
310.859	3856
310.868	3924
310.923	4221
310.948	4484
310.977	4690
311.031	4896
311.038	4953
311.085	4984
311.128	4780
311.139	4714
311.193	4625
311.218	4569
311.247	4412
311.301	3993
311.308	3970
311.356	4109
311.398	4225
311.410	4161
311.464	3805
311.488	3677
311.518	3687
311.572	3690
311.578	3702
311.626	5281
311.668	6849
311.680	6684
311.734	5650
311.758	5226
311.788	5114
311.842	4957
311.847	4952
311.896	6022
311.937	7022
311.950	6931
312.004	6578
312.027	6392
312.058	5500
312.112	3983
312.117	3846
312.165	3843
312.207	3874
312.297	5765
312.386	4773
312.476	6040
312.566	11801
312.656	6180
312.745	3685
312.835	3972
312.925	3845
313.015	4509
313.104	4149
313.194	4129
313.284	4068
313.374	6649
313.463	6106
313.553	4538
313.643	4141
313.732	4094
313.822	3603
313.912	4694
314.001	6079
314.091	5090
314.180	6080
314.270	7521
314.360	7277
314.449	6417
314.539	4205
314.628	4302
314.718	4614
314.808	5084
314.897	5360
314.987	5579
315.076	6502
315.166	7553
315.255	5994
315.345	6391
315.434	5884
315.524	5691
315.613	6703
315.703	10237
315.792	16600
315.881	50638
315.971	17164
316.060	11854
316.150	11437
316.239	10447
316.328	5726
316.418	4614
316.507	5667
316.597	6618
316.686	6118
316.775	7706
316.865	10767
316.954	5214
317.043	4583
317.133	4624
317.222	5300
317.311	4046
317.400	3976
317.490	7192
317.579	8029
317.668	7450
317.757	11424
317.847	25618
317.936	87076
318.025	32741
318.114	19742
318.203	12300
318.293	13469
318.382	27248
318.471	20469
318.560	24319
318.649	33271
318.738	8174
318.828	7904
318.917	8177
319.006	7908
319.095	15152
319.184	42925
319.273	28700
319.362	18085
319.451	6633
319.540	6552
319.629	14371
319.718	23621
319.807	10560
319.896	16277
319.985	55138
320.074	22285
320.163	6027
320.252	8301
320.341	7439
320.430	6620
320.519	12563
320.608	7364
320.697	6390
320.786	6218
320.875	9491
320.964	11199
321.053	18061
321.142	23503
321.230	23963
321.319	17562
321.408	39977
321.497	17233
321.586	17979
321.675	13317
321.764	15431
321.852	10419
321.941	24038
322.030	16586
322.119	16637
322.207	40258
322.296	20115
322.385	14146
322.474	20229
322.562	52364
322.651	25329
322.740	20064
322.829	25070
322.917	17090
323.006	13804
323.095	13739
323.183	7985
323.272	13274
323.361	19559
323.449	42009
323.538	15836
323.626	31779
323.715	18629
323.804	8487
323.892	26682
323.981	18820
324.069	6965
324.158	14275
324.246	13210
324.335	9798
324.424	16026
324.512	7306
324.601	10722
324.689	19926
324.778	35083
324.866	15022
324.954	5199
325.043	6364
325.131	9054
325.220	11845
325.308	13491
325.397	10565
325.485	8231
325.574	5365
325.662	4873
325.750	5552
325.839	5504
325.927	4898
326.015	4887
326.104	5338
326.192	7175
326.280	4346
326.369	4408
326.457	8077
326.545	13309
326.634	5843
326.722	3428
326.810	4487
326.898	4978
326.987	6172
327.075	11281
327.163	10947
327.251	6340
327.340	15554
327.428	20747
327.516	5897
327.604	5369
327.692	4512
327.781	4258
327.869	6194
327.957	4850
328.045	6333
328.133	3582
328.221	3742
328.309	4133
328.397	3951
328.485	5816
328.574	9182
328.662	28738
328.750	12181
328.838	4626
328.926	4209
329.014	3845
329.102	5812
329.190	12613
329.278	8998
329.366	4041
329.454	3516
329.542	2968
329.630	3454
329.718	4358
329.806	5106
329.893	5289
329.981	6280
330.069	13417
330.157	44981
330.245	123401
330.333	63528
330.421	11987
330.509	10818
330.597	32996
330.684	19466
330.772	6839
330.860	6506
330.948	7921
331.036	4755
331.123	3069
331.211	3726
331.299	4002
331.387	8044
331.475	13011
331.562	5560
331.650	3131
331.738	3063
331.825	4172
331.913	3237
332.001	3166
332.089	3991
332.176	6936
332.264	12766
332.352	9345
332.439	5712
332.527	4169
332.614	3070
332.702	4550
332.790	3691
332.877	7676
332.965	15693
333.052	8104
333.140	9750
333.228	23930
333.315	7534
333.403	4330
333.490	9331
333.578	11916
333.665	34327
333.753	14479
333.840	4479
333.928	5136
334.015	10406
334.103	16840
334.190	48441
334.278	15011
334.365	9721
334.452	9310
334.540	6064
334.627	6385
334.715	8809
334.802	16513
334.889	52014
334.977	56518
335.064	16803
335.151	8796
335.239	6965
335.326	8563
335.413	28366
335.501	35877
335.588	7934
335.675	6019
335.762	8508
335.850	11132
335.937	12316
336.024	24252
336.111	68264
336.199	40160
336.286	13250
336.373	6534
336.460	4728
336.547	5117
336.635	5742
336.722	5056
336.809	4278
336.896	6702
336.983	18791
337.070	38971
337.157	54580
337.245	30697
337.332	19903
337.419	4439
337.506	3970
337.593	4382
337.680	11848
337.767	32893
337.854	10664
337.941	11291
338.028	11897
338.115	4683
338.202	6397
338.289	9977
338.376	29955
338.463	10788
338.550	19253
338.637	20129
338.724	7186
338.811	8959
338.898	3336
338.984	3662
339.071	4591
339.158	6213
339.245	15791
339.332	8968
339.419	6934
339.506	6720
339.593	2598
339.679	4196
339.766	3871
339.853	5536
339.940	11273
340.027	4190
340.113	5063
340.200	7061
340.287	4307
340.374	6112
340.460	10475
340.547	5255
340.634	8629
340.720	32055
340.807	16618
340.894	5405
340.980	3831
341.067	3564
341.154	5054
341.240	7408
341.327	16200
341.414	6390
341.500	7097
341.587	4959
341.674	4586
341.760	10503
341.847	11996
341.933	4338
342.020	1934
342.106	2543
342.193	4550
342.279	9042
342.366	6305
342.452	11561
342.539	6752
342.625	15239
342.712	34194
342.798	14727
342.885	5591
342.971	2539
343.058	1832
343.144	3336
343.230	3497
343.317	4443
343.403	3164
343.490	2886
343.576	2561
343.662	4165
343.749	4380
343.835	6457
343.921	12664
344.008	67306
344.094	138253
344.180	30691
344.267	12637
344.353	38280
344.439	35309
344.525	16113
344.612	6674
344.698	5970
344.784	3847
344.870	3708
344.957	4260
345.043	6946
345.129	4225
345.215	10950
345.301	6723
345.387	4956
345.474	2425
345.560	3078
345.646	2739
345.732	3201
345.818	4940
345.904	4723
345.990	4603
346.076	4570
346.162	7150
346.249	5526
346.335	3253
346.421	4469
346.507	17893
346.593	54472
346.679	11989
346.765	5245
346.851	5327
346.937	5116
347.023	3788
347.108	4761
347.194	4012
347.280	3804
347.366	6672
347.452	20348
347.538	69800
347.624	48973
347.710	35057
347.796	6247
347.882	3851
347.967	4211
348.053	4120
348.139	3330
348.225	3028
348.311	4098
348.397	3492
348.482	5678
348.568	5079
348.654	4103
348.740	9246
348.825	7878
348.911	10090
348.997	32885
349.083	58657
349.168	9839
349.254	5406
349.340	5487
349.425	3861
349.511	5506
349.597	6476
349.682	12326
349.768	40561
349.854	17541
349.939	3530
350.025	2902
350.110	3360
350.196	3083
350.282	2397
350.367	3139
350.453	4468
350.538	4186
350.624	5163
350.709	4752
350.795	2630
350.880	3448
350.966	4450
351.051	5298
351.137	3830
351.222	4281
351.308	13971
351.393	36047
351.479	10156
351.564	3818
351.649	4470
351.735	3010
351.820	3297
351.906	4072
351.991	5304
352.076	23384
352.162	32760
352.247	7306
352.332	5434
352.418	10330
352.503	14043
352.588	53757
352.673	39361
352.759	8418
352.844	4931
352.929	6119
353.014	7861
353.100	5654
353.185	11538
353.270	13686
353.355	13308
353.441	4142
353.526	4342
353.611	11079
353.696	11758
353.781	8369
353.866	3847
353.952	5358
354.037	11591
354.122	25001
354.207	21785
354.292	8357
354.377	3978
354.462	3956
354.547	5220
354.632	6022
354.717	9023
354.802	12933
354.887	5428
354.972	4378
355.057	3344
355.142	2468
355.227	4631
355.312	7929
355.397	17675
355.482	39558
355.567	18441
355.652	14490
355.737	15251
355.822	47191
355.907	35625
355.991	7453
356.076	4416
356.161	3827
356.246	3798
356.331	5160
356.416	12104
356.501	74221
356.585	70344
356.670	10744
356.755	9419
356.840	12806
356.924	58762
357.009	174851
357.094	61750
357.179	15486
357.263	10858
357.348	9468
357.433	9325
357.517	9412
357.602	7334
357.687	7609
357.771	15114
357.856	46343
357.941	25174
358.025	44289
358.110	168370
358.195	74149
358.279	12588
358.364	10440
358.448	34353
358.533	87305
358.617	60925
358.702	61563
358.787	21307
358.871	13183
358.956	12029
359.040	4105
359.125	4248
359.209	6295
359.294	22502
359.378	36675
359.462	13331
359.547	6825
359.631	3767
359.716	3418
359.800	4074
359.885	6118
359.969	3872
360.053	4264
360.138	4038
360.222	5533
360.306	12415
360.391	9678
360.475	23804
360.559	47311
360.644	34439
360.728	23817
360.812	43481
360.896	107049
360.981	41950
361.065	20531
361.149	7506
361.233	7274
361.318	6337
361.402	7314
361.486	6871
361.570	4448
361.654	6890
361.739	17578
361.823	73609
361.907	105499
361.991	19989
362.075	12920
362.159	25082
362.243	19715
362.327	26712
362.411	36269
362.495	16120
362.580	8802
362.664	7325
362.748	6965
362.832	9520
362.916	18391
363.000	60896
363.084	138079
363.168	139861
363.252	32963
363.336	13002
363.420	14774
363.503	41097
363.587	42974
363.671	11500
363.755	9484
363.839	13716
363.923	8062
364.007	14790
364.091	16219
364.175	20823
364.258	75894
364.342	80980
364.426	132799
364.510	68393
364.594	24684
364.677	26251
364.761	97265
364.845	64180
364.929	24312
365.013	18389
365.096	15832
365.180	17540
365.264	19298
365.347	62249
365.431	25679
365.515	8331
365.598	5560
365.682	5777
365.766	6707
365.849	8093
365.933	6432
366.017	8730
366.100	4553
366.184	2910
366.267	5367
366.351	4138
366.435	3245
366.518	3445
366.602	3813
366.685	4581
366.769	5824
366.852	7613
366.936	13205
367.019	8959
367.103	5562
367.186	9072
367.270	4612
367.353	3382
367.436	5170
367.520	3825
367.603	6107
367.687	7828
367.770	15498
367.853	10474
367.937	29813
368.020	47759
368.104	12176
368.187	12378
368.270	17188
368.353	15315
368.437	13724
368.520	21091
368.603	17824
368.687	35149
368.770	61223
368.853	15452
368.936	12832
369.020	11098
369.103	5202
369.186	4645
369.269	5729
369.352	10794
369.436	13518
369.519	8787
369.602	4684
369.685	6638
369.768	5966
369.851	5088
369.934	4015
370.018	5736
370.101	12596
370.184	10740
370.267	7657
370.350	12944
370.433	19664
370.516	54862
370.599	68025
370.682	22351
370.765	36368
370.848	45074
370.931	75947
371.014	25776
371.097	6484
371.180	6729
371.263	5404
371.346	3781
371.429	5939
371.511	5889
371.594	9452
371.677	13013
371.760	13210
371.843	16417
371.926	70105
372.009	144224
372.091	49032
372.174	32777
372.257	72609
372.340	28692
372.423	18856
372.505	19398
372.588	11047
372.671	27410
372.754	76987
372.836	36611
372.919	21465
373.002	36001
373.085	14975
373.167	16208
373.250	35743
373.332	73732
373.415	99424
373.498	187777
373.580	68858
373.663	108082
373.746	130471
373.828	29233
373.911	12794
373.993	12167
374.076	35714
374.159	30693
374.241	20960
374.324	65764
374.406	43424
374.489	60757
374.571	157506
374.654	62661
374.736	34006
374.819	96951
374.901	137749
374.983	133476
375.066	24689
375.148	11078
375.231	30223
375.313	53255
375.395	21535
375.478	7705
375.560	6829
375.643	8944
375.725	30947
375.807	119257
375.890	76944
375.972	22746
376.054	16164
376.136	17499
376.219	11144
376.301	37630
376.383	101997
376.465	37714
376.548	23820
376.630	30752
376.712	87747
376.794	38375
376.877	6763
376.959	3898
377.041	6094
377.123	8101
377.205	8742
377.287	2573
377.369	4319
377.452	5208
377.534	4317
377.616	4383
377.698	4609
377.780	3558
377.862	5046
377.944	5208
378.026	2877
378.108	4063
378.190	3941
378.272	4113
378.354	2949
378.436	3186
378.518	5906
378.600	17248
378.682	18242
378.764	47578
378.846	34088
378.928	9959
379.010	15439
379.091	8360
379.173	5121
379.255	3519
379.337	6969
379.419	24291
379.501	66328
379.583	24550
379.664	7704
379.746	16890
379.828	46884
379.910	63816
379.991	52770
380.073	10243
380.155	6249
380.237	5266
380.318	4498
380.400	5388
380.482	11215
380.564	16333
380.645	18133
380.727	16864
380.809	10014
380.890	6989
380.972	5407
381.053	6025
381.135	7170
381.217	17581
381.298	48524
381.380	23290
381.461	21386
381.543	90061
381.624	103017
381.706	19733
381.787	11033
381.869	13314
381.951	43514
382.032	148479
382.113	88170
382.195	20362
382.276	16924
382.358	35422
382.439	83150
382.521	94176
382.602	138266
382.684	66803
382.765	123744
382.846	163422
382.928	273954
383.009	147971
383.090	110524
383.172	367397
383.253	497644
383.334	172196
383.416	143300
383.497	75190
383.578	47859
383.659	94892
383.741	317126
383.822	687227
383.903	348359
383.984	124299
384.066	162674
384.147	97383
384.228	24937
384.309	20185
384.390	16549
384.471	13226
384.553	12461
384.634	15219
384.715	15624
384.796	10238
384.877	12869
384.958	47376
385.039	52920
385.120	19835
385.201	10740
385.282	10881
385.363	11240
385.444	11983
385.525	22065
385.606	67057
385.687	52800
385.768	14238
385.849	17840
385.930	74577
386.011	118647
386.092	31558
386.173	10001
386.254	7254
386.335	7991
386.416	8939
386.496	29863
386.577	45704
386.658	16441
386.739	9539
386.820	8943
386.901	7247
386.981	7999
387.062	6826
387.143	13646
387.224	47662
387.304	41807
387.385	16476
387.466	10114
387.547	12612
387.627	11326
387.708	21080
387.789	82790
387.869	95389
387.950	26261
388.031	6380
388.111	4580
388.192	10823
388.273	13798
388.353	9840
388.434	8665
388.514	18279
388.595	75286
388.676	94307
388.756	45179
388.837	44432
388.917	26176
388.998	6020
389.078	6762
389.159	5873
389.239	4667
389.320	10952
389.400	8431
389.480	18579
389.561	48579
389.641	23464
389.722	9708
389.802	14941
389.883	21588
389.963	57621
390.043	30071
390.124	8371
390.204	18635
390.284	53736
390.365	31555
390.445	30197
390.525	84561
390.605	77537
390.686	28660
390.766	12732
390.846	7521
390.927	4708
391.007	5234
391.087	6397
391.167	9201
391.247	6519
391.328	8556
391.408	10372
391.488	7854
391.568	3889
391.648	7633
391.728	12116
391.808	11587
391.888	12520
391.969	29633
392.049	44566
392.129	19241
392.209	23687
392.289	57680
392.369	29325
392.449	18946
392.529	15128
392.609	15445
392.689	21113
392.769	58947
392.849	49037
392.929	37194
393.009	80606
393.089	70908
393.169	81250
393.248	242006
393.328	704924
393.408	701576
393.488	230371
393.568	75587
393.648	37936
393.728	24094
393.807	17454
393.887	16078
393.967	13833
394.047	14167
394.127	16199
394.206	23622
394.286	73281
394.366	304751
394.446	307288
394.525	69944
394.605	20245
394.685	16204
394.764	25242
394.844	40882
394.924	31981
395.003	13931
395.083	10493
395.163	9497
395.242	8706
395.322	9276
395.402	6281
395.481	10302
395.561	20170
395.640	52371
395.720	52082
395.799	54324
395.879	38120
395.958	30854
396.038	107197
396.117	393915
396.197	404945
396.276	114224
396.356	39541
396.435	29409
396.515	25901
396.594	35096
396.673	68686
396.753	244126
396.832	636286
396.912	460517
396.991	124036
397.070	40232
397.150	20715
397.229	17307
397.308	26567
397.388	44649
397.467	21145
397.546	10001
397.625	6402
397.705	10445
397.784	10292
397.863	7516
397.942	5800
398.022	5706
398.101	14305
398.180	38783
398.259	18160
398.338	7898
398.417	6982
398.497	4044
398.576	5551
398.655	4446
398.734	3947
398.813	4289
398.892	13609
398.971	41710
399.050	19262
399.129	4117
399.208	3937
399.287	3509
399.366	2598
399.445	2533
399.524	4910
399.603	3137
399.682	8136
399.761	16301
399.840	46100
399.919	32204
399.998	5407
400.077	2092
400.156	2492
400.235	5207
400.313	2404
400.392	4235
400.471	25852
400.550	39145
400.629	9652
400.708	4876
400.786	3610
400.865	8489
400.944	8930
401.023	6166
401.102	2258
401.180	3053
401.259	1978
401.338	2982
401.416	4160
401.495	4590
401.574	3526
401.652	2493
401.731	4739
401.810	3965
401.888	2913
401.967	2277
402.046	4343
402.124	5346
402.203	5468
402.281	4188
402.360	6640
402.438	12917
402.517	6536
402.596	3558
402.674	2793
402.753	3145
402.831	3112
402.910	4552
402.988	20315
403.066	71411
403.145	38184
403.223	23297
403.302	60503
403.380	45330
403.459	46192
403.537	17230
403.615	6371
403.694	1939
403.772	3683
403.850	2482
403.929	2324
404.007	2288
404.085	9229
404.164	11072
404.242	3539
404.320	4801
404.398	8909
404.477	25028
404.555	111811
404.633	90478
404.711	15837
404.789	4790
404.868	4403
404.946	2885
405.024	2295
405.102	2559
405.180	1332
405.258	960
405.336	2590
405.415	2272
405.493	7540
405.571	7872
405.649	2588
405.727	1698
405.805	4566
405.883	4979
405.961	4704
406.039	3197
406.117	1704
406.195	6374
406.273	26133
406.351	96544
406.429	51406
406.507	7144
406.585	3140
406.663	3749
406.740	4298
406.818	3863
406.896	1852
406.974	4100
407.052	8494
407.130	57841
407.208	75257
407.285	14003
407.363	3083
407.441	3151
407.519	2059
407.596	3368
407.674	6863
407.752	14318
407.830	13666
407.907	8277
407.985	3557
408.063	2315
408.141	1741
408.218	4102
408.296	5195
408.373	4194
408.451	4449
408.529	4170
408.606	1256
408.684	2091
408.762	1524
408.839	1080
408.917	1448
408.994	2316
409.072	1969
409.149	2723
409.227	6533
409.304	8626
409.382	7165
409.459	7394
409.537	11705
409.614	10851
409.692	6594
409.769	6620
409.846	11621
409.924	16696
410.001	10667
410.079	6724
410.156	4886
410.233	4344
410.311	3807
410.388	3447
410.465	4007
410.543	3999
410.620	3324
410.697	3189
410.775	4524
410.852	1314
410.929	4826
411.006	6024
411.083	3927
411.161	9096
411.238	9048
411.315	4063
411.392	2445
411.469	5778
411.547	5847
411.624	2229
411.701	2540
411.778	3590
411.855	7417
411.932	3328
412.009	2760
412.086	3312
412.163	2646
412.240	3485
412.317	3834
412.394	3487
412.471	2116
412.548	1753
412.625	1526
412.702	3435
412.779	5364
412.856	3645
412.933	1745
413.010	1749
413.087	5404
413.164	23047
413.241	32307
413.318	7961
413.395	4859
413.471	7598
413.548	3207
413.625	2055
413.702	2091
413.779	2354
413.855	1189
413.932	520
414.009	865
414.086	1734
414.162	1368
414.239	4276
414.316	20828
414.393	48406
414.469	16052
414.546	1772
414.623	1003
414.699	1588
414.776	2630
414.853	1515
414.929	2325
415.006	1208
415.082	1333
415.159	1810
415.236	2163
415.312	2039
415.389	5194
415.465	6108
415.542	2699
415.618	1994
415.695	4660
415.771	2154
415.848	1905
415.924	1782
416.000	1667
416.077	1933
416.153	501
416.230	-347
416.306	258
416.383	493
416.459	1915
416.535	1045
416.612	676
416.688	1421
416.764	1439
416.841	1028
416.917	690
416.993	1409
417.069	2527
417.146	3404
417.222	4477
417.298	2779
417.374	2027
417.451	2556
417.527	3054
417.603	3541
417.679	1916
417.755	2139
417.831	734
417.908	315
417.984	660
418.060	785
418.136	5655
418.212	7896
418.288	3022
418.364	1909
418.440	983
418.516	4367
418.592	4032
418.668	9425
418.744	14748
418.820	10587
418.896	2429
418.972	783
419.048	2174
419.124	7474
419.200	4594
419.276	2025
419.352	-239
419.428	1384
419.504	2138
419.579	2920
419.655	1848
419.731	2482
419.807	10727
419.883	17493
419.959	11972
420.034	3197
420.110	8314
420.186	31078
420.262	23592
420.337	4231
420.413	3712
420.489	2408
420.565	2579
420.640	1020
420.716	3068
420.792	1782
420.867	2682
420.943	2244
421.019	6146
421.094	4433
421.170	2754
421.245	2346
421.321	3277
421.397	3677
421.472	5720
421.548	9752
421.623	9191
421.699	7615
421.774	6940
421.850	5675
421.925	10132
422.001	10704
422.076	10165
422.152	12753
422.227	19519
422.302	24913
422.378	36167
422.453	68408
422.529	158783
422.604	359795
422.679	459069
422.755	349658
422.830	162419
422.905	71799
422.981	40625
423.056	25508
423.131	19093
423.207	14918
423.282	13383
423.357	16256
423.432	12219
423.508	11371
423.583	19782
423.658	13973
423.733	6883
423.808	7320
423.883	7524
423.959	7503
424.034	6769
424.109	6024
424.184	3101
424.259	3329
424.334	1856
424.409	2612
424.484	2789
424.559	3301
424.634	3490
424.709	4502
424.784	4469
424.859	3036
424.934	4820
425.009	23194
425.084	36472
425.159	11793
425.234	3093
425.309	2825
425.384	13143
425.459	20617
425.534	5914
425.609	1945
425.683	1906
425.758	1771
425.833	2369
425.908	3595
425.983	14041
426.058	37658
426.132	14981
426.207	3090
426.282	4531
426.357	2154
426.431	1337
426.506	2401
426.581	1151
426.655	2234
426.730	2499
426.805	592
426.879	2688
426.954	2216
427.029	6709
427.103	35389
427.178	85744
427.253	33307
427.327	4200
427.402	6412
427.476	20211
427.551	8996
427.625	3527
427.700	2684
427.774	1247
427.849	2840
427.923	1488
427.998	1704
428.072	3066
428.147	7879
428.221	37916
428.296	110236
428.370	53667
428.444	6982
428.519	4623
428.593	8754
428.667	7692
428.742	8782
428.816	13961
428.890	66803
428.965	105256
429.039	30225
429.113	10151
429.188	4861
429.262	2722
429.336	6534
429.410	16536
429.485	10418
429.559	6693
429.633	5878
429.707	3671
429.781	12816
429.855	67851
429.930	98577
430.004	36689
430.078	40489
430.152	51842
430.226	141084
430.300	132351
430.374	21772
430.448	7474
430.522	15084
430.596	38073
430.670	33547
430.744	113811
430.818	145904
430.892	28642
430.966	4996
431.040	2232
431.114	1193
431.188	846
431.262	1765
431.336	1310
431.410	4646
431.484	12224
431.557	9651
431.631	1996
431.705	3877
431.779	22524
431.853	98024
431.927	62701
432.000	7961
432.074	2759
432.148	2824
432.222	1352
432.295	1310
432.369	1304
432.443	4058
432.516	33650
432.590	82280
432.664	28041
432.737	3498
432.811	1119
432.885	614
432.958	766
433.032	-225
433.106	-380
433.179	1198
433.253	-23
433.326	894
433.400	174
433.473	809
433.547	-363
433.620	2034
433.694	3742
433.767	3876
433.841	20
433.914	724
433.988	1169
434.061	1125
434.134	459
434.208	-177
434.281	70
434.355	147
434.428	1198
434.501	962
434.575	183
434.648	495
434.721	-283
434.795	93
434.868	459
434.941	-125
435.014	323
435.088	1315
435.161	3244
435.234	5321
435.307	5728
435.381	3422
435.454	3839
435.527	5915
435.600	4906
435.673	4218
435.746	2280
435.819	2379
435.892	1204
435.966	1437
436.039	850
436.112	1437
436.185	389
436.258	414
436.331	138
436.404	293
436.477	97
436.550	-153
436.623	943
436.696	-339
436.769	952
436.842	181
436.915	1212
436.987	1835
437.060	1093
437.133	438
437.206	507
437.279	1142
437.352	380
437.425	366
437.498	2239
437.570	4742
437.643	5348
437.716	976
437.789	831
437.861	3645
437.934	11636
438.007	4637
438.080	934
438.152	2286
438.225	6325
438.298	46271
438.370	116816
438.443	46249
438.516	11226
438.588	2454
438.661	201
438.734	997
438.806	1785
438.879	1492
438.951	3347
439.024	6094
439.096	1558
439.169	671
439.241	1249
439.314	784
439.386	1696
439.459	3146
439.531	5233
439.604	2307
439.676	1364
439.749	1015
439.821	373
439.893	1270
439.966	947
440.038	1937
440.110	2032
440.183	519
440.255	1305
440.327	2724
440.400	18376
440.472	75138
440.544	46653
440.617	6484
440.689	4523
440.761	6057
440.833	8774
440.905	6183
440.978	916
441.050	396
441.122	738
441.194	1076
441.266	611
441.338	1459
441.411	4047
441.483	25563
441.555	34887
441.627	8049
441.699	2907
441.771	1835
441.843	989
441.915	389
441.987	514
442.059	1104
442.131	1938
442.203	3659
442.275	4528
442.347	5143
442.419	10897
442.491	56343
442.563	127478
442.635	47221
442.706	17684
442.778	13113
442.850	3376
442.922	2248
442.994	2626
443.066	3499
443.137	4045
443.209	3919
443.281	6213
443.353	15905
443.425	66347
443.496	223199
443.568	208720
443.640	72882
443.711	14658
443.783	5882
443.855	2969
443.926	2356
443.998	1353
444.070	3200
444.141	2880
444.213	4465
444.285	5952
444.356	4396
444.428	3336
444.499	1435
444.571	1034
444.642	2162
444.714	2062
444.785	4250
444.857	4549
444.928	7963
445.000	6059
445.071	6173
445.143	8834
445.214	8956
445.285	13088
445.357	38457
445.428	145438
445.500	300775
445.571	191874
445.642	104558
445.714	33131
445.785	19773
445.856	9137
445.928	6587
445.999	6340
446.070	4840
446.141	5015
446.213	7285
446.284	3130
446.355	2977
446.426	1172
446.497	2376
446.569	3032
446.640	6243
446.711	4914
446.782	1660
446.853	2174
446.924	2696
446.995	2481
447.066	1964
447.138	2510
447.209	2375
447.280	1535
447.351	468
447.422	1148
447.493	1713
447.564	1896
447.635	3584
447.706	1375
447.777	610
447.847	681
447.918	345
447.989	1332
448.060	2603
448.131	5440
448.202	6480
448.273	4265
448.344	2223
448.414	1084
448.485	947
448.556	1176
448.627	663
448.698	1349
448.768	643
448.839	872
448.910	3443
448.981	3932
449.051	2081
449.122	1067
449.193	133
449.263	1473
449.334	1109
449.405	2402
449.475	7061
449.546	4407
449.616	3523
449.687	3622
449.758	1811
449.828	821
449.899	1042
449.969	1175
450.040	1349
450.110	1930
450.181	2038
450.251	1679
450.322	1408
450.392	1636
450.463	993
450.533	1042
450.604	644
450.674	335
450.744	1104
450.815	1215
450.885	1021
450.955	1456
451.026	991
451.096	407
451.166	1242
451.237	3842
451.307	9309
451.377	4609
451.447	-81
451.518	321
451.588	541
451.658	1217
451.728	1968
451.799	8797
451.869	12583
451.939	3083
452.009	1501
452.079	941
452.149	1223
452.219	2745
452.289	10475
452.360	9216
452.430	2193
452.500	2565
452.570	3573
452.640	6141
452.710	16593
452.780	20780
452.850	15573
452.920	13274
452.990	4836
453.060	2541
453.129	3377
453.199	4477
453.269	13798
453.339	31107
453.409	48467
453.479	41980
453.549	63511
453.619	66843
453.688	31425
453.758	5567
453.828	2307
453.898	2478
453.968	1755
454.037	1287
454.087	898
454.107	715
454.168	1579
454.177	1685
454.247	889
454.249	883
454.316	198
454.330	601
454.386	1988
454.411	3530
454.456	5524
454.492	7532
454.525	9279
454.574	5599
454.595	4057
454.655	2158
454.665	1894
454.734	2054
454.736	2184
454.804	4756
454.817	6244
454.873	10686
454.898	11703
454.943	12990
454.979	8960
455.013	5738
455.060	3700
455.082	3118
455.141	4471
455.152	4517
455.221	9555
455.222	9761
455.291	14043
455.303	12845
455.360	8273
455.384	7488
455.430	6745
455.465	7414
455.499	7377
455.546	10027
455.569	10395
455.627	8228
455.638	8106
455.707	1975
455.708	1995
455.777	1122
455.789	1208
455.846	1666
455.869	1727
455.916	1675
455.950	1596
455.985	1467
456.031	1390
456.054	1308
456.112	1669
456.124	1790
456.193	1560
456.193	1535
456.262	2193
456.274	2455
456.332	3571
456.355	3579
456.401	2911
456.436	2572
456.470	2406
456.516	1654
456.540	1287
456.597	1689
456.609	1788
456.678	1933
456.678	1914
456.747	1016
456.759	974
456.817	1129
456.840	1396
456.886	1638
456.920	1796
456.955	2129
457.001	2127
457.024	2242
457.082	3255
457.093	3395
457.162	5109
457.163	5142
457.232	4784
457.243	4455
457.301	2400
457.324	2036
457.370	1895
457.405	2213
457.439	2597
457.485	2615
457.508	2646
457.566	3348
457.577	3557
457.646	4457
457.647	4502
457.715	9498
457.727	10491
457.784	16822
457.808	21573
457.853	27367
457.889	30903
457.922	29108
457.969	18696
457.991	19321
458.050	26328
458.060	27554
458.129	46837
458.130	47387
458.198	43614
458.211	38795
458.267	19657
458.292	13245
458.336	9368
458.372	9149
458.405	13300
458.453	20134
458.474	25746
458.533	47584
458.543	49304
458.611	75495
458.614	75867
458.680	42490
458.694	32633
458.749	14099
458.775	10041
458.818	6754
458.855	5525
458.887	5022
458.936	4657
458.955	4426
459.016	4033
459.024	4019
459.093	4127
459.097	4135
459.162	3899
459.177	4037
459.230	5446
459.257	6228
459.299	6388
459.338	6098
459.368	6115
459.418	6911
459.437	6629
459.499	4552
459.505	4527
459.574	4684
459.579	4699
459.643	3988
459.659	3992
459.711	4660
459.740	4922
459.780	5082
459.820	5129
459.849	5332
459.900	5954
459.917	5889
459.981	5649
459.986	5662
460.054	5601
460.061	5641
460.123	5720
460.141	5758
460.191	7505
460.222	8659
460.260	9283
460.302	10408
460.328	9843
460.382	7823
460.397	7575
460.462	5954
460.465	5971
460.534	7139
460.543	7309
460.602	14927
460.623	17909
460.671	26358
460.703	34123
460.739	31311
460.783	24906
460.808	20983
460.864	7100
460.876	6102
460.944	5058
460.945	5047
461.013	5019
461.024	5115
461.081	5798
461.104	6063
461.150	5567
461.184	5194
461.218	5283
461.264	5355
461.286	5634
461.345	6006
461.355	5817
461.423	5325
461.425	5298
461.491	5903
461.505	6137
461.559	11283
461.585	13664
461.628	21089
461.665	28240
461.696	30561
461.745	35627
461.764	30626
461.825	11268
461.832	11114
461.901	7021
461.905	6940
461.969	6223
461.985	6270
462.037	6607
462.065	6395
462.105	6601
462.145	7125
462.173	10134
462.225	15919
462.241	17677
462.305	25078
462.310	24331
462.378	12863
462.385	11340
462.446	8244
462.465	7468
462.514	7004
462.545	6860
462.582	6787
462.625	6666
462.650	6290
462.705	5725
462.718	6031
462.785	7192
462.786	7228
462.854	9398
462.865	9814
462.922	12549
462.945	13640
462.990	10201
463.025	7184
463.058	6773
463.104	5877
463.126	5683
463.184	5831
463.194	5992
463.262	6947
463.264	6982
463.330	6941
463.344	6885
463.398	7568
463.424	7893
463.466	7449
463.504	7128
463.533	7492
463.583	8029
463.601	8403
463.663	9513
463.669	9680
463.737	11773
463.743	11952
463.805	17440
463.823	19099
463.873	29068
463.903	35007
463.940	35349
463.982	36556
464.008	29655
464.062	13370
464.076	12439
464.142	6862
464.144	6845
464.211	7294
464.221	7397
464.279	7451
464.301	7378
464.347	8506
464.381	9493
464.414	10410
464.461	11513
464.482	11804
464.540	12824
464.550	12589
464.617	10686
464.620	10593
464.685	11090
464.699	11264
464.753	12832
464.779	13593
464.820	14218
464.859	14685
464.888	14254
464.938	13434
464.956	13705
465.018	14741
465.023	14568
465.091	11940
465.098	11652
465.158	11501
465.177	11427
465.226	11153
465.257	10981
465.293	12210
465.336	13606
465.361	14282
465.416	15825
465.428	16838
465.495	22101
465.496	22225
465.563	36248
465.575	38672
465.631	47269
465.654	50994
465.698	31836
465.734	15333
465.765	13874
465.813	11556
465.833	11352
465.893	11110
465.900	11164
465.968	11627
465.972	11636
466.035	11581
466.052	11519
466.102	12979
466.131	13845
466.170	13199
466.210	12403
466.237	12992
466.290	14072
466.304	14261
466.369	15012
466.372	15079
466.439	16208
466.449	16354
466.506	17891
466.528	18433
466.573	24406
466.607	28803
466.641	40536
466.687	56781
466.708	62628
466.766	78598
466.775	72880
466.842	28768
466.845	26616
466.909	21244
466.925	19976
466.977	18729
467.004	18076
467.044	18804
467.083	19471
467.111	20161
467.163	21355
467.178	21845
467.242	23707
467.245	23650
467.312	21545
467.321	21225
467.379	20815
467.400	20609
467.446	21142
467.480	21454
467.559	19649
467.638	17877
467.717	18604
467.796	19809
467.875	22702
467.955	20291
468.034	30331
468.113	62838
468.192	92048
468.271	26956
468.350	20796
468.429	24936
468.508	25572
468.588	20981
468.667	18268
468.746	18486
468.825	17313
468.904	14562
468.983	17954
469.062	25830
469.141	31438
469.220	15531
469.299	15178
469.378	15654
469.456	19196
469.535	16605
469.614	16869
469.693	16760
469.772	22184
469.851	29491
469.930	20901
470.009	16662
470.088	16874
470.166	21129
470.245	31572
470.324	38482
470.403	26372
470.482	16809
470.560	16840
470.639	17131
470.718	20230
470.797	15804
470.875	18986
470.954	23608
471.033	26978
471.111	12341
471.190	12253
471.269	11862
471.347	12641
471.426	14351
471.505	15795
471.583	16725
471.662	15583
471.740	14275
471.819	14317
471.898	13091
471.976	13884
472.055	13115
472.133	15297
472.212	19694
472.290	20142
472.369	14782
472.447	12915
472.526	11387
472.604	14037
472.683	15061
472.761	15168
472.839	13210
472.918	13735
472.996	13723
473.075	16536
473.153	15609
473.231	13715
473.310	15033
473.388	15866
473.466	13927
473.545	15952
473.623	20525
473.701	20375
473.780	13833
473.858	12838
473.936	17383
474.014	13657
474.093	15496
474.171	20853
474.249	28232
474.327	19291
474.405	12705
474.484	12813
474.562	12278
474.640	13368
474.718	14242
474.796	14722
474.874	13179
474.952	12542
475.030	12058
475.108	14415
475.187	16209
475.265	17177
475.343	24608
475.421	27964
475.499	13848
475.577	14419
475.655	17243
475.733	32978
475.811	54721
475.889	50060
475.966	33030
476.044	14245
476.122	18135
476.200	24743
476.278	18866
476.356	12381
476.434	13764
476.512	17780
476.590	22742
476.667	20874
476.745	13039
476.823	14096
476.901	12360
476.979	13517
477.056	13006
477.134	14433
477.212	14614
477.290	13917
477.367	11432
477.445	11852
477.523	11607
477.601	12299
477.678	11505
477.756	15290
477.834	15920
477.911	12443
477.989	11978
478.066	12856
478.144	14124
478.222	18966
478.299	28780
478.377	27478
478.454	11938
478.532	11766
478.609	11327
478.687	13260
478.764	10883
478.842	13581
478.919	12446
478.997	12755
479.074	11358
479.152	13896
479.229	16183
479.307	11555
479.384	9122
479.461	10281
479.539	11158
479.616	12460
479.694	10677
479.771	12804
479.848	13232
479.926	16820
480.003	17991
480.080	10892
480.157	10685
480.235	10488
480.312	10784
480.389	12784
480.467	20212
480.544	23930
480.621	13195
480.698	12470
480.775	14678
480.853	14702
480.930	10941
481.007	13167
481.084	12865
481.161	14746
481.238	13784
481.315	11162
481.392	10603
481.470	11544
481.547	12063
481.624	11573
481.701	10840
481.778	12826
481.855	13234
481.932	20701
482.009	31349
482.086	23059
482.163	13853
482.240	21260
482.317	38162
482.393	28380
482.470	13411
482.547	12857
482.624	11932
482.701	13701
482.778	12286
482.855	10069
482.932	10624
483.009	10775
483.085	12038
483.162	14980
483.239	14126
483.316	12550
483.393	12223
483.469	12277
483.546	12696
483.623	14733
483.699	11096
483.776	11925
483.853	13687
483.930	19965
484.006	47640
484.083	81319
484.160	38648
484.236	52895
484.313	41697
484.389	32838
484.466	29602
484.543	28193
484.619	29804
484.696	32533
484.772	31280
484.849	32622
484.925	25358
485.002	26522
485.078	27098
485.155	28359
485.231	24551
485.308	24338
485.384	25630
485.461	30683
485.537	47841
485.614	58187
485.690	25568
485.766	23904
485.843	25300
485.919	35261
485.995	36403
486.072	22492
486.148	21556
486.224	22286
486.301	23109
486.377	27295
486.453	27374
486.530	25742
486.606	32610
486.682	36454
486.758	43903
486.835	50615
486.911	38762
486.987	63332
487.063	67394
487.139	85514
487.215	58200
487.292	32093
487.368	27634
487.444	31777
487.520	39596
487.596	41247
487.672	65188
487.748	182434
487.824	276298
487.900	91541
487.976	35584
488.052	31641
488.128	36385
488.204	30245
488.280	25748
488.356	29354
488.432	56862
488.508	85673
488.584	29821
488.660	22781
488.736	23794
488.812	24530
488.888	30733
488.964	38459
489.039	79757
489.115	122935
489.191	71068
489.267	24819
489.343	22982
489.418	19534
489.494	19084
489.570	18163
489.646	20161
489.722	19505
489.797	20551
489.873	32209
489.949	62030
490.024	51421
490.100	18744
490.176	19523
490.251	24534
490.327	30995
490.403	19386
490.478	18567
490.554	15595
490.629	16859
490.705	16526
490.781	18160
490.856	17988
490.932	19824
491.007	19438
491.083	19178
491.158	17272
491.234	23985
491.309	48212
491.385	48839
491.460	17691
491.536	20552
491.611	18856
491.686	21318
491.762	26766
491.837	52813
491.913	84486
491.988	119527
492.063	146108
492.139	41929
492.214	25615
492.289	16411
492.365	15012
492.440	18831
492.515	17766
492.590	17288
492.666	14647
492.741	20566
492.816	28937
492.891	16459
492.967	14177
493.042	13489
493.117	12673
493.192	13140
493.267	14814
493.342	21783
493.418	22781
493.493	14087
493.568	11587
493.643	13487
493.718	16344
493.793	25305
493.868	28015
493.943	18435
494.018	14294
494.093	14200
494.168	13378
494.243	11690
494.318	11803
494.393	12572
494.468	11736
494.543	12926
494.618	14318
494.693	13156
494.768	12085
494.842	13337
494.917	11760
494.992	13534
495.067	11444
495.142	12581
495.217	13237
495.292	14286
495.366	16470
495.441	20794
495.516	25157
495.591	33277
495.665	108186
495.740	256801
495.815	103026
495.890	22208
495.964	16776
496.039	19918
496.114	16779
496.188	18091
496.263	17237
496.338	17102
496.412	18292
496.487	22339
496.561	21633
496.636	23147
496.710	18714
496.785	20427
496.860	23450
496.934	19324
497.009	19280
497.083	18679
497.158	20612
497.232	25577
497.307	27951
497.381	24460
497.455	29724
497.530	36532
497.604	28796
497.679	30686
497.753	46580
497.827	60987
497.902	58488
497.976	62767
498.050	121784
498.125	439188
498.199	422694
498.273	84469
498.348	67766
498.422	54140
498.496	48080
498.570	43784
498.645	34144
498.719	31157
498.793	36759
498.867	52141
498.941	62505
499.016	171890
499.090	463294
499.164	147591
499.238	24071
499.312	21892
499.386	27035
499.460	25623
499.534	23185
499.609	29059
499.683	40238
499.757	37044
499.831	74756
499.905	304793
499.979	266661
500.053	43754
500.127	41314
500.201	32354
500.275	22025
500.349	22721
500.422	25914
500.496	36277
500.570	70549
500.644	172905
500.718	307740
500.792	62768
500.866	21356
500.940	26384
501.013	22255
501.087	23530
501.161	40008
501.235	49378
501.309	95812
501.382	273819
501.456	220252
501.530	51877
501.603	86324
501.677	32920
501.751	16016
501.825	21049
501.898	36868
501.972	107363
502.046	62761
502.119	21358
502.193	48783
502.266	116395
502.340	51458
502.413	50277
502.487	96560
502.561	52998
502.634	18440
502.708	16226
502.781	13877
502.855	13529
502.928	11065
503.002	12809
503.075	10907
503.149	13785
503.222	14036
503.295	15788
503.369	18962
503.442	24819
503.516	76323
503.589	195191
503.662	118047
503.736	41016
503.809	92261
503.882	73154
503.956	113565
504.029	107102
504.102	105866
504.175	147772
504.249	50678
504.322	25568
504.395	19064
504.468	13437
504.542	13042
504.615	10782
504.688	10585
504.761	9788
504.834	13920
504.907	17051
504.980	26974
505.053	14987
505.127	17046
505.200	21303
505.273	18693
505.346	12027
505.419	9725
505.492	10115
505.565	7118
505.638	9069
505.711	7579
505.784	9061
505.857	8955
505.930	10598
506.003	8537
506.076	11809
506.149	14133
506.221	16422
506.294	16093
506.367	41240
506.440	145317
506.513	69062
506.586	17681
506.659	10985
506.731	9516
506.804	12951
506.877	17205
506.950	13347
507.022	9455
507.095	12316
507.168	15866
507.241	10568
507.313	7983
507.386	10561
507.459	14495
507.531	10187
507.604	8287
507.677	9236
507.749	6830
507.822	12361
507.894	21235
507.967	26851
508.040	14918
508.112	14141
508.185	13160
508.257	12598
508.330	19809
508.402	13032
508.475	11617
508.547	13095
508.620	12393
508.692	21071
508.765	12810
508.837	10093
508.909	9730
508.982	10707
509.054	11814
509.127	10384
509.199	8985
509.271	9127
509.344	8434
509.416	9246
509.488	8858
509.560	10207
509.633	10886
509.705	12718
509.777	12264
509.849	17128
509.922	11705
509.994	9960
510.066	9944
510.138	10660
510.210	20448
510.283	19342
510.355	16072
510.427	14920
510.499	14338
510.571	13103
510.643	13656
510.715	22790
510.787	17523
510.859	14595
510.931	15557
511.003	21627
511.076	18638
511.148	11617
511.219	10751
511.291	20540
511.363	21988
511.435	10882
511.507	9324
511.579	11376
511.651	11937
511.723	11581
511.795	10689
511.867	12036
511.939	14173
512.010	26460
512.082	20825
512.154	12025
512.226	12125
512.298	18072
512.369	25391
512.441	21033
512.513	19486
512.585	14852
512.656	16278
512.728	17670
512.800	12813
512.871	13676
512.943	12486
513.015	11205
513.086	13051
513.158	14832
513.230	12994
513.301	20213
513.373	22890
513.444	14951
513.516	12209
513.588	12167
513.659	14360
513.731	17614
513.802	14902
513.874	31199
513.945	51959
514.016	19286
514.088	12813
514.159	13601
514.231	18356
514.302	24318
514.374	17516
514.445	16372
514.516	31941
514.588	23726
514.659	17334
514.730	29546
514.802	23854
514.873	21228
514.944	20745
515.016	18295
515.087	19229
515.158	23037
515.229	30500
515.301	21867
515.372	29654
515.443	18911
515.514	14042
515.585	12014
515.656	13267
515.728	12722
515.799	12663
515.870	13883
515.941	13682
516.012	14770
516.083	19364
516.154	21730
516.225	27323
516.296	27293
516.367	26127
516.438	30866
516.509	37942
516.580	54079
516.651	168742
516.722	619178
516.793	261906
516.864	56856
516.935	53380
517.006	60409
517.077	78780
517.148	171264
517.219	674935
517.289	1035374
517.360	255842
517.431	69424
517.502	28339
517.573	25775
517.643	23920
517.714	26252
517.785	27994
517.856	30647
517.926	38452
517.997	47891
518.068	60972
518.138	80694
518.209	113957
518.280	421048
518.350	1537342
518.421	588082
518.492	77279
518.562	43991
518.633	40185
518.703	40322
518.774	68599
518.845	173916
518.915	173653
518.986	54385
519.056	36614
519.127	51631
519.197	73033
519.268	160429
519.338	92546
519.408	28621
519.479	33141
519.549	23873
519.620	18078
519.690	14658
519.760	14087
519.831	16024
519.901	14635
519.971	12971
520.042	14714
520.112	16103
520.182	18334
520.253	21715
520.323	14955
520.393	22375
520.463	36884
520.534	24412
520.604	52167
520.674	26466
520.744	22249
520.814	56401
520.885	51840
520.955	49624
521.025	180967
521.095	60731
521.165	16856
521.235	14147
521.305	12093
521.375	12296
521.445	13334
521.515	17662
521.585	20931
521.655	18882
521.725	17070
521.795	16239
521.865	10007
521.935	19499
522.005	16072
522.075	10685
522.145	13501
522.215	13026
522.285	19220
522.355	24880
522.424	46119
522.494	38249
522.564	21487
522.634	41925
522.704	124535
522.774	47728
522.843	14925
522.913	13758
522.983	17280
523.053	13323
523.122	13752
523.192	18678
523.262	64913
523.331	59812
523.401	14100
523.471	10829
523.540	11612
523.610	9596
523.680	9523
523.749	9614
523.819	12318
523.888	12237
523.958	9658
524.027	10305
524.097	12104
524.166	10436
524.236	11365
524.305	13427
524.375	10023
524.444	8879
524.514	11951
524.583	12050
524.653	12349
524.722	16160
524.791	9567
524.861	12244
524.930	10041
524.999	10572
525.069	15701
525.138	12982
525.207	14611
525.277	11508
525.346	12121
525.415	11342
525.484	12947
525.554	15319
525.623	15074
525.692	16532
525.761	17375
525.830	20547
525.900	25840
525.969	36114
526.038	58757
526.107	115557
526.176	349687
526.245	287117
526.314	91394
526.383	174649
526.452	241632
526.522	389251
526.591	394640
526.660	101025
526.729	56546
526.797	60031
526.867	105680
526.935	431573
527.004	838186
527.073	466470
527.142	51783
527.211	24015
527.280	20353
527.349	19117
527.418	10899
527.487	12979
527.555	10471
527.624	10097
527.693	8502
527.762	10964
527.831	9126
527.899	10356
527.968	9604
528.037	9721
528.106	12696
528.174	22161
528.243	16688
528.312	24793
528.380	29244
528.449	11309
528.518	9036
528.586	7320
528.655	8255
528.723	8511
528.792	7722
528.861	8824
528.929	7889
528.998	9238
529.066	7219
529.135	8046
529.203	7380
529.272	8063
529.340	8586
529.409	10520
529.477	8841
529.545	10579
529.614	13729
529.682	13277
529.751	15312
529.819	17591
529.887	11358
529.956	9289
530.024	10126
530.092	8028
530.161	11681
530.229	16997
530.297	10197
530.365	9593
530.434	8377
530.502	8116
530.570	8536
530.638	6559
530.707	8761
530.775	10578
530.843	7907
530.911	8856
530.979	8413
531.047	8929
531.115	9664
531.183	8774
531.252	8920
531.320	8914
531.388	7466
531.456	8967
531.524	7874
531.592	10232
531.660	11301
531.728	9253
531.796	7348
531.864	9362
531.932	9465
532.000	9705
532.067	10074
532.135	11524
532.203	13458
532.271	12856
532.339	20539
532.407	52249
532.475	30586
532.542	17404
532.610	18397
532.678	23927
532.746	95324
532.814	244092
532.881	58787
532.949	15185
533.017	11175
533.084	10868
533.152	9125
533.220	10985
533.287	11165
533.355	10255
533.423	9949
533.490	9527
533.558	9465
533.625	10793
533.693	10146
533.761	11084
533.828	11486
533.896	10557
533.963	20407
534.031	23891
534.098	34671
534.166	17929
534.233	10725
534.300	12381
534.368	13103
534.435	12127
534.503	14462
534.570	16965
534.637	16907
534.705	18432
534.772	20234
534.840	34630
534.907	151733
534.974	202156
535.041	28413
535.109	17608
535.176	11136
535.243	11771
535.310	11654
535.378	11221
535.445	11050
535.512	11453
535.579	11145
535.646	10058
535.714	11773
535.781	13640
535.848	12363
535.915	13774
535.982	11130
536.049	12104
536.116	13343
536.183	11680
536.250	11100
536.317	11943
536.384	13294
536.451	20336
536.518	20726
536.585	14265
536.652	19491
536.719	24554
536.786	20151
536.853	16809
536.920	23444
536.987	34371
537.053	33625
537.120	124722
537.187	103869
537.254	16633
537.321	13336
537.388	13921
537.454	10735
537.521	11677
537.588	11646
537.654	13720
537.721	14671
537.788	14876
537.855	13005
537.921	14066
537.988	12410
538.055	13629
538.121	12550
538.188	14068
538.254	17775
538.321	34136
538.388	22523
538.454	14642
538.521	14125
538.587	11872
538.654	12103
538.720	11806
538.787	12249
538.853	14358
538.920	15271
538.986	15265
539.053	13430
539.119	14203
539.185	13433
539.252	16682
539.318	22570
539.385	19383
539.451	18141
539.517	17612
539.583	17961
539.650	38172
539.716	92997
539.782	27466
539.849	14374
539.915	14965
539.981	14944
540.047	16549
540.114	15070
540.180	17229
540.246	15862
540.312	21029
540.378	33824
540.444	35580
540.510	38831
540.576	105104
540.643	34795
540.709	13900
540.775	13770
540.841	13134
540.907	16824
540.973	26674
541.039	22159
541.105	23739
541.171	15598
541.237	14405
541.303	14947
541.369	17874
541.435	18651
541.500	30905
541.566	20390
541.632	13149
541.698	13072
541.764	13825
541.830	12944
541.896	12700
541.961	13893
542.027	14904
542.093	13652
542.159	15423
542.224	14925
542.290	21111
542.356	29935
542.421	33720
542.487	18372
542.553	15487
542.618	17043
542.684	14906
542.750	15717
542.815	18628
542.881	26331
542.947	90908
543.012	65923
543.078	16222
543.143	14664
543.209	15383
543.274	14876
543.340	17530
543.405	37069
543.471	55758
543.536	18379
543.602	13974
543.667	12856
543.732	13837
543.798	12519
543.863	14763
543.928	12770
543.994	12092
544.059	12540
544.124	13958
544.190	13687
544.255	14383
544.320	15220
544.386	14913
544.451	20358
544.516	22719
544.581	21417
544.646	58092
544.712	88177
544.777	23078
544.842	18113
544.907	18534
544.972	15690
545.037	17231
545.102	17819
545.168	18270
545.233	19262
545.298	20353
545.363	21856
545.428	22307
545.493	36994
545.558	76764
545.623	33484
545.688	18897
545.753	18549
545.818	18900
545.883	19652
545.947	18803
546.012	20913
546.077	21560
546.142	21053
546.207	21027
546.272	25160
546.337	26483
546.401	22819
546.466	23502
546.531	21578
546.596	24744
546.661	24782
546.725	25146
546.790	24095
546.855	26961
546.919	26886
546.984	30506
547.049	32440
547.113	39023
547.178	37682
547.243	44020
547.307	48752
547.372	55658
547.436	56786
547.501	54088
547.565	58719
547.630	58016
547.695	55809
547.759	56946
547.823	55041
547.888	53958
547.952	53460
548.017	56751
548.081	60125
548.146	64142
548.210	61120
548.274	62879
548.339	60835
548.403	57659
548.468	53900
548.532	52965
548.596	53651
548.660	53390
548.725	58480
548.789	67340
548.853	65265
548.917	60066
548.982	63366
549.046	57494
549.110	47790
549.174	49581
549.238	55020
549.303	59355
549.367	61845
549.431	59844
549.495	56024
549.559	56766
549.623	64048
549.687	73434
549.751	77948
549.815	81673
549.879	84104
549.943	78374
550.007	82593
550.071	83112
550.135	80400
550.199	72527
550.263	70260
550.327	69058
550.391	72909
550.455	74643
550.519	78739
550.582	84111
550.646	98627
550.710	101347
550.774	91595
550.838	93294
550.901	95300
550.965	101821
551.029	106873
551.093	113268
551.156	125291
551.220	158437
551.284	177967
551.347	129772
551.411	135521
551.475	128422
551.538	101115
551.602	94234
551.666	88481
551.729	82478
551.793	80343
551.856	78927
551.920	77902
551.983	77542
552.047	76935
552.110	79062
552.174	75643
552.237	80221
552.301	74892
552.364	72216
552.428	69850
552.491	72478
552.554	75323
552.618	74138
552.681	77150
552.745	78223
552.808	95769
552.871	117113
552.934	87850
552.998	77155
553.061	73868
553.124	69965
553.187	68892
553.251	72856
553.314	71935
553.377	71737
553.440	76737
553.503	81748
553.567	84462
553.630	76788
553.693	75319
553.756	76299
553.819	74172
553.882	72110
553.945	71072
554.008	71868
554.071	70577
554.134	73356
554.197	68556
554.260	67717
554.323	70494
554.386	70416
554.449	71066
554.512	74609
554.575	69186
554.638	69816
554.701	66511
554.764	67405
554.827	64504
554.889	63627
554.952	59538
555.015	58139
555.078	58144
555.141	60771
555.203	59415
555.266	59301
555.329	58772
555.391	56104
555.454	57056
555.517	55822
555.580	52491
555.642	49516
555.705	50221
555.768	50456
555.830	50288
555.893	46061
555.955	45889
556.018	45376
556.080	44041
556.143	46137
556.206	46617
556.268	46882
556.330	45076
556.393	43411
556.455	43390
556.518	48019
556.580	46109
556.643	39607
556.705	39874
556.767	38769
556.830	39392
556.892	39382
556.955	46838
557.017	41466
557.079	36964
557.142	37033
557.204	37557
557.266	53548
557.328	43378
557.391	31736
557.453	30899
557.515	31970
557.577	35640
557.639	36205
557.701	31802
557.764	33172
557.826	34747
557.888	36307
557.950	37101
558.012	39701
558.074	47788
558.136	102634
558.198	249622
558.260	94212
558.322	41220
558.384	42724
558.446	48055
558.508	54525
558.570	64916
558.632	85160
558.694	111190
558.756	138863
558.818	420616
558.880	1011254
558.942	327747
559.003	269174
559.065	135767
559.127	58602
559.189	55497
559.251	62669
559.312	82442
559.374	199898
559.436	682068
559.498	330599
559.559	66272
559.621	56184
559.683	62291
559.744	99058
559.806	320198
559.868	483361
559.929	97515
559.991	58317
560.052	85130
560.114	238805
560.176	152303
560.237	136198
560.299	223765
560.360	53166
560.422	26436
560.483	24129
560.545	22476
560.606	22278
560.667	20587
560.729	20129
560.790	19110
560.852	19689
560.913	19183
560.974	19084
561.036	18637
561.097	19156
561.158	19373
561.220	18932
561.281	17730
561.342	19945
561.403	22114
561.465	24358
561.526	49227
561.587	57738
561.648	21439
561.709	18841
561.771	18175
561.832	18878
561.893	17741
561.954	17660
562.015	16951
562.076	17763
562.137	17287
562.198	18344
562.259	17627
562.320	17810
562.381	18973
562.442	24009
562.503	21638
562.564	17563
562.625	16401
562.686	18142
562.747	17403
562.808	17550
562.869	16429
562.930	19522
562.991	18172
563.051	18960
563.112	18346
563.173	16987
563.234	15875
563.294	16033
563.355	14882
563.416	18340
563.477	16158
563.537	17517
563.598	16993
563.659	16767
563.720	16658
563.780	18044
563.841	17327
563.901	17004
563.962	15697
564.023	16924
564.083	16903
564.144	16979
564.204	16888
564.265	16921
564.325	18389
564.386	29185
564.446	23645
564.507	16457
564.567	16390
564.628	16705
564.688	16020
564.749	16385
564.809	17636
564.869	19767
564.930	15838
564.990	16787
565.050	16086
565.111	16507
565.171	15831
565.231	16064
565.292	15478
565.352	16051
565.412	16008
565.472	16056
565.532	17381
565.593	16962
565.653	15323
565.713	16713
565.773	16681
565.833	20018
565.893	22618
565.953	17510
566.013	15466
566.074	17855
566.134	20724
566.194	29043
566.254	28498
566.314	21163
566.374	16542
566.434	17777
566.494	17439
566.554	17454
566.614	19156
566.673	19688
566.733	19217
566.793	20614
566.853	20453
566.913	22534
566.973	21772
567.033	22624
567.092	23020
567.152	22685
567.212	22356
567.272	23257
567.331	23223
567.391	23689
567.451	26101
567.511	29513
567.570	29140
567.630	23825
567.690	22124
567.749	23725
567.809	24443
567.868	28054
567.928	30564
567.988	34735
568.047	37674
568.107	46412
568.166	63448
568.226	100913
568.285	145339
568.345	117421
568.404	87591
568.464	75237
568.523	67737
568.582	70135
568.642	76825
568.701	95233
568.761	146463
568.820	240716
568.879	227316
568.939	157646
568.998	110514
569.057	81961
569.116	63665
569.176	51420
569.235	42520
569.294	37564
569.353	33853
569.413	30830
569.472	28012
569.531	25809
569.590	23276
569.649	23713
569.708	21873
569.767	22612
569.827	23463
569.886	21482
569.945	18289
570.004	19690
570.063	18823
570.122	19855
570.181	18778
570.240	20293
570.299	20163
570.358	21085
570.417	16872
570.475	15716
570.534	17118
570.593	17699
570.652	18096
570.711	18330
570.770	16993
570.829	18060
570.887	17029
570.946	17943
571.005	14995
571.064	16546
571.122	17897
571.181	18099
571.240	15118
571.299	15503
571.357	15618
571.416	16530
571.475	17133
571.533	17878
571.592	14647
571.650	15411
571.709	14506
571.768	16495
571.826	15704
571.885	14729
571.943	14197
572.002	13970
572.060	14661
572.119	14044
572.177	13482
572.236	13748
572.294	13608
572.352	14353
572.411	13625
572.469	13460
572.528	12513
572.586	13880
572.644	15444
572.703	18612
572.761	14349
572.819	13590
572.877	13268
572.936	12674
572.994	12015
573.052	12974
573.110	13364
573.169	13169
573.227	11669
573.285	13598
573.343	12587
573.401	13361
573.459	12901
573.517	13729
573.576	11941
573.634	12769
573.692	12690
573.750	12934
573.808	12727
573.866	12643
573.924	15081
573.982	14609
574.040	11996
574.098	13004
574.155	12103
574.213	12147
574.271	11812
574.329	12998
574.387	11115
574.445	11364
574.503	11208
574.560	11062
574.618	10439
574.676	10650
574.734	10898
574.792	11584
574.849	9831
574.907	10208
574.965	10046
575.022	10947
575.080	9687
575.138	11445
575.195	12024
575.253	10824
575.311	12880
575.368	11545
575.426	10457
575.483	11179
575.541	10571
575.598	10323
575.656	11539
575.713	11860
575.771	10841
575.828	10553
575.886	10784
575.943	11732
576.001	11051
576.058	10645
576.115	11326
576.173	13410
576.230	14007
576.287	16120
576.345	13144
576.402	11443
576.459	12044
576.517	11945
576.574	12224
576.631	12959
576.688	11882
576.746	11667
576.803	11101
576.860	10672
576.917	10651
576.974	11423
577.031	10737
577.089	12230
577.146	10799
577.203	11731
577.260	11581
577.317	12441
577.374	11969
577.431	12387
577.488	10557
577.545	10914
577.602	11459
577.659	11280
577.716	10377
577.773	11501
577.830	11128
577.886	10899
577.943	9978
578.000	11339
578.057	11095
578.114	11012
578.171	10311
578.227	11780
578.284	10828
578.341	11485
578.398	11321
578.454	11734
578.511	12310
578.568	14012
578.625	12021
578.681	11832
578.738	10999
578.794	10971
578.851	10753
578.908	12105
578.964	10256
579.021	12688
579.077	11663
579.134	11544
579.190	11078
579.247	11237
579.303	10817
579.360	10656
579.416	10953
579.473	10637
579.529	9571
579.586	10638
579.642	10888
579.698	11532
579.755	11570
579.811	11639
579.867	10894
579.924	10976
579.980	10574
580.036	12600
580.093	10730
580.149	11566
580.205	11396
580.261	10621
580.317	11125
580.374	13482
580.430	13583
580.486	12840
580.542	11700
580.598	12402
580.619	11941
580.654	11148
580.692	11824
580.710	12176
580.765	12329
580.767	12343
580.823	11978
580.838	12119
580.879	12500
580.911	12261
580.935	12119
580.984	11916
580.991	11900
581.047	11524
581.057	11626
581.103	12081
581.130	12500
581.159	12950
581.203	12255
581.215	12086
581.270	12302
581.276	12196
581.326	11187
581.349	11757
581.382	12661
581.422	12481
581.438	12408
581.494	12354
581.494	12347
581.550	12055
581.567	12577
581.606	13733
581.640	13063
581.661	12680
581.713	14240
581.717	14364
581.773	12402
581.786	12469
581.829	12735
581.859	12623
581.885	12537
581.932	13517
581.940	13723
581.996	13994
582.004	13944
582.052	13463
582.077	12989
582.107	12481
582.150	13619
582.163	13984
582.219	13293
582.223	13297
582.274	13408
582.296	13064
582.330	12463
582.368	12855
582.386	13078
582.441	11423
582.441	11420
582.497	13381
582.514	13380
582.552	13608
582.587	13581
582.608	13470
582.659	13534
582.663	13547
582.719	13913
582.732	13775
582.774	13350
582.805	13959
582.830	14502
582.877	14288
582.885	14254
582.941	14699
582.950	14587
582.996	13767
583.023	14022
583.052	14534
583.095	14028
583.107	13838
583.162	14864
583.168	14884
583.218	14923
583.240	14646
583.273	14408
583.313	14872
583.328	14973
583.384	14337
583.385	14331
583.439	14461
583.458	14714
583.494	15139
583.531	14774
583.549	14628
583.603	15024
583.605	15028
583.660	14526
583.676	14754
583.715	15429
583.748	15450
583.770	15541
583.820	15652
583.825	15647
583.881	15387
583.893	15472
583.936	15730
583.965	15757
583.991	15809
584.038	16090
584.046	16135
584.101	15421
584.110	15487
584.156	15930
584.183	16105
584.211	16280
584.255	16374
584.266	16404
584.321	15919
584.328	16095
584.376	17482
584.400	17214
584.431	17059
584.472	17018
584.486	16836
584.541	17178
584.545	17194
584.596	17996
584.617	17889
584.651	17844
584.689	19312
584.706	19847
584.761	19298
584.762	19294
584.816	19422
584.834	19621
584.871	20205
584.906	20425
584.926	20515
584.978	20688
584.980	20729
585.035	23228
585.051	23483
585.090	23878
585.123	25067
585.145	25823
585.195	27213
585.200	27424
585.254	29679
585.267	30250
585.309	31867
585.340	34081
585.364	36062
585.412	38965
585.419	39526
585.473	44569
585.484	45915
585.528	54447
585.556	63547
585.583	82866
585.628	127895
585.637	145453
585.692	297571
585.700	323665
585.747	413271
585.772	359845
585.801	230027
585.845	87601
585.856	71797
585.910	45352
585.917	42747
585.965	37325
585.989	35328
586.019	34256
586.061	33206
586.074	33027
586.128	33359
586.133	33243
586.183	33066
586.205	33766
586.237	34315
586.277	33596
586.292	33624
586.346	34385
586.349	34416
586.401	34755
586.421	34924
586.455	35829
586.493	36923
586.509	37983
586.564	42652
586.565	42813
586.618	53183
586.637	54044
586.672	51241
586.709	46900
586.727	45456
586.781	45971
586.781	46013
586.835	43995
586.853	43420
586.889	42752
586.925	42652
586.944	43091
586.996	44683
586.998	44783
587.052	46065
587.068	46562
587.106	47632
587.140	48326
587.161	48926
587.212	50271
587.215	50457
587.269	53536
587.284	54398
587.323	56277
587.356	57160
587.377	58091
587.427	60796
587.431	61103
587.485	64691
587.499	65461
587.539	68058
587.571	70056
587.593	71690
587.643	75608
587.648	76185
587.702	81395
587.715	82707
587.755	87991
587.786	91552
587.810	94099
587.858	99650
587.864	100707
587.917	109699
587.930	111956
587.971	120366
588.001	126346
588.025	132614
588.073	144571
588.079	146562
588.133	163769
588.145	167550
588.187	184603
588.217	196973
588.241	209318
588.288	234235
588.295	238691
588.348	275662
588.360	283587
588.402	321096
588.431	347605
588.456	376182
588.503	432954
588.510	443838
588.564	533340
588.575	552509
588.617	659215
588.646	736494
588.671	838252
588.718	1042358
588.725	1089716
588.778	1469830
588.789	1549424
588.832	1908865
588.861	2148828
588.886	2190368
588.932	2163464
588.939	2143902
588.993	1899935
589.004	1881987
589.047	2158404
589.075	2263496
589.100	2074408
589.147	1660550
589.154	1612938
589.207	1253915
589.218	1184295
589.261	1085316
589.290	1027378
589.314	1058245
589.361	1133524
589.368	1170583
589.421	1488203
589.433	1558739
589.475	1887110
589.504	2104817
589.528	2102089
589.576	1983472
589.582	1984929
589.635	2028768
589.647	2014424
589.689	1627534
589.718	1337952
589.742	1139401
589.790	766283
589.795	745565
589.849	556214
589.861	513610
589.902	438958
589.932	384192
589.955	355520
590.004	295767
590.009	292201
590.062	249975
590.075	239574
590.115	219462
590.146	203470
590.168	195744
590.218	177638
590.222	176725
590.275	161114
590.289	156716
590.328	149071
590.360	142293
590.381	138326
590.431	128483
590.435	128325
590.488	120940
590.503	118717
590.541	114490
590.574	110476
590.594	108416
590.645	102421
590.647	102483
590.700	97877
590.716	96422
590.753	93637
590.787	90600
590.806	89748
590.859	86775
590.859	86933
590.912	84348
590.930	83483
590.965	82309
591.001	80675
591.018	80369
591.071	78848
591.072	78647
591.124	75377
591.143	74052
591.177	73690
591.214	73005
591.230	73129
591.283	72916
591.285	72728
591.336	71663
591.356	71130
591.389	70580
591.427	69151
591.442	68364
591.495	65043
591.498	64644
591.547	63760
591.569	63203
591.600	62955
591.640	62080
591.653	62158
591.706	62015
591.711	61850
591.759	62640
591.782	62827
591.811	63284
591.853	63583
591.864	63286
591.917	60785
591.924	60292
591.969	59812
591.995	59337
592.022	59395
592.066	59051
592.075	59205
592.127	59345
592.137	59228
592.180	61299
592.208	62383
592.233	60522
592.279	56525
592.285	56768
592.338	57779
592.350	57862
592.390	56324
592.421	54957
592.443	55393
592.491	55919
592.495	55969
592.548	54815
592.562	54369
592.600	55097
592.633	55486
592.653	55265
592.704	54044
592.705	54365
592.775	54881
592.846	55195
592.916	56096
592.987	57524
593.058	55902
593.128	52411
593.199	52860
593.270	52169
593.341	52850
593.411	53293
593.482	54352
593.553	53800
593.623	52776
593.694	53078
593.764	54102
593.835	53554
593.906	53493
593.976	53192
594.047	53966
594.117	57970
594.188	57697
594.258	53824
594.329	53839
594.399	53166
594.470	54672
594.540	55675
594.611	55648
594.681	55953
594.751	55799
594.822	59041
594.892	59744
594.963	60383
595.033	59464
595.103	60944
595.174	62356
595.244	68942
595.314	74197
595.384	62540
595.455	64440
595.525	65394
595.595	67123
595.665	66711
595.736	65624
595.806	65448
595.876	66800
595.946	66097
596.016	67769
596.087	68968
596.157	69047
596.227	69023
596.297	72757
596.367	76427
596.437	80220
596.507	84160
596.577	87824
596.647	80508
596.717	83436
596.787	84776
596.857	85070
596.927	85002
596.997	85163
597.067	86471
597.137	87640
597.207	88727
597.277	86789
597.347	84931
597.417	83112
597.487	84265
597.557	85102
597.626	86602
597.696	88637
597.766	90994
597.836	89770
597.906	81516
597.975	77678
598.045	78023
598.115	80566
598.185	85896
598.254	95517
598.324	101606
598.394	103875
598.464	101694
598.533	96790
598.603	91853
598.672	90561
598.742	91462
598.812	92391
598.881	93047
598.951	93064
599.020	93086
599.090	95508
599.159	98240
599.229	95429
599.299	91978
599.368	94229
599.437	93389
599.507	86605
599.576	85025
599.646	83701
599.715	83132
599.785	81793
599.854	81038
599.924	82756
599.993	79419
600.062	81425
600.132	83346
600.201	87222
600.270	100462
600.340	102851
600.409	100176
600.478	99393
600.547	101515
600.617	95232
600.686	77800
600.755	72694
600.824	71098
600.894	69182
600.963	67724
601.032	68044
601.101	66252
601.170	63599
601.239	62715
601.308	64673
601.378	63819
601.447	62279
601.516	62780
601.585	66060
601.654	69150
601.723	64976
601.792	64221
601.861	67898
601.930	72124
601.999	72310
602.068	71058
602.137	74651
602.206	74763
602.275	73728
602.343	76804
602.412	76245
602.481	73150
602.550	72417
602.619	74174
602.688	76396
602.756	75675
602.825	76552
602.894	79200
602.963	78839
603.032	81305
603.100	78726
603.169	79413
603.238	80535
603.307	79983
603.375	81515
603.444	81996
603.513	84262
603.581	84042
603.650	87868
603.719	83351
603.787	85017
603.856	87341
603.924	89499
603.993	92404
604.061	95610
604.130	98653
604.198	100401
604.267	101968
604.335	103273
604.404	105048
604.472	105467
604.541	106555
604.609	107103
604.678	107168
604.746	109439
604.815	111545
604.883	112247
604.951	114261
605.020	114160
605.088	116099
605.156	116699
605.225	120809
605.293	119328
605.361	119727
605.429	121195
605.498	124519
605.566	127000
605.634	133156
605.702	138126
605.771	139156
605.839	139287
605.907	135987
605.975	131720
606.043	130854
606.111	129806
606.180	129281
606.248	127915
606.316	126858
606.384	127678
606.452	132026
606.520	140548
606.588	135652
606.656	134265
606.724	130893
606.792	124278
606.860	111918
606.928	102315
606.996	99321
607.064	96586
607.132	100269
607.200	106584
607.267	109902
607.335	110322
607.403	114007
607.471	109903
607.539	107485
607.607	106526
607.674	95799
607.742	97362
607.810	97114
607.878	96728
607.946	95499
608.013	101649
608.081	102976
608.149	103400
608.216	106645
608.284	111449
608.352	111121
608.419	111297
608.487	111893
608.555	106887
608.622	108638
608.690	115752
608.757	126516
608.825	129730
608.893	126549
608.960	122572
609.028	119941
609.095	119080
609.163	114718
609.230	103934
609.298	94896
609.365	100128
609.432	108743
609.500	116582
609.567	133048
609.635	152334
609.702	157776
609.769	153360
609.837	120241
609.904	106991
609.971	112080
610.039	131297
610.106	182257
610.173	364592
610.241	840945
610.308	609173
610.375	279555
610.442	139461
610.509	115995
610.577	111808
610.644	110950
610.711	112520
610.778	114394
610.845	119565
610.912	125809
610.980	130573
611.047	131116
611.114	129944
611.181	122806
611.248	122103
611.315	129975
611.382	131988
611.449	137624
611.516	139429
611.583	137220
611.650	139243
611.717	142684
611.784	144801
611.851	153429
611.918	168755
611.984	201212
612.051	298386
612.118	625257
612.185	1502072
612.252	920350
612.319	245082
612.386	189767
612.452	171128
612.519	163403
612.586	161752
612.653	160555
612.719	164884
612.786	156449
612.853	144999
612.919	143219
612.986	144857
613.053	135482
613.120	128174
613.186	122287
613.253	125318
613.319	123082
613.386	125720
613.453	128027
613.519	133774
613.586	136140
613.652	148695
613.719	138050
613.785	137972
613.852	129113
613.918	127571
613.985	129707
614.051	133500
614.118	135603
614.184	130140
614.250	127875
614.317	129987
614.383	127877
614.449	130933
614.516	129997
614.582	130954
614.648	129150
614.715	126957
614.781	124276
614.847	125906
614.914	124485
614.980	121685
615.046	121804
615.112	125959
615.179	126562
615.245	135749
615.311	141916
615.377	177004
615.443	182737
615.509	148544
615.575	143262
615.642	137018
615.708	143075
615.774	151411
615.840	165341
615.906	188715
615.972	259226
616.038	449516
616.104	846811
616.170	1785093
616.236	1463086
616.302	366169
616.368	256402
616.434	187730
616.500	170142
616.565	187271
616.631	232791
616.697	189810
616.763	197015
616.829	299279
616.895	530076
616.961	499775
617.026	214618
617.092	148372
617.158	135919
617.224	131748
617.289	123863
617.355	117337
617.421	115413
617.487	115198
617.552	109328
617.618	107568
617.684	107620
617.749	109759
617.815	104221
617.880	102643
617.946	101875
618.012	105064
618.077	106605
618.143	102789
618.208	104030
618.274	111393
618.339	112330
618.405	95009
618.470	93915
618.536	93377
618.601	92648
618.667	86547
618.732	83259
618.798	81917
618.863	80989
618.928	80956
618.994	84449
619.059	87458
619.124	98540
619.190	86706
619.255	80593
619.320	80512
619.386	81490
619.451	79206
619.516	76648
619.581	79187
619.647	82010
619.712	81509
619.777	77947
619.842	78644
619.907	79798
619.972	81604
620.038	81287
620.103	77103
620.168	77886
620.233	80032
620.298	78608
620.363	80690
620.428	82574
620.493	83776
620.558	83710
620.623	85868
620.688	84915
620.753	83553
620.818	84734
620.883	86420
620.948	85578
621.013	85594
621.078	85162
621.143	84620
621.207	86992
621.272	85089
621.337	84533
621.402	85614
621.467	86763
621.532	87684
621.596	85306
621.661	81416
621.726	79669
621.791	81781
621.855	82570
621.920	83275
621.985	82688
622.049	85703
622.114	85513
622.179	85034
622.243	86604
622.308	88756
622.373	92911
622.437	91507
622.502	85666
622.566	84623
622.631	84224
622.695	86920
622.760	85669
622.824	85613
622.889	86806
622.953	91060
623.018	109024
623.082	105056
623.147	91617
623.211	89324
623.276	88264
623.340	84381
623.404	80877
623.469	81600
623.533	82518
623.597	80455
623.662	81121
623.726	76214
623.790	71665
623.854	70348
623.919	71716
623.983	71961
624.047	73059
624.111	73363
624.176	75524
624.240	77856
624.304	82002
624.368	74706
624.432	74411
624.496	77435
624.560	82999
624.625	86445
624.689	80650
624.753	82715
624.817	79261
624.881	77121
624.945	69405
625.009	68093
625.073	70363
625.137	74801
625.201	83652
625.265	82228
625.329	73432
625.393	74707
625.456	73829
625.520	76020
625.584	78779
625.648	84452
625.712	91493
625.776	120355
625.839	122185
625.903	76806
625.967	65013
626.031	78675
626.095	96651
626.158	73749
626.222	55996
626.286	54680
626.349	51704
626.413	48997
626.477	51224
626.540	50843
626.604	49759
626.668	48988
626.731	47945
626.795	49234
626.858	48729
626.922	47073
626.986	47514
627.049	46636
627.113	50191
627.176	47307
627.240	46019
627.303	46542
627.366	45392
627.430	47543
627.493	45923
627.557	45581
627.620	45837
627.684	48460
627.747	47391
627.810	44742
627.874	41468
627.937	39712
628.000	43286
628.064	41829
628.127	36058
628.190	37828
628.253	36517
628.317	34683
628.380	34660
628.443	34018
628.506	33720
628.569	32922
628.632	31117
628.696	31092
628.759	30931
628.822	30053
628.885	28921
628.948	28900
629.011	29540
629.074	28470
629.137	27836
629.200	27208
629.263	28346
629.326	26092
629.389	26540
629.452	27074
629.515	27958
629.578	26765
629.641	27786
629.704	27764
629.767	27698
629.830	26752
629.892	25319
629.955	26623
630.018	28241
630.081	29119
630.144	32783
630.207	27207
630.269	28363
630.332	26442
630.395	25067
630.458	25080
630.520	24074
630.583	25171
630.646	23686
630.708	23589
630.771	24554
630.834	25905
630.896	24678
630.959	24726
631.021	23456
631.084	24715
631.146	26025
631.209	27129
631.272	23619
631.334	24498
631.397	25169
631.459	25441
631.522	27456
631.584	27085
631.646	29596
631.709	30978
631.771	34610
631.834	29216
631.896	27158
631.958	25635
632.021	25560
632.083	24070
632.145	25011
632.208	23580
632.270	24407
632.332	22765
632.395	22407
632.457	24284
632.519	22209
632.581	23644
632.643	21688
632.706	23002
632.768	21692
632.830	23425
632.892	22316
632.954	23633
633.016	23893
633.078	22793
633.141	22585
633.203	22205
633.265	23664
633.327	22884
633.389	22068
633.451	25263
633.513	27460
633.575	25805
633.637	26003
633.698	25847
633.760	23867
633.822	24634
633.884	25158
633.946	25966
634.008	24990
634.070	25858
634.132	28498
634.193	30348
634.255	32346
634.317	32868
634.379	33460
634.441	29892
634.502	26890
634.564	25655
634.626	23603
634.687	22956
634.749	22841
634.811	22712
634.873	20420
634.934	21528
634.996	22246
635.057	20794
635.119	20506
635.181	22590
635.242	22781
635.304	21646
635.365	24490
635.427	22131
635.488	22474
635.550	21681
635.611	23268
635.673	21007
635.734	24590
635.796	25207
635.857	27542
635.918	28420
635.980	31459
636.041	33357
636.102	34692
636.164	35046
636.225	33666
636.286	28316
636.348	27900
636.409	25251
636.470	22200
636.531	23373
636.593	22569
636.654	22105
636.715	19730
636.776	20157
636.838	19672
636.899	19440
636.960	18489
637.021	19064
637.082	18951
637.143	18120
637.204	16881
637.265	17615
637.326	17764
637.387	18742
637.448	17036
637.509	17958
637.570	17837
637.631	17853
637.692	16038
637.753	15682
637.814	17176
637.875	17318
637.936	17472
637.997	16586
638.058	16821
638.119	16787
638.179	17053
638.240	16669
638.301	16750
638.362	15439
638.423	15179
638.483	17510
638.544	13881
638.605	16379
638.666	13206
638.726	16740
638.787	16169
638.848	15401
638.908	15463
638.969	15358
639.030	14818
639.090	15106
639.151	15047
639.211	16595
639.272	20440
639.332	28851
639.393	19717
639.453	17012
639.514	16721
639.574	15753
639.635	14025
639.695	15477
639.756	13804
639.816	15697
639.877	17566
639.937	26107
639.997	30644
640.058	15568
640.118	14426
640.178	14514
640.239	13645
640.299	13922
640.359	13835
640.420	15044
640.480	17451
640.540	18898
640.600	18958
640.661	17393
640.721	16058
640.781	20605
640.841	14494
640.901	15149
640.961	14565
641.021	16529
641.082	18239
641.142	22305
641.202	16989
641.262	12158
641.322	14057
641.382	13113
641.442	14713
641.502	13437
641.562	15247
641.622	13839
641.682	15495
641.742	16170
641.802	14937
641.861	14124
641.921	14284
641.981	15629
642.041	15416
642.101	17270
642.161	13233
642.221	12576
642.280	12414
642.340	11824
642.400	12010
642.460	13223
642.519	13326
642.579	13006
642.639	14008
642.698	11485
642.758	15109
642.818	13957
642.877	12646
642.937	14121
642.997	16214
643.056	20888
643.116	13932
643.175	15966
643.235	13556
643.294	14069
643.354	15774
643.414	17983
643.473	20010
643.532	25061
643.592	35094
643.651	57670
643.711	103714
643.770	211540
643.830	521614
643.889	1041275
643.948	234789
644.008	45392
644.067	27593
644.126	21398
644.186	17795
644.245	16705
644.304	13463
644.363	16027
644.423	13809
644.482	13479
644.541	15804
644.600	13922
644.659	19252
644.719	23576
644.778	36107
644.837	62976
644.896	133835
644.955	301415
645.014	92107
645.073	22619
645.132	16124
645.191	15622
645.250	14389
645.309	16423
645.368	16706
645.427	22356
645.486	36181
645.545	59987
645.604	18883
645.663	14329
645.722	14820
645.781	15397
645.840	18357
645.898	23116
645.957	34661
646.016	53001
646.075	99503
646.134	199269
646.192	546721
646.251	751827
646.310	107075
646.369	32367
646.427	26337
646.486	19188
646.545	16804
646.603	14902
646.662	12768
646.721	14080
646.779	13054
646.838	13452
646.896	17389
646.955	23591
647.014	37991
647.072	71489
647.131	195688
647.189	87375
647.248	16274
647.306	13223
647.365	11705
647.423	9075
647.481	11178
647.540	8977
647.598	9340
647.657	9649
647.715	9714
647.773	9342
647.832	10409
647.890	8766
647.948	9046
648.007	9369
648.065	8336
648.123	8215
648.181	9837
648.240	8916
648.298	7635
648.356	9003
648.414	9323
648.472	9361
648.531	8965
648.589	8700
648.647	8350
648.705	9028
648.763	9129
648.821	10023
648.879	9517
648.937	10382
648.995	12915
649.053	17281
649.111	26392
649.169	43903
649.227	81924
649.285	176091
649.343	499302
649.401	217770
649.459	46914
649.516	25895
649.574	13914
649.632	15997
649.690	15709
649.748	20047
649.806	25876
649.863	49482
649.921	135803
649.979	84266
650.037	14909
650.094	8324
650.152	9527
650.210	7072
650.268	9532
650.325	8593
650.383	7576
650.440	6639
650.498	7353
650.556	7434
650.613	6809
650.671	6655
650.728	7005
650.786	7412
650.843	9142
650.901	6796
650.958	6634
651.016	6606
651.073	5219
651.131	6208
651.188	5260
651.246	6185
651.303	5013
651.360	6716
651.418	5661
651.475	6506
651.532	4866
651.590	6633
651.647	5542
651.704	6170
651.762	5584
651.819	6649
651.876	5246
651.933	5039
651.990	5679
652.048	4690
652.105	5261
652.162	6284
652.219	4554
652.276	5195
652.333	5335
652.390	4807
652.448	5818
652.505	5951
652.562	5719
652.619	5401
652.676	4938
652.733	5848
652.790	4902
652.847	4301
652.904	6228
652.961	4271
653.017	4569
653.074	4634
653.131	6022
653.188	4108
653.245	5392
653.302	5509
653.359	4962
653.415	5440
653.472	4224
653.529	4879
653.586	4065
653.642	4322
653.699	5305
653.756	4159
653.813	4368
653.869	6398
653.926	4663
653.983	4454
654.039	5407
654.096	4568
654.152	5968
654.209	3558
654.266	4510
654.322	4473
654.379	4933
654.435	6230
654.492	5736
654.548	8602
654.605	10592
654.661	6303
654.717	5115
654.774	5856
654.830	5275
654.887	4733
654.943	4670
655.000	5461
655.056	5662
655.112	5138
655.168	4034
655.225	5335
655.281	5197
655.337	6366
655.394	8126
655.450	7192
655.506	5590
655.562	7690
655.618	6923
655.675	4441
655.731	4491
655.787	3634
655.843	4884
655.899	3672
655.955	4985
656.011	4041
656.067	3848
656.123	4733
656.179	4302
656.235	6149
656.291	3491
656.347	6177
656.403	4101
656.459	5102
656.515	5447
656.571	4437
656.627	4747
656.683	4962
656.739	4722
656.795	5121
656.850	5073
656.906	5766
656.962	5193
657.018	4530
657.074	5957
657.129	7182
657.185	9193
657.241	18282
657.297	10212
657.352	5241
657.408	3853
657.464	5484
657.519	4140
657.575	4232
657.630	4052
657.686	3932
657.742	3726
657.797	3871
657.853	3867
657.908	5212
657.964	3447
658.019	4169
658.075	4141
658.130	4225
658.186	3382
658.241	4338
658.297	3129
658.352	3116
658.407	3477
658.463	3882
658.518	3720
658.573	4555
658.629	2599
658.684	3679
658.739	4113
658.795	2818
658.850	4034
658.905	4277
658.960	4424
659.016	3808
659.071	3785
659.126	5359
659.181	4240
659.236	8769
659.291	8829
659.346	5459
659.401	3567
659.457	4876
659.512	3638
659.567	5001
659.622	3425
659.677	3214
659.732	3434
659.787	3773
659.842	3677
659.897	5414
659.952	4332
660.007	4074
660.061	4265
660.116	3125
660.171	3656
660.226	3981
660.281	4188
660.336	3128
660.391	3678
660.445	3601
660.500	3662
660.555	4218
660.610	3310
660.664	4352
660.719	3799
660.774	4105
660.828	3667
660.883	4195
660.938	4393
660.992	3023
661.047	4081
661.101	4293
661.156	3411
661.211	2682
661.265	3091
661.320	3834
661.374	3636
661.429	3597
661.483	3975
661.538	2893
661.592	2767
661.647	2746
661.701	3646
661.755	4389
661.810	3767
661.864	3355
661.919	2803
661.973	3570
662.027	3917
662.081	3305
662.136	3484
662.190	3867
662.244	3776
662.299	3507
662.353	3798
662.407	4012
662.461	4170
662.515	4232
662.569	2870
662.624	4461
662.678	2719
662.732	3378
662.786	3580
662.840	4310
662.894	3743
662.948	3275
663.002	3555
663.056	3062
663.110	2932
663.164	3406
663.218	3164
663.272	4161
663.326	4304
663.380	3857
663.434	4111
663.488	3578
663.542	3891
663.595	3171
663.649	3363
663.703	3445
663.757	3000
663.811	2968
663.864	2977
663.918	3797
663.972	3167
664.026	3144
664.079	3967
664.133	3950
664.187	3303
664.240	3528
664.294	3241
664.348	4034
664.401	3358
664.455	3654
664.508	3164
664.562	3580
664.615	3158
664.669	3545
664.722	2976
664.776	3351
664.829	3551
664.883	3437
664.936	3143
664.990	3774
665.043	3898
665.097	4514
665.150	4539
665.203	3032
665.257	3546
665.310	4084
665.363	3515
665.417	4004
665.470	3033
665.523	4106
665.576	3736
665.630	3256
665.683	3886
665.736	3615
665.789	3584
665.842	3500
665.895	3758
665.949	4638
666.002	3188
666.055	3714
666.108	4778
666.161	4080
666.214	4023
666.267	4722
666.320	5413
666.373	5145
666.426	3778
666.479	3874
666.532	4541
666.585	4281
666.638	4921
666.691	4584
666.744	5278
666.796	3974
666.849	4722
666.902	4556
666.955	3732
667.008	2899
667.060	3493
667.113	2073
667.166	3218
667.219	3573
667.271	4208
667.324	3957
667.377	3097
667.430	3713
667.482	3661
667.535	4303
667.587	4186
667.640	4952
667.693	4808
667.745	9190
667.798	9023
667.850	3868
667.903	3201
667.955	3488
668.008	3092
668.060	4475
668.113	4490
668.165	3892
668.218	4249
668.270	3800
668.322	3723
668.375	4145
668.427	5087
668.479	3474
668.532	4034
668.584	4266
668.636	4742
668.689	3973
668.741	3311
668.793	4528
668.845	3597
668.898	3761
668.950	3523
669.002	4167
669.054	3901
669.106	4096
669.158	4638
669.211	4073
669.263	4034
669.315	5113
669.367	4882
669.419	4041
669.471	6015
669.523	5365
669.575	7021
669.627	5964
669.679	4469
669.731	5090
669.783	4904
669.835	6218
669.886	5565
669.938	5295
669.990	5080
670.042	5659
670.094	6233
670.146	6519
670.197	8068
670.249	10080
670.301	12011
670.353	16525
670.404	23820
670.456	35826
670.508	55665
670.560	92120
670.611	158362
670.663	281032
670.715	626070
670.766	865780
670.818	312088
670.869	68082
670.921	32982
670.972	22564
671.024	15761
671.075	13308
671.127	10976
671.178	9641
671.230	9366
671.281	8086
671.333	7685
671.384	7394
671.436	8634
671.487	11006
671.538	13222
671.590	18462
671.641	28056
671.692	47501
671.744	86358
671.795	55806
671.846	19742
671.897	10535
671.949	8538
672.000	6497
672.051	5248
672.102	5629
672.153	4313
672.204	4819
672.256	4000
672.307	5057
672.358	3968
672.409	4897
672.460	4578
672.511	3917
672.562	3762
672.613	3384
672.664	3524
672.715	3789
672.766	3566
672.817	3484
672.868	3176
672.919	3615
672.970	2885
673.021	3150
673.071	3282
673.122	3908
673.173	3447
673.224	3658
673.275	2762
673.326	3140
673.376	3457
673.427	3285
673.478	2787
673.528	3612
673.579	3321
673.630	3388
673.680	3985
673.731	3485
673.782	2685
673.832	2928
673.883	3132
673.934	3441
673.984	2317
674.035	3120
674.085	2757
674.136	3855
674.186	3829
674.237	3516
674.287	5235
674.338	4759
674.388	3202
674.438	3550
674.489	3545
674.539	3886
674.589	3651
674.640	3140
674.690	3352
674.740	3440
674.791	3477
674.841	3657
674.891	2521
674.942	3704
674.992	2667
675.042	3469
675.092	2499
675.142	2073
675.193	3070
675.243	2751
675.293	3459
675.343	3316
675.393	2408
675.443	3037
675.493	2856
675.543	2620
675.593	2892
675.643	3439
675.693	2211
675.743	2514
675.793	2176
675.843	2580
675.893	3379
675.943	2988
675.993	2133
676.043	3118
676.093	2864
676.142	3395
676.192	3007
676.242	2237
676.292	1721
676.341	2911
676.391	2588
676.441	1963
676.491	1877
676.540	2533
676.590	2498
676.640	2589
676.689	1889
676.739	1766
676.789	2063
676.838	2207
676.888	1949
676.937	2566
676.987	1473
677.037	2271
677.086	1637
677.136	2320
677.185	2220
677.235	2409
677.284	2689
677.333	2280
677.383	1832
677.432	1885
677.482	2407
677.531	3297
677.580	1968
677.630	3164
677.679	1541
677.728	1973
677.778	2752
677.827	2131
677.876	2294
677.925	1525
677.975	2411
678.024	2302
678.073	1898
678.122	3031
678.171	1997
678.220	2884
678.269	3141
678.319	3263
678.368	2907
678.417	2153
678.466	2551
678.515	2411
678.564	2559
678.613	2200
678.662	1809
678.711	2922
678.760	2238
678.809	2070
678.857	2500
678.906	2225
678.955	2403
679.004	2844
679.053	2106
679.102	1373
679.151	1935
679.199	2089
679.248	2357
679.297	2267
679.346	2106
679.394	2761
679.443	2355
679.492	2259
679.540	2594
679.589	1935
679.638	2380
679.686	1800
679.735	1340
679.784	2418
679.832	2270
679.881	1946
679.929	1736
679.978	1680
680.026	2373
680.075	1773
680.123	1261
680.172	1829
680.220	915
680.268	1930
680.317	966
680.365	1473
680.414	1163
680.462	2371
680.510	2336
680.559	1758
680.607	1545
680.655	1611
680.703	1493
680.752	2169
680.800	2015
680.848	1405
680.896	830
680.945	2333
680.993	1156
681.041	1287
681.089	807
681.137	2030
681.185	1241
681.233	2143
681.258	1460
681.281	791
681.329	1924
681.377	699
681.380	791
681.425	2078
681.473	1852
681.502	2472
681.521	2864
681.569	2173
681.617	2122
681.624	2254
681.665	2961
681.713	2243
681.745	2034
681.761	1905
681.809	1239
681.857	2057
681.867	2030
681.904	1850
681.952	2367
681.989	2340
682.000	2307
682.048	2019
682.096	2095
682.111	2117
682.143	2098
682.191	2691
682.233	2575
682.239	2538
682.286	2658
682.334	2267
682.354	2076
682.382	1759
682.430	2985
682.476	2411
682.477	2381
682.525	3164
682.572	2191
682.598	2623
682.620	2989
682.667	3215
682.715	3048
682.720	3011
682.763	2460
682.810	3067
682.841	2868
682.857	2709
682.905	3087
682.952	2987
682.963	3031
683.000	3126
683.047	2356
683.085	3242
683.095	3470
683.142	2472
683.190	3111
683.206	3108
683.237	3066
683.284	3198
683.328	3256
683.332	3245
683.379	1932
683.426	2986
683.449	3034
683.473	3079
683.521	2886
683.568	3647
683.571	3640
683.615	3269
683.662	3241
683.693	3151
683.709	3101
683.757	2685
683.804	4015
683.814	3800
683.851	2984
683.898	4184
683.936	3805
683.945	3710
683.992	4091
684.039	4252
684.057	4351
684.086	4409
684.133	4080
684.179	3964
684.180	3944
684.227	4006
684.274	4014
684.300	4204
684.321	4341
684.368	3852
684.415	4063
684.422	4068
684.462	4012
684.509	4519
684.543	3756
684.556	3479
684.603	4568
684.649	3435
684.665	3578
684.696	3864
684.743	3965
684.786	4477
684.790	4511
684.837	4364
684.883	4693
684.908	4754
684.930	4763
684.977	4784
685.023	4284
685.029	4309
685.070	4327
685.117	5206
685.150	4413
685.164	4170
685.210	4767
685.257	4884
685.272	5349
685.303	6138
685.350	5086
685.393	5155
685.396	5171
685.443	6025
685.490	6488
685.514	6162
685.536	5681
685.583	5732
685.629	5653
685.636	5581
685.675	5181
685.722	5368
685.757	5194
685.768	5164
685.815	4966
685.861	5710
685.878	5628
685.908	5462
685.954	5657
686.000	5253
686.000	5247
686.047	5777
686.093	7695
686.121	7415
686.139	6922
686.185	6301
686.232	6306
686.242	6264
686.278	6278
686.324	5632
686.363	5772
686.370	5809
686.416	5396
686.463	6066
686.484	5913
686.509	5683
686.555	5241
686.601	5348
686.606	5370
686.647	5681
686.693	5951
686.727	5657
686.739	5547
686.785	5589
686.831	5571
686.848	5876
686.877	6396
686.923	5394
686.969	5421
686.969	5420
687.015	6016
687.061	6150
687.090	6295
687.107	6332
687.153	6438
687.199	6357
687.211	6238
687.245	5986
687.291	6131
687.332	6382
687.336	6401
687.382	6209
687.428	6627
687.453	6655
687.474	6563
687.520	6512
687.565	5832
687.574	5748
687.611	5765
687.657	5883
687.695	6392
687.702	6482
687.748	6899
687.794	7001
687.816	6955
687.839	6730
687.885	7115
687.931	6036
687.937	6059
687.976	6371
688.022	6391
688.058	6673
688.067	6771
688.113	6676
688.158	7103
688.179	6952
688.204	6666
688.249	6533
688.295	7075
688.300	7085
688.340	7346
688.386	7475
688.421	7198
688.431	7109
688.477	6943
688.522	7294
688.542	7240
688.567	7216
688.613	7217
688.658	6743
688.663	6808
688.703	7144
688.749	7060
688.784	7149
688.794	7261
688.839	6532
688.884	7779
688.905	7462
688.930	6842
688.975	6833
689.020	6646
689.026	6629
689.065	6959
689.110	6892
689.146	7069
689.155	7061
689.201	6685
689.246	6820
689.267	6651
689.291	6585
689.336	7226
689.381	6783
689.388	6798
689.426	6911
689.471	6979
689.509	7404
689.516	7492
689.561	7293
689.606	6986
689.630	7027
689.651	6989
689.696	6742
689.741	7060
689.750	7087
689.785	7452
689.830	6826
689.871	7409
689.875	7455
689.920	7261
689.965	7187
689.992	7102
690.010	7160
690.054	7485
690.099	7854
690.112	7846
690.144	7696
690.189	7442
690.233	7460
690.233	7471
690.278	7368
690.323	7490
690.354	7409
690.367	7356
690.412	7282
690.457	6983
690.474	7001
690.501	7179
690.546	7351
690.590	7195
690.595	7196
690.635	7352
690.680	7336
690.716	7381
690.724	7396
690.769	7733
690.813	7912
690.836	7695
690.857	7693
690.902	7991
690.946	8733
690.957	8776
690.991	8890
691.035	9637
691.077	9761
691.080	9779
691.124	9964
691.168	10089
691.198	10051
691.213	9886
691.257	9733
691.301	9512
691.318	9384
691.346	9241
691.390	8755
691.434	8348
691.439	8325
691.478	8454
691.522	8129
691.559	8197
691.567	8251
691.611	8504
691.655	8372
691.680	8298
691.699	8408
691.743	9144
691.787	9246
691.800	9290
691.831	9109
691.875	9084
691.919	9080
691.921	9061
691.964	9090
692.008	9212
692.041	8927
692.052	8924
692.096	9192
692.139	9794
692.162	9817
692.183	9602
692.227	9203
692.271	8657
692.282	8670
692.315	9133
692.359	9319
692.402	9233
692.403	9250
692.447	9064
692.490	9392
692.523	9412
692.534	9452
692.578	9429
692.622	9513
692.643	9399
692.666	9274
692.709	9236
692.753	9112
692.763	9083
692.797	9006
692.840	8951
692.884	8707
692.884	8725
692.928	8374
692.971	8800
693.004	8610
693.015	8664
693.059	9291
693.102	9544
693.124	9780
693.146	9907
693.189	9772
693.233	9907
693.245	9921
693.276	10048
693.320	10326
693.363	10112
693.365	10103
693.407	10234
693.450	9737
693.485	9564
693.493	9649
693.537	10192
693.580	10564
693.605	10722
693.624	10695
693.667	10650
693.710	10443
693.725	10468
693.753	11540
693.797	12874
693.840	14581
693.845	14669
693.883	13864
693.926	13473
693.966	12823
693.970	12725
694.013	11681
694.056	10366
694.086	9717
694.099	9905
694.142	10191
694.185	10301
694.206	10459
694.229	10619
694.272	10617
694.315	10867
694.326	10891
694.358	11167
694.401	11308
694.444	11572
694.446	11565
694.487	11761
694.530	11837
694.566	11735
694.573	11613
694.616	10844
694.659	10057
694.686	9422
694.702	9395
694.745	9672
694.787	9603
694.806	9401
694.830	9278
694.873	9708
694.916	9768
694.926	9793
694.959	9672
695.002	9242
695.044	8922
695.046	8891
695.087	9306
695.130	9696
695.166	9972
695.172	10037
695.215	10201
695.258	10544
695.286	10655
695.301	10536
695.343	9971
695.386	9747
695.406	9485
695.428	9509
695.471	9678
695.514	9627
695.526	9698
695.556	10124
695.599	10522
695.641	10647
695.646	10654
695.684	10484
695.726	10342
695.766	10094
695.769	10126
695.811	10219
695.854	10304
695.886	10407
695.896	10412
695.938	10351
695.981	10166
696.005	10029
696.023	10181
696.065	10583
696.108	10852
696.125	11042
696.150	11282
696.192	11550
696.235	11619
696.245	11615
696.277	11333
696.319	11073
696.361	10794
696.365	10733
696.404	10589
696.446	10435
696.485	10361
696.488	10429
696.530	10898
696.572	11413
696.604	11706
696.614	11619
696.656	11233
696.698	10685
696.724	10440
696.740	10559
696.783	10527
696.825	10844
696.844	10813
696.867	10715
696.909	10700
696.951	10567
696.964	10518
696.992	10839
697.034	11191
697.076	11593
697.083	11622
697.118	11462
697.160	11370
697.202	11095
697.203	11061
697.244	11029
697.286	10853
697.323	10716
697.327	10753
697.369	10824
697.411	10878
697.442	10955
697.453	11114
697.494	11526
697.536	11953
697.562	12219
697.578	12312
697.620	12411
697.661	12536
697.682	12591
697.703	12700
697.744	12809
697.786	13000
697.801	12983
697.828	13196
697.869	13564
697.911	13839
697.921	13890
697.952	13616
697.994	13146
698.035	12751
698.040	12665
698.077	12295
698.118	11783
698.160	11337
698.160	11304
698.201	11895
698.243	12457
698.279	12956
698.284	12958
698.325	12628
698.367	12286
698.399	11994
698.408	12041
698.449	12112
698.491	12168
698.518	12174
698.532	12280
698.573	12506
698.614	12749
698.638	12847
698.656	12798
698.697	12603
698.738	12385
698.757	12267
698.779	12498
698.820	12849
698.862	13207
698.877	13306
698.903	13455
698.944	13631
698.985	13802
698.996	13816
699.026	13614
699.067	13278
699.116	12843
699.235	11905
699.354	12158
699.474	12654
699.593	12366
699.713	12775
699.832	12716
699.951	13221
700.070	12996
700.190	11855
700.309	12467
700.428	13298
700.547	12546
700.667	11585
700.786	12645
700.905	11690
701.024	11700
701.143	11196
701.262	10910
701.381	10634
701.500	12746
701.619	13456
701.738	10850
701.857	11430
701.976	10575
702.095	11236
702.214	12516
702.333	12358
702.452	12693
702.571	10996
702.690	11068
702.809	10726
702.928	10339
703.047	10481
703.165	11082
703.284	9453
703.403	10496
703.522	11711
703.640	12192
703.759	12820
703.878	15795
703.997	10973
704.115	10311
704.234	10501
704.353	9867
704.471	10021
704.590	9774
704.708	9731
704.827	9315
704.946	10394
705.064	10104
705.183	9725
705.301	10421
705.420	13994
705.538	12230
705.656	11462
705.775	11271
705.893	11617
706.012	12794
706.130	10708
706.249	11864
706.367	12239
706.485	12925
706.604	12078
706.722	11752
706.840	14697
706.958	14365
707.077	11697
707.195	10210
707.313	11925
707.431	10011
707.549	9987
707.668	10480
707.786	11947
707.904	10548
708.022	11003
708.140	10102
708.258	9794
708.376	10834
708.494	9938
708.612	11367
708.730	14304
708.848	14550
708.966	13988
709.084	13314
709.202	12401
709.320	12754
709.438	13295
709.556	12928
709.674	11786
709.791	11546
709.909	11739
710.027	12483
710.145	12028
710.263	11530
710.380	12733
710.498	12580
710.616	10868
710.733	11058
710.851	11873
710.969	12568
711.086	11443
711.204	11498
711.322	11303
711.439	11299
711.557	11550
711.674	11541
711.792	10716
711.909	10477
712.027	10626
712.144	10390
712.262	11475
712.379	12028
712.497	15768
712.614	14774
712.732	13307
712.849	13320
712.966	14053
713.084	17231
713.201	13065
713.318	13784
713.436	13116
713.553	12705
713.670	13778
713.787	14864
713.905	15120
714.022	12873
714.139	13641
714.256	16661
714.373	21780
714.490	36374
714.608	97804
714.725	406939
714.842	348481
714.959	29383
715.076	16649
715.193	14312
715.310	13178
715.427	12351
715.544	11790
715.661	12529
715.778	11944
715.895	11848
716.011	12052
716.128	12277
716.245	11817
716.362	14705
716.479	13176
716.596	11328
716.713	11720
716.829	11060
716.946	10404
717.063	10294
717.180	10252
717.296	10826
717.413	10864
717.530	10646
717.646	9595
717.763	10646
717.880	9790
717.996	9631
718.113	9213
718.229	9852
718.346	8988
718.462	10521
718.579	13248
718.695	22652
718.812	15242
718.928	14150
719.045	10260
719.161	9462
719.277	10022
719.394	10315
719.510	9731
719.626	10287
719.743	11503
719.859	16505
719.975	30851
720.092	117475
720.208	233236
720.324	26291
720.440	11833
720.557	12731
720.673	18094
720.789	22721
720.905	41150
721.021	14707
721.137	9597
721.253	9675
721.369	9560
721.486	10859
721.602	13757
721.718	8269
721.834	8505
721.950	7938
722.066	8444
722.181	8304
722.297	8569
722.413	8263
722.529	7729
722.645	7717
722.761	7118
722.877	7135
722.993	7597
723.108	9376
723.224	7564
723.340	7731
723.456	8214
723.571	7852
723.687	7201
723.803	7792
723.918	7308
724.034	7023
724.150	7415
724.265	8026
724.381	15463
724.497	18594
724.612	7614
724.728	6284
724.843	7424
724.959	8672
725.074	15704
725.190	16517
725.305	7974
725.421	7443
725.536	6781
725.651	6269
725.767	6612
725.882	7215
725.997	6835
726.113	6769
726.228	6551
726.343	6407
726.459	5899
726.574	6671
726.689	6012
726.804	6287
726.920	5675
727.035	6276
727.150	5911
727.265	5410
727.380	6463
727.495	6461
727.610	5883
727.725	5982
727.841	6143
727.956	6896
728.071	7337
728.186	6196
728.301	5718
728.416	6725
728.531	6655
728.645	5800
728.760	6023
728.875	7049
728.990	6065
729.105	6673
729.220	7022
729.335	6775
729.449	5523
729.564	5951
729.679	4739
729.794	6072
729.908	6636
730.023	5921
730.138	5084
730.253	6024
730.367	4625
730.482	5282
730.596	5398
730.711	5254
730.826	6609
730.940	5241
731.055	6188
731.169	5627
731.284	5427
731.398	6223
731.513	6808
731.627	6587
731.742	7430
731.856	7489
731.970	6331
732.085	8228
732.199	11175
732.313	18570
732.428	47808
732.542	132945
732.656	66169
732.771	13599
732.885	8483
732.999	7609
733.113	8403
733.227	8106
733.342	7310
733.456	6110
733.570	5807
733.684	5865
733.798	6071
733.912	5774
734.026	5616
734.140	6349
734.254	7138
734.368	10738
734.482	11615
734.596	5967
734.710	5141
734.824	6070
734.938	6137
735.052	5995
735.166	7552
735.280	6090
735.393	5461
735.507	5351
735.621	7207
735.735	11298
735.849	6764
735.962	5780
736.076	5770
736.190	6020
736.303	7404
736.417	8688
736.531	5436
736.644	5447
736.758	5741
736.872	5415
736.985	5121
737.099	5408
737.212	4604
737.326	5016
737.439	5461
737.553	5099
737.666	5015
737.780	4370
737.893	4853
738.007	4728
738.120	3806
738.233	4360
738.347	4736
738.460	5052
738.573	5391
738.687	6067
738.800	5731
738.913	6829
739.026	5553
739.140	4928
739.253	4972
739.366	4754
739.479	4629
739.592	4048
739.705	4380
739.818	5896
739.932	4472
740.045	4782
740.158	4816
740.271	4508
740.384	4039
740.497	4776
740.610	5791
740.723	4636
740.836	5131
740.949	5597
741.062	7538
741.174	6092
741.287	4210
741.400	4773
741.513	4645
741.626	5388
741.739	4934
741.851	4908
741.964	4746
742.077	4223
742.189	5157
742.302	5726
742.415	5303
742.527	5355
742.640	3657
742.753	3985
742.865	4060
742.978	4147
743.090	4468
743.203	3956
743.316	4022
743.428	3747
743.541	3831
743.653	3450
743.766	4282
743.878	3952
743.990	5550
744.103	5909
744.215	3974
744.327	4072
744.440	5529
744.552	8242
744.664	4802
744.777	4523
744.889	3127
745.001	4453
745.113	3710
745.226	3357
745.338	3678
745.450	4107
745.562	4174
745.674	4205
745.786	3392
745.898	3174
746.010	3618
746.122	3619
746.234	3488
746.347	3884
746.459	3565
746.570	3844
746.682	4081
746.794	5179
746.906	3609
747.018	3215
747.130	3299
747.242	3433
747.354	3638
747.466	4240
747.577	2952
747.689	3759
747.801	3654
747.913	3030
748.024	3272
748.136	3112
748.248	3136
748.359	4075
748.471	3402
748.583	2880
748.694	2927
748.806	3775
748.918	4417
749.029	3761
749.141	4614
749.252	4805
749.364	4354
749.475	9079
749.587	5823
749.698	2515
749.809	4058
749.921	3656
750.032	2430
750.144	3002
750.255	3013
750.366	3023
750.478	2740
750.589	3873
750.700	3305
750.811	4372
750.923	4511
751.034	10671
751.145	9821
751.256	3326
751.367	3164
751.479	3459
751.590	2396
751.701	3069
751.812	2188
751.923	3652
752.034	2835
752.145	3090
752.256	2752
752.367	2710
752.478	2642
752.589	2543
752.700	2870
752.811	2864
752.922	2269
753.032	3025
753.143	4811
753.254	2569
753.365	3811
753.476	2667
753.586	2924
753.697	1942
753.808	2722
753.919	2579
754.029	2491
754.140	3012
754.251	2792
754.361	2835
754.472	2521
754.582	2715
754.693	3031
754.804	3232
754.914	3275
755.025	1684
755.135	2415
755.246	2869
755.356	2453
755.466	2942
755.577	2952
755.687	2145
755.798	2677
755.908	2627
756.018	1868
756.129	2340
756.239	2164
756.349	2470
756.460	3114
756.570	3209
756.680	1998
756.790	2705
756.900	2914
757.011	2506
757.121	2347
757.231	2740
757.341	2105
757.451	2272
757.561	1950
757.671	3241
757.781	1528
757.891	2598
758.001	2560
758.111	3267
758.221	2710
758.331	3730
758.441	4506
758.551	5350
758.661	5056
758.771	3521
758.880	2795
758.990	3730
759.100	2935
759.210	2278
759.320	2858
759.429	2627
759.539	2843
759.649	3707
759.758	3336
759.868	3886
759.978	3187
760.087	3149
760.197	4595
760.307	3815
760.416	3368
760.526	2168
760.635	3025
760.745	3469
760.854	3786
760.964	4147
761.073	4119
761.182	4210
761.292	3964
761.401	3315
761.511	3401
761.620	2852
761.729	3173
761.839	2187
761.948	3094
762.057	3286
762.166	2768
762.276	1214
762.385	3333
762.494	3382
762.603	3358
762.712	2947
762.822	2510
762.931	2234
763.040	2363
763.149	2124
763.258	2857
763.367	2899
763.476	2583
763.585	3249
763.694	3254
763.803	2837
763.912	3856
764.021	3385
764.130	2633
764.238	2671
764.347	2557
764.456	3164
764.565	3596
764.674	2965
764.783	3666
764.891	3205
765.000	4715
765.109	3817
765.217	3977
765.326	5957
765.435	5741
765.543	6139
765.652	5214
765.761	6597
765.869	9306
765.978	14879
766.086	26894
766.195	54221
766.303	150636
766.412	439188
766.520	332289
766.629	70168
766.737	25725
766.846	15024
766.954	10760
767.062	9829
767.171	6671
767.279	6458
767.387	5215
767.496	4212
767.604	3465
767.712	4313
767.820	3469
767.928	3937
768.037	3862
768.145	4261
768.253	3604
768.361	3160
768.469	3702
768.577	3182
768.685	4790
768.793	3649
768.901	3439
769.009	5643
769.117	4722
769.225	6522
769.333	7473
769.441	10631
769.549	21440
769.657	51367
769.765	181981
769.873	358066
769.981	97164
770.088	20867
770.196	10832
770.304	7883
770.412	7280
770.519	5545
770.627	4834
770.735	4285
770.842	4686
770.950	5015
771.058	2787
771.165	4088
771.273	3186
771.380	4544
771.488	4090
771.595	3424
771.703	2675
771.810	4054
771.918	3357
772.025	4395
772.133	4031
772.240	4175
772.348	4422
772.455	3687
772.562	3273
772.670	3368
772.777	4160
772.884	4322
772.991	3494
773.099	3854
773.206	2958
773.313	3530
773.420	3379
773.528	3247
773.635	3180
773.742	3232
773.849	3095
773.956	3291
774.063	3250
774.170	3503
774.277	4040
774.384	3983
774.491	2986
774.598	3685
774.705	4804
774.812	5549
774.919	3807
775.026	3627
775.133	2732
775.239	2970
775.346	3777
775.453	2839
775.560	3009
775.667	3579
775.773	3158
775.880	3364
775.987	3531
776.093	4068
776.200	2849
776.307	2976
776.413	3459
776.520	3039
776.627	3036
776.733	2392
776.840	1882
776.946	3962
777.053	4346
777.159	4140
777.266	3481
777.372	5554
777.478	4482
777.585	3350
777.691	3251
777.798	3480
777.904	4144
778.010	5265
778.117	3826
778.223	3410
778.329	2867
778.435	3221
778.542	2846
778.648	2620
778.754	1998
778.860	2957
778.966	2171
779.072	2410
779.178	3132
779.284	2453
779.391	1993
779.497	1881
779.603	5062
779.708	2129
779.815	3941
779.920	8092
780.026	10544
780.132	3805
780.238	2179
780.344	2689
780.450	3597
780.556	2855
780.661	2741
780.767	3186
780.873	2329
780.979	3522
781.085	2084
781.190	2512
781.296	2738
781.402	2229
781.507	2742
781.613	2143
781.719	2264
781.824	2408
781.930	3024
782.035	1931
782.141	2737
782.246	2709
782.352	2594
782.457	2321
782.563	2472
782.668	2106
782.773	2211
782.879	1819
782.984	2915
783.090	4164
783.195	4837
783.300	3266
783.405	2373
783.511	2512
783.616	2391
783.721	2690
783.826	2521
783.932	2834
784.037	2692
784.142	2519
784.247	2826
784.352	2342
784.457	2220
784.562	2464
784.667	1796
784.772	2247
784.877	2028
784.982	2791
785.087	2355
785.192	2702
785.297	1576
785.402	2392
785.507	2431
785.611	2536
785.716	2370
785.821	2438
785.926	2596
786.031	2056
786.135	1778
786.240	2124
786.345	935
786.450	2395
786.554	1605
786.659	1721
786.763	1208
786.868	2063
786.973	2639
787.077	1922
787.182	1693
787.286	1652
787.391	1833
787.495	1263
787.600	986
787.704	842
787.809	2488
787.913	925
788.017	2929
788.122	1616
788.226	2095
788.330	1097
788.435	2119
788.539	1451
788.643	1806
788.747	1456
788.852	1868
788.956	1321
789.060	1702
789.164	1107
789.268	1635
789.372	1969
789.476	2129
789.580	1526
789.684	1796
789.788	1763
789.892	1533
789.996	2304
790.100	1228
790.204	2208
790.308	2820
790.412	1287
790.516	1259
790.620	651
790.724	2036
790.828	1269
790.931	148
791.035	2854
791.139	1608
791.242	146
791.346	1963
791.450	1348
791.554	1121
791.657	792
791.761	2625
791.864	2638
791.968	1204
792.072	1875
792.175	1836
792.279	1489
792.382	1166
792.486	1958
792.589	1153
792.693	1322
792.796	676
792.899	2366
793.003	2172
793.106	533
793.209	1266
793.313	3009
793.416	598
793.519	2547
793.623	3826
793.726	4595
793.829	1840
793.932	1218
794.035	580
794.138	2740
794.242	2089
794.345	2075
794.448	2219
794.551	2906
794.654	5974
794.757	6129
794.860	2299
794.963	1991
795.066	771
795.169	3226
795.272	777
795.375	2114
795.477	1245
795.580	1736
795.683	800
795.786	1332
795.889	512
795.991	1624
796.094	2438
796.197	443
796.300	2040
796.402	1399
796.505	434
796.608	1332
796.710	1032
796.813	1596
796.915	1578
797.018	1365
797.120	1858
797.223	570
797.326	1543
797.428	182
797.530	1461
797.633	1020
797.735	2156
797.838	2778
797.940	3247
798.042	1200
798.145	1377
798.247	1343
798.349	-113
798.452	1598
798.554	795
798.656	694
798.758	2106
798.860	477
798.962	714
799.065	861
799.167	43
799.269	2288
799.371	2169
799.473	2393
799.575	1587
799.677	1515
799.779	3174
799.881	2344
799.983	2505
800.085	570
800.187	404
800.289	637
800.390	1310
800.492	1823
800.594	2022
800.696	856
800.798	1307
800.899	952
801.001	631
801.103	921
801.205	391
801.306	1004
801.408	243
801.509	1277
801.611	835
801.713	1087
801.814	-78
801.916	907
802.017	726
802.119	348
802.220	885
802.322	-1027
802.423	2877
802.525	353
802.626	757
802.727	1360
802.829	1152
802.930	-785
803.031	2241
803.133	211
803.234	1384
803.335	749
803.436	410
803.538	1148
803.639	257
803.740	1431
803.841	176
803.942	1279
804.043	488
804.144	137
804.245	1474
804.346	199
804.447	105
804.548	2034
804.649	2650
804.750	723
804.851	469
804.952	622
805.053	218
805.154	-507
805.255	1598
805.355	534
805.456	272
805.557	-213
805.658	322
805.758	937
805.859	467
805.960	1372
806.061	-411
806.161	87
806.262	1174
806.362	466
806.463	540
806.564	666
806.664	1011
806.765	1357
806.865	1350
806.966	271
807.066	216
807.166	901
807.267	1410
807.367	497
807.468	593
807.568	-245
807.668	1290
807.769	1556
807.869	-243
807.969	448
808.069	1183
808.170	765
808.270	789
808.370	1201
808.470	1269
808.570	110
808.670	712
808.770	705
808.870	-134
808.970	328
809.070	625
809.170	-559
809.271	414
809.370	348
809.470	618
809.570	484
809.670	-513
809.770	812
809.870	1188
809.970	1004
810.070	129
810.169	401
810.269	-794
810.369	1329
810.469	-626
810.568	311
810.668	-25
810.768	-58
810.867	820
810.967	323
811.066	813
811.166	-463
811.265	1495
811.365	-198
811.464	829
811.564	892
811.663	1240
811.763	289
811.862	498
811.962	1033
812.061	619
812.160	598
812.260	704
812.359	1822
812.458	2707
812.557	8267
812.657	12294
812.756	4084
812.855	887
812.954	771
813.053	778
813.153	923
813.252	62
813.351	1302
813.450	223
813.549	188
813.648	929
813.747	-126
813.846	1735
813.945	389
814.044	699
814.143	1332
814.242	1987
814.341	581
814.439	1572
814.538	666
814.637	1436
814.736	520
814.835	1887
814.933	92
815.032	2023
815.131	1370
815.229	1603
815.328	2221
815.427	1696
815.525	2349
815.624	1959
815.722	1691
815.821	2630
815.919	2358
816.018	2006
816.116	3317
816.215	2074
816.313	2454
816.412	3561
816.510	2439
816.609	4507
816.707	3974
816.805	3722
816.904	4213
817.002	5232
817.100	4869
817.198	5874
817.296	6196
817.395	7130
817.493	8337
817.591	8721
817.689	14321
817.787	17855
817.885	28764
817.983	50660
818.081	103106
818.179	232036
818.277	481354
818.375	405469
818.473	151689
818.571	66257
818.669	42572
818.767	36484
818.865	35930
818.963	41802
819.061	58677
819.158	96843
819.256	188284
819.354	396246
819.452	646509
819.549	461100
819.647	193426
819.745	91022
819.842	53682
819.940	36765
820.038	27174
820.135	19688
820.233	16894
820.330	12755
820.428	10263
820.525	9596
820.623	8986
820.720	6828
820.818	5898
820.915	5758
821.012	6070
821.110	3809
821.207	5116
821.304	3380
821.402	4015
821.499	4230
821.596	4809
821.693	3975
821.791	4109
821.888	4810
821.985	6917
822.082	4890
822.179	3671
822.276	2911
822.373	2792
822.470	1754
822.567	1960
822.664	1387
822.761	2304
822.858	1822
822.955	2279
823.052	1189
823.149	1599
823.246	1334
823.343	1175
823.440	1091
823.536	1773
823.633	993
823.730	1394
823.827	1809
823.923	916
824.020	2396
824.117	1501
824.213	1216
824.310	1650
824.407	1333
824.503	1029
824.600	1650
824.696	1404
824.793	1422
824.889	81
824.986	707
825.082	923
825.179	1162
825.275	1374
825.371	876
825.468	1755
825.564	-337
825.660	2110
825.757	231
825.853	996
825.949	-481
826.045	1514
826.142	11
826.238	365
826.334	1217
826.430	-109
826.526	1001
826.622	-90
826.718	421
826.814	718
826.910	1100
827.006	420
827.102	326
827.198	1336
827.294	656
827.390	936
827.486	786
827.582	-342
827.678	136
827.774	1057
827.869	-851
827.965	1544
828.061	768
828.157	570
828.252	294
828.348	81
828.444	960
828.539	-461
828.635	-15
828.731	1058
828.826	-349
828.922	634
829.017	-413
829.113	870
829.208	577
829.304	559
829.399	1897
829.495	799
829.590	2039
829.685	-139
829.781	937
829.876	-30
829.971	308
830.066	711
830.162	406
830.257	226
830.352	-245
830.447	572
830.543	561
830.638	-1100
830.733	1307
830.828	285
830.923	101
831.018	412
831.113	394
831.208	-598
831.303	-328
831.398	-105
831.493	756
831.588	629
831.683	-383
831.778	-261
831.873	457
831.967	786
832.062	344
832.157	-639
832.252	737
832.346	105
832.441	1133
832.536	1981
832.631	4982
832.725	3486
832.820	794
832.914	-279
833.009	18
833.104	784
833.198	1194
833.293	254
833.387	667
833.482	934
833.576	-373
833.670	1264
833.765	-51
833.859	-336
833.954	1237
834.048	646
834.142	-296
834.237	-835
834.331	232
834.425	-202
834.519	-587
834.613	475
834.708	-562
834.802	-218
834.896	-10
834.990	-6
835.084	-533
835.178	359
835.272	-116
835.366	-291
835.460	372
835.554	25
835.648	2
835.742	-242
835.836	434
835.930	-864
836.024	750
836.117	-58
836.211	347
836.305	1209
836.399	1769
836.493	-849
836.586	779
836.680	-414
836.774	-49
836.867	1122
836.961	-450
837.055	-361
837.148	356
837.242	328
837.335	-139
837.429	-321
837.522	114
837.616	46
837.709	2146
837.803	1667
837.896	900
837.989	-459
838.083	1449
838.176	2605
838.269	1906
838.363	430
838.456	644
838.549	1229
838.642	2211
838.735	5848
838.829	1813
838.922	-752
839.015	161
839.108	-1023
839.201	279
839.294	77
839.387	63
839.480	440
839.573	915
839.666	288
839.759	-26
839.852	-104
839.945	-111
840.038	76
840.131	-365
840.223	480
840.316	-162
840.409	-54
840.502	-476
840.594	1432
840.687	-752
840.780	299
840.873	-105
840.965	-192
841.058	668
841.150	2233
841.243	544
841.336	-345
841.428	23
841.521	-112
841.613	-615
841.706	522
841.798	-345
841.890	642
841.983	-1476
842.075	923
842.167	-158
842.260	12
842.352	751
842.444	136
842.537	2013
842.629	3635
842.721	-597
842.813	0
842.905	-898
842.997	-707
843.090	646
843.182	813
843.274	1937
843.366	6974
843.458	11623
843.550	7809
843.642	139
843.734	590
843.826	184
843.918	406
844.009	-113
844.101	-827
844.193	637
844.285	-223
844.377	-331
844.469	1433
844.560	-568
844.652	253
844.744	666
844.835	124
844.927	380
845.019	-29
845.110	-571
845.202	436
845.293	-413
845.385	-999
845.476	615
845.568	215
845.659	56
845.751	78
845.842	-746
845.934	-396
846.025	256
846.116	-316
846.208	-344
846.299	-7
846.390	-821
846.482	-131
846.573	604
846.664	315
846.755	936
846.846	1207
846.937	-670
847.029	-516
847.120	-920
847.211	-985
847.302	349
847.393	-655
847.484	-116
847.575	-535
847.666	-732
847.757	-54
847.847	-70
847.938	645
848.029	-121
848.120	-999
848.211	-477
848.302	-8
848.392	-712
848.483	-204
848.574	-166
848.664	435
848.755	-166
848.846	86
848.936	-294
849.027	325
849.118	32
849.208	294
849.299	896
849.389	1150
849.480	4620
849.570	9131
849.661	17600
849.751	28861
849.841	8814
849.932	1050
850.022	-594
850.112	234
850.203	-1027
850.293	-130
850.383	-512
850.474	-652
850.564	-311
850.654	4
850.744	-559
850.834	35
850.924	-204
851.014	364
851.104	231
851.194	-185
851.284	652
851.374	187
851.464	187
851.554	-766
851.644	671
851.734	1302
851.824	186
851.914	-921
852.004	-528
852.094	-623
852.183	480
852.273	-289
852.363	-537
852.452	162
852.542	-60
852.632	15
852.721	-8
852.811	85
852.901	-415
852.990	-432
853.080	-463
853.169	286
853.259	-87
853.348	-31
853.438	1189
853.527	1833
853.617	2565
853.706	6410
853.795	12557
853.885	30659
853.974	56057
854.063	106820
854.152	159138
854.242	54812
854.331	8967
854.420	2703
854.509	2842
854.598	1757
854.687	763
854.777	1026
854.866	623
854.955	1023
855.044	-711
855.133	138
855.222	170
855.311	-381
855.400	278
855.488	-159
855.577	-391
855.666	-588
855.755	407
855.844	93
855.933	-982
856.021	-1000
856.110	812
856.199	-550
856.288	-108
856.376	-220
856.465	-1009
856.554	-165
856.642	-371
856.731	-639
856.819	-963
856.908	-499
856.996	-678
857.085	-484
857.173	-308
857.262	-721
857.350	475
857.438	146
857.527	-771
857.615	-435
857.703	-141
857.792	-495
857.880	-1009
857.968	-482
858.056	-602
858.145	-247
858.233	-747
858.321	-167
858.409	326
858.497	-960
858.585	-936
858.673	699
858.761	-491
858.849	-1161
858.937	-394
859.025	-396
859.113	-926
859.201	-346
859.289	196
859.377	-1207
859.465	-689
859.552	-379
859.640	292
859.728	-915
859.816	-73
859.903	-138
859.991	-764
860.079	93
860.166	-942
860.254	-510
860.342	-466
860.429	-16
860.517	-670
860.604	-190
860.692	-872
860.779	-18
860.867	-264
860.954	38
861.042	-240
861.129	31
861.216	89
861.304	-914
861.391	-804
861.478	-358
861.565	-722
861.653	395
861.740	-677
861.827	-605
861.914	-540
862.001	-361
862.089	-261
862.176	-695
862.263	-832
862.350	-601
862.437	-1083
862.524	-1753
862.611	-1015
862.698	-97
862.785	-501
862.871	-57
862.958	-965
863.045	-1100
863.132	-252
863.219	-223
863.306	-296
863.392	-462
863.479	317
863.566	-324
863.652	-172
863.739	-338
863.826	-48
863.912	105
863.999	-983
864.086	124
864.172	-204
864.259	-601
864.345	99
864.432	-430
864.518	-893
864.604	-197
864.691	631
864.777	-551
864.863	-357
864.950	-418
865.036	222
865.122	1517
865.209	1293
865.295	1555
865.381	1249
865.467	959
865.553	2093
865.639	3640
865.726	6195
865.812	14624
865.898	28984
865.984	42615
866.070	83032
866.156	82147
866.242	18464
866.328	4443
866.414	2339
866.499	1415
866.585	1522
866.671	1629
866.757	1353
866.843	748
866.928	152
867.014	867
867.100	1130
867.186	992
867.271	311
867.357	1513
867.442	1633
867.528	244
867.614	655
867.699	368
867.785	1037
867.870	161
867.956	1339
868.041	1064
868.127	1854
868.212	564
868.297	1081
868.383	232
868.468	1428
868.553	2757
868.639	3207
868.724	6541
868.809	6094
868.894	1039
868.979	417
869.065	563
869.150	105
869.235	442
869.320	-90
869.405	294
869.490	-1189
869.575	-138
869.660	-30
869.745	559
869.830	-20
869.915	28
870.000	700
870.085	-2
870.169	310
870.254	589
870.339	137
870.424	-629
870.509	490
870.593	1384
870.678	-228
870.763	-97
870.847	5
870.932	-330
871.016	-17
871.101	-252
871.186	88
871.270	928
871.355	354
871.439	223
871.523	-663
871.608	219
871.692	-199
871.777	357
871.861	-26
871.945	-119
872.030	-29
872.114	260
872.198	-690
872.282	-614
872.367	-786
872.451	-1120
872.535	30
872.619	156
872.703	472
872.787	-515
872.871	-299
872.955	-274
873.039	-607
873.123	184
873.207	441
873.291	-146
873.375	94
873.459	414
873.543	-511
873.627	-185
873.711	44
873.794	-243
873.878	-429
873.962	-957
874.045	-592
874.129	-530
874.137	-527
874.213	-498
874.245	-360
874.296	-145
874.352	-598
874.380	-818
874.460	-49
874.464	-19
874.547	-249
874.568	-75
874.631	459
874.676	63
874.714	-283
874.784	-14
874.798	36
874.881	247
874.892	125
874.965	-617
874.999	-412
875.048	-191
875.107	451
875.131	717
875.215	273
875.215	273
875.298	-196
875.323	-87
875.381	187
875.430	532
875.465	793
875.538	34
875.548	-75
875.631	-474
875.646	-512
875.714	-692
875.753	-494
875.798	-237
875.861	97
875.881	173
875.964	-505
875.968	-510
876.047	-439
876.076	-329
876.130	-212
876.183	335
876.213	679
876.291	952
876.296	962
876.379	-147
876.398	-101
876.462	113
876.506	-67
876.545	-191
876.613	-44
876.628	-31
876.711	376
876.721	390
876.794	507
876.828	216
876.877	-151
876.935	-109
876.960	-120
877.043	375
877.043	375
877.125	571
877.150	524
877.208	365
877.258	435
877.291	443
877.365	-59
877.374	-107
877.456	121
877.472	110
877.539	-4
877.579	115
877.622	407
877.687	525
877.704	473
877.787	-314
877.794	-269
877.869	386
877.901	409
877.952	391
878.008	117
878.034	23
878.115	237
878.117	243
878.199	-54
878.222	10
878.282	110
878.329	460
878.364	826
878.437	645
878.447	572
878.529	108
878.544	54
878.611	12
878.651	87
878.694	207
878.758	669
878.776	763
878.858	159
878.865	149
878.941	-27
878.972	-141
879.023	-149
879.078	-194
879.105	-238
879.185	470
879.187	484
879.269	227
879.292	69
879.351	-285
879.399	38
879.433	316
879.506	1151
879.516	1240
879.598	597
879.613	513
879.680	98
879.720	237
879.762	376
879.827	-54
879.844	-171
879.926	-437
879.933	-386
880.007	244
880.040	174
880.089	196
880.147	882
880.171	1270
880.253	3608
880.254	3616
880.335	4712
880.360	5339
880.417	7636
880.467	11077
880.499	13749
880.574	17217
880.580	16948
880.662	5331
880.680	3960
880.744	1500
880.787	899
880.825	930
880.893	617
880.907	525
880.989	373
881.000	373
881.070	909
881.106	934
881.152	482
881.213	184
881.233	216
881.315	-45
881.319	-30
881.396	364
881.426	158
881.478	-74
881.532	368
881.559	384
881.639	304
881.641	316
881.722	865
881.745	747
881.803	618
881.852	818
881.885	718
881.958	517
881.966	532
882.047	1125
882.064	1020
882.129	515
882.171	938
882.210	1723
882.277	2672
882.291	2718
882.372	1720
882.383	1632
882.454	653
882.489	214
882.535	66
882.596	281
882.616	376
882.697	578
882.702	575
882.778	309
882.808	148
882.859	-8
882.914	272
882.940	489
883.020	364
883.021	363
883.102	88
883.127	63
883.183	471
883.233	696
883.264	632
883.339	493
883.345	488
883.426	481
883.445	441
883.507	261
883.551	109
883.587	372
883.657	885
883.668	862
883.749	947
883.763	831
883.830	47
883.869	4
883.910	280
883.975	290
883.991	321
884.072	660
884.081	654
884.152	519
884.187	713
884.233	971
884.292	853
884.314	705
884.394	-68
884.398	-67
884.475	680
884.504	748
884.555	422
884.610	45
884.636	159
884.716	892
884.716	897
884.797	475
884.821	469
884.877	659
884.927	682
884.958	637
885.033	707
885.038	715
885.118	468
885.139	432
885.199	444
885.244	575
885.279	814
885.350	1030
885.359	976
885.439	660
885.456	513
885.520	265
885.561	335
885.600	509
885.667	649
885.680	679
885.760	777
885.773	810
885.840	784
885.878	687
885.920	866
885.984	1148
886.000	1103
886.080	748
886.089	727
886.160	876
886.195	916
886.240	677
886.300	251
886.320	394
886.400	1231
886.406	1276
886.480	1532
886.511	1540
886.560	1337
886.616	1090
886.640	1030
886.720	903
886.722	894
886.800	701
886.827	629
886.879	614
886.932	603
886.959	803
887.038	1435
887.039	1435
887.119	727
887.143	559
887.198	1061
887.248	1416
887.278	1167
887.354	455
887.358	470
887.437	730
887.459	821
887.517	1353
887.564	1748
887.596	1713
887.669	1552
887.676	1461
887.755	278
887.774	-21
887.835	257
887.880	527
887.914	830
887.985	1301
887.994	1282
888.073	1144
888.090	1086
888.153	1023
888.195	1015
888.232	1071
888.300	1166
888.311	1165
888.391	1086
888.405	1065
888.470	1422
888.510	1619
888.549	1481
888.615	1288
888.628	1328
888.708	1489
888.720	1507
888.787	1429
888.825	1388
888.866	1350
888.930	1214
888.945	1184
889.024	1067
889.035	1043
889.103	1289
889.140	1414
889.182	1114
889.245	654
889.261	810
889.340	1517
889.349	1598
889.419	1274
889.454	1086
889.498	932
889.559	720
889.577	760
889.656	918
889.664	933
889.735	1503
889.768	1762
889.814	1460
889.873	1053
889.978	844
890.083	1613
890.187	1504
890.292	1516
890.397	894
890.501	1731
890.606	1410
890.710	1672
890.815	1260
890.919	1401
891.024	464
891.128	1222
891.233	1724
891.337	899
891.442	663
891.546	1294
891.650	1433
891.755	863
891.859	2133
891.963	1290
892.068	2570
892.172	867
892.276	1364
892.380	1252
892.484	1252
892.589	1899
892.693	1144
892.797	412
892.901	1437
893.005	1501
893.109	2256
893.213	1254
893.317	1075
893.421	2211
893.525	1546
893.629	1214
893.733	1064
893.837	1513
893.941	491
894.045	1351
894.148	370
894.252	984
894.356	1292
894.460	2155
894.564	1127
894.667	1551
894.771	1350
894.875	1288
894.978	1631
895.082	753
895.186	1475
895.289	1090
895.393	1303
895.496	1680
895.600	1211
895.703	1830
895.807	525
895.910	1262
896.014	852
896.117	1266
896.221	678
896.324	1494
896.427	1298
896.531	1184
896.634	716
896.737	1806
896.840	976
896.944	1172
897.047	1940
897.150	842
897.253	1207
897.356	1730
897.460	1682
897.563	334
897.666	1121
897.769	1262
897.872	88
897.975	942
898.078	1064
898.181	1030
898.284	753
898.387	888
898.490	1247
898.593	1441
898.695	589
898.798	979
898.901	1347
899.004	1339
899.107	1695
899.209	1241
899.312	727
899.415	1783
899.518	920
899.620	1101
899.723	1257
899.826	2104
899.928	2402
900.031	1217
900.133	791
900.236	814
900.338	243
900.441	907
900.543	1410
900.646	1009
900.748	576
900.851	963
900.953	1002
901.055	1231
901.158	645
901.260	-123
901.362	1161
901.465	897
901.567	1577
901.669	795
901.771	586
901.873	1297
901.976	1193
902.078	557
902.180	1122
902.282	517
902.384	1086
902.486	1177
902.588	609
902.690	1287
902.792	429
902.894	951
902.996	268
903.098	844
903.200	426
903.302	552
903.404	515
903.505	784
903.607	1111
903.709	529
903.811	1197
903.913	897
904.014	1368
904.116	1019
904.218	335
904.319	800
904.421	1346
904.523	1729
904.624	252
904.726	290
904.827	991
904.929	220
905.030	713
905.132	1175
905.233	924
905.335	680
905.436	1466
905.537	549
905.639	1384
905.740	787
905.841	808
905.943	1269
906.044	858
906.145	341
906.247	852
906.348	429
906.449	889
906.550	899
906.651	674
906.752	705
906.854	307
906.955	-595
907.056	963
907.157	393
907.258	506
907.359	1041
907.460	1043
907.561	-264
907.662	614
907.762	726
907.863	951
907.964	570
908.065	1306
908.166	1086
908.267	624
908.367	308
908.468	670
908.569	792
908.670	869
908.770	1618
908.871	1500
908.971	2081
909.072	713
909.173	612
909.273	285
909.374	837
909.474	700
909.575	725
909.675	1155
909.776	639
909.876	436
909.977	280
910.077	1192
910.177	955
910.278	673
910.378	1222
910.478	759
910.579	793
910.679	665
910.779	411
910.879	968
910.980	679
911.080	1217
911.180	643
911.280	362
911.380	767
911.480	849
911.580	103
911.680	1237
911.780	419
911.880	985
911.980	664
912.080	-202
912.180	1370
912.280	890
912.380	160
912.480	470
912.580	401
912.679	621
912.779	807
912.879	934
912.979	991
913.078	328
913.178	173
913.278	327
913.377	1560
913.477	848
913.577	759
913.676	953
913.776	318
913.875	1159
913.975	803
914.074	773
914.174	178
914.273	190
914.373	1236
914.472	1555
914.572	333
914.671	953
914.770	1064
914.870	-42
914.969	412
915.068	872
915.167	931
915.267	906
915.366	118
915.465	1039
915.564	147
915.663	1092
915.763	187
915.862	1072
915.961	1543
916.060	97
916.159	301
916.258	114
916.357	278
916.456	438
916.555	824
916.654	100
916.752	1198
916.851	978
916.950	858
917.049	986
917.148	950
917.247	301
917.345	58
917.444	101
917.543	555
917.642	709
917.740	586
917.839	471
917.937	831
918.036	1754
918.135	462
918.233	315
918.332	458
918.430	754
918.529	92
918.627	-24
918.726	1095
918.824	2273
918.923	147
919.021	311
919.119	701
919.218	1111
919.316	689
919.414	486
919.512	625
919.611	238
919.709	947
919.807	1192
919.905	940
920.003	749
920.102	755
920.200	217
920.298	524
920.396	971
920.494	551
920.592	459
920.690	940
920.788	-7
920.886	900
920.984	1016
921.082	324
921.180	829
921.277	1595
921.375	1193
921.473	1699
921.571	1734
921.669	1241
921.766	1318
921.864	1966
921.962	1564
922.060	1347
922.157	1263
922.255	952
922.352	1854
922.450	1494
922.548	937
922.645	1517
922.743	1798
922.840	3482
922.938	3215
923.035	3458
923.133	2779
923.230	2878
923.327	3596
923.425	3484
923.522	3212
923.619	3589
923.717	2610
923.814	2917
923.911	3156
924.008	4031
924.106	2412
924.203	2914
924.300	3444
924.397	2541
924.494	3064
924.591	2770
924.688	3080
924.786	2822
924.883	2491
924.979	2988
925.077	3339
925.173	2947
925.270	2974
925.367	3142
925.464	3663
925.561	3298
925.658	3237
925.755	3628
925.852	4181
925.948	3392
926.045	3412
926.142	2740
926.239	3304
926.335	2619
926.432	3986
926.529	2862
926.625	3541
926.722	2337
926.818	2394
926.915	3047
927.011	2832
927.108	3251
927.204	3296
927.301	2671
927.397	2875
927.494	3118
927.590	2001
927.687	2235
927.783	3144
927.879	2318
927.976	2970
928.072	2480
928.168	2707
928.264	2622
928.361	1943
928.457	3168
928.553	3153
928.649	2933
928.745	2785
928.841	2618
928.937	3223
929.033	2917
929.129	2748
929.225	2436
929.321	2152
929.417	948
929.513	2815
929.609	2019
929.705	2793
929.801	2961
929.897	2477
929.993	3036
930.089	1936
930.184	2459
930.280	2304
930.376	2827
930.471	2452
930.567	2248
930.663	2516
930.758	2429
930.854	2596
930.950	2126
931.045	2097
931.141	2745
931.236	3931
931.332	2010
931.427	1270
931.523	2781
931.618	3042
931.714	1338
931.809	2760
931.905	3073
932.000	1489
932.095	1198
932.191	2290
932.286	2557
932.381	2469
932.476	1874
932.572	1790
932.667	1809
932.762	2032
932.857	1718
932.952	3001
933.047	2151
933.142	2493
933.237	2576
933.332	2040
933.427	2988
933.522	1992
933.617	2385
933.712	2273
933.807	1915
933.902	2256
933.997	2668
934.092	2272
934.187	1867
934.282	2226
934.376	1849
934.471	2612
934.566	1963
934.661	2184
934.755	2277
934.850	2335
934.945	1677
935.039	2299
935.134	1734
935.228	1524
935.323	2714
935.417	1906
935.512	2434
935.606	2203
935.701	2662
935.795	2564
935.890	2202
935.984	1598
936.079	1166
936.173	2570
936.267	1608
936.362	1835
936.456	2790
936.550	2068
936.644	3024
936.738	1402
936.833	1036
936.927	1431
937.021	2218
937.115	1945
937.209	1076
937.303	2566
937.397	1204
937.491	2111
937.585	2495
937.679	1278
937.773	2003
937.867	2357
937.961	1688
938.055	2219
938.149	2571
938.243	1573
938.337	2353
938.430	1818
938.524	2157
938.618	1599
938.712	1662
938.805	1555
938.899	2099
938.993	2412
939.086	1575
939.180	1384
939.274	2074
939.367	1837
939.461	1696
939.554	2528
939.648	2030
939.741	1667
939.835	2397
939.928	1803
940.022	2143
940.115	1469
940.208	1795
940.302	2890
940.395	1953
940.488	968
940.582	1593
940.675	1615
940.768	1961
940.861	2311
940.954	1983
941.048	1385
941.141	917
941.234	1860
941.327	2215
941.420	3297
941.513	2325
941.606	1731
941.699	1896
941.792	2758
941.885	1784
941.978	2578
942.071	1907
942.164	1709
942.257	1003
942.349	1170
942.442	2335
942.535	1362
942.628	1836
942.721	1869
942.813	958
942.906	2695
942.999	1803
943.091	1153
943.184	789
943.277	1390
943.369	1003
943.462	1147
943.554	1650
943.647	1179
943.739	2522
943.832	2264
943.924	706
944.017	1197
944.109	1296
944.201	964
944.294	1408
944.386	1642
944.478	609
944.571	1820
944.663	1831
944.755	1433
944.847	1433
944.940	1718
945.032	799
945.124	1398
945.216	1975
945.308	1204
945.400	1241
945.492	799
945.584	885
945.676	2555
945.768	2050
945.860	1423
945.952	256
946.044	2418
946.136	571
946.228	1269
946.320	1322
946.412	1673
946.503	1100
946.595	1907
946.687	1632
946.779	1625
946.870	1334
946.962	1362
947.054	1379
947.145	1802
947.237	1030
947.329	1038
947.420	1140
947.512	2165
947.603	482
947.695	449
947.786	1054
947.878	929
947.969	1136
948.061	1037
948.152	1523
948.243	628
948.335	747
948.426	355
948.517	754
948.609	1922
948.700	1472
948.791	904
948.882	1226
948.973	617
949.065	593
949.156	941
949.247	-71
949.338	1214
949.429	747
949.520	610
949.611	757
949.702	1578
949.793	842
949.884	666
949.975	74
950.066	258
950.157	145
950.247	449
950.338	577
950.429	583
950.520	977
950.611	1216
950.701	1154
950.792	835
950.883	1069
950.973	558
951.064	1242
951.155	1008
951.245	1193
951.336	888
951.427	653
951.517	2274
951.608	764
951.698	654
951.788	731
951.879	858
951.969	321
952.060	475
952.150	238
952.240	1062
952.331	-998
952.421	1511
952.511	339
952.602	526
952.692	224
952.782	927
952.872	342
952.962	425
953.052	66
953.143	110
953.233	510
953.323	945
953.413	684
953.503	1550
953.593	1017
953.683	850
953.773	324
953.863	991
953.953	482
954.042	1279
954.132	659
954.222	972
954.312	870
954.402	618
954.492	56
954.581	1091
954.671	136
954.761	129
954.850	737
954.940	-130
955.030	-222
955.119	17
955.209	218
955.298	378
955.388	779
955.477	1207
955.567	403
955.656	435
955.746	425
955.835	587
955.925	5
956.014	26
956.103	801
956.193	711
956.282	736
956.371	1012
956.461	251
956.550	908
956.639	1207
956.728	-124
956.817	845
956.906	625
956.995	508
957.085	-181
957.174	633
957.263	-753
957.352	621
957.441	866
957.530	-104
957.619	-27
957.708	-321
957.796	781
957.885	-279
957.974	16
958.063	1171
958.152	-679
958.241	975
958.329	-546
958.418	-327
958.507	-523
958.596	1112
958.684	-16
958.773	-22
958.861	613
958.950	589
959.039	791
959.127	451
959.216	988
959.304	-565
959.393	8
959.481	336
959.570	79
959.658	-290
959.746	-54
959.835	945
959.923	1320
960.011	713
960.100	1233
960.188	798
960.276	-182
960.365	-821
960.453	-105
960.541	423
960.629	446
960.717	520
960.805	-84
960.893	-758
960.981	-180
961.069	969
961.158	-296
961.245	353
961.333	604
961.421	-243
961.509	543
961.597	323
961.685	-67
961.773	-249
961.861	-303
961.949	366
962.036	23
962.124	-305
962.212	-490
962.299	-253
962.387	-960
962.475	48
962.562	476
962.650	106
962.738	294
962.825	367
962.913	129
963.000	-580
963.088	195
963.175	-130
963.263	630
963.350	-444
963.438	423
963.525	-290
963.612	1197
963.700	1787
963.787	7705
963.874	3680
963.962	357
964.049	909
964.136	155
964.223	-173
964.310	816
964.398	225
964.485	254
964.572	143
964.659	687
964.746	172
964.833	226
964.920	-703
965.007	297
965.094	-616
965.181	-119
965.268	70
965.355	244
965.441	-549
965.528	-368
965.615	375
965.702	328
965.789	242
965.875	-313
965.962	-373
966.049	150
966.136	119
966.222	830
966.309	571
966.395	40
966.482	90
966.569	-421
966.655	693
966.742	-74
966.828	263
966.915	-166
967.001	-199
967.087	-781
967.174	-62
967.260	625
967.347	981
967.433	2365
967.519	4908
967.605	1878
967.692	-349
967.778	1043
967.864	-158
967.950	-53
968.036	-49
968.123	-64
968.209	-384
968.295	-202
968.381	1231
968.467	171
968.553	-650
968.639	1015
968.725	405
968.811	1596
968.897	1064
968.983	317
969.069	93
969.154	787
969.240	447
969.326	-672
969.412	-214
969.497	-238
969.583	-129
969.669	942
969.755	-127
969.840	285
969.926	379
970.012	1133
970.097	1476
970.183	960
970.268	308
970.354	1196
970.439	175
970.525	3385
970.610	323
970.696	597
970.781	800
970.866	-375
970.952	198
971.037	-350
971.122	191
971.208	-62
971.293	-28
971.378	-786
971.463	664
971.549	659
971.634	-342
971.719	-69
971.804	264
971.889	1429
971.974	-62
972.059	34
972.144	300
972.229	245
972.314	-404
972.399	742
972.484	-636
972.569	615
972.654	-556
972.739	1327
972.824	1348
972.908	331
972.993	-303
973.078	245
973.163	171
973.247	256
973.332	-1459
973.417	1544
973.501	-495
973.586	216
973.671	152
973.755	124
973.840	598
973.924	1571
974.009	456
974.093	-144
974.178	835
974.262	1127
974.346	792
974.431	330
974.515	-325
974.600	82
974.684	-250
974.768	32
974.852	1171
974.937	-618
975.021	491
975.105	38
975.189	-527
975.273	982
975.358	102
975.442	-628
975.526	825
975.610	-670
975.694	-821
975.778	992
975.862	397
975.946	-1831
976.030	907
976.114	-362
976.198	79
976.281	280
976.365	1507
976.449	317
976.533	-479
976.617	206
976.700	-128
976.784	509
976.868	-498
976.951	622
977.035	336
977.119	132
977.202	-469
977.286	658
977.369	378
977.453	909
977.536	-122
977.620	346
977.703	1026
977.787	-467
977.870	606
977.953	1122
978.037	-1395
978.120	1528
978.203	-36
978.287	907
978.370	350
978.453	112
978.536	-928
978.620	1409
978.703	1357
978.786	1071
978.869	-312
978.952	-813
979.035	912
979.118	-27
979.201	-419
979.284	245
979.367	-91
979.450	175
979.533	-710
979.616	-478
979.699	171
979.782	-641
979.865	171
979.948	39
980.030	-1
980.113	459
980.196	-1107
980.279	1037
980.361	410
980.444	-304
980.526	42
980.609	54
980.692	196
980.774	1111
980.857	-1236
980.939	1092
981.022	-1055
981.104	-38
981.187	-651
981.269	619
981.352	12
981.434	-416
981.516	-155
981.599	644
981.681	-322
981.763	819
981.846	753
981.928	-33
982.010	-1137
982.092	271
982.174	1142
982.256	-94
982.339	340
982.421	243
982.503	455
982.585	-464
982.667	-159
982.749	491
982.831	-373
982.913	-691
982.995	686
983.077	-433
983.158	911
983.240	-352
983.322	361
983.404	311
983.486	131
983.568	77
983.649	-216
983.731	324
983.813	167
983.894	891
983.976	-1242
984.058	-152
984.139	110
984.221	-304
984.302	692
984.384	-41
984.465	-305
984.547	203
984.628	454
984.710	1075
984.791	-438
984.872	-65
984.954	-225
985.035	135
985.116	-405
985.198	49
985.279	200
985.360	-629
985.441	-4
985.522	478
985.604	-709
985.685	-1628
985.766	577
985.847	1338
985.928	-1364
986.009	-433
986.090	-117
986.171	446
986.252	-440
986.333	54
986.414	-88
986.495	159
986.576	76
986.656	218
986.737	321
986.818	-184
986.899	-599
986.980	403
987.060	756
987.141	-491
987.222	202
987.302	-23
987.383	1045
987.464	291
987.544	150
987.625	-410
987.705	485
987.786	109
987.866	502
987.947	-363
988.027	-4
988.108	176
988.188	31
988.268	416
988.349	745
988.429	547
988.509	191
988.589	-325
988.670	-438
988.750	1125
988.830	-309
988.910	-421
988.990	380
989.070	190
989.151	529
989.231	224
989.311	136
989.391	808
989.471	-127
989.551	708
989.631	77
989.711	953
989.791	-584
989.870	-1015
989.950	535
990.030	-115
990.110	-240
990.190	-41
990.269	-960
990.349	83
990.429	-284
990.509	-335
990.588	-795
990.668	280
990.747	586
990.827	44
990.907	47
990.986	-529
991.066	-103
991.145	-918
991.225	350
991.304	-253
991.383	-498
991.463	-251
991.542	-539
991.622	-447
991.701	-69
991.780	264
991.859	-748
991.939	-431
992.018	124
992.097	1070
992.176	-594
992.256	-460
992.335	-1099
992.414	1007
992.493	-636
992.572	-414
992.651	990
992.730	-54
992.809	216
992.888	-1458
992.967	-198
993.046	-255
993.125	-623
993.203	-480
993.282	305
993.361	-914
993.440	-1341
993.519	-316
993.597	-732
993.676	-231
993.755	1071
993.834	-193
993.912	-924
993.991	607
994.069	-712
994.148	-300
994.226	-891
994.305	-604
994.384	-48
994.462	575
994.540	-975
994.619	-271
994.697	-221
994.776	-948
994.854	548
994.932	-919
995.011	497
995.089	-408
995.167	-548
995.245	-372
995.324	-1541
995.402	597
995.480	-882
995.558	-152
995.636	-1524
995.714	-619
995.792	632
995.870	-7
995.948	-771
996.026	141
996.104	-1517
996.182	539
996.260	-1218
996.338	-360
996.416	-1165
996.494	-1346
996.572	602
996.649	-273
996.727	-1164
996.805	317
996.883	-170
996.960	-436
997.038	-76
997.116	64
997.193	-707
997.271	-256
997.348	-508
997.426	-728
997.504	-785
997.581	-284
997.658	359
997.736	-1352
997.813	-1059
997.891	-399
997.968	-1220
998.046	-340
998.123	837
998.200	53
998.277	-1225
998.355	599
998.432	-1117
998.509	-424
998.586	-414
998.663	-235
998.741	-140
998.818	-847
998.895	-1064
998.972	-595
999.049	5
999.126	-1504
999.203	-336
999.280	-393
999.357	-712
999.434	-1568
999.511	-808
999.587	31
999.664	-1017
999.741	-404
999.818	507
999.895	-728
999.971	-586
1000.048	-1281
1000.125	-229
1000.202	-1326
1000.278	-486
1000.355	-641
1000.431	-1447
1000.508	-772
1000.584	34
1000.661	-790
1000.738	-1243
1000.814	-541
1000.890	-368
1000.967	-453
1001.043	-927
1001.120	-291
1001.196	-1066
1001.272	-1660
1001.349	2
1001.425	-657
1001.501	-575
1001.577	-1158
1001.654	-1239
1001.730	-1431
1001.806	-374
1001.882	-939
1001.958	-516
1002.034	-283
1002.110	-1312
1002.186	-1337
1002.262	-206
1002.338	-1158
1002.414	-438
1002.490	-110
1002.566	-537
1002.642	-1051
1002.718	-341
1002.794	592
1002.870	-1256
1002.945	-534
1003.021	-1232
1003.097	-1236
1003.173	-192
1003.248	-1367
1003.324	-485
1003.400	-399
1003.475	-1251
1003.551	197
1003.626	-232
1003.702	-500
1003.777	-692
1003.853	-1228
1003.928	-1080
1004.004	-439
1004.079	-984
1004.155	-461
1004.230	-1412
1004.305	346
1004.381	-1234
1004.456	-814
1004.531	-626
1004.607	-464
1004.682	-911
1004.757	-333
1004.832	-1329
1004.907	-712
1004.982	-1042
1005.057	-584
1005.133	-769
1005.208	-483
1005.283	-1224
1005.358	60
1005.433	-1946
1005.508	-1075
1005.583	-1733
1005.657	-998
1005.732	-835
1005.807	-734
1005.882	-1190
1005.957	-573
1006.032	-700
1006.106	-1001
1006.181	-997
1006.256	-1219
1006.331	-766
1006.405	-1064
1006.480	-746
1006.554	-1740
1006.629	-1366
1006.704	-708
1006.778	-1116
1006.853	-1250
1006.927	-1351
1007.002	-570
1007.076	-1062
1007.150	-1270
1007.225	-756
1007.299	-697
1007.373	-1215
1007.448	-1044
1007.522	69
1007.596	-901
1007.671	-1449
1007.745	-578
1007.819	-1957
1007.893	-1206
1007.967	-1214
1008.041	-1876
1008.115	-338
1008.190	-791
1008.264	-857
1008.338	-1991
1008.412	-831
1008.486	-1479
1008.560	-876
1008.633	-1425
1008.707	-1085
1008.781	-1066
1008.855	-1419
1008.929	-2134
1009.003	-1288
1009.076	-841
1009.150	-1171
1009.224	-1921
1009.298	-544
1009.371	-1364
1009.445	-163
1009.519	-1418
1009.592	-1885
1009.666	-1314
1009.739	-963
1009.813	-2332
1009.886	-354
1009.960	-1996
1010.033	-851
1010.107	-565
1010.180	-2020
1010.253	-635
1010.327	-627
1010.400	-1287
1010.473	-829
1010.547	-236
1010.620	-1811
1010.693	-845
1010.766	-1386
1010.840	-1124
1010.913	-1448
1010.986	-1910
1011.059	-1995
1011.132	-1379
1011.205	-432
1011.278	-1086
1011.351	-1380
1011.424	-1718
1011.497	-1297
1011.570	-1658
1011.643	-888
1011.716	-1840
1011.789	-1643
1011.862	-497
1011.934	-1123
1012.007	-2478
1012.080	-1095
1012.153	-378
1012.225	-595
1012.298	-1535
1012.371	-1293
1012.443	-948
1012.516	-1710
1012.588	-1377
1012.661	-962
1012.733	-2064
1012.806	-1311
1012.879	-2146
1012.951	-1424
1013.023	-2039
1013.096	-998
1013.168	-1473
1013.241	-1225
1013.313	-1308
1013.385	-1536
1013.458	-1956
1013.530	-1118
1013.602	-1892
1013.674	-1387
1013.746	-1660
1013.819	-1956
1013.891	-1133
1013.963	-1890
1014.035	-1420
1014.107	-738
1014.179	-195
1014.251	-2059
1014.323	-887
1014.395	-2507
1014.467	-1773
1014.539	-1541
1014.611	-1401
1014.683	-1333
1014.754	-1186
1014.826	-2091
1014.898	-1285
1014.970	-2232
1015.042	-1390
1015.113	-1035
1015.185	-1297
1015.257	-1918
1015.328	-1715
1015.400	-2053
1015.471	-1259
1015.543	-2597
1015.615	-1305
1015.686	-1672
1015.757	-2294
1015.829	-1052
1015.901	-1610
1015.972	-1845
1016.043	-2025
1016.115	-1989
1016.186	-1035
1016.257	-2571
1016.328	-1088
1016.400	-1305
1016.471	-1849
1016.542	-2941
1016.613	-1194
1016.685	-1839
1016.756	-1348
1016.827	-1347
1016.898	-2269
1016.969	-1393
1017.040	-1832
1017.111	-1525
1017.182	-2367
1017.253	-1482
1017.324	-1838
1017.395	-2380
1017.466	-789
1017.537	-2072
1017.608	-1456
1017.678	-1348
1017.749	-1359
1017.820	-2111
1017.891	-2282
1017.961	-2347
1018.032	-1913
1018.103	-1820
1018.173	-1926
1018.244	-2401
1018.315	-1924
1018.385	-1740
1018.456	-2001
1018.526	-2512
1018.597	-2442
1018.667	-1989
1018.738	-1985
1018.808	-1515
1018.878	-1868
1018.949	-1524
1019.019	-1762
1019.089	-2025
1019.160	-1557
1019.230	-2258
1019.300	-1564
1019.371	-2208
1019.441	-1055
1019.511	-2003
1019.581	-2055
1019.651	-1499
1019.721	-1630
1019.791	-2199
1019.861	-1911
1019.931	-2081
1020.001	-2605
1020.071	-1533
1020.141	-1811
1020.211	-2029
1020.281	-1998
1020.351	-2852
1020.421	-1516
1020.491	-1268
1020.560	-2362
1020.630	-1980
1020.700	-2188
1020.770	-1633
1020.839	-1688
1020.909	-1718
1020.979	-1932
1021.048	-2764
1021.118	-1704
1021.187	-1777
1021.257	-2694
1021.326	-1555
1021.396	-2947
1021.465	-2330
1021.535	-2007
1021.604	-2279
1021.674	-1833
1021.743	-2059
1021.812	-2248
1021.882	-2438
1021.951	-2182
1022.020	-1811
1022.089	-2215
1022.159	-1835
1022.228	-2085
1022.297	-2030
1022.366	-2509
1022.435	-1811
1022.504	-1610
1022.573	-2357
1022.642	-1613
1022.711	-2166
1022.781	-1561
1022.849	-1494
1022.918	-1995
1022.987	-1385
1023.056	-2487
1023.125	-1763
1023.194	-1426
1023.263	-2025
1023.331	-1206
1023.400	-2076
1023.469	-2476
1023.538	-904
1023.606	-2594
1023.675	-2364
1023.744	-2277
1023.812	-2946
1023.881	-2445
1023.949	-1871
1024.018	-3019
1024.086	-2481
1024.155	-3031
1024.223	-2711
1024.292	-1283
1024.360	-1826
1024.429	-2266
1024.497	-2585
1024.565	-2102
1024.634	-2221
1024.702	-1860
1024.770	-2445
1024.838	-2580
1024.907	-2085
1024.975	-1970
1025.043	-2017
1025.111	-1965
1025.179	-2137
1025.247	-1382
1025.315	-1843
1025.383	-2384
1025.451	-2585
1025.519	-2190
1025.587	-2239
1025.655	-1547
1025.723	-1953
1025.791	-1505
1025.859	-2098
1025.927	-2336
1025.995	-2409
1026.062	-2385
1026.130	-2190
1026.198	-2182
1026.266	-2242
1026.333	-1724
1026.401	-1860
1026.469	-2334
1026.536	-2374
1026.604	-2123
1026.671	-2538
1026.739	-2540
1026.806	-2027
1026.874	-2144
1026.941	-1700
1027.009	-2236
1027.076	-2456
1027.144	-1377
1027.211	-2204
1027.278	-2383
1027.345	-2104
1027.413	-2358
1027.480	-2753
1027.547	-2380
1027.614	-1673
1027.682	-2122
1027.749	-1478
1027.816	-2257
1027.883	-1897
1027.950	-2003
1028.017	-2833
1028.084	-1236
1028.151	-3389
1028.218	-1881
1028.285	-2481
1028.352	-2195
1028.419	-3007
1028.486	-2116
1028.553	-2765
1028.619	-2552
1028.686	-2301
1028.753	-2090
1028.820	-2726
1028.886	-2199
1028.953	-1669
1029.020	-2213
1029.086	-3104
1029.153	-2478
1029.220	-2841
1029.286	-2803
1029.353	-1618
1029.419	-2398
1029.486	-1851
1029.552	-2014
1029.619	-1891
1029.685	-2349
1029.751	-1852
1029.818	-1171
1029.884	-2287
1029.951	-1476
1030.017	-2345
1030.083	-2150
1030.149	-2692
1030.216	-2270
1030.282	-3101
1030.348	-2711
1030.414	-2146
1030.480	-2162
1030.546	-1654
1030.612	-1980
1030.678	-2135
1030.744	-2198
1030.810	-2033
1030.876	-1496
1030.942	-2413
1031.008	-1493
1031.074	-2014
1031.140	-2795
1031.206	-1483
1031.272	-2813
1031.337	-1877
1031.403	-2121
1031.469	-3073
1031.534	-2448
1031.600	-2379
1031.666	-2636
1031.731	-1640
1031.797	-2054
1031.863	-2109
1031.928	-1388
1031.994	-1494
1032.059	-1803
1032.125	-1852
1032.190	-1993
1032.256	-2034
1032.321	-2252
1032.386	-2172
1032.452	-1447
1032.517	-2117
1032.582	-2313
1032.647	-2313
1032.713	-1664
1032.778	-2301
1032.843	-1689
1032.908	-1611
1032.974	-1710
1033.039	-2381
1033.104	-1684
1033.169	-1559
1033.234	-2184
1033.299	-1292
1033.364	-1615
1033.429	-1695
1033.494	-1197
1033.559	-1115
1033.624	-1680
1033.688	-1470
1033.753	-1921
1033.818	-1386
1033.883	-1658
1033.948	-1514
1034.013	-1802
1034.077	-771
1034.142	-564
1034.207	-1057
1034.271	1129
1034.336	422
1034.400	-330
1034.465	-227
1034.530	-702
1034.594	-1562
1034.658	-1856
1034.723	-1861
1034.787	-1549
1034.852	-2092
1034.916	-1738
1034.981	-1645
1035.045	-706
1035.109	-2046
1035.173	-1735
1035.238	-1711
1035.302	-1495
1035.366	-2448
1035.430	-2321
1035.495	-2018
1035.559	-1995
1035.623	-1566
1035.687	-2073
1035.751	-1189
1035.815	-1730
1035.879	-2117
1035.943	-1601
1036.007	-2967
1036.071	-2142
1036.135	-1498
1036.198	-2050
1036.262	-1183
1036.326	-1200
1036.390	-1159
1036.454	-1493
1036.517	-1873
1036.581	-563
1036.645	-1000
1036.709	-736
1036.772	-1334
1036.836	-2419
1036.900	-1410
1036.963	-2688
1037.026	-2326
1037.090	-2420
1037.154	-2539
1037.217	-2065
1037.280	-1739
1037.344	-2005
1037.407	-1244
1037.471	-1170
1037.534	-1624
1037.597	-1350
1037.661	-1358
1037.724	-2331
1037.787	-2224
1037.850	-1975
1037.913	-2210
1037.977	-1467
1038.040	-2320
1038.103	-1768
1038.166	-2838
1038.229	-1554
1038.292	-2607
1038.355	-1955
1038.418	-1738
1038.481	-2045
1038.544	-1586
1038.607	-1166
1038.670	-1262
1038.732	-1325
1038.795	-1992
1038.858	-1872
1038.921	-2416
1038.984	-1699
1039.046	-2155
1039.109	-1122
1039.172	-1969
1039.234	-2118
1039.297	-1198
1039.360	-2016
1039.422	-2338
1039.485	-1947
1039.547	-2038
1039.610	-1493
1039.672	-2102
1039.734	-2080
1039.797	-2245
1039.859	-2383
1039.922	-2256
1039.984	-1511
1040.046	-2198
1040.109	-1790
1040.171	-1887
1040.233	-2313
1040.295	-2132
1040.358	-1922
1040.420	-1518
1040.482	-1995
1040.544	-2055
1040.606	-1280
1040.668	-2203
1040.730	-1714
1040.792	-2405
1040.854	-2952
1040.916	-1649
1040.978	-2494
1041.040	-1554
1041.102	-1847
1041.164	-2023
1041.225	-2348
1041.287	-2435
1041.349	-1659
1041.411	-2200
1041.472	-1717
1041.534	-2131
1041.596	-1290
1041.657	-1883
1041.719	-1144
1041.781	-2620
1041.842	-1708
1041.904	-1522
1041.965	-2069
1042.027	-2153
1042.088	-1916
1042.150	-2234
1042.211	-1848
1042.272	-1224
1042.334	-2230
1042.395	-1851
1042.456	-2369
1042.518	-2236
1042.579	-1025
1042.640	-2217
1042.701	-819
1042.763	-1197
1042.824	-1935
1042.885	-2037
1042.946	-1591
1043.007	-2031
1043.068	-1074
1043.129	-1841
1043.190	-1472
1043.251	-1597
1043.312	-1962
1043.373	-1158
1043.434	-2041
1043.495	-2028
1043.556	-1074
1043.616	-2125
1043.677	-1713
1043.738	-2146
1043.799	-1504
1043.859	-1759
1043.920	-2131
1043.981	-1593
1044.041	-968
1044.102	-2149
1044.162	-1385
1044.223	-1541
1044.284	-1135
1044.344	-1527
1044.405	-2232
1044.465	-1889
1044.525	-1584
1044.586	-960
1044.646	-1540
1044.707	-1155
1044.767	-913
1044.827	-1373
1044.887	-1091
1044.948	-1387
1045.008	-1456
1045.068	-2397
1045.128	-1186
1045.188	-1759
1045.249	-474
1045.309	-1864
1045.369	-1694
1045.429	-1803
1045.489	-869
1045.549	-1214
1045.609	-1737
1045.669	-1901
1045.729	-1160
1045.789	-1339
1045.848	-992
1045.908	-1563
1045.968	-632
1046.028	-1078
1046.088	-1246
1046.147	-1212
1046.207	-1337
1046.267	-931
1046.326	-1560
1046.386	-1421
1046.446	-1294
1046.505	-898
1046.565	76
1046.624	-1019
1046.684	-414
1046.743	-278
1046.803	-16
1046.862	-133
1046.922	0
