'Start Wavelength	183.907
'End Wavelength	1046.922
'Gate Delay	5.000
'Gate Width (ms)	1.050
'Laser Output Level	0.000
'X Position	0.000
'Y Position	0.000
'Z Position	0.000
'Grid Point Number	1.000
'Shot Number	100.000
183.907	-17.000
183.977	-261.000
184.047	442
184.116	583
184.186	-53
184.256	522
184.325	-84
184.395	-667
184.465	69
184.534	-164
184.604	-511
184.674	359
184.743	-1181
184.813	165
184.883	-149
184.952	233
185.022	390
185.092	-23
185.161	-423
185.231	382
185.301	245
185.370	802
185.440	-429
185.509	-153
185.579	15
185.649	138
185.718	-69
185.788	602
185.857	-506
185.927	-272
185.996	-58
186.066	424
186.136	-651
186.205	202
186.275	74
186.344	796
186.414	21
186.483	130
186.553	1006
186.622	1654
186.692	365
186.761	416
186.831	435
186.900	73
186.970	480
187.039	276
187.109	1162
187.178	627
187.248	515
187.317	1293
187.387	-295
187.456	1063
187.526	461
187.595	1162
187.664	426
187.734	636
187.803	1025
187.873	431
187.942	1034
188.012	954
188.081	167
188.150	1171
188.220	466
188.289	1600
188.358	612
188.428	1064
188.497	99
188.567	1225
188.636	-174
188.705	1135
188.775	-262
188.844	459
188.913	877
188.983	344
189.052	31
189.121	-165
189.191	-486
189.260	1281
189.329	658
189.399	463
189.468	263
189.537	875
189.606	273
189.676	1109
189.745	625
189.814	1513
189.883	-24
189.953	618
190.022	526
190.091	1909
190.161	2545
190.230	902
190.299	402
190.368	555
190.437	271
190.507	984
190.576	-193
190.645	-128
190.714	-207
190.783	-182
190.853	370
190.922	1879
190.991	-401
191.060	545
191.129	-821
191.198	1106
191.268	385
191.337	1092
191.406	1002
191.475	805
191.544	510
191.613	199
191.682	784
191.752	636
191.821	60
191.890	746
191.959	210
192.028	-398
192.097	675
192.166	1025
192.235	-432
192.304	1603
192.373	557
192.442	412
192.511	646
192.580	685
192.650	405
192.719	1079
192.788	585
192.857	1021
192.926	585
192.995	1246
193.064	1081
193.133	1787
193.202	1910
193.271	2514
193.340	1944
193.409	2534
193.478	2313
193.547	2390
193.615	2808
193.684	3925
193.753	2281
193.822	2088
193.891	573
193.960	1654
194.029	604
194.098	1680
194.167	422
194.236	905
194.305	549
194.374	858
194.443	693
194.512	1433
194.580	649
194.649	1300
194.718	1121
194.787	1213
194.856	-254
194.925	1302
194.994	880
195.062	1542
195.131	787
195.200	1714
195.269	1884
195.338	1324
195.407	583
195.475	713
195.544	1467
195.613	2581
195.682	639
195.751	2063
195.819	1342
195.888	1782
195.957	1527
196.026	2628
196.094	1940
196.163	1741
196.232	2553
196.301	1504
196.369	1275
196.438	1645
196.507	1540
196.576	1240
196.644	308
196.713	642
196.782	361
196.850	2209
196.919	1602
196.988	1397
197.056	500
197.125	812
197.194	1403
197.262	988
197.331	712
197.400	661
197.468	617
197.537	664
197.606	595
197.674	1242
197.743	2674
197.812	1380
197.880	2835
197.949	2356
198.017	2205
198.086	1965
198.155	764
198.223	1710
198.292	3290
198.360	2043
198.429	1205
198.497	1168
198.566	2004
198.635	3392
198.703	1489
198.772	2058
198.840	2267
198.909	3756
198.977	1398
199.046	868
199.114	861
199.183	2385
199.251	1495
199.320	1247
199.388	588
199.457	1378
199.525	410
199.594	1874
199.662	1187
199.731	777
199.799	1716
199.867	1289
199.936	858
200.004	1788
200.073	1090
200.141	1485
200.210	832
200.278	654
200.346	1696
200.415	1299
200.483	1549
200.552	1737
200.620	914
200.688	1225
200.757	1132
200.825	1524
200.893	1606
200.962	2265
201.030	922
201.098	1914
201.167	1642
201.235	1903
201.303	1871
201.372	1644
201.440	1190
201.508	2904
201.577	1694
201.645	2049
201.713	1217
201.781	1740
201.850	1874
201.918	1815
201.986	1106
202.055	1855
202.123	1640
202.191	2336
202.259	1102
202.327	1562
202.396	1076
202.464	2113
202.532	2119
202.600	5746
202.669	4122
202.737	2809
202.805	544
202.873	1348
202.941	1198
203.009	1691
203.078	1865
203.146	1911
203.214	802
203.282	1032
203.350	1112
203.418	1794
203.487	1537
203.555	2165
203.623	1472
203.691	1950
203.759	794
203.827	1450
203.895	1599
203.963	1729
204.031	1350
204.099	2144
204.168	1822
204.236	2402
204.304	1525
204.372	2326
204.440	1810
204.508	2143
204.576	1018
204.644	1123
204.712	564
204.780	1319
204.848	1054
204.916	1338
204.984	1804
205.052	1113
205.120	1161
205.188	2159
205.256	660
205.324	1696
205.392	1110
205.460	2019
205.528	775
205.596	2247
205.664	1438
205.732	1482
205.799	3394
205.867	6202
205.935	1975
206.003	2402
206.071	1463
206.139	1665
206.207	908
206.275	2007
206.343	950
206.411	2634
206.478	744
206.546	1619
206.614	1556
206.682	1389
206.750	1732
206.818	2975
206.885	2562
206.953	709
207.021	1900
207.089	1909
207.157	916
207.225	2113
207.292	1476
207.360	1766
207.428	1748
207.496	1538
207.563	1474
207.631	2414
207.699	1449
207.767	1306
207.834	732
207.902	2540
207.970	1314
208.038	1795
208.105	2315
208.173	2437
208.241	2230
208.309	3277
208.376	2276
208.444	4825
208.512	2554
208.579	1981
208.647	2748
208.715	3449
208.782	2554
208.850	2636
208.918	1066
208.985	2118
209.053	2837
209.120	2868
209.188	1398
209.256	2616
209.323	1881
209.391	3517
209.459	2773
209.526	2971
209.594	2514
209.661	2367
209.729	1330
209.796	2962
209.864	2700
209.932	1225
209.999	2996
210.067	3199
210.134	2318
210.202	2271
210.269	3780
210.337	4368
210.404	2288
210.472	2482
210.539	2082
210.607	2162
210.674	3289
210.742	2749
210.809	1984
210.877	2595
210.944	3084
211.012	2394
211.079	4046
211.146	2662
211.214	2510
211.281	4196
211.349	3378
211.416	3079
211.484	3209
211.551	3543
211.618	3360
211.686	2971
211.753	1898
211.821	3128
211.888	1926
211.955	3236
212.023	2561
212.090	3386
212.157	3026
212.225	3075
212.292	4059
212.359	7570
212.427	15568
212.494	9192
212.561	4072
212.629	4304
212.696	3259
212.763	4076
212.831	2121
212.898	3761
212.965	2248
213.032	3501
213.100	3544
213.167	2888
213.234	3716
213.301	2990
213.369	2964
213.436	3432
213.503	1914
213.570	4108
213.638	3085
213.705	2926
213.772	2472
213.839	4196
213.906	4460
213.973	3495
214.041	2715
214.108	3336
214.175	3210
214.242	3746
214.309	3112
214.376	3766
214.444	3345
214.511	4174
214.578	3282
214.645	4266
214.712	4906
214.779	5476
214.846	3413
214.913	4960
214.980	4987
215.048	5534
215.115	5324
215.182	5476
215.249	4525
215.316	3757
215.383	4225
215.450	3653
215.517	3296
215.584	3826
215.651	2940
215.718	3435
215.785	3227
215.852	4358
215.919	3676
215.986	5244
216.053	3137
216.120	2567
216.187	3907
216.254	4384
216.321	3660
216.388	3386
216.455	3976
216.522	4389
216.589	4655
216.656	7531
216.722	7580
216.789	6123
216.856	6132
216.923	4894
216.990	4618
217.057	4865
217.124	5950
217.191	5417
217.258	6772
217.324	8424
217.391	8226
217.458	6767
217.525	5070
217.592	4643
217.659	3688
217.725	5373
217.792	5056
217.859	5981
217.926	3393
217.993	3345
218.059	3602
218.126	3287
218.193	2842
218.260	2344
218.327	2632
218.393	3616
218.460	2252
218.527	3325
218.594	2219
218.660	4901
218.727	6408
218.794	3208
218.860	2938
218.927	2873
218.994	2263
219.061	2215
219.127	3462
219.194	5293
219.261	2788
219.327	2183
219.394	2959
219.461	2285
219.527	1568
219.594	3460
219.661	2560
219.727	1976
219.794	2816
219.860	1984
219.927	3259
219.994	5143
220.060	8094
220.127	6855
220.193	3980
220.260	4561
220.326	6322
220.393	10075
220.460	12272
220.526	9459
220.593	5214
220.659	7094
220.726	5866
220.792	10367
220.859	11495
220.925	15563
220.992	19452
221.058	18551
221.125	15402
221.191	11096
221.258	5907
221.324	4932
221.391	3630
221.457	3865
221.524	3059
221.590	4764
221.657	10488
221.723	9245
221.789	7348
221.856	7911
221.922	3826
221.989	4877
222.055	3806
222.121	2968
222.188	5316
222.254	3869
222.321	2248
222.387	2815
222.453	2294
222.520	3244
222.586	1454
222.652	3284
222.719	2227
222.785	2966
222.851	2195
222.918	2240
222.984	1392
223.050	3484
223.116	1912
223.183	3506
223.249	1281
223.315	1925
223.382	2180
223.448	2205
223.514	1090
223.580	1972
223.647	1492
223.713	1201
223.779	1485
223.845	2539
223.911	1354
223.978	1468
224.044	2386
224.110	1672
224.176	1688
224.242	1976
224.309	1092
224.375	2819
224.441	1491
224.507	1425
224.573	1307
224.639	2438
224.705	1644
224.772	2347
224.838	1261
224.904	3446
224.970	2266
225.036	1394
225.102	1600
225.168	3307
225.234	2696
225.300	3337
225.366	2632
225.432	2397
225.499	1594
225.565	3378
225.631	2639
225.697	2676
225.763	4043
225.829	4675
225.895	4756
225.961	6593
226.027	5035
226.093	5265
226.159	5404
226.225	9688
226.291	17406
226.357	30038
226.423	18716
226.489	10649
226.554	7091
226.620	6883
226.686	7943
226.752	13449
226.818	17568
226.884	36747
226.950	33632
227.016	15710
227.082	9595
227.148	7614
227.214	8074
227.279	7352
227.345	5175
227.411	5218
227.477	5429
227.543	11197
227.609	11334
227.674	7949
227.740	4494
227.806	4564
227.872	3859
227.938	3473
228.003	7300
228.069	5243
228.135	2625
228.201	3594
228.267	2978
228.332	3326
228.398	4924
228.464	4238
228.530	1281
228.595	2738
228.661	2009
228.727	5091
228.792	5294
228.858	3428
228.924	2136
228.990	5336
229.055	3067
229.121	5440
229.187	2832
229.252	2950
229.318	2695
229.384	3899
229.449	3533
229.515	598
229.581	733
229.646	4092
229.712	3866
229.777	6405
229.843	7761
229.909	6428
229.974	6938
230.040	6076
230.105	4356
230.171	4494
230.236	5989
230.302	9559
230.368	7292
230.433	4496
230.499	4232
230.564	6720
230.630	2667
230.695	3417
230.761	3410
230.826	2273
230.892	5232
230.957	3267
231.023	2665
231.088	3143
231.154	3253
231.219	3912
231.284	3652
231.350	5946
231.415	3046
231.481	3821
231.546	1841
231.612	2942
231.677	1404
231.742	2099
231.808	3531
231.873	2195
231.939	324
232.004	6678
232.069	6198
232.135	2725
232.200	2823
232.265	3178
232.331	1110
232.396	2389
232.461	1657
232.527	1251
232.592	1899
232.657	3061
232.723	3884
232.788	4147
232.853	2801
232.918	2361
232.984	1998
233.049	2124
233.114	4076
233.179	5240
233.245	5346
233.310	8195
233.375	1696
233.440	2929
233.506	1702
233.571	1889
233.636	1876
233.701	2352
233.766	4222
233.832	7190
233.897	3056
233.962	2985
234.027	5281
234.092	3886
234.157	3088
234.222	4016
234.288	4713
234.353	13021
234.418	12714
234.483	8691
234.548	6610
234.613	5288
234.678	5497
234.743	5121
234.808	13763
234.873	10131
234.938	6028
235.004	3857
235.069	3998
235.134	3642
235.199	4140
235.264	3576
235.329	1521
235.394	4487
235.459	4122
235.524	3734
235.589	3866
235.654	3463
235.719	1922
235.784	3701
235.849	3287
235.913	7440
235.978	8418
236.043	11166
236.108	6097
236.173	4737
236.238	5398
236.303	2910
236.368	3110
236.433	5966
236.498	9660
236.563	8062
236.627	12870
236.692	42536
236.757	39250
236.822	17807
236.887	13129
236.952	11697
237.017	7250
237.081	9807
237.146	10915
237.211	22533
237.276	41747
237.341	65620
237.405	38186
237.470	17423
237.535	11312
237.600	8547
237.664	6653
237.729	5951
237.794	6940
237.859	16230
237.923	11799
237.988	6626
238.053	7893
238.118	8906
238.182	16491
238.247	18517
238.312	8806
238.376	7991
238.441	5280
238.506	7142
238.570	2875
238.635	5239
238.700	3569
238.764	3639
238.829	8628
238.893	10092
238.958	6527
239.023	7123
239.087	3613
239.152	4987
239.216	2498
239.281	4589
239.346	3879
239.410	4008
239.475	3946
239.539	15887
239.604	13954
239.668	6202
239.733	4273
239.797	6610
239.862	16734
239.926	18802
239.991	8149
240.055	5213
240.120	3952
240.184	5022
240.249	3176
240.313	3855
240.378	3635
240.442	9719
240.507	15886
240.571	6930
240.635	7444
240.700	11822
240.764	4693
240.829	4214
240.893	1966
240.957	4180
241.022	8439
241.086	17060
241.151	8717
241.215	4778
241.279	5109
241.344	9571
241.408	6518
241.472	5371
241.537	5543
241.601	5735
241.665	3580
241.730	4237
241.794	5396
241.858	5667
241.922	4700
241.987	6043
242.051	4130
242.115	4228
242.179	4250
242.244	4138
242.308	4533
242.372	4833
242.436	5940
242.501	5446
242.565	3918
242.629	3775
242.693	4292
242.757	2984
242.822	3429
242.886	4252
242.950	4489
243.014	4195
243.078	5438
243.142	5730
243.206	4150
243.271	5335
243.335	4690
243.399	7767
243.463	19260
243.527	54690
243.591	21178
243.655	10620
243.719	5472
243.783	7181
243.847	10145
243.911	13755
243.975	15940
244.040	13471
244.104	7729
244.168	4432
244.232	8377
244.296	13234
244.360	11642
244.424	7972
244.488	5295
244.552	5959
244.615	2390
244.679	4169
244.743	5029
244.807	7077
244.871	5100
244.935	4316
244.999	3288
245.063	4786
245.127	5931
245.191	9107
245.255	8120
245.319	8019
245.383	7020
245.446	6448
245.510	3853
245.574	6728
245.638	5705
245.702	4655
245.766	12917
245.829	8939
245.893	5366
245.957	5149
246.021	6005
246.085	5720
246.149	7503
246.212	17285
246.276	25266
246.340	13641
246.404	8660
246.467	8714
246.531	12272
246.595	9119
246.659	8603
246.722	7292
246.786	10402
246.850	9942
246.913	12555
246.977	6008
247.041	6488
247.104	7172
247.168	7670
247.232	16440
247.295	32172
247.359	19156
247.423	8295
247.486	15706
247.550	10827
247.614	8644
247.677	11181
247.741	6816
247.804	5808
247.868	7980
247.932	14494
247.995	31975
248.059	14216
248.122	7498
248.186	9460
248.249	15773
248.313	46356
248.376	55562
248.440	36413
248.503	16025
248.567	12327
248.630	17260
248.694	24833
248.757	29350
248.821	53032
248.884	38946
248.948	29974
249.011	43727
249.075	60046
249.138	57375
249.202	25023
249.265	16715
249.328	16325
249.392	13399
249.455	13011
249.519	9342
249.582	11754
249.645	18559
249.709	14441
249.772	9568
249.835	9455
249.899	9627
249.962	9208
250.025	8751
250.089	18723
250.152	30311
250.215	16731
250.279	12267
250.342	10761
250.405	10165
250.468	9545
250.532	12815
250.595	19563
250.658	48709
250.721	85073
250.785	36410
250.848	19793
250.911	13439
250.974	11608
251.038	15940
251.101	31922
251.164	18030
251.227	17831
251.290	17502
251.354	20805
251.417	67612
251.480	76579
251.543	50629
251.606	118967
251.669	100396
251.732	44973
251.795	45496
251.859	43427
251.922	80294
251.985	56203
252.048	23690
252.111	19249
252.174	17721
252.237	30447
252.300	62684
252.363	62561
252.426	105769
252.489	54298
252.552	30698
252.615	21042
252.678	21112
252.741	44618
252.804	54401
252.867	105992
252.930	76996
252.993	45426
253.056	28325
253.119	22905
253.182	16665
253.245	24304
253.308	21153
253.371	19900
253.434	20279
253.497	17958
253.559	31578
253.622	24704
253.685	30767
253.748	35567
253.811	16940
253.874	17837
253.937	18339
254.000	15062
254.062	22856
254.125	33981
254.188	31577
254.251	30045
254.314	14374
254.376	23600
254.439	30205
254.502	25856
254.565	23955
254.628	40900
254.690	29632
254.753	16160
254.816	14673
254.878	13972
254.941	22388
255.004	25234
255.067	12409
255.129	13910
255.192	8796
255.255	7135
255.317	9888
255.380	7075
255.443	5517
255.505	5479
255.568	5809
255.631	6290
255.693	7047
255.756	5172
255.819	6302
255.881	5279
255.944	5409
256.006	4286
256.069	5978
256.132	4568
256.194	8215
256.257	16739
256.319	13410
256.382	11686
256.444	8199
256.507	6787
256.569	6668
256.632	6091
256.694	10664
256.757	23710
256.819	73916
256.882	34470
256.944	15402
257.007	13190
257.069	13814
257.132	8974
257.194	8162
257.257	7033
257.319	8175
257.381	7567
257.444	19703
257.506	74620
257.569	98771
257.631	52256
257.693	28020
257.756	14732
257.818	12806
257.880	8336
257.943	8264
258.005	6795
258.067	7199
258.130	7105
258.192	8711
258.254	18739
258.317	11898
258.379	7795
258.441	17830
258.503	18513
258.566	17784
258.628	27038
258.690	7887
258.753	9764
258.815	18608
258.877	11302
258.939	6950
259.001	6722
259.064	5948
259.126	7200
259.188	10682
259.250	8045
259.312	9074
259.375	22170
259.437	17999
259.499	7794
259.561	6696
259.623	7551
259.685	8513
259.747	6105
259.809	16543
259.872	34418
259.934	46399
259.996	53635
260.058	18834
260.120	8029
260.182	6522
260.244	5846
260.306	4878
260.368	6613
260.430	5938
260.492	13849
260.554	27332
260.616	19608
260.678	27278
260.740	38729
260.802	12346
260.864	9721
260.926	7368
260.988	7673
261.050	8109
261.112	17964
261.174	42906
261.236	31292
261.298	12136
261.359	15145
261.421	25054
261.483	8711
261.545	8943
261.607	4871
261.669	7067
261.731	10312
261.793	28228
261.854	15182
261.916	9107
261.978	8559
262.040	11057
262.102	6938
262.164	10772
262.225	9884
262.287	7053
262.349	16998
262.411	15290
262.472	6851
262.534	10229
262.596	23070
262.658	9320
262.719	5236
262.781	8028
262.843	20630
262.904	11440
262.966	7654
263.028	10136
263.090	32826
263.151	96407
263.213	38386
263.275	25779
263.336	10988
263.398	8553
263.459	5648
263.521	7019
263.583	16662
263.644	12557
263.706	5759
263.767	4266
263.829	4527
263.891	3595
263.952	3225
264.014	3455
264.075	8284
264.137	25326
264.198	12223
264.260	5672
264.321	4593
264.383	13352
264.444	37437
264.506	13621
264.567	7981
264.629	13159
264.690	30624
264.752	13131
264.813	8742
264.875	5267
264.936	5440
264.998	5847
265.059	3969
265.120	5682
265.182	9041
265.243	37218
265.305	45090
265.366	11478
265.427	6868
265.489	6099
265.550	4049
265.611	6578
265.673	7128
265.734	6511
265.795	4612
265.857	4284
265.918	4930
265.979	12442
266.040	58556
266.102	59084
266.163	17944
266.224	15947
266.286	9244
266.347	6243
266.408	6443
266.469	6836
266.530	5171
266.592	5631
266.653	11147
266.714	21549
266.775	7531
266.836	5225
266.898	4400
266.959	10342
267.020	7474
267.081	6418
267.142	4155
267.203	5230
267.264	3458
267.326	6602
267.387	4427
267.448	4220
267.509	4365
267.570	5121
267.631	3441
267.692	3767
267.753	4267
267.814	4044
267.875	9583
267.936	23742
267.997	12582
268.058	11866
268.119	7051
268.180	6568
268.241	4814
268.302	4875
268.363	3276
268.424	5920
268.485	5356
268.546	4268
268.607	2325
268.668	4153
268.729	3236
268.790	4340
268.851	5650
268.912	14656
268.972	20456
269.033	11210
269.094	4773
269.155	4371
269.216	3551
269.277	4637
269.338	4175
269.398	4099
269.459	5506
269.520	8508
269.581	10841
269.642	15122
269.702	10117
269.763	7068
269.824	4890
269.885	8282
269.945	13192
270.006	6011
270.067	4125
270.128	4101
270.188	3748
270.249	4430
270.310	3531
270.370	3800
270.431	3878
270.492	3471
270.553	4586
270.613	12060
270.674	23731
270.734	11354
270.795	6138
270.856	8963
270.916	8735
270.977	5364
271.038	7320
271.098	7799
271.159	11397
271.219	13585
271.280	4891
271.340	4383
271.401	5236
271.462	15029
271.522	9102
271.583	6641
271.643	5221
271.704	6192
271.764	7543
271.825	16944
271.885	49177
271.946	72092
272.006	25909
272.066	29686
272.127	54355
272.187	20798
272.248	11440
272.308	11102
272.369	32374
272.429	22902
272.489	17358
272.550	21229
272.610	19353
272.671	16320
272.731	11460
272.791	21304
272.852	13376
272.912	12397
272.972	7029
273.033	6552
273.093	10537
273.153	12611
273.214	8710
273.274	9843
273.334	26666
273.394	56083
273.455	27456
273.515	23535
273.575	50181
273.635	25073
273.696	24955
273.756	50906
273.816	24611
273.876	14881
273.936	21244
273.997	41422
274.057	13414
274.117	11493
274.177	15789
274.237	60943
274.297	58498
274.358	37986
274.418	40237
274.478	36264
274.538	14677
274.598	11492
274.658	29774
274.718	42541
274.778	19302
274.838	10853
274.898	18551
274.958	56287
275.018	49177
275.078	35877
275.138	16739
275.198	9206
275.258	6899
275.318	8975
275.378	17272
275.438	21879
275.498	13796
275.558	23453
275.618	53604
275.678	39853
275.738	24857
275.798	23010
275.858	12540
275.918	7009
275.978	8569
276.038	8814
276.098	6715
276.157	14059
276.217	42193
276.277	21647
276.337	15747
276.397	9280
276.457	11549
276.517	8219
276.576	5455
276.636	5996
276.696	11091
276.756	23724
276.815	20196
276.875	9627
276.935	10400
276.995	10707
277.055	7007
277.114	7236
277.174	9924
277.234	32832
277.293	16302
277.353	9726
277.413	6791
277.472	8150
277.532	8760
277.592	9126
277.651	23555
277.711	53299
277.771	19937
277.830	57270
277.890	55058
277.950	30781
278.009	85367
278.069	38703
278.128	33439
278.188	55998
278.248	24883
278.307	54265
278.367	38143
278.426	12948
278.486	9076
278.545	6851
278.605	6603
278.664	7246
278.724	7580
278.783	18562
278.843	49165
278.902	18077
278.962	10916
279.021	12575
279.081	12768
279.140	13719
279.199	11694
279.259	12150
279.318	11724
279.378	16285
279.437	25781
279.496	81599
279.556	202417
279.615	188756
279.675	57460
279.734	34277
279.793	43044
279.853	67196
279.912	29738
279.971	16266
280.031	15078
280.090	25741
280.149	48286
280.208	39341
280.268	137229
280.327	165990
280.386	47362
280.445	33959
280.505	34462
280.564	17500
280.623	14268
280.682	17963
280.742	31912
280.801	12821
280.860	9437
280.919	8427
280.978	7976
281.037	7880
281.097	5737
281.156	7970
281.215	6520
281.274	9574
281.333	30189
281.392	28703
281.451	7615
281.510	6705
281.569	6355
281.628	5906
281.688	4806
281.747	6914
281.806	7887
281.865	5318
281.924	5054
281.983	6131
282.042	3921
282.101	4877
282.160	4505
282.219	4735
282.278	5394
282.337	20735
282.396	17925
282.454	7910
282.513	8473
282.572	32447
282.631	23514
282.690	8337
282.749	6510
282.808	9054
282.867	7983
282.926	9449
282.985	4964
283.043	5453
283.102	5808
283.161	6684
283.220	14371
283.279	36168
283.338	12966
283.396	8099
283.455	8027
283.514	8714
283.573	12982
283.631	11826
283.690	7521
283.749	7854
283.808	15849
283.866	21370
283.925	7525
283.984	7842
284.043	10670
284.101	12284
284.160	7983
284.219	11293
284.277	11299
284.336	14986
284.395	43770
284.453	41592
284.512	15853
284.570	21472
284.629	20393
284.688	17550
284.746	19148
284.805	23688
284.863	28196
284.922	38189
284.981	42412
285.039	59452
285.098	99464
285.156	196407
285.215	259622
285.273	254561
285.332	226613
285.390	131519
285.449	83124
285.507	57157
285.566	42206
285.624	32271
285.683	24754
285.741	20549
285.799	17852
285.858	15550
285.916	15140
285.975	12637
286.033	9923
286.091	9401
286.150	7669
286.208	9505
286.267	10217
286.325	10818
286.383	16062
286.442	14583
286.500	7251
286.558	7217
286.616	6417
286.675	9757
286.733	8766
286.791	8820
286.850	9660
286.908	12399
286.966	21398
287.024	11013
287.083	6940
287.141	6180
287.199	5624
287.257	11305
287.315	7812
287.374	8479
287.432	19579
287.490	16184
287.548	10115
287.606	8413
287.664	6270
287.723	9506
287.781	14454
287.839	7745
287.897	8585
287.955	10160
288.013	14820
288.071	31651
288.129	99376
288.187	276817
288.245	148191
288.303	49533
288.361	27306
288.419	21850
288.477	16344
288.535	12003
288.593	9311
288.651	7617
288.709	6349
288.767	6028
288.825	7201
288.883	5858
288.941	4425
288.999	5741
289.057	4822
289.115	4877
289.173	4822
289.231	5788
289.289	6166
289.346	5142
289.404	6345
289.462	12405
289.520	13477
289.578	7347
289.636	3742
289.694	3785
289.751	3698
289.809	4029
289.867	4286
289.925	6711
289.983	8069
290.040	5189
290.098	4429
290.156	6427
290.214	7786
290.271	5912
290.329	4127
290.387	3822
290.444	3328
290.502	3610
290.560	3884
290.617	5014
290.675	5090
290.733	4353
290.790	5638
290.848	4852
290.906	5034
290.963	5942
291.021	5126
291.078	5165
291.136	6448
291.194	17837
291.251	42573
291.309	14847
291.366	6167
291.424	6044
291.481	5824
291.539	5925
291.596	5385
291.654	4246
291.711	3903
291.769	5931
291.826	13783
291.884	9942
291.941	5037
291.999	6245
292.056	5849
292.114	7846
292.171	4272
292.228	6418
292.286	7853
292.343	13531
292.401	18123
292.458	11467
292.515	7717
292.573	10697
292.630	8925
292.687	8689
292.745	6872
292.802	10216
292.859	25406
292.917	40768
292.974	27621
293.031	10044
293.089	6486
293.146	6103
293.203	4627
293.260	5290
293.318	6442
293.375	11919
293.432	7686
293.489	5671
293.546	6160
293.604	9185
293.661	20212
293.718	57308
293.775	36485
293.832	17822
293.889	13607
293.947	14368
294.004	10786
294.061	11175
294.118	19134
294.175	41230
294.232	52450
294.289	23414
294.346	11827
294.403	10312
294.460	8978
294.517	8150
294.574	6886
294.631	6802
294.688	8563
294.745	19911
294.802	60976
294.859	81625
294.916	33864
294.973	19410
295.030	15935
295.087	14344
295.144	8970
295.201	8623
295.258	7155
295.315	9562
295.372	23153
295.429	49200
295.486	23848
295.542	15152
295.599	30320
295.656	58404
295.713	38187
295.770	48387
295.827	21127
295.883	11714
295.940	11616
295.997	18199
296.054	18349
296.111	10388
296.167	6954
296.224	6558
296.281	5625
296.338	6628
296.394	6345
296.451	8432
296.508	20168
296.564	45268
296.621	32075
296.678	49215
296.734	79915
296.791	35109
296.848	18425
296.904	18656
296.961	37520
297.018	54519
297.074	44682
297.131	18017
297.187	13352
297.244	18484
297.301	43040
297.357	88086
297.414	36070
297.470	15545
297.527	11360
297.583	9714
297.640	9742
297.696	7429
297.753	6685
297.809	6015
297.866	4830
297.922	5331
297.979	5542
298.035	6992
298.092	12155
298.148	29579
298.204	34114
298.261	18496
298.317	23747
298.374	61643
298.430	42472
298.486	19856
298.543	14548
298.599	12732
298.656	13855
298.712	22591
298.768	50859
298.824	40060
298.881	15152
298.937	9827
298.993	9036
299.050	12541
299.106	11150
299.162	8492
299.218	8836
299.275	8214
299.331	10143
299.387	16539
299.443	49597
299.500	66677
299.556	30137
299.612	15083
299.668	13991
299.724	17011
299.780	20524
299.837	12926
299.893	16302
299.949	47835
300.005	66082
300.061	50713
300.117	81568
300.173	45504
300.229	20705
300.285	24107
300.341	30528
300.397	17344
300.453	10544
300.510	9132
300.566	11032
300.622	13969
300.678	31850
300.734	63310
300.790	53263
300.845	59678
300.901	41863
300.957	56594
301.013	47734
301.069	20363
301.125	13910
301.181	16095
301.237	11675
301.293	8607
301.349	6858
301.405	7060
301.461	6907
301.516	7519
301.572	8693
301.628	19341
301.684	18344
301.740	21620
301.796	37823
301.851	26857
301.907	41205
301.963	45824
302.019	55171
302.074	141312
302.130	153738
302.186	73923
302.242	31799
302.297	21332
302.353	20723
302.409	35207
302.464	35251
302.520	28089
302.576	55960
302.631	71829
302.687	45285
302.743	20967
302.798	12918
302.854	10556
302.910	10954
302.965	14155
303.021	22197
303.076	22803
303.132	26618
303.187	36095
303.243	19839
303.299	10709
303.354	8921
303.410	8332
303.465	7964
303.521	8198
303.576	8131
303.632	10788
303.687	17066
303.743	45218
303.798	45850
303.853	20202
303.909	11235
303.964	11129
304.020	16468
304.075	27123
304.130	23168
304.186	41543
304.241	44074
304.297	35629
304.352	20384
304.358	19570
304.407	12979
304.449	12514
304.463	12368
304.518	13347
304.539	12418
304.573	10940
304.629	11758
304.630	11849
304.684	16384
304.720	28681
304.739	34836
304.794	56605
304.811	49086
304.850	31267
304.902	16265
304.905	15296
304.960	11606
304.992	10810
305.015	10235
305.071	10632
305.083	10069
305.126	8080
305.173	7364
305.181	7254
305.236	6178
305.264	6908
305.292	7675
305.347	9086
305.354	9287
305.402	10447
305.445	10769
305.457	10881
305.512	13130
305.535	13924
305.567	15001
305.622	15012
305.626	15368
305.678	23238
305.716	42158
305.733	49147
305.788	63607
305.807	55107
305.843	40006
305.897	44434
305.898	44450
305.953	50154
305.988	35280
306.008	27056
306.063	18073
306.078	16527
306.118	12758
306.168	9911
306.173	9669
306.228	7585
306.259	7529
306.283	7502
306.338	6874
306.349	6864
306.393	6923
306.440	8573
306.448	8895
306.503	10166
306.530	10616
306.558	12782
306.613	27456
306.620	29868
306.668	43366
306.711	50627
306.723	51259
306.778	44481
306.801	34984
306.833	23822
306.888	13174
306.892	12807
306.943	9608
306.982	8530
306.997	8115
307.052	7541
307.072	7499
307.107	8259
307.162	11769
307.163	11825
307.217	17768
307.253	22181
307.272	23167
307.327	25058
307.343	23146
307.381	19175
307.434	15460
307.436	15667
307.491	28632
307.524	42758
307.546	47075
307.600	49253
307.614	43711
307.655	27342
307.704	15316
307.710	14670
307.765	16190
307.795	20314
307.819	24181
307.874	38452
307.885	38602
307.929	31634
307.975	21180
307.984	20587
308.038	26024
308.065	31646
308.093	49194
308.148	98388
308.156	110486
308.202	168743
308.246	211159
308.257	211414
308.312	127629
308.336	95206
308.366	70888
308.421	49158
308.426	46945
308.475	29604
308.517	21565
308.530	19862
308.585	16678
308.607	15975
308.639	15904
308.694	16686
308.697	16944
308.748	29054
308.787	43509
308.803	44109
308.857	35863
308.877	29881
308.912	23861
308.967	21515
308.967	21572
309.021	29012
309.058	36149
309.076	44135
309.130	76233
309.148	89400
309.185	143031
309.238	234362
309.239	234804
309.293	264292
309.328	247149
309.348	221757
309.402	118592
309.418	93785
309.457	64675
309.508	42792
309.511	41978
309.566	38777
309.598	39167
309.620	44356
309.674	64015
309.688	70129
309.729	70270
309.778	57225
309.783	55848
309.837	38313
309.868	31065
309.892	34307
309.946	47182
309.959	52521
310.001	66441
310.049	77757
310.055	75732
310.109	47386
310.139	30036
310.163	22781
310.218	14162
310.229	12938
310.272	10852
310.319	9260
310.326	9052
310.381	8401
310.409	8163
310.435	7897
310.489	7188
310.499	7197
310.543	7646
310.589	8084
310.598	8067
310.652	8224
310.679	8005
310.706	6968
310.760	5241
310.769	4975
310.814	4586
310.859	4461
310.868	4540
310.923	4639
310.948	5035
310.977	5739
311.031	6868
311.038	7067
311.085	6850
311.128	6080
311.139	5953
311.193	6017
311.218	5834
311.247	5400
311.301	4681
311.308	4610
311.356	5163
311.398	5870
311.410	5760
311.464	5060
311.488	4745
311.518	4800
311.572	5052
311.578	5092
311.626	7034
311.668	8863
311.680	8941
311.734	9095
311.758	9183
311.788	8905
311.842	8483
311.847	8445
311.896	10932
311.937	13253
311.950	13016
312.004	11977
312.027	11464
312.058	9465
312.112	6012
312.117	5688
312.165	5281
312.207	4980
312.297	9701
312.386	7185
312.476	7486
312.566	13964
312.656	6679
312.745	4879
312.835	5496
312.925	6813
313.015	6189
313.104	7521
313.194	4763
313.284	4901
313.374	7165
313.463	6975
313.553	5520
313.643	4094
313.732	4295
313.822	4500
313.912	5830
314.001	6700
314.091	7619
314.180	10056
314.270	8984
314.360	9788
314.449	7920
314.539	5377
314.628	4982
314.718	6689
314.808	8586
314.897	5672
314.987	5134
315.076	6815
315.166	9384
315.255	8752
315.345	8522
315.434	9524
315.524	8035
315.613	9289
315.703	12004
315.792	15926
315.881	41428
315.971	15111
316.060	17899
316.150	26818
316.239	26534
316.328	10121
316.418	5066
316.507	5939
316.597	8228
316.686	7461
316.775	12879
316.865	28466
316.954	6327
317.043	4693
317.133	5060
317.222	4830
317.311	4181
317.400	4222
317.490	8423
317.579	8695
317.668	6564
317.757	10959
317.847	24155
317.936	70919
318.025	29749
318.114	17958
318.203	11303
318.293	14656
318.382	27520
318.471	21965
318.560	29543
318.649	59489
318.738	12700
318.828	10504
318.917	11188
319.006	13360
319.095	33124
319.184	75381
319.273	39004
319.362	20720
319.451	7579
319.540	8710
319.629	17968
319.718	27604
319.807	13734
319.896	26051
319.985	89826
320.074	30607
320.163	10864
320.252	17771
320.341	14612
320.430	12204
320.519	15875
320.608	8187
320.697	8429
320.786	7993
320.875	9681
320.964	13662
321.053	20024
321.142	29237
321.230	29444
321.319	22938
321.408	52616
321.497	22736
321.586	21480
321.675	27951
321.764	25090
321.852	17163
321.941	30042
322.030	19039
322.119	23115
322.207	52651
322.296	41651
322.385	21354
322.474	23658
322.562	61671
322.651	32521
322.740	24096
322.829	34796
322.917	38701
323.006	20993
323.095	16504
323.183	13042
323.272	20696
323.361	35839
323.449	98230
323.538	33240
323.626	72341
323.715	42152
323.804	19279
323.892	70059
323.981	36189
324.069	13454
324.158	39435
324.246	33232
324.335	12031
324.424	19005
324.512	7834
324.601	11115
324.689	20568
324.778	34295
324.866	27398
324.954	7857
325.043	8280
325.131	18251
325.220	31173
325.308	34959
325.397	24604
325.485	14594
325.574	5428
325.662	4690
325.750	6215
325.839	5574
325.927	5313
326.015	7493
326.104	12766
326.192	17903
326.280	5631
326.369	5590
326.457	8940
326.545	15588
326.634	6215
326.722	4671
326.810	5365
326.898	4843
326.987	6343
327.075	14703
327.163	16878
327.251	8781
327.340	13989
327.428	17741
327.516	5363
327.604	5530
327.692	5811
327.781	8140
327.869	14227
327.957	8454
328.045	7122
328.133	5014
328.221	6650
328.309	5436
328.397	5393
328.485	6949
328.574	10713
328.662	31895
328.750	17465
328.838	7996
328.926	4920
329.014	5182
329.102	8389
329.190	20856
329.278	13106
329.366	4223
329.454	3910
329.542	3965
329.630	3980
329.718	4627
329.806	6329
329.893	5331
329.981	5080
330.069	6893
330.157	22970
330.245	57400
330.333	27215
330.421	7717
330.509	11439
330.597	37320
330.684	24010
330.772	9667
330.860	16379
330.948	19757
331.036	8121
331.123	3236
331.211	4984
331.299	6952
331.387	16196
331.475	27307
331.562	8477
331.650	3987
331.738	6028
331.825	9093
331.913	4337
332.001	3652
332.089	7267
332.176	16512
332.264	38694
332.352	27303
332.439	9099
332.527	6445
332.614	5437
332.702	8310
332.790	6291
332.877	18505
332.965	36122
333.052	9421
333.140	10387
333.228	22801
333.315	6956
333.403	7209
333.490	23005
333.578	19133
333.665	25159
333.753	11074
333.840	5048
333.928	8554
334.015	24464
334.103	34463
334.190	90226
334.278	23086
334.365	13295
334.452	9859
334.540	6080
334.627	8549
334.715	14332
334.802	27936
334.889	124058
334.977	107170
335.064	18328
335.151	7413
335.239	8393
335.326	12502
335.413	47694
335.501	57011
335.588	10032
335.675	6949
335.762	10677
335.850	17775
335.937	13300
336.024	34863
336.111	127880
336.199	54508
336.286	13076
336.373	6665
336.460	4948
336.547	4772
336.635	7393
336.722	5916
336.809	5999
336.896	11238
336.983	32598
337.070	72807
337.157	93327
337.245	78680
337.332	49565
337.419	8082
337.506	5638
337.593	8095
337.680	26942
337.767	70749
337.854	20437
337.941	24716
338.028	31747
338.115	9962
338.202	13463
338.289	24993
338.376	78934
338.463	24654
338.550	44188
338.637	40912
338.724	18481
338.811	26905
338.898	6068
338.984	4776
339.071	7867
339.158	8186
339.245	20070
339.332	12591
339.419	19884
339.506	17352
339.593	3148
339.679	4697
339.766	3644
339.853	6818
339.940	14566
340.027	5123
340.113	6181
340.200	7792
340.287	5588
340.374	7735
340.460	12831
340.547	5090
340.634	10475
340.720	36077
340.807	19064
340.894	4093
340.980	5304
341.067	4074
341.154	5558
341.240	8606
341.327	17838
341.414	6036
341.500	6009
341.587	5125
341.674	5146
341.760	12188
341.847	13881
341.933	4629
342.020	2193
342.106	3154
342.193	4893
342.279	9110
342.366	7833
342.452	12438
342.539	7196
342.625	17524
342.712	38262
342.798	16246
342.885	6737
342.971	1716
343.058	2539
343.144	3342
343.230	4008
343.317	4080
343.403	2747
343.490	2359
343.576	2084
343.662	3459
343.749	4792
343.835	7189
343.921	12977
344.008	63221
344.094	119906
344.180	26943
344.267	13173
344.353	42175
344.439	43676
344.525	19177
344.612	6912
344.698	6366
344.784	4233
344.870	3364
344.957	3585
345.043	7843
345.129	5358
345.215	11911
345.301	6195
345.387	3959
345.474	2356
345.560	3696
345.646	5177
345.732	4483
345.818	4970
345.904	4507
345.990	5703
346.076	6236
346.162	12330
346.249	4887
346.335	2977
346.421	4568
346.507	19327
346.593	52176
346.679	11592
346.765	5740
346.851	3691
346.937	3898
347.023	3834
347.108	5242
347.194	4202
347.280	4093
347.366	5737
347.452	19509
347.538	64156
347.624	48893
347.710	41444
347.796	8614
347.882	4370
347.967	4110
348.053	6997
348.139	4014
348.225	4195
348.311	2876
348.397	2642
348.482	5259
348.568	6122
348.654	3553
348.740	6365
348.825	5924
348.911	9210
348.997	32785
349.083	55624
349.168	9865
349.254	4009
349.340	4345
349.425	3401
349.511	5846
349.597	7381
349.682	13904
349.768	41685
349.854	18332
349.939	5305
350.025	2940
350.110	3433
350.196	3233
350.282	1982
350.367	3628
350.453	8178
350.538	7435
350.624	5592
350.709	5394
350.795	3527
350.880	3558
350.966	5286
351.051	7275
351.137	5394
351.222	4523
351.308	14648
351.393	35889
351.479	9556
351.564	3299
351.649	4011
351.735	3763
351.820	2419
351.906	2967
351.991	6145
352.076	25104
352.162	32706
352.247	7251
352.332	4761
352.418	10559
352.503	13056
352.588	55818
352.673	41304
352.759	9606
352.844	4488
352.929	5772
353.014	7262
353.100	5821
353.185	9571
353.270	15299
353.355	13627
353.441	4913
353.526	5910
353.611	13351
353.696	15152
353.781	8940
353.866	3670
353.952	5127
354.037	13275
354.122	28514
354.207	24687
354.292	8739
354.377	3639
354.462	3639
354.547	6141
354.632	6208
354.717	9396
354.802	9778
354.887	4480
354.972	2919
355.057	2925
355.142	2099
355.227	4450
355.312	7680
355.397	19329
355.482	44946
355.567	19651
355.652	15804
355.737	17167
355.822	48981
355.907	35019
355.991	6448
356.076	3552
356.161	3762
356.246	3575
356.331	4280
356.416	12602
356.501	72963
356.585	65041
356.670	10677
356.755	9154
356.840	12263
356.924	57227
357.009	167201
357.094	59053
357.179	16097
357.263	10750
357.348	10876
357.433	10609
357.517	9521
357.602	8061
357.687	5386
357.771	7141
357.856	9639
357.941	10621
358.025	43493
358.110	152871
358.195	64882
358.279	12442
358.364	10336
358.448	38047
358.533	91901
358.617	64921
358.702	63196
358.787	23346
358.871	13835
358.956	11200
359.040	4408
359.125	3293
359.209	4023
359.294	5496
359.378	6763
359.462	10437
359.547	6815
359.631	5566
359.716	2804
359.800	4535
359.885	8490
359.969	4074
360.053	4839
360.138	4637
360.222	6655
360.306	13579
360.391	9825
360.475	13231
360.559	28313
360.644	34667
360.728	24488
360.812	45326
360.896	101580
360.981	46736
361.065	26063
361.149	8262
361.233	7160
361.318	5692
361.402	7167
361.486	6755
361.570	4341
361.654	7138
361.739	19794
361.823	73554
361.907	95986
361.991	17229
362.075	13359
362.159	26670
362.243	19896
362.327	21456
362.411	28578
362.495	13966
362.580	7423
362.664	5123
362.748	4349
362.832	7122
362.916	11809
363.000	45890
363.084	114954
363.168	121063
363.252	29893
363.336	12141
363.420	17927
363.503	68201
363.587	70765
363.671	13025
363.755	10020
363.839	14175
363.923	6433
364.007	15462
364.091	17819
364.175	28309
364.258	104198
364.342	74518
364.426	95363
364.510	47803
364.594	22675
364.677	27315
364.761	92612
364.845	56831
364.929	23950
365.013	19822
365.096	16581
365.180	19023
365.264	30610
365.347	97734
365.431	40594
365.515	12472
365.598	5715
365.682	6772
365.766	12816
365.849	15614
365.933	7582
366.017	10792
366.100	8340
366.184	3457
366.267	5386
366.351	4693
366.435	3869
366.518	2588
366.602	3215
366.685	4096
366.769	6079
366.852	11792
366.936	19266
367.019	9523
367.103	9326
367.186	18135
367.270	4801
367.353	3236
367.436	5155
367.520	2880
367.603	7154
367.687	8951
367.770	16278
367.853	10556
367.937	31730
368.020	45031
368.104	11424
368.187	12467
368.270	18480
368.353	16180
368.437	24118
368.520	58919
368.603	31199
368.687	39137
368.770	62992
368.853	14854
368.936	19038
369.020	17305
369.103	6744
369.186	3948
369.269	5062
369.352	12375
369.436	16432
369.519	9660
369.602	4308
369.685	7090
369.768	5953
369.851	5313
369.934	3860
370.018	5933
370.101	14091
370.184	11848
370.267	8453
370.350	14135
370.433	22639
370.516	53747
370.599	61401
370.682	22643
370.765	38817
370.848	46875
370.931	76772
371.014	29786
371.097	6367
371.180	5845
371.263	3474
371.346	2190
371.429	4411
371.511	4606
371.594	9975
371.677	16167
371.760	19558
371.843	15100
371.926	63412
372.009	121244
372.091	40176
372.174	34006
372.257	68903
372.340	24584
372.423	26024
372.505	29356
372.588	12770
372.671	27416
372.754	77291
372.836	35455
372.919	35706
373.002	62701
373.085	18872
373.167	15561
373.250	36896
373.332	71872
373.415	95825
373.498	170452
373.580	63234
373.663	95395
373.746	108203
373.828	26558
373.911	13266
373.993	16734
374.076	63445
374.159	54808
374.241	25654
374.324	68543
374.406	42338
374.489	59126
374.571	141919
374.654	54413
374.736	32964
374.819	93184
374.901	130433
374.983	118231
375.066	21969
375.148	12426
375.231	51962
375.313	90536
375.395	33622
375.478	8364
375.560	6599
375.643	9264
375.725	34397
375.807	118033
375.890	96711
375.972	49736
376.054	27618
376.136	46660
376.219	19758
376.301	39440
376.383	96942
376.465	34999
376.548	25978
376.630	32579
376.712	85716
376.794	34893
376.877	6315
376.959	3513
377.041	6449
377.123	15455
377.205	15828
377.287	3148
377.369	4709
377.452	3452
377.534	3325
377.616	3272
377.698	4081
377.780	3343
377.862	4507
377.944	5741
378.026	2418
378.108	4142
378.190	3098
378.272	3869
378.354	2174
378.436	2195
378.518	8585
378.600	30463
378.682	24392
378.764	49343
378.846	33834
378.928	12940
379.010	16147
379.091	8433
379.173	4118
379.255	3612
379.337	6701
379.419	25601
379.501	66463
379.583	24026
379.664	7535
379.746	18246
379.828	50135
379.910	63801
379.991	50255
380.073	8749
380.155	7160
380.237	5133
380.318	3344
380.400	4211
380.482	12593
380.564	16880
380.645	16233
380.727	14666
380.809	9480
380.890	7649
380.972	4994
381.053	5361
381.135	7214
381.217	18573
381.298	50427
381.380	22787
381.461	22982
381.543	91605
381.624	94645
381.706	19024
381.787	11731
381.869	13232
381.951	44257
382.032	136704
382.113	79029
382.195	20157
382.276	16218
382.358	32332
382.439	78090
382.521	88757
382.602	124038
382.684	58200
382.765	115874
382.846	127337
382.928	184405
383.009	94751
383.090	72184
383.172	260165
383.253	349021
383.334	124826
383.416	122636
383.497	58244
383.578	32708
383.659	62509
383.741	223649
383.822	501175
383.903	239141
383.984	97720
384.066	149486
384.147	86259
384.228	20335
384.309	16703
384.390	12778
384.471	9140
384.553	10949
384.634	15039
384.715	14473
384.796	8037
384.877	11293
384.958	45618
385.039	50442
385.120	18738
385.201	9165
385.282	11759
385.363	13760
385.444	10935
385.525	20715
385.606	62511
385.687	46898
385.768	15037
385.849	19623
385.930	70408
386.011	100395
386.092	26067
386.173	8621
386.254	8405
386.335	8948
386.416	9869
386.496	32673
386.577	47370
386.658	19202
386.739	11477
386.820	12387
386.901	9387
386.981	9367
387.062	6599
387.143	13934
387.224	49806
387.304	43096
387.385	17543
387.466	11425
387.547	16930
387.627	10092
387.708	22206
387.789	85384
387.869	90584
387.950	24175
388.031	6728
388.111	6129
388.192	19748
388.273	28520
388.353	15072
388.434	9281
388.514	19042
388.595	73119
388.676	86249
388.756	44764
388.837	46090
388.917	25473
388.998	5773
389.078	6595
389.159	6051
389.239	5069
389.320	10776
389.400	7899
389.480	22575
389.561	50134
389.641	21596
389.722	9865
389.802	15532
389.883	23923
389.963	57625
390.043	36114
390.124	14027
390.204	20659
390.284	54200
390.365	32899
390.445	46246
390.525	88482
390.605	65787
390.686	25556
390.766	9945
390.846	7249
390.927	3660
391.007	5070
391.087	7817
391.167	7128
391.247	5478
391.328	12308
391.408	17443
391.488	11328
391.568	4452
391.648	8659
391.728	11586
391.808	11372
391.888	12494
391.969	30276
392.049	42932
392.129	21280
392.209	26517
392.289	56026
392.369	30688
392.449	31616
392.529	19247
392.609	16200
392.689	21232
392.769	56887
392.849	45416
392.929	40434
393.009	85016
393.089	60919
393.169	63315
393.248	202078
393.328	608294
393.408	577516
393.488	173276
393.568	55154
393.648	28339
393.728	19060
393.807	13786
393.887	12504
393.967	10457
394.047	13236
394.127	15144
394.206	23461
394.286	84621
394.366	309022
394.446	286492
394.525	65580
394.605	19130
394.685	19582
394.764	43775
394.844	72151
394.924	46943
395.003	14590
395.083	9937
395.163	9993
395.242	8752
395.322	9382
395.402	6227
395.481	11262
395.561	32368
395.640	80059
395.720	60723
395.799	82820
395.879	59564
395.958	34312
396.038	120761
396.117	403916
396.197	383617
396.276	117141
396.356	44114
396.435	36694
396.515	24429
396.594	30361
396.673	58637
396.753	212151
396.832	547976
396.912	377478
396.991	96548
397.070	30645
397.150	16778
397.229	13886
397.308	20068
397.388	30272
397.467	14397
397.546	7074
397.625	5471
397.705	9419
397.784	8883
397.863	5284
397.942	4263
398.022	6358
398.101	26336
398.180	70419
398.259	35856
398.338	10153
398.417	6895
398.497	4952
398.576	5659
398.655	3875
398.734	4395
398.813	5353
398.892	24470
398.971	76604
399.050	32963
399.129	3986
399.208	3769
399.287	4184
399.366	2615
399.445	2602
399.524	4473
399.603	2131
399.682	9406
399.761	26907
399.840	81132
399.919	55534
399.998	8634
400.077	2527
400.156	1944
400.235	5956
400.313	2916
400.392	6284
400.471	27589
400.550	39632
400.629	10019
400.708	5321
400.786	5736
400.865	19760
400.944	19497
401.023	9435
401.102	1811
401.180	2665
401.259	3379
401.338	3876
401.416	5394
401.495	4046
401.574	4545
401.652	2920
401.731	6601
401.810	4835
401.888	1488
401.967	1716
402.046	2759
402.124	5370
402.203	7845
402.281	4426
402.360	6531
402.438	23812
402.517	14826
402.596	6133
402.674	5262
402.753	3297
402.831	2513
402.910	4690
402.988	19916
403.066	58333
403.145	28861
403.223	20561
403.302	46891
403.380	33278
403.459	32403
403.537	12656
403.615	4626
403.694	893
403.772	2372
403.850	1830
403.929	1353
404.007	2543
404.085	6361
404.164	7049
404.242	2512
404.320	5248
404.398	10752
404.477	27789
404.555	111102
404.633	83982
404.711	13089
404.789	5196
404.868	4107
404.946	2347
405.024	1514
405.102	1873
405.180	1532
405.258	513
405.336	2802
405.415	2320
405.493	7880
405.571	7012
405.649	1682
405.727	2043
405.805	5263
405.883	5418
405.961	5305
406.039	5897
406.117	3295
406.195	6309
406.273	30342
406.351	98122
406.429	51552
406.507	9660
406.585	3723
406.663	3866
406.740	5390
406.818	4104
406.896	2133
406.974	3467
407.052	9477
407.130	60590
407.208	73793
407.285	13174
407.363	3336
407.441	3175
407.519	2023
407.596	4160
407.674	12528
407.752	34678
407.830	32213
407.907	13258
407.985	3751
408.063	2879
408.141	2051
408.218	6822
408.296	4717
408.373	4004
408.451	4626
408.529	3601
408.606	1807
408.684	1369
408.762	1141
408.839	797
408.917	1260
408.994	911
409.072	1326
409.149	2112
409.227	4465
409.304	5766
409.382	5211
409.459	5655
409.537	8329
409.614	6692
409.692	4367
409.769	5500
409.846	8757
409.924	12173
410.001	6792
410.079	4831
410.156	3924
410.233	3312
410.311	1225
410.388	2189
410.465	3090
410.543	2726
410.620	2515
410.697	3152
410.775	3569
410.852	1714
410.929	4320
411.006	5746
411.083	2765
411.161	8468
411.238	8305
411.315	4263
411.392	1830
411.469	4233
411.547	4771
411.624	590
411.701	1794
411.778	3840
411.855	8205
411.932	4258
412.009	1904
412.086	1939
412.163	3734
412.240	4061
412.317	4834
412.394	3418
412.471	1349
412.548	1153
412.625	1460
412.702	3695
412.779	8077
412.856	4882
412.933	1099
413.010	1030
413.087	4412
413.164	25638
413.241	32246
413.318	7150
413.395	4655
413.471	7559
413.548	3051
413.625	1906
413.702	2982
413.779	2964
413.855	804
413.932	409
414.009	3
414.086	1128
414.162	1532
414.239	5203
414.316	26508
414.393	51348
414.469	15170
414.546	1672
414.623	1050
414.699	1881
414.776	2086
414.853	1901
414.929	1824
415.006	1500
415.082	3523
415.159	2391
415.236	1917
415.312	1971
415.389	5243
415.465	7539
415.542	2694
415.618	2113
415.695	5311
415.771	3758
415.848	2565
415.924	2854
416.000	1420
416.077	2394
416.153	-21
416.230	-600
416.306	422
416.383	1299
416.459	1478
416.535	149
416.612	739
416.688	1354
416.764	1754
416.841	401
416.917	1037
416.993	1614
417.069	2458
417.146	3812
417.222	4231
417.298	2656
417.374	1708
417.451	2594
417.527	2826
417.603	2985
417.679	2454
417.755	2087
417.831	401
417.908	884
417.984	548
418.060	834
418.136	7270
418.212	7903
418.288	2850
418.364	2086
418.440	1843
418.516	5652
418.592	7031
418.668	12266
418.744	17219
418.820	11893
418.896	2557
418.972	356
419.048	1776
419.124	8785
419.200	4526
419.276	927
419.352	-86
419.428	1787
419.504	2098
419.579	3740
419.655	1821
419.731	2939
419.807	11328
419.883	20105
419.959	12974
420.034	4340
420.110	8500
420.186	33566
420.262	23671
420.337	5107
420.413	3957
420.489	1874
420.565	2841
420.640	1825
420.716	3781
420.792	78
420.867	2796
420.943	1419
421.019	5567
421.094	4057
421.170	2141
421.245	1250
421.321	2530
421.397	3039
421.472	7278
421.548	18000
421.623	11901
421.699	5326
421.774	5399
421.850	4398
421.925	8949
422.001	7739
422.076	6351
422.152	7675
422.227	13558
422.302	16710
422.378	23047
422.453	44695
422.529	113153
422.604	290210
422.679	390199
422.755	261801
422.830	103842
422.905	42353
422.981	23845
423.056	15254
423.131	11940
423.207	8694
423.282	8866
423.357	14040
423.432	9387
423.508	10233
423.583	18983
423.658	13454
423.733	6439
423.808	6532
423.883	7625
423.959	6201
424.034	4794
424.109	5029
424.184	2611
424.259	2261
424.334	2160
424.409	1352
424.484	2206
424.559	2292
424.634	2276
424.709	4232
424.784	4423
424.859	2881
424.934	6280
425.009	25770
425.084	40387
425.159	13225
425.234	2535
425.309	695
425.384	2196
425.459	2359
425.534	2307
425.609	3396
425.683	1886
425.758	1568
425.833	2410
425.908	5153
425.983	17163
426.058	42747
426.132	16833
426.207	4226
426.282	6788
426.357	5494
426.431	1775
426.506	2571
426.581	2710
426.655	2597
426.730	2754
426.805	785
426.879	2567
426.954	2808
427.029	8217
427.103	41646
427.178	88392
427.253	35400
427.327	5085
427.402	5197
427.476	10656
427.551	3369
427.625	3631
427.700	2723
427.774	1458
427.849	3173
427.923	2101
427.998	1163
428.072	2345
428.147	9295
428.221	37498
428.296	94262
428.370	42903
428.444	7277
428.519	9110
428.593	18926
428.667	15420
428.742	19361
428.816	19800
428.890	66357
428.965	87497
429.039	27717
429.113	21782
429.188	7232
429.262	3418
429.336	6159
429.410	21257
429.485	13552
429.559	16236
429.633	12025
429.707	4406
429.781	15278
429.855	76603
429.930	103265
430.004	57546
430.078	82895
430.152	74952
430.226	121263
430.300	105413
430.374	17277
430.448	8218
430.522	28441
430.596	76020
430.670	48043
430.744	107123
430.818	135161
430.892	27613
430.966	5323
431.040	3061
431.114	1870
431.188	1071
431.262	1488
431.336	2396
431.410	8596
431.484	23532
431.557	14563
431.631	2280
431.705	4098
431.779	20299
431.853	83021
431.927	52154
432.000	6453
432.074	2911
432.148	3298
432.222	2607
432.295	1897
432.369	1352
432.443	6981
432.516	40416
432.590	89256
432.664	31842
432.737	5091
432.811	1194
432.885	-95
432.958	472
433.032	467
433.106	204
433.179	495
433.253	46
433.326	676
433.400	336
433.473	-237
433.547	-134
433.620	1108
433.694	4530
433.767	4828
433.841	1224
433.914	-88
433.988	428
434.061	664
434.134	571
434.208	814
434.281	-465
434.355	-25
434.428	1212
434.501	397
434.575	739
434.648	1087
434.721	249
434.795	115
434.868	35
434.941	-504
435.014	-539
435.088	497
435.161	1632
435.234	4632
435.307	6259
435.381	2958
435.454	3032
435.527	4318
435.600	4362
435.673	2946
435.746	2937
435.819	1088
435.892	1149
435.966	704
436.039	766
436.112	1068
436.185	-88
436.258	575
436.331	-222
436.404	-438
436.477	408
436.550	-219
436.623	906
436.696	364
436.769	698
436.842	963
436.915	1642
436.987	3910
437.060	1280
437.133	-223
437.206	162
437.279	724
437.352	45
437.425	506
437.498	1061
437.570	5619
437.643	5668
437.716	1095
437.789	1274
437.861	4415
437.934	12708
438.007	6176
438.080	923
438.152	2323
438.225	6690
438.298	52544
438.370	127151
438.443	54755
438.516	14288
438.588	3422
438.661	623
438.734	857
438.806	1940
438.879	2680
438.951	3090
439.024	6102
439.096	2241
439.169	728
439.241	384
439.314	932
439.386	4037
439.459	5911
439.531	8765
439.604	3936
439.676	454
439.749	219
439.821	604
439.893	1259
439.966	756
440.038	2771
440.110	2224
440.183	1507
440.255	1278
440.327	3953
440.400	23996
440.472	88017
440.544	57181
440.617	9082
440.689	5917
440.761	8140
440.833	12098
440.905	7573
440.978	1841
441.050	23
441.122	1771
441.194	-339
441.266	1615
441.338	350
441.411	4118
441.483	30025
441.555	43759
441.627	11777
441.699	5907
441.771	5991
441.843	2109
441.915	947
441.987	765
442.059	1115
442.131	2470
442.203	4230
442.275	6616
442.347	6051
442.419	9346
442.491	46860
442.563	110377
442.635	51173
442.706	28456
442.778	21236
442.850	4396
442.922	2663
442.994	3729
443.066	5400
443.137	5027
443.209	4263
443.281	6212
443.353	15480
443.425	62990
443.496	199110
443.568	194100
443.640	74140
443.711	16239
443.783	5775
443.855	4323
443.926	2523
443.998	2842
444.070	4560
444.141	4180
444.213	5647
444.285	8070
444.356	7145
444.428	5707
444.499	1633
444.571	1083
444.642	1826
444.714	3520
444.785	5600
444.857	8526
444.928	18707
445.000	10983
445.071	13420
445.143	15228
445.214	10368
445.285	16241
445.357	47103
445.428	141729
445.500	290860
445.571	197841
445.642	104563
445.714	45033
445.785	33197
445.856	12552
445.928	9333
445.999	7860
446.070	5777
446.141	5894
446.213	8735
446.284	4497
446.355	4951
446.426	3666
446.497	2819
446.569	5943
446.640	9988
446.711	8375
446.782	2649
446.853	5051
446.924	4951
446.995	3731
447.066	3867
447.138	6852
447.209	3944
447.280	605
447.351	726
447.422	941
447.493	3276
447.564	4339
447.635	6621
447.706	3065
447.777	1353
447.847	564
447.918	1251
447.989	2769
448.060	6504
448.131	12684
448.202	12356
448.273	8828
448.344	4322
448.414	1799
448.485	2218
448.556	1426
448.627	594
448.698	1099
448.768	1099
448.839	930
448.910	6408
448.981	5589
449.051	2695
449.122	1371
449.193	486
449.263	1349
449.334	964
449.405	3267
449.475	9558
449.546	7638
449.616	8076
449.687	6485
449.758	2299
449.828	1330
449.899	1246
449.969	967
450.040	996
450.110	2750
450.181	3653
450.251	1685
450.322	1313
450.392	1908
450.463	1255
450.533	892
450.604	1261
450.674	1701
450.744	1463
450.815	1456
450.885	1179
450.955	1765
451.026	1239
451.096	1348
451.166	2547
451.237	8649
451.307	20841
451.377	9396
451.447	1843
451.518	1364
451.588	1414
451.658	1720
451.728	4968
451.799	21593
451.869	25579
451.939	6663
452.009	1938
452.079	1687
452.149	2713
452.219	6042
452.289	24237
452.360	20731
452.430	4822
452.500	3842
452.570	5455
452.640	7965
452.710	21884
452.780	30900
452.850	22063
452.920	21645
452.990	8344
453.060	4459
453.129	6092
453.199	8481
453.269	27742
453.339	61228
453.409	94761
453.479	90083
453.549	133719
453.619	141438
453.688	62014
453.758	10094
453.828	3488
453.898	2632
453.968	2218
454.037	2187
454.087	1957
454.107	1842
454.168	2069
454.177	2081
454.247	1239
454.249	1260
454.316	1224
454.330	1565
454.386	2711
454.411	6481
454.456	12399
454.492	15822
454.525	18888
454.574	10716
454.595	7199
454.655	2965
454.665	2323
454.734	3159
454.736	3331
454.804	7394
454.817	10722
454.873	23424
454.898	25203
454.943	27950
454.979	19102
455.013	11406
455.060	7116
455.082	5573
455.141	6238
455.152	6174
455.221	17520
455.222	17820
455.291	33381
455.303	32101
455.360	25237
455.384	28582
455.430	32277
455.465	27339
455.499	22864
455.546	22987
455.569	22726
455.627	16701
455.638	15787
455.707	4106
455.708	4118
455.777	2339
455.789	2395
455.846	2535
455.869	2467
455.916	2238
455.950	2340
455.985	2383
456.031	2305
456.054	2232
456.112	2702
456.124	2811
456.193	2679
456.193	2655
456.262	3443
456.274	3775
456.332	5119
456.355	5427
456.401	5663
456.436	4673
456.470	3534
456.516	2172
456.540	1669
456.597	1758
456.609	1736
456.678	2400
456.678	2384
456.747	2570
456.759	2533
456.817	2109
456.840	1991
456.886	1729
456.920	2038
456.955	2507
457.001	2823
457.024	3060
457.082	4315
457.093	4514
457.162	6136
457.163	6174
457.232	7689
457.243	7188
457.301	4505
457.324	3702
457.370	2623
457.405	3016
457.439	3553
457.485	3464
457.508	3375
457.566	3826
457.577	4026
457.646	5542
457.647	5586
457.715	9928
457.727	11001
457.784	17755
457.808	22302
457.853	27156
457.889	30854
457.922	29976
457.969	21319
457.991	22423
458.050	27710
458.060	28623
458.129	46367
458.130	46896
458.198	42951
458.211	38681
458.267	22853
458.292	15889
458.336	10441
458.372	9747
458.405	13446
458.453	20883
458.474	26528
458.533	47269
458.543	48764
458.611	73664
458.614	74104
458.680	45386
458.694	35873
458.749	18628
458.775	13382
458.818	7816
458.855	6486
458.887	5660
458.936	5242
458.955	5064
459.016	5697
459.024	5794
459.093	5218
459.097	5252
459.162	5947
459.177	6060
459.230	6711
459.257	7326
459.299	7700
459.338	7801
459.368	7976
459.418	8733
459.437	8428
459.499	6399
459.505	6319
459.574	5675
459.579	5640
459.643	5249
459.659	5205
459.711	5494
459.740	5759
459.780	5837
459.820	6232
459.849	6509
459.900	6555
459.917	6447
459.981	5947
459.986	5860
460.054	5268
460.061	5185
460.123	6414
460.141	6911
460.191	8392
460.222	9272
460.260	9867
460.302	11097
460.328	10574
460.382	8789
460.397	8764
460.462	6809
460.465	6886
460.534	11193
460.543	11691
460.602	29256
460.623	36154
460.671	55263
460.703	72814
460.739	66722
460.783	53273
460.808	44779
460.864	12525
460.876	10117
460.944	6633
460.945	6589
461.013	5941
461.024	5874
461.081	6554
461.104	7184
461.150	7048
461.184	6484
461.218	6533
461.264	6317
461.286	6176
461.345	6231
461.355	6251
461.423	6603
461.425	6610
461.491	6480
461.505	6513
461.559	11694
461.585	14011
461.628	21390
461.665	29293
461.696	32160
461.745	40338
461.764	36755
461.825	15500
461.832	15108
461.901	8697
461.905	8658
461.969	7360
461.985	7146
462.037	7161
462.065	6864
462.105	7172
462.145	8024
462.173	11011
462.225	16415
462.241	17943
462.305	26713
462.310	26137
462.378	16200
462.385	14474
462.446	9580
462.465	8620
462.514	7476
462.545	7408
462.582	7410
462.625	7259
462.650	6840
462.705	6205
462.718	6524
462.785	7878
462.786	7927
462.854	10871
462.865	11431
462.922	13899
462.945	15026
462.990	12163
463.025	8915
463.058	7992
463.104	6701
463.126	6597
463.184	7007
463.194	7095
463.262	7810
463.264	7832
463.330	7842
463.344	7820
463.398	8655
463.424	8962
463.466	8583
463.504	8658
463.533	9131
463.583	9276
463.601	9473
463.663	10321
463.669	10547
463.737	13194
463.743	13472
463.805	19582
463.823	21293
463.873	30232
463.903	36022
463.940	37632
463.982	40632
464.008	34056
464.062	16447
464.076	15313
464.142	8060
464.144	8003
464.211	8361
464.221	8496
464.279	8168
464.301	8052
464.347	9042
464.381	9774
464.414	10273
464.461	10952
464.482	11559
464.540	13535
464.550	13277
464.617	10714
464.620	10610
464.685	11516
464.699	11761
464.753	14728
464.779	16324
464.820	17213
464.859	17795
464.888	16969
464.938	15429
464.956	15732
465.018	16955
465.023	16811
465.091	14346
465.098	14067
465.158	13688
465.177	13610
465.226	13545
465.257	13479
465.293	14247
465.336	15073
465.361	15902
465.416	17798
465.428	18821
465.495	24421
465.496	24535
465.563	36634
465.575	38775
465.631	47246
465.654	51148
465.698	33754
465.734	17819
465.765	15832
465.813	12708
465.833	12594
465.893	13345
465.900	13283
465.968	12613
465.972	12551
466.035	12266
466.052	12138
466.102	13198
466.131	13793
466.170	13331
466.210	12802
466.237	13100
466.290	13591
466.304	13966
466.369	15510
466.372	15570
466.439	16598
466.449	16727
466.506	17629
466.528	17928
466.573	23412
466.607	27417
466.641	39342
466.687	55960
466.708	61463
466.766	76822
466.775	71430
466.842	29793
466.845	27754
466.909	20727
466.925	19164
466.977	17912
467.004	17338
467.044	18397
467.083	19392
467.111	20979
467.163	23873
467.178	24605
467.242	27456
467.245	27327
467.312	23625
467.321	23094
467.379	22356
467.400	22022
467.446	22964
467.480	23573
467.559	22219
467.638	19002
467.717	20881
467.796	23040
467.875	23958
467.955	22556
468.034	30939
468.113	65194
468.192	92683
468.271	29810
468.350	21971
468.429	26348
468.508	28421
468.588	22187
468.667	18768
468.746	20436
468.825	19293
468.904	16222
468.983	19908
469.062	28737
469.141	33924
469.220	17227
469.299	16989
469.378	18283
469.456	23054
469.535	21243
469.614	19002
469.693	19753
469.772	23871
469.851	31834
469.930	23697
470.009	18819
470.088	20539
470.166	23429
470.245	36089
470.324	41798
470.403	27384
470.482	20315
470.560	17806
470.639	19958
470.718	22736
470.797	17534
470.875	20300
470.954	25727
471.033	28368
471.111	15495
471.190	15027
471.269	14156
471.347	14547
471.426	15885
471.505	18216
471.583	20260
471.662	18270
471.740	16660
471.819	16933
471.898	14822
471.976	16308
472.055	15003
472.133	17895
472.212	22758
472.290	23118
472.369	16132
472.447	14613
472.526	14062
472.604	16808
472.683	16623
472.761	18416
472.839	16039
472.918	15824
472.996	15696
473.075	18302
473.153	17686
473.231	14768
473.310	17753
473.388	17143
473.466	15414
473.545	19533
473.623	24926
473.701	24286
473.780	16414
473.858	15691
473.936	17182
474.014	15877
474.093	17231
474.171	23987
474.249	30670
474.327	22350
474.405	13572
474.484	14016
474.562	13891
474.640	14795
474.718	14666
474.796	14781
474.874	14354
474.952	12714
475.030	13049
475.108	14613
475.187	15258
475.265	17708
475.343	25085
475.421	28028
475.499	14703
475.577	15373
475.655	18870
475.733	34375
475.811	57956
475.889	51065
475.966	36573
476.044	15741
476.122	20637
476.200	25160
476.278	19773
476.356	14465
476.434	14858
476.512	18604
476.590	24569
476.667	21152
476.745	13018
476.823	15395
476.901	13904
476.979	14395
477.056	13232
477.134	14786
477.212	15607
477.290	14570
477.367	13478
477.445	13106
477.523	12407
477.601	13613
477.678	12480
477.756	15835
477.834	16988
477.911	13133
477.989	13490
478.066	12254
478.144	15260
478.222	18423
478.299	29994
478.377	26318
478.454	12754
478.532	11794
478.609	13048
478.687	14691
478.764	11425
478.842	13272
478.919	14518
478.997	13684
479.074	11194
479.152	14147
479.229	17343
479.307	13193
479.384	10444
479.461	10064
479.539	11967
479.616	14405
479.694	12915
479.771	12680
479.848	13743
479.926	18539
480.003	19892
480.080	12110
480.157	11491
480.235	10958
480.312	11064
480.389	14069
480.467	20285
480.544	24844
480.621	15173
480.698	13973
480.775	15472
480.853	15237
480.930	12717
481.007	13115
481.084	14659
481.161	17279
481.238	15616
481.315	11405
481.392	11153
481.470	12215
481.547	11724
481.624	12498
481.701	11374
481.778	12517
481.855	13416
481.932	20078
482.009	32926
482.086	23842
482.163	14885
482.240	21236
482.317	37118
482.393	27724
482.470	12816
482.547	13358
482.624	11778
482.701	13919
482.778	12566
482.855	11328
482.932	10953
483.009	11288
483.085	13806
483.162	16857
483.239	16797
483.316	12517
483.393	11893
483.469	12059
483.546	13814
483.623	13770
483.699	12195
483.776	11944
483.853	14685
483.930	20654
484.006	50114
484.083	84089
484.160	48518
484.236	67246
484.313	51330
484.389	38685
484.466	34394
484.543	33954
484.619	35216
484.696	36924
484.772	36990
484.849	38350
484.925	31665
485.002	31233
485.078	33614
485.155	34352
485.231	29337
485.308	29857
485.384	30558
485.461	35650
485.537	54711
485.614	64753
485.690	31158
485.766	28466
485.843	30706
485.919	43304
485.995	45469
486.072	28241
486.148	25716
486.224	26458
486.301	28175
486.377	32084
486.453	34154
486.530	32038
486.606	39429
486.682	44443
486.758	50300
486.835	57345
486.911	45892
486.987	71117
487.063	83614
487.139	105069
487.215	72990
487.292	37121
487.368	33144
487.444	37225
487.520	45761
487.596	45136
487.672	67153
487.748	182521
487.824	265728
487.900	82121
487.976	37530
488.052	35050
488.128	42352
488.204	34203
488.280	28793
488.356	33325
488.432	61288
488.508	91902
488.584	36355
488.660	27299
488.736	26933
488.812	28373
488.888	35317
488.964	48545
489.039	99849
489.115	150045
489.191	83534
489.267	29578
489.343	26210
489.418	23282
489.494	22236
489.570	20584
489.646	23799
489.722	23142
489.797	24151
489.873	33831
489.949	69033
490.024	59295
490.100	22691
490.176	22601
490.251	27824
490.327	36259
490.403	22079
490.478	19952
490.554	18552
490.629	19256
490.705	18380
490.781	20686
490.856	19271
490.932	23923
491.007	23019
491.083	23456
491.158	20474
491.234	26262
491.309	50909
491.385	54914
491.460	21847
491.536	22740
491.611	21235
491.686	22950
491.762	31282
491.837	62958
491.913	101713
491.988	144024
492.063	178414
492.139	46110
492.214	28613
492.289	18189
492.365	16830
492.440	20072
492.515	19751
492.590	19901
492.666	15873
492.741	22131
492.816	31529
492.891	19001
492.967	16297
493.042	15996
493.117	16219
493.192	17587
493.267	27487
493.342	78091
493.418	102150
493.493	22379
493.568	14505
493.643	15052
493.718	18970
493.793	28215
493.868	33091
493.943	21065
494.018	16578
494.093	13855
494.168	14936
494.243	12599
494.318	13043
494.393	13436
494.468	12296
494.543	14238
494.618	16336
494.693	14389
494.768	13830
494.842	14186
494.917	11533
494.992	14028
495.067	12345
495.142	11914
495.217	15176
495.292	15104
495.366	17365
495.441	22924
495.516	28879
495.591	38927
495.665	134189
495.740	316420
495.815	114857
495.890	23589
495.964	16844
496.039	20470
496.114	17155
496.188	20499
496.263	19668
496.338	16897
496.412	18600
496.487	21686
496.561	24316
496.636	25024
496.710	18371
496.785	21297
496.860	23722
496.934	17991
497.009	19023
497.083	18478
497.158	18359
497.232	22626
497.307	27543
497.381	23251
497.455	26572
497.530	33636
497.604	25126
497.679	25301
497.753	41632
497.827	54777
497.902	49442
497.976	53874
498.050	117573
498.125	449858
498.199	453243
498.273	79820
498.348	56135
498.422	44649
498.496	41896
498.570	36614
498.645	27982
498.719	26240
498.793	32214
498.867	48443
498.941	60957
499.016	177430
499.090	486592
499.164	168927
499.238	23165
499.312	20919
499.386	26828
499.460	23675
499.534	22155
499.609	28334
499.683	40226
499.757	38082
499.831	76797
499.905	317387
499.979	296635
500.053	48066
500.127	46720
500.201	36177
500.275	23615
500.349	22182
500.422	25578
500.496	38727
500.570	78073
500.644	181742
500.718	329965
500.792	74976
500.866	22293
500.940	27689
501.013	23609
501.087	23602
501.161	43460
501.235	52560
501.309	100009
501.382	288487
501.456	251341
501.530	57083
501.603	91967
501.677	37041
501.751	17095
501.825	22282
501.898	38433
501.972	113250
502.046	71615
502.119	22088
502.193	51297
502.266	125052
502.340	60388
502.413	53121
502.487	103675
502.561	60666
502.634	20839
502.708	18747
502.781	15303
502.855	13257
502.928	10703
503.002	11667
503.075	11151
503.149	13612
503.222	13712
503.295	15522
503.369	19322
503.442	24489
503.516	80640
503.589	210659
503.662	135323
503.736	43301
503.809	96853
503.882	81451
503.956	117628
504.029	116718
504.102	106253
504.175	141070
504.249	45148
504.322	24140
504.395	19125
504.468	13846
504.542	14492
504.615	11140
504.688	11062
504.761	10211
504.834	14545
504.907	18369
504.980	30584
505.053	15839
505.127	19392
505.200	22521
505.273	19234
505.346	12163
505.419	9858
505.492	10598
505.565	8483
505.638	9035
505.711	8036
505.784	8038
505.857	8640
505.930	11119
506.003	8429
506.076	12474
506.149	13874
506.221	17745
506.294	17172
506.367	43293
506.440	154369
506.513	84119
506.586	19123
506.659	12786
506.731	9875
506.804	13597
506.877	19389
506.950	12671
507.022	10893
507.095	12084
507.168	16534
507.241	12019
507.313	7906
507.386	10177
507.459	16761
507.531	10721
507.604	8401
507.677	9174
507.749	6903
507.822	13720
507.894	26564
507.967	32165
508.040	16394
508.112	15451
508.185	15042
508.257	13755
508.330	22122
508.402	14252
508.475	12311
508.547	14658
508.620	13844
508.692	22549
508.765	14139
508.837	10564
508.909	10584
508.982	11599
509.054	13646
509.127	12109
509.199	10300
509.271	9085
509.344	9132
509.416	10707
509.488	10444
509.560	10468
509.633	11368
509.705	14207
509.777	13919
509.849	19831
509.922	12929
509.994	10432
510.066	11296
510.138	11482
510.210	26110
510.283	22318
510.355	19029
510.427	17220
510.499	15165
510.571	15838
510.643	14512
510.715	26747
510.787	21059
510.859	16009
510.931	18111
511.003	25387
511.076	22133
511.148	13094
511.219	12541
511.291	21397
511.363	25173
511.435	13137
511.507	10424
511.579	12045
511.651	12169
511.723	12257
511.795	11846
511.867	11684
511.939	14497
512.010	28628
512.082	24155
512.154	13157
512.226	14002
512.298	22052
512.369	30245
512.441	24303
512.513	22348
512.585	17212
512.656	18516
512.728	19935
512.800	15506
512.871	15114
512.943	14477
513.015	12318
513.086	14989
513.158	16634
513.230	16568
513.301	24385
513.373	29597
513.444	16807
513.516	13610
513.588	13850
513.659	17539
513.731	21118
513.802	16576
513.874	36875
513.945	63510
514.016	21011
514.088	13426
514.159	14855
514.231	21871
514.302	29607
514.374	19918
514.445	18952
514.516	35846
514.588	26826
514.659	18439
514.730	32477
514.802	27120
514.873	19318
514.944	18657
515.016	17737
515.087	19613
515.158	25037
515.229	32574
515.301	20944
515.372	24372
515.443	15466
515.514	15276
515.585	12511
515.656	13755
515.728	13757
515.799	13108
515.870	15781
515.941	16207
516.012	15241
516.083	21485
516.154	24644
516.225	31921
516.296	30515
516.367	27144
516.438	33485
516.509	40284
516.580	57041
516.651	177975
516.722	637116
516.793	241867
516.864	57873
516.935	54161
517.006	61372
517.077	80644
517.148	179387
517.219	698857
517.289	976317
517.360	241181
517.431	79858
517.502	28158
517.573	26851
517.643	24622
517.714	28593
517.785	30598
517.856	33306
517.926	40268
517.997	47758
518.068	60623
518.138	79637
518.209	112782
518.280	435088
518.350	1548052
518.421	504410
518.492	69131
518.562	40957
518.633	37945
518.703	38190
518.774	64491
518.845	165851
518.915	156178
518.986	50651
519.056	37405
519.127	59084
519.197	83314
519.268	174439
519.338	109461
519.408	30580
519.479	39045
519.549	26196
519.620	19619
519.690	15303
519.760	16126
519.831	15139
519.901	15981
519.971	13524
520.042	14891
520.112	16997
520.182	20303
520.253	23263
520.323	15108
520.393	16352
520.463	21194
520.534	15154
520.604	27846
520.674	19628
520.744	19103
520.814	32464
520.885	32303
520.955	51492
521.025	195758
521.095	76759
521.165	17971
521.235	14926
521.305	13096
521.375	12492
521.445	15312
521.515	19826
521.585	23582
521.655	20780
521.725	19081
521.795	17674
521.865	11615
521.935	20949
522.005	17571
522.075	12366
522.145	14668
522.215	15256
522.285	22345
522.355	28336
522.424	53605
522.494	45249
522.564	24874
522.634	49838
522.704	147831
522.774	51000
522.843	14865
522.913	14805
522.983	18346
523.053	14546
523.122	15372
523.192	22178
523.262	79883
523.331	68830
523.401	15015
523.471	10620
523.540	11969
523.610	9913
523.680	9553
523.749	11115
523.819	13835
523.888	13880
523.958	10245
524.027	11272
524.097	12256
524.166	10897
524.236	12684
524.305	13200
524.375	9727
524.444	9914
524.514	13134
524.583	10243
524.653	13989
524.722	17094
524.791	10377
524.861	11852
524.930	9605
524.999	11981
525.069	16273
525.138	14120
525.207	16167
525.277	12332
525.346	12708
525.415	12021
525.484	13384
525.554	15447
525.623	15348
525.692	15816
525.761	16958
525.830	19996
525.900	24072
525.969	35206
526.038	53524
526.107	108688
526.176	316153
526.245	247362
526.314	82098
526.383	166113
526.452	212357
526.522	368702
526.591	352015
526.660	104125
526.729	56448
526.797	58427
526.867	111892
526.935	465522
527.004	825458
527.073	412167
527.142	44275
527.211	21100
527.280	19273
527.349	20306
527.418	10784
527.487	11728
527.555	9148
527.624	9736
527.693	7815
527.762	11096
527.831	8802
527.899	9646
527.968	9135
528.037	9070
528.106	13184
528.174	24890
528.243	17456
528.312	27446
528.380	35127
528.449	12504
528.518	10455
528.586	6819
528.655	8053
528.723	7928
528.792	7160
528.861	7871
528.929	6984
528.998	9033
529.066	7474
529.135	7936
529.203	6845
529.272	7018
529.340	8378
529.409	9353
529.477	8213
529.545	10312
529.614	12762
529.682	11257
529.751	15150
529.819	15370
529.887	11117
529.956	8542
530.024	9155
530.092	8286
530.161	11087
530.229	18529
530.297	10553
530.365	9152
530.434	7302
530.502	7121
530.570	7837
530.638	6154
530.707	9512
530.775	11272
530.843	7080
530.911	8618
530.979	8073
531.047	7768
531.115	7881
531.183	8402
531.252	8030
531.320	8966
531.388	6006
531.456	8388
531.524	6361
531.592	9263
531.660	10559
531.728	7984
531.796	8377
531.864	8763
531.932	8671
532.000	9282
532.067	9919
532.135	11262
532.203	12539
532.271	13045
532.339	22438
532.407	63800
532.475	34273
532.542	18464
532.610	19533
532.678	25197
532.746	112306
532.814	271043
532.881	61636
532.949	14716
533.017	10819
533.084	9533
533.152	9365
533.220	10001
533.287	10736
533.355	9020
533.423	9303
533.490	8771
533.558	9398
533.625	10753
533.693	10437
533.761	11204
533.828	11330
533.896	9879
533.963	21524
534.031	25290
534.098	38179
534.166	16686
534.233	10930
534.300	11436
534.368	11673
534.435	10978
534.503	11548
534.570	13227
534.637	13275
534.705	16360
534.772	17753
534.840	30687
534.907	142340
534.974	171257
535.041	23958
535.109	15902
535.176	11402
535.243	10338
535.310	10591
535.378	9974
535.445	9878
535.512	9778
535.579	9318
535.646	9332
535.714	9716
535.781	12163
535.848	12933
535.915	13460
535.982	9994
536.049	11236
536.116	12375
536.183	11754
536.250	10382
536.317	11278
536.384	13648
536.451	20142
536.518	20813
536.585	15566
536.652	19027
536.719	28316
536.786	21035
536.853	16886
536.920	24880
536.987	39553
537.053	36046
537.120	142982
537.187	109780
537.254	16817
537.321	12495
537.388	13496
537.454	9885
537.521	10159
537.588	10563
537.654	12740
537.721	13598
537.788	14975
537.855	10620
537.921	13554
537.988	11471
538.055	12330
538.121	11453
538.188	13537
538.254	19233
538.321	39385
538.388	23864
538.454	13482
538.521	12212
538.587	11472
538.654	10719
538.720	10249
538.787	11733
538.853	12688
538.920	14942
538.986	15306
539.053	13029
539.119	13605
539.185	12441
539.252	16496
539.318	23152
539.385	19684
539.451	16490
539.517	17456
539.583	19351
539.650	40948
539.716	103421
539.782	28416
539.849	13701
539.915	13959
539.981	13675
540.047	16774
540.114	14205
540.180	16801
540.246	14025
540.312	20759
540.378	37165
540.444	38671
540.510	42397
540.576	117553
540.643	34697
540.709	12707
540.775	12161
540.841	12771
540.907	16738
540.973	23454
541.039	21757
541.105	24350
541.171	15391
541.237	13481
541.303	13953
541.369	18310
541.435	19637
541.500	34269
541.566	21542
541.632	12850
541.698	10811
541.764	12382
541.830	12158
541.896	11456
541.961	12942
542.027	12036
542.093	14346
542.159	14868
542.224	14838
542.290	20944
542.356	33703
542.421	39245
542.487	18536
542.553	13722
542.618	16375
542.684	14338
542.750	14779
542.815	17927
542.881	28022
542.947	102872
543.012	68750
543.078	14547
543.143	13214
543.209	14746
543.274	14486
543.340	17017
543.405	40586
543.471	59788
543.536	16818
543.602	13418
543.667	12106
543.732	13330
543.798	11901
543.863	12441
543.928	11908
543.994	10889
544.059	12066
544.124	12720
544.190	12649
544.255	13112
544.320	13920
544.386	13745
544.451	20249
544.516	22527
544.581	21526
544.646	66372
544.712	96031
544.777	21863
544.842	17796
544.907	17316
544.972	15249
545.037	16082
545.102	17620
545.168	18158
545.233	17713
545.298	20317
545.363	20716
545.428	23016
545.493	38913
545.558	84114
545.623	34154
545.688	17790
545.753	16880
545.818	17758
545.883	17307
545.947	17771
546.012	19895
546.077	20223
546.142	19808
546.207	18879
546.272	25646
546.337	25375
546.401	21128
546.466	20786
546.531	19012
546.596	22461
546.661	22877
546.725	22827
546.790	21312
546.855	22847
546.919	23138
546.984	26888
547.049	28662
547.113	33283
547.178	31488
547.243	37280
547.307	42479
547.372	47701
547.436	48311
547.501	44918
547.565	48805
547.630	50802
547.695	48187
547.759	50765
547.823	46279
547.888	44208
547.952	43689
548.017	46415
548.081	50565
548.146	55635
548.210	52991
548.274	50984
548.339	49765
548.403	46500
548.468	43171
548.532	43673
548.596	44516
548.660	44568
548.725	48780
548.789	55979
548.853	54275
548.917	49761
548.982	53698
549.046	50955
549.110	38807
549.174	39868
549.238	46407
549.303	48203
549.367	51006
549.431	49316
549.495	45887
549.559	46086
549.623	52088
549.687	62023
549.751	68098
549.815	68237
549.879	68391
549.943	62208
550.007	67178
550.071	67649
550.135	67671
550.199	59637
550.263	56711
550.327	56461
550.391	61931
550.455	61542
550.519	62940
550.582	69162
550.646	83188
550.710	84816
550.774	75774
550.838	76129
550.901	77338
550.965	81886
551.029	83642
551.093	91786
551.156	103952
551.220	138945
551.284	161656
551.347	106786
551.411	120309
551.475	122296
551.538	82159
551.602	74179
551.666	70648
551.729	65352
551.793	64480
551.856	65567
551.920	63195
551.983	61179
552.047	61152
552.110	62062
552.174	61174
552.237	63579
552.301	59526
552.364	56410
552.428	55167
552.491	58492
552.554	59204
552.618	58831
552.681	60684
552.745	61736
552.808	81938
552.871	95848
552.934	70289
552.998	61438
553.061	58476
553.124	57529
553.187	55435
553.251	59147
553.314	59249
553.377	58229
553.440	66577
553.503	95387
553.567	116263
553.630	66241
553.693	59702
553.756	61272
553.819	58094
553.882	54868
553.945	54266
554.008	55096
554.071	55552
554.134	56292
554.197	52663
554.260	52050
554.323	56133
554.386	54578
554.449	54512
554.512	56668
554.575	52027
554.638	54217
554.701	53192
554.764	52092
554.827	50808
554.889	48132
554.952	45444
555.015	45104
555.078	45683
555.141	46561
555.203	44857
555.266	45370
555.329	46188
555.391	43962
555.454	44070
555.517	43546
555.580	41069
555.642	38988
555.705	38701
555.768	38807
555.830	38344
555.893	35645
555.955	36201
556.018	36133
556.080	35406
556.143	36161
556.206	35793
556.268	36376
556.330	36798
556.393	36144
556.455	34081
556.518	40655
556.580	40773
556.643	31771
556.705	30411
556.767	30461
556.830	31864
556.892	34418
556.955	42513
557.017	35138
557.079	29595
557.142	29474
557.204	32026
557.266	50408
557.328	41470
557.391	26197
557.453	25313
557.515	25278
557.577	30356
557.639	30386
557.701	25897
557.764	25827
557.826	28293
557.888	30005
557.950	29869
558.012	32528
558.074	40042
558.136	94308
558.198	220611
558.260	74541
558.322	36308
558.384	37692
558.446	42027
558.508	48911
558.570	58534
558.632	83263
558.694	109670
558.756	128355
558.818	409101
558.880	938266
558.942	270247
559.003	238263
559.065	110241
559.127	51985
559.189	50349
559.251	55626
559.312	75110
559.374	193811
559.436	640169
559.498	276103
559.559	56891
559.621	49659
559.683	54938
559.744	92019
559.806	310818
559.868	427481
559.929	80306
559.991	51222
560.052	78081
560.114	216231
560.176	126876
560.237	126776
560.299	194814
560.360	43386
560.422	22891
560.483	21468
560.545	20058
560.606	19385
560.667	18633
560.729	18068
560.790	17285
560.852	18227
560.913	16650
560.974	16638
561.036	16823
561.097	17684
561.158	17831
561.220	18475
561.281	17889
561.342	18502
561.403	19706
561.465	24929
561.526	55166
561.587	65299
561.648	21515
561.709	17546
561.771	17111
561.832	17192
561.893	15958
561.954	16512
562.015	15249
562.076	15348
562.137	15726
562.198	16242
562.259	15866
562.320	17299
562.381	17882
562.442	25360
562.503	19815
562.564	16822
562.625	15353
562.686	16209
562.747	17695
562.808	15758
562.869	15884
562.930	20041
562.991	18626
563.051	17558
563.112	16064
563.173	15791
563.234	15056
563.294	15105
563.355	14323
563.416	16102
563.477	14778
563.537	16125
563.598	17258
563.659	16403
563.720	15858
563.780	17028
563.841	15910
563.901	16488
563.962	15749
564.023	16088
564.083	15815
564.144	15745
564.204	14487
564.265	15530
564.325	18776
564.386	32052
564.446	28345
564.507	16013
564.567	15160
564.628	14741
564.688	14298
564.749	14566
564.809	16477
564.869	19348
564.930	15204
564.990	15529
565.050	14059
565.111	14322
565.171	14555
565.231	14278
565.292	15111
565.352	13274
565.412	14971
565.472	15958
565.532	16225
565.593	16311
565.653	14495
565.713	15413
565.773	16561
565.833	19123
565.893	23118
565.953	15258
566.013	15095
566.074	15720
566.134	19362
566.194	29450
566.254	30882
566.314	20582
566.374	14579
566.434	15388
566.494	15392
566.554	15809
566.614	14995
566.673	16027
566.733	16883
566.793	18233
566.853	18349
566.913	17134
566.973	17895
567.033	19724
567.092	18446
567.152	19166
567.212	19175
567.272	18897
567.331	19840
567.391	18580
567.451	19922
567.511	26349
567.570	25856
567.630	18820
567.690	17715
567.749	17974
567.809	18928
567.868	21272
567.928	22439
567.988	25347
568.047	26450
568.107	30650
568.166	40778
568.226	65305
568.285	89978
568.345	68127
568.404	51520
568.464	43659
568.523	39663
568.582	41967
568.642	46868
568.701	58965
568.761	90951
568.820	149499
568.879	133070
568.939	89468
568.998	60860
569.057	45198
569.116	35888
569.176	28949
569.235	26009
569.294	22893
569.353	21078
569.413	20305
569.472	19943
569.531	17721
569.590	17610
569.649	17101
569.708	15527
569.767	17471
569.827	20170
569.886	16813
569.945	15305
570.004	15276
570.063	15402
570.122	16487
570.181	16851
570.240	17281
570.299	18391
570.358	18380
570.417	14388
570.475	14261
570.534	14805
570.593	16585
570.652	16149
570.711	16312
570.770	15658
570.829	16277
570.887	15361
570.946	18436
571.005	14706
571.064	13911
571.122	16497
571.181	16776
571.240	14300
571.299	13158
571.357	14297
571.416	15198
571.475	16137
571.533	17913
571.592	14546
571.650	14247
571.709	13535
571.768	14406
571.826	14447
571.885	13787
571.943	12830
572.002	13353
572.060	13255
572.119	11518
572.177	11875
572.236	11448
572.294	11663
572.352	13394
572.411	11257
572.469	12202
572.528	11781
572.586	13049
572.644	13229
572.703	17736
572.761	13741
572.819	12776
572.877	10764
572.936	10958
572.994	10850
573.052	11144
573.110	11896
573.169	11820
573.227	10690
573.285	11948
573.343	11304
573.401	11576
573.459	11588
573.517	12673
573.576	10503
573.634	11819
573.692	11279
573.750	12089
573.808	10677
573.866	12318
573.924	14577
573.982	13877
574.040	11200
574.098	10145
574.155	10488
574.213	11023
574.271	10628
574.329	11126
574.387	10208
574.445	10852
574.503	9918
574.560	9134
574.618	9760
574.676	9312
574.734	10358
574.792	10455
574.849	9593
574.907	9171
574.965	9088
575.022	9242
575.080	8380
575.138	10213
575.195	10458
575.253	10960
575.311	11302
575.368	8928
575.426	8561
575.483	9903
575.541	9447
575.598	9738
575.656	10143
575.713	10818
575.771	8934
575.828	9334
575.886	9556
575.943	10828
576.001	9408
576.058	10577
576.115	11711
576.173	12813
576.230	14613
576.287	16513
576.345	12677
576.402	11251
576.459	10298
576.517	11600
576.574	12379
576.631	11838
576.688	10163
576.746	11007
576.803	10237
576.860	10541
576.917	9952
576.974	10469
577.031	10150
577.089	10505
577.146	9784
577.203	10964
577.260	11172
577.317	11893
577.374	12647
577.431	11405
577.488	10086
577.545	10088
577.602	10988
577.659	9824
577.716	10085
577.773	10267
577.830	8758
577.886	9504
577.943	9577
578.000	10486
578.057	9769
578.114	9950
578.171	9473
578.227	10036
578.284	8753
578.341	10149
578.398	10761
578.454	10320
578.511	12371
578.568	13665
578.625	11777
578.681	9579
578.738	8819
578.794	9635
578.851	9183
578.908	9906
578.964	9773
579.021	10819
579.077	10256
579.134	9793
579.190	9624
579.247	8974
579.303	8617
579.360	9733
579.416	9277
579.473	9765
579.529	8385
579.586	9622
579.642	9433
579.698	9773
579.755	9806
579.811	9626
579.867	9505
579.924	8914
579.980	9260
580.036	10520
580.093	10364
580.149	11045
580.205	10946
580.261	10572
580.317	10934
580.374	11786
580.430	12939
580.486	12282
580.542	11510
580.598	10545
580.619	10565
580.654	10610
580.692	10508
580.710	10473
580.765	9372
580.767	9344
580.823	10560
580.838	11044
580.879	12351
580.911	11414
580.935	10744
580.984	10065
580.991	9985
581.047	10154
581.057	10165
581.103	10251
581.130	10646
581.159	11061
581.203	10850
581.215	10808
581.270	10718
581.276	10675
581.326	10271
581.349	10728
581.382	11490
581.422	11175
581.438	11023
581.494	11116
581.494	11110
581.550	11289
581.567	11219
581.606	11061
581.640	11229
581.661	11333
581.713	11398
581.717	11411
581.773	11406
581.786	11324
581.829	11044
581.859	10914
581.885	10836
581.932	11416
581.940	11530
581.996	10799
582.004	10962
582.052	11807
582.077	11438
582.107	11107
582.150	11146
582.163	11157
582.219	11657
582.223	11618
582.274	11090
582.296	11346
582.330	11711
582.368	11415
582.386	11370
582.441	12129
582.441	12131
582.497	11118
582.514	11270
582.552	11787
582.587	12120
582.608	12223
582.659	11537
582.663	11491
582.719	11836
582.732	11629
582.774	11035
582.805	11337
582.830	11581
582.877	11603
582.885	11620
582.941	12438
582.950	12407
582.996	12025
583.023	12092
583.052	12378
583.095	12317
583.107	12272
583.162	12734
583.168	12777
583.218	13100
583.240	12738
583.273	12045
583.313	11299
583.328	11158
583.384	12205
583.385	12216
583.439	12104
583.458	11835
583.494	11470
583.531	11076
583.549	10901
583.603	11424
583.605	11441
583.660	11859
583.676	11825
583.715	11655
583.748	12388
583.770	12863
583.820	11976
583.825	11904
583.881	12399
583.893	12405
583.936	12184
583.965	12021
583.991	12025
584.038	12052
584.046	12055
584.101	11597
584.110	11763
584.156	12488
584.183	12450
584.211	12330
584.255	12068
584.266	12063
584.321	11800
584.328	11856
584.376	12474
584.400	12796
584.431	13003
584.472	12795
584.486	12686
584.541	12535
584.545	12547
584.596	13266
584.617	13543
584.651	14028
584.689	14142
584.706	14044
584.761	14147
584.762	14150
584.816	14845
584.834	15064
584.871	15574
584.906	15460
584.926	15251
584.978	15088
584.980	15107
585.035	17021
585.051	17325
585.090	18249
585.123	19053
585.145	19416
585.195	20396
585.200	20576
585.254	23323
585.267	24097
585.309	26172
585.340	28248
585.364	29949
585.412	31127
585.419	31322
585.473	34733
585.484	35734
585.528	41936
585.556	49672
585.583	65169
585.628	103342
585.637	116809
585.692	244026
585.700	265201
585.747	339525
585.772	281051
585.801	168706
585.845	60591
585.856	47776
585.910	31514
585.917	29835
585.965	25393
585.989	23927
586.019	23193
586.061	22188
586.074	21968
586.128	22888
586.133	22890
586.183	22916
586.205	22921
586.237	23070
586.277	23369
586.292	23278
586.346	22389
586.349	22365
586.401	22775
586.421	23038
586.455	23780
586.493	25332
586.509	27502
586.564	35749
586.565	36036
586.618	52712
586.637	54472
586.672	44925
586.709	33850
586.727	31237
586.781	28836
586.781	28839
586.835	25895
586.853	25384
586.889	24915
586.925	24499
586.944	24561
586.996	24892
586.998	24916
587.052	26209
587.068	26318
587.106	26635
587.140	26969
587.161	27070
587.212	27957
587.215	28026
587.269	29021
587.284	29150
587.323	29764
587.356	30385
587.377	30639
587.427	31647
587.431	31762
587.485	32859
587.499	33133
587.539	33710
587.571	34408
587.593	35393
587.643	38011
587.648	38233
587.702	39622
587.715	40255
587.755	42965
587.786	44385
587.810	44856
587.858	46354
587.864	46720
587.917	51006
587.930	51869
587.971	56320
588.001	59861
588.025	61733
588.073	65627
588.079	66375
588.133	72729
588.145	74488
588.187	81635
588.217	86710
588.241	91917
588.288	103806
588.295	105631
588.348	122070
588.360	125976
588.402	142338
588.431	153984
588.456	165496
588.503	190995
588.510	195414
588.564	234267
588.575	243349
588.617	287898
588.646	322650
588.671	365889
588.718	459807
588.725	483697
588.778	692471
588.789	742238
588.832	1046378
588.861	1272129
588.886	1443926
588.932	1711266
588.939	1709514
588.993	1548689
589.004	1539003
589.047	1486344
589.075	1356676
589.100	1134899
589.147	734252
589.154	703274
589.207	516932
589.218	484271
589.261	442352
589.290	423946
589.314	439959
589.361	486319
589.368	507273
589.421	705759
589.433	755212
589.475	1071191
589.504	1306179
589.528	1414426
589.576	1517043
589.582	1493762
589.635	1265328
589.647	1194106
589.689	802589
589.718	546218
589.742	445801
589.790	282063
589.795	273588
589.849	208620
589.861	195105
589.902	171087
589.932	153897
589.955	139055
590.004	108969
590.009	107574
590.062	94109
590.075	91039
590.115	83866
590.146	78605
590.168	75728
590.218	69335
590.222	69037
590.275	65203
590.289	64147
590.328	61031
590.360	58586
590.381	57415
590.431	54227
590.435	54061
590.488	51025
590.503	50227
590.541	50193
590.574	49786
590.594	48656
590.645	46091
590.647	46077
590.700	44535
590.716	43990
590.753	42905
590.787	42123
590.806	41638
590.859	39978
590.859	40002
590.912	39568
590.930	39473
590.965	39688
591.001	39665
591.018	39017
591.071	37102
591.072	37049
591.124	37104
591.143	37163
591.177	37322
591.214	37377
591.230	37615
591.283	38222
591.285	38204
591.336	38759
591.356	38962
591.389	38727
591.427	38125
591.442	37556
591.495	35348
591.498	35154
591.547	34063
591.569	33490
591.600	33590
591.640	33634
591.653	33711
591.706	33982
591.711	33974
591.759	36102
591.782	37130
591.811	38051
591.853	39260
591.864	38587
591.917	34719
591.924	34128
591.969	34132
591.995	34142
592.022	34518
592.066	34924
592.075	35621
592.127	39762
592.137	40471
592.180	42734
592.208	44047
592.233	40854
592.279	34480
592.285	34468
592.338	34222
592.350	34113
592.390	33576
592.421	33116
592.443	33174
592.491	33208
592.495	33257
592.548	33440
592.562	33456
592.600	33352
592.633	33203
592.653	32871
592.704	31739
592.705	31939
592.775	32944
592.846	32584
592.916	34597
592.987	36737
593.058	35193
593.128	32357
593.199	33192
593.270	32362
593.341	31718
593.411	33929
593.482	34108
593.553	33570
593.623	31293
593.694	33930
593.764	36320
593.835	32607
593.906	33095
593.976	32590
594.047	34708
594.117	40207
594.188	40670
594.258	33853
594.329	33977
594.399	34086
594.470	34496
594.540	34924
594.611	34680
594.681	34283
594.751	35844
594.822	37352
594.892	38676
594.963	38742
595.033	39321
595.103	39425
595.174	42679
595.244	58047
595.314	66135
595.384	42581
595.455	42564
595.525	42571
595.595	42264
595.665	43293
595.736	41693
595.806	41782
595.876	41517
595.946	41973
596.016	43032
596.087	44768
596.157	44673
596.227	45064
596.297	46785
596.367	49959
596.437	54860
596.507	64589
596.577	72378
596.647	54124
596.717	52034
596.787	53847
596.857	52925
596.927	53475
596.997	53020
597.067	53377
597.137	56588
597.207	54664
597.277	54817
597.347	53815
597.417	52761
597.487	53145
597.557	54327
597.626	56132
597.696	58359
597.766	64215
597.836	71864
597.906	53917
597.975	48489
598.045	49821
598.115	51470
598.185	53543
598.254	59578
598.324	64364
598.394	65942
598.464	63204
598.533	61148
598.603	57549
598.672	56488
598.742	58019
598.812	58505
598.881	59390
598.951	56438
599.020	57683
599.090	59565
599.159	60884
599.229	57685
599.299	56309
599.368	58123
599.437	57673
599.507	54363
599.576	54458
599.646	52720
599.715	52183
599.785	53058
599.854	53365
599.924	55534
599.993	52743
600.062	51211
600.132	52376
600.201	54551
600.270	64756
600.340	64025
600.409	62455
600.478	61518
600.547	62231
600.617	58148
600.686	48681
600.755	46223
600.824	46611
600.894	44306
600.963	43209
601.032	41875
601.101	41132
601.170	39712
601.239	38999
601.308	41915
601.378	40146
601.447	38860
601.516	40062
601.585	40921
601.654	44103
601.723	41467
601.792	41804
601.861	44390
601.930	47775
601.999	49129
602.068	45367
602.137	47052
602.206	46900
602.275	46779
602.343	52252
602.412	51656
602.481	45485
602.550	45295
602.619	46427
602.688	47340
602.756	47643
602.825	46726
602.894	47091
602.963	48214
603.032	49044
603.100	48696
603.169	49474
603.238	49518
603.307	48684
603.375	49588
603.444	51639
603.513	51164
603.581	50892
603.650	51666
603.719	50748
603.787	52079
603.856	53115
603.924	55679
603.993	57283
604.061	58456
604.130	61226
604.198	61140
604.267	60797
604.335	61488
604.404	63488
604.472	63778
604.541	63455
604.609	64054
604.678	64371
604.746	65179
604.815	67115
604.883	67731
604.951	69270
605.020	69159
605.088	70169
605.156	71904
605.225	72573
605.293	70574
605.361	72868
605.429	72728
605.498	75705
605.566	78074
605.634	80798
605.702	83658
605.771	84114
605.839	84001
605.907	81359
605.975	79988
606.043	78150
606.111	78675
606.180	78578
606.248	78403
606.316	78662
606.384	80599
606.452	85094
606.520	90015
606.588	82847
606.656	80463
606.724	79249
606.792	74842
606.860	67553
606.928	61148
606.996	60046
607.064	58373
607.132	59799
607.200	64096
607.267	66787
607.335	65402
607.403	68550
607.471	66323
607.539	64782
607.607	64603
607.674	58147
607.742	60162
607.810	59374
607.878	59174
607.946	59232
608.013	62926
608.081	62521
608.149	63930
608.216	64651
608.284	67480
608.352	66901
608.419	67570
608.487	76125
608.555	66111
608.622	65210
608.690	69585
608.757	76645
608.825	76832
608.893	76393
608.960	76071
609.028	78549
609.095	82452
609.163	70353
609.230	63763
609.298	58366
609.365	58874
609.432	64225
609.500	70229
609.567	79648
609.635	90181
609.702	94610
609.769	91664
609.837	74986
609.904	64774
609.971	65316
610.039	79463
610.106	111265
610.173	230677
610.241	539489
610.308	304023
610.375	119213
610.442	74527
610.509	66342
610.577	65476
610.644	65957
610.711	67105
610.778	68273
610.845	70820
610.912	74345
610.980	78070
611.047	80729
611.114	79199
611.181	73956
611.248	72131
611.315	78092
611.382	77285
611.449	81111
611.516	84096
611.583	82898
611.650	83454
611.717	83437
611.784	86295
611.851	92789
611.918	102719
611.984	124748
612.051	197262
612.118	441335
612.185	1101600
612.252	601734
612.319	143974
612.386	112983
612.452	100976
612.519	99396
612.586	106029
612.653	98753
612.719	98043
612.786	93184
612.853	84798
612.919	82347
612.986	84937
613.053	79594
613.120	74040
613.186	73304
613.253	74786
613.319	73680
613.386	73927
613.453	76050
613.519	79428
613.586	84343
613.652	97637
613.719	88337
613.785	85246
613.852	76582
613.918	75507
613.985	78181
614.051	87269
614.118	104818
614.184	97686
614.250	76974
614.317	77144
614.383	74241
614.449	76162
614.516	77057
614.582	78988
614.648	75938
614.715	74845
614.781	73987
614.847	74264
614.914	74313
614.980	71663
615.046	71937
615.112	73308
615.179	74954
615.245	77292
615.311	79446
615.377	92669
615.443	93158
615.509	82208
615.575	82806
615.642	80278
615.708	85620
615.774	88747
615.840	97092
615.906	113379
615.972	155648
616.038	267518
616.104	568315
616.170	1339467
616.236	1007356
616.302	222853
616.368	157805
616.434	111613
616.500	103318
616.565	117616
616.631	146246
616.697	115340
616.763	121357
616.829	196578
616.895	358607
616.961	318747
617.026	127206
617.092	85611
617.158	81259
617.224	77622
617.289	73373
617.355	70122
617.421	68198
617.487	70907
617.552	65589
617.618	63384
617.684	63145
617.749	66169
617.815	62245
617.880	60302
617.946	59636
618.012	62832
618.077	62322
618.143	60251
618.208	61016
618.274	65271
618.339	66402
618.405	55315
618.470	56621
618.536	56323
618.601	58039
618.667	52851
618.732	50197
618.798	49108
618.863	47877
618.928	48131
618.994	51436
619.059	56715
619.124	65339
619.190	54667
619.255	48948
619.320	50388
619.386	49026
619.451	47594
619.516	46477
619.581	47292
619.647	48085
619.712	47372
619.777	46442
619.842	47322
619.907	48225
619.972	48812
620.038	48651
620.103	45989
620.168	46083
620.233	47026
620.298	46833
620.363	47219
620.428	49265
620.493	49331
620.558	49551
620.623	49910
620.688	50466
620.753	48940
620.818	50314
620.883	50645
620.948	50188
621.013	49251
621.078	50260
621.143	49734
621.207	53973
621.272	51944
621.337	51586
621.402	53483
621.467	61342
621.532	61535
621.596	56390
621.661	51338
621.726	49321
621.791	49279
621.855	52112
621.920	53109
621.985	55325
622.049	59322
622.114	58044
622.179	53366
622.243	55339
622.308	54530
622.373	58187
622.437	56948
622.502	53932
622.566	51045
622.631	52283
622.695	54755
622.760	52801
622.824	52899
622.889	54297
622.953	57562
623.018	74812
623.082	70877
623.147	57381
623.211	53690
623.276	56019
623.340	51721
623.404	50273
623.469	51025
623.533	49958
623.597	49792
623.662	49710
623.726	45207
623.790	42814
623.854	42820
623.919	44707
623.983	44413
624.047	45168
624.111	45018
624.176	47375
624.240	48323
624.304	51431
624.368	45204
624.432	46112
624.496	47971
624.560	52600
624.625	54707
624.689	50457
624.753	51059
624.817	48134
624.881	47273
624.945	44432
625.009	43960
625.073	43826
625.137	48334
625.201	56653
625.265	54195
625.329	46543
625.393	48196
625.456	46831
625.520	49830
625.584	52223
625.648	60618
625.712	81796
625.776	152072
625.839	160660
625.903	68803
625.967	48523
626.031	71442
626.095	100411
626.158	51392
626.222	36096
626.286	35141
626.349	33392
626.413	31557
626.477	35754
626.540	32903
626.604	31452
626.668	32972
626.731	30940
626.795	33176
626.858	32029
626.922	30474
626.986	30666
627.049	29118
627.113	31525
627.176	30518
627.240	30693
627.303	29672
627.366	30946
627.430	30767
627.493	31261
627.557	29824
627.620	32215
627.684	31847
627.747	32629
627.810	28884
627.874	27934
627.937	25458
628.000	29954
628.064	27517
628.127	23604
628.190	25435
628.253	24860
628.317	23565
628.380	23723
628.443	23430
628.506	23328
628.569	22551
628.632	21042
628.696	21422
628.759	21023
628.822	20461
628.885	19912
628.948	21405
629.011	21631
629.074	21211
629.137	19242
629.200	19904
629.263	21740
629.326	18550
629.389	19039
629.452	20610
629.515	19835
629.578	19416
629.641	21350
629.704	20098
629.767	20327
629.830	18995
629.892	18168
629.955	18489
630.018	20699
630.081	21795
630.144	27145
630.207	19722
630.269	21741
630.332	21939
630.395	20315
630.458	17608
630.520	16022
630.583	18240
630.646	17940
630.708	17177
630.771	17524
630.834	18759
630.896	17374
630.959	17640
631.021	17073
631.084	18468
631.146	19814
631.209	21898
631.272	17541
631.334	18433
631.397	17699
631.459	17996
631.522	19877
631.584	19758
631.646	21441
631.709	22085
631.771	27804
631.834	22026
631.896	19254
631.958	17282
632.021	18007
632.083	16904
632.145	17739
632.208	18598
632.270	18078
632.332	15577
632.395	16197
632.457	17443
632.519	16719
632.581	17866
632.643	15544
632.706	16738
632.768	14432
632.830	16776
632.892	15951
632.954	16060
633.016	16312
633.078	15903
633.141	15939
633.203	16250
633.265	16218
633.327	15745
633.389	15476
633.451	18873
633.513	20658
633.575	21710
633.637	21349
633.698	19083
633.760	17448
633.822	17830
633.884	17291
633.946	18228
634.008	18422
634.070	18830
634.132	20523
634.193	22061
634.255	23860
634.317	22781
634.379	24015
634.441	21059
634.502	17876
634.564	17669
634.626	16300
634.687	16971
634.749	15471
634.811	16038
634.873	14330
634.934	14559
634.996	16377
635.057	14708
635.119	13789
635.181	15078
635.242	16669
635.304	13889
635.365	18165
635.427	15738
635.488	15256
635.550	14866
635.611	15569
635.673	14387
635.734	18693
635.796	17796
635.857	19800
635.918	19109
635.980	23636
636.041	22924
636.102	24765
636.164	24531
636.225	23508
636.286	19207
636.348	18912
636.409	16959
636.470	14911
636.531	16294
636.593	17440
636.654	16717
636.715	13708
636.776	13138
636.838	12618
636.899	14476
636.960	14196
637.021	13290
637.082	12866
637.143	12680
637.204	11880
637.265	12187
637.326	12955
637.387	12567
637.448	10447
637.509	13560
637.570	12369
637.631	13163
637.692	11132
637.753	11042
637.814	11939
637.875	11603
637.936	12764
637.997	10955
638.058	12617
638.119	13033
638.179	11684
638.240	11201
638.301	11639
638.362	10795
638.423	11805
638.483	12401
638.544	9639
638.605	10826
638.666	10028
638.726	11560
638.787	11599
638.848	10236
638.908	10563
638.969	10509
639.030	10739
639.090	8616
639.151	10357
639.211	12454
639.272	16257
639.332	23785
639.393	14163
639.453	11540
639.514	11724
639.574	11023
639.635	9599
639.695	11078
639.756	9963
639.816	11399
639.877	13939
639.937	23438
639.997	26656
640.058	11520
640.118	9202
640.178	10841
640.239	9862
640.299	9203
640.359	9918
640.420	9420
640.480	12143
640.540	12558
640.600	12334
640.661	12769
640.721	11458
640.781	16434
640.841	11298
640.901	11439
640.961	10870
641.021	11651
641.082	13411
641.142	17119
641.202	13030
641.262	7042
641.322	9878
641.382	8102
641.442	11045
641.502	9186
641.562	10163
641.622	9676
641.682	10564
641.742	11459
641.802	10491
641.861	10485
641.921	11209
641.981	12629
642.041	11551
642.101	14181
642.161	9256
642.221	8888
642.280	8213
642.340	8380
642.400	8179
642.460	9658
642.519	9146
642.579	8674
642.639	9732
642.698	7607
642.758	10746
642.818	9329
642.877	9196
642.937	10234
642.997	11619
643.056	15415
643.116	10768
643.175	11358
643.235	8787
643.294	9905
643.354	10583
643.414	12037
643.473	14760
643.532	17246
643.592	24991
643.651	41853
643.711	77224
643.770	161188
643.830	408927
643.889	796336
643.948	156809
644.008	29666
644.067	18337
644.126	14106
644.186	12336
644.245	11475
644.304	8981
644.363	11652
644.423	8213
644.482	9836
644.541	10177
644.600	8814
644.659	14020
644.719	16311
644.778	25120
644.837	43006
644.896	96115
644.955	208530
645.014	58163
645.073	16022
645.132	10437
645.191	10767
645.250	9764
645.309	12268
645.368	10580
645.427	15026
645.486	23191
645.545	39059
645.604	13216
645.663	11025
645.722	10235
645.781	11124
645.840	12188
645.898	16132
645.957	24913
646.016	37887
646.075	73699
646.134	150263
646.192	425731
646.251	550769
646.310	70010
646.369	22224
646.427	17314
646.486	12957
646.545	11255
646.603	10238
646.662	9898
646.721	8773
646.779	7916
646.838	8670
646.896	12681
646.955	15215
647.014	26261
647.072	50509
647.131	135980
647.189	53822
647.248	10196
647.306	8828
647.365	8350
647.423	6195
647.481	8935
647.540	6123
647.598	6728
647.657	6100
647.715	7418
647.773	6416
647.832	7594
647.890	4431
647.948	6292
648.007	7075
648.065	5177
648.123	6025
648.181	6877
648.240	7648
648.298	5850
648.356	6437
648.414	5980
648.472	6664
648.531	6548
648.589	5869
648.647	5681
648.705	5920
648.763	6810
648.821	6168
648.879	6536
648.937	8600
648.995	9508
649.053	12785
649.111	19183
649.169	32414
649.227	61325
649.285	131266
649.343	369099
649.401	148370
649.459	39657
649.516	23086
649.574	13424
649.632	22457
649.690	23831
649.748	15929
649.806	21090
649.863	37852
649.921	95228
649.979	53653
650.037	10272
650.094	5554
650.152	6861
650.210	5551
650.268	6229
650.325	6120
650.383	6582
650.440	4407
650.498	5483
650.556	6138
650.613	4796
650.671	5496
650.728	6106
650.786	5900
650.843	7407
650.901	4713
650.958	5464
651.016	4518
651.073	5012
651.131	4366
651.188	4052
651.246	5000
651.303	4209
651.360	5345
651.418	5193
651.475	5076
651.532	3260
651.590	4348
651.647	4282
651.704	5563
651.762	4446
651.819	4769
651.876	4382
651.933	4146
651.990	5271
652.048	3793
652.105	4668
652.162	4630
652.219	3827
652.276	4192
652.333	4088
652.390	2579
652.448	3819
652.505	4731
652.562	4726
652.619	4050
652.676	5794
652.733	6600
652.790	4156
652.847	2392
652.904	4759
652.961	2388
653.017	3095
653.074	4226
653.131	4478
653.188	3197
653.245	3765
653.302	3812
653.359	3379
653.415	3792
653.472	3895
653.529	4971
653.586	3533
653.642	3445
653.699	3766
653.756	2888
653.813	3802
653.869	3926
653.926	2904
653.983	2719
654.039	3291
654.096	3677
654.152	5046
654.209	3025
654.266	4284
654.322	3548
654.379	4707
654.435	5137
654.492	5444
654.548	7697
654.605	13305
654.661	6096
654.717	4126
654.774	4701
654.830	4410
654.887	4151
654.943	4502
655.000	4746
655.056	4498
655.112	4195
655.168	3711
655.225	3962
655.281	4594
655.337	6810
655.394	11632
655.450	7729
655.506	7010
655.562	12803
655.618	8863
655.675	3082
655.731	4457
655.787	3163
655.843	4367
655.899	3413
655.955	3974
656.011	4045
656.067	2815
656.123	4434
656.179	4122
656.235	5971
656.291	3308
656.347	5164
656.403	4150
656.459	3973
656.515	5314
656.571	5202
656.627	4849
656.683	3640
656.739	3913
656.795	3816
656.850	4011
656.906	5603
656.962	4713
657.018	3237
657.074	4324
657.129	4769
657.185	6308
657.241	12341
657.297	6727
657.352	4473
657.408	2904
657.464	4713
657.519	2979
657.575	2397
657.630	2494
657.686	3276
657.742	2905
657.797	2805
657.853	2899
657.908	3889
657.964	2512
658.019	3380
658.075	3328
658.130	3193
658.186	2450
658.241	4273
658.297	2458
658.352	2951
658.407	2942
658.463	2730
658.518	2585
658.573	3696
658.629	2568
658.684	3189
658.739	3313
658.795	2428
658.850	3820
658.905	2846
658.960	2661
659.016	2370
659.071	3918
659.126	3997
659.181	3960
659.236	8376
659.291	8370
659.346	4294
659.401	4081
659.457	4694
659.512	4500
659.567	3766
659.622	3740
659.677	3485
659.732	2101
659.787	3483
659.842	3473
659.897	5265
659.952	3960
660.007	3005
660.061	3654
660.116	2856
660.171	2566
660.226	3179
660.281	4013
660.336	2361
660.391	3191
660.445	2197
660.500	2452
660.555	3727
660.610	2360
660.664	3683
660.719	2683
660.774	2718
660.828	3413
660.883	4168
660.938	3716
660.992	1852
661.047	3869
661.101	2115
661.156	2690
661.211	2165
661.265	2466
661.320	2557
661.374	3124
661.429	2704
661.483	3576
661.538	1482
661.592	2613
661.647	2333
661.701	4958
661.755	3101
661.810	3746
661.864	2706
661.919	2277
661.973	3565
662.027	2515
662.081	2538
662.136	2385
662.190	3530
662.244	4016
662.299	2620
662.353	3607
662.407	2275
662.461	2370
662.515	3456
662.569	3580
662.624	4509
662.678	3286
662.732	2585
662.786	2970
662.840	2914
662.894	3801
662.948	2201
663.002	2466
663.056	2605
663.110	2735
663.164	2988
663.218	3446
663.272	3992
663.326	3705
663.380	4000
663.434	3497
663.488	3268
663.542	3830
663.595	3066
663.649	2965
663.703	3160
663.757	3484
663.811	3432
663.864	2841
663.918	3712
663.972	2670
664.026	2477
664.079	2425
664.133	3888
664.187	3375
664.240	2123
664.294	2773
664.348	2815
664.401	2594
664.455	2910
664.508	2760
664.562	2405
664.615	2950
664.669	2728
664.722	3877
664.776	2540
664.829	3430
664.883	3047
664.936	3059
664.990	3440
665.043	3000
665.097	3015
665.150	4505
665.203	3247
665.257	3556
665.310	3283
665.363	3727
665.417	3329
665.470	3690
665.523	4081
665.576	3738
665.630	3698
665.683	3314
665.736	4020
665.789	4211
665.842	2571
665.895	3287
665.949	3625
666.002	3843
666.055	3255
666.108	4558
666.161	4033
666.214	3790
666.267	4063
666.320	4628
666.373	3994
666.426	4202
666.479	3689
666.532	4357
666.585	4414
666.638	6012
666.691	4251
666.744	5564
666.796	4761
666.849	4184
666.902	4411
666.955	2602
667.008	3320
667.060	3012
667.113	1939
667.166	2699
667.219	3543
667.271	3434
667.324	2609
667.377	3896
667.430	3878
667.482	4152
667.535	3579
667.587	4146
667.640	4140
667.693	5480
667.745	8981
667.798	8298
667.850	3421
667.903	3809
667.955	3398
668.008	3352
668.060	4254
668.113	4728
668.165	4373
668.218	3436
668.270	3306
668.322	3550
668.375	4612
668.427	4300
668.479	3173
668.532	3222
668.584	3991
668.636	2940
668.689	4042
668.741	3725
668.793	4041
668.845	3982
668.898	3524
668.950	4217
669.002	3492
669.054	3411
669.106	3365
669.158	3508
669.211	3318
669.263	3829
669.315	4492
669.367	4089
669.419	3807
669.471	5476
669.523	5937
669.575	6811
669.627	5800
669.679	4201
669.731	5034
669.783	4788
669.835	4941
669.886	4543
669.938	3786
669.990	3679
670.042	3928
670.094	3735
670.146	4881
670.197	5018
670.249	6423
670.301	6911
670.353	8904
670.404	13113
670.456	17243
670.508	27990
670.560	48529
670.611	84683
670.663	151281
670.715	379885
670.766	541911
670.818	139453
670.869	25840
670.921	15381
670.972	10167
671.024	8108
671.075	7183
671.127	6355
671.178	5184
671.230	6224
671.281	5971
671.333	4657
671.384	5401
671.436	6787
671.487	7725
671.538	8483
671.590	13023
671.641	20465
671.692	34937
671.744	63105
671.795	35744
671.846	12431
671.897	8957
671.949	5531
672.000	4736
672.051	4597
672.102	4891
672.153	4115
672.204	4591
672.256	4897
672.307	4219
672.358	4272
672.409	3875
672.460	3622
672.511	3190
672.562	4059
672.613	3299
672.664	3353
672.715	3611
672.766	3087
672.817	3209
672.868	3345
672.919	3448
672.970	2643
673.021	3865
673.071	2220
673.122	3630
673.173	3075
673.224	2533
673.275	3216
673.326	3411
673.376	2993
673.427	2621
673.478	3182
673.528	3773
673.579	2870
673.630	2667
673.680	4029
673.731	2020
673.782	2556
673.832	3451
673.883	2981
673.934	3269
673.984	3105
674.035	3146
674.085	2225
674.136	4161
674.186	3665
674.237	5140
674.287	7577
674.338	3984
674.388	3871
674.438	2795
674.489	3023
674.539	3660
674.589	3534
674.640	2899
674.690	3414
674.740	4142
674.791	4063
674.841	2591
674.891	3970
674.942	3291
674.992	2718
675.042	2382
675.092	2935
675.142	2038
675.193	2279
675.243	2491
675.293	2516
675.343	3110
675.393	2497
675.443	2370
675.493	2408
675.543	2805
675.593	3072
675.643	2690
675.693	3060
675.743	3267
675.793	2375
675.843	2351
675.893	3411
675.943	2556
675.993	2737
676.043	2061
676.093	3026
676.142	3057
676.192	2825
676.242	2045
676.292	2600
676.341	2799
676.391	2577
676.441	1952
676.491	2069
676.540	2291
676.590	2493
676.640	2757
676.689	2305
676.739	1467
676.789	2052
676.838	2116
676.888	2434
676.937	2624
676.987	1749
677.037	2480
677.086	2113
677.136	2483
677.185	2299
677.235	1699
677.284	2517
677.333	1274
677.383	1880
677.432	1085
677.482	2675
677.531	1737
677.580	2895
677.630	1477
677.679	1640
677.728	2341
677.778	2067
677.827	2565
677.876	2848
677.925	1520
677.975	1950
678.024	1843
678.073	2446
678.122	2467
678.171	2174
678.220	2517
678.269	3580
678.319	3033
678.368	2633
678.417	2656
678.466	2322
678.515	2845
678.564	1980
678.613	2442
678.662	1625
678.711	2085
678.760	2508
678.809	2667
678.857	1887
678.906	2560
678.955	2314
679.004	2220
679.053	2462
679.102	2144
679.151	2717
679.199	2356
679.248	2350
679.297	2024
679.346	2340
679.394	1466
679.443	2303
679.492	1749
679.540	2664
679.589	2415
679.638	1737
679.686	2033
679.735	2203
679.784	1880
679.832	2987
679.881	2529
679.929	2177
679.978	1149
680.026	2086
680.075	1668
680.123	2095
680.172	1973
680.220	1570
680.268	1371
680.317	1699
680.365	2018
680.414	1321
680.462	1505
680.510	1962
680.559	1554
680.607	1377
680.655	1413
680.703	2651
680.752	1344
680.800	2133
680.848	1428
680.896	2249
680.945	1411
680.993	1250
681.041	2407
681.089	1964
681.137	1462
681.185	1267
681.233	1358
681.258	1354
681.281	1321
681.329	2050
681.377	1657
681.380	1689
681.425	1702
681.473	2333
681.502	1992
681.521	1699
681.569	2354
681.617	1453
681.624	1578
681.665	2153
681.713	3264
681.745	2649
681.761	2319
681.809	2200
681.857	3124
681.867	2949
681.904	2229
681.952	2718
681.989	3162
682.000	3252
682.048	3218
682.096	2299
682.111	2642
682.143	3284
682.191	2569
682.233	2963
682.239	2996
682.286	3313
682.334	3312
682.354	2976
682.382	2447
682.430	3385
682.476	2582
682.477	2538
682.525	2879
682.572	2677
682.598	3036
682.620	3311
682.667	3336
682.715	3857
682.720	3861
682.763	3671
682.810	3497
682.841	3332
682.857	3165
682.905	3119
682.952	4189
682.963	4154
683.000	4021
683.047	3691
683.085	3957
683.095	3975
683.142	3542
683.190	4563
683.206	4230
683.237	3636
683.284	4853
683.328	3983
683.332	3880
683.379	3846
683.426	3590
683.449	3651
683.473	3695
683.521	4045
683.568	4266
683.571	4280
683.615	4164
683.662	4365
683.693	3948
683.709	3713
683.757	3954
683.804	4988
683.814	4811
683.851	4054
683.898	4750
683.936	4592
683.945	4562
683.992	5040
684.039	5039
684.057	5135
684.086	5202
684.133	4913
684.179	5249
684.180	5234
684.227	5784
684.274	5519
684.300	5842
684.321	6055
684.368	5113
684.415	5129
684.422	5170
684.462	5257
684.509	4739
684.543	4583
684.556	4528
684.603	5064
684.649	4747
684.665	4927
684.696	5452
684.743	5379
684.786	5408
684.790	5393
684.837	6064
684.883	6833
684.908	7004
684.930	6981
684.977	6435
685.023	6358
685.029	6382
685.070	6380
685.117	6359
685.150	6300
685.164	6395
685.210	6612
685.257	7484
685.272	7617
685.303	7594
685.350	7619
685.393	7147
685.396	7132
685.443	7551
685.490	8477
685.514	8771
685.536	8692
685.583	7909
685.629	7194
685.636	7180
685.675	7187
685.722	7763
685.757	7520
685.768	7443
685.815	7695
685.861	7810
685.878	7685
685.908	7566
685.954	7714
686.000	8561
686.000	8574
686.047	9033
686.093	10361
686.121	10434
686.139	9985
686.185	9251
686.232	9006
686.242	8710
686.278	7857
686.324	7517
686.363	7176
686.370	7171
686.416	7254
686.463	7692
686.484	7689
686.509	7585
686.555	7325
686.601	6837
686.606	6894
686.647	7528
686.693	7970
686.727	7422
686.739	7224
686.785	7818
686.831	7659
686.848	7691
686.877	7612
686.923	7623
686.969	7275
686.969	7273
687.015	7894
687.061	8068
687.090	8436
687.107	8639
687.153	8292
687.199	8147
687.211	8129
687.245	8090
687.291	8223
687.332	8824
687.336	8880
687.382	9054
687.428	8909
687.453	9029
687.474	9003
687.520	8687
687.565	8250
687.574	8194
687.611	8204
687.657	8120
687.695	8641
687.702	8784
687.748	9385
687.794	9588
687.816	9699
687.839	9444
687.885	8933
687.931	8036
687.937	8060
687.976	8598
688.022	8626
688.058	8644
688.067	8657
688.113	8535
688.158	8793
688.179	8957
688.204	9115
688.249	9041
688.295	9166
688.300	9166
688.340	9349
688.386	10037
688.421	9830
688.431	9746
688.477	9684
688.522	9873
688.542	9798
688.567	9727
688.613	9794
688.658	9451
688.663	9461
688.703	9461
688.749	9795
688.784	9590
688.794	9609
688.839	9721
688.884	9831
688.905	9834
688.930	9657
688.975	9696
689.020	9289
689.026	9216
689.065	8979
689.110	9497
689.146	9656
689.155	9698
689.201	9486
689.246	9391
689.267	9517
689.291	9790
689.336	9915
689.381	9760
689.388	9795
689.426	9713
689.471	9366
689.509	9417
689.516	9503
689.561	9522
689.606	9853
689.630	9849
689.651	9781
689.696	9980
689.741	9798
689.750	9939
689.785	10499
689.830	10449
689.871	10166
689.875	10126
689.920	9601
689.965	9662
689.992	9432
690.010	9516
690.054	9762
690.099	10380
690.112	10389
690.144	10044
690.189	9938
690.233	9674
690.233	9688
690.278	9915
690.323	9813
690.354	10213
690.367	10320
690.412	9971
690.457	9939
690.474	9984
690.501	10154
690.546	10092
690.590	10091
690.595	10095
690.635	10097
690.680	9771
690.716	9739
690.724	9846
690.769	9954
690.813	10638
690.836	10769
690.857	10918
690.902	11339
690.946	11287
690.957	11415
690.991	12603
691.035	13943
691.077	15223
691.080	15237
691.124	14599
691.168	14542
691.198	14095
691.213	13849
691.257	13771
691.301	13388
691.318	13080
691.346	12564
691.390	11425
691.434	11100
691.439	10997
691.478	11087
691.522	11665
691.559	11955
691.567	12035
691.611	11839
691.655	11875
691.680	12033
691.699	12048
691.743	11794
691.787	11938
691.800	11798
691.831	11610
691.875	11941
691.919	11562
691.921	11538
691.964	11772
692.008	12253
692.041	12171
692.052	12103
692.096	12171
692.139	12388
692.162	12156
692.183	12039
692.227	12249
692.271	11917
692.282	12026
692.315	12326
692.359	11990
692.402	12091
692.403	12118
692.447	12286
692.490	12433
692.523	12586
692.534	12656
692.578	12843
692.622	13020
692.643	13101
692.666	12924
692.709	12384
692.753	12050
692.763	11944
692.797	11931
692.840	11779
692.884	11814
692.884	11841
692.928	11900
692.971	12261
693.004	12407
693.015	12424
693.059	12492
693.102	12577
693.124	12702
693.146	12890
693.189	12857
693.233	12897
693.245	12879
693.276	12904
693.320	13225
693.363	13093
693.365	13062
693.407	13191
693.450	13639
693.485	13768
693.493	13828
693.537	14020
693.580	13853
693.605	14075
693.624	14572
693.667	15540
693.710	16420
693.725	16709
693.753	18321
693.797	20800
693.840	23176
693.845	23414
693.883	22310
693.926	20751
693.966	19647
693.970	19491
694.013	17427
694.056	15224
694.086	13640
694.099	13746
694.142	13955
694.185	14389
694.206	14424
694.229	14316
694.272	14473
694.315	14474
694.326	14343
694.358	14650
694.401	15530
694.444	16160
694.446	16149
694.487	15632
694.530	15231
694.566	14878
694.573	14778
694.616	13518
694.659	12904
694.686	12188
694.702	12097
694.745	12020
694.787	11630
694.806	11624
694.830	11991
694.873	12270
694.916	12551
694.926	12597
694.959	12732
695.002	13038
695.044	13031
695.046	13006
695.087	13332
695.130	13586
695.166	13852
695.172	13880
695.215	13797
695.258	13807
695.286	13604
695.301	13548
695.343	13601
695.386	13571
695.406	13452
695.428	13372
695.471	13173
695.514	13128
695.526	13042
695.556	13309
695.599	13927
695.641	13988
695.646	13997
695.684	13807
695.726	13454
695.766	13260
695.769	13311
695.811	13428
695.854	13545
695.886	13594
695.896	13575
695.938	13331
695.981	13091
696.005	12999
696.023	13312
696.065	13857
696.108	14492
696.125	14627
696.150	14286
696.192	13931
696.235	13366
696.245	13238
696.277	13378
696.319	13214
696.361	13276
696.365	13246
696.404	13446
696.446	13570
696.485	13641
696.488	13701
696.530	14067
696.572	14278
696.604	14599
696.614	14589
696.656	14100
696.698	13778
696.724	13534
696.740	13532
696.783	13425
696.825	13474
696.844	13372
696.867	13356
696.909	13242
696.951	13204
696.964	13139
696.992	13259
697.034	13335
697.076	13541
697.083	13526
697.118	13973
697.160	14561
697.202	14963
697.203	14935
697.244	14465
697.286	14143
697.323	13529
697.327	13575
697.369	13807
697.411	13990
697.442	14148
697.453	14365
697.494	14993
697.536	15693
697.562	16088
697.578	16048
697.620	15805
697.661	15506
697.682	15358
697.703	15670
697.744	16186
697.786	16756
697.801	16871
697.828	16838
697.869	16740
697.911	16688
697.921	16632
697.952	16211
697.994	15617
698.035	14944
698.040	14823
698.077	14439
698.118	13987
698.160	13499
698.160	13458
698.201	13732
698.243	14007
698.279	14209
698.284	14273
698.325	14487
698.367	14684
698.399	14792
698.408	14798
698.449	14684
698.491	14541
698.518	14407
698.532	14475
698.573	14547
698.614	14629
698.638	14627
698.656	14782
698.697	15059
698.738	15351
698.757	15442
698.779	15400
698.820	15224
698.862	15067
698.877	14964
698.903	15581
698.944	16506
698.985	17427
698.996	17637
699.026	17319
699.067	16814
699.116	16167
699.235	14835
699.354	14094
699.474	16298
699.593	17221
699.713	17960
699.832	14915
699.951	17681
700.070	15472
700.190	15657
700.309	15530
700.428	16722
700.547	14575
700.667	15236
700.786	16656
700.905	14840
701.024	15335
701.143	15273
701.262	13051
701.381	14443
701.500	15421
701.619	17302
701.738	13378
701.857	13938
701.976	13026
702.095	13513
702.214	16102
702.333	16300
702.452	14709
702.571	13980
702.690	13580
702.809	13594
702.928	12135
703.047	14198
703.165	12798
703.284	12588
703.403	12916
703.522	15843
703.640	14271
703.759	18153
703.878	22801
703.997	14022
704.115	11910
704.234	12607
704.353	12633
704.471	12127
704.590	10346
704.708	12239
704.827	10702
704.946	12958
705.064	12352
705.183	12502
705.301	14322
705.420	19915
705.538	16719
705.656	15294
705.775	15458
705.893	21365
706.012	22982
706.130	15595
706.249	15539
706.367	15931
706.485	16226
706.604	15483
706.722	15929
706.840	20880
706.958	20225
707.077	16253
707.195	14127
707.313	13904
707.431	13769
707.549	13646
707.668	13617
707.786	15138
707.904	12778
708.022	13413
708.140	13147
708.258	13510
708.376	13853
708.494	13332
708.612	15108
708.730	21325
708.848	18450
708.966	19145
709.084	17713
709.202	16332
709.320	17434
709.438	16152
709.556	17506
709.674	16776
709.791	16629
709.909	15767
710.027	15576
710.145	15041
710.263	16767
710.380	16903
710.498	15210
710.616	16512
710.733	15237
710.851	15882
710.969	16400
711.086	16235
711.204	15490
711.322	15966
711.439	14930
711.557	16217
711.674	14832
711.792	15326
711.909	14707
712.027	15271
712.144	12946
712.262	15530
712.379	16365
712.497	22653
712.614	20868
712.732	18664
712.849	18310
712.966	22307
713.084	25931
713.201	20051
713.318	18206
713.436	17930
713.553	18102
713.670	19220
713.787	20092
713.905	21412
714.022	17003
714.139	19221
714.256	21784
714.373	28858
714.490	45198
714.608	121771
714.725	492610
714.842	411797
714.959	35728
715.076	21735
715.193	18008
715.310	18401
715.427	16183
715.544	16069
715.661	15997
715.778	16441
715.895	16483
716.011	16677
716.128	15643
716.245	17114
716.362	19488
716.479	20332
716.596	15355
716.713	15297
716.829	15652
716.946	15061
717.063	13443
717.180	13407
717.296	13540
717.413	14121
717.530	13913
717.646	13177
717.763	13005
717.880	12811
717.996	13812
718.113	14021
718.229	12862
718.346	12386
718.462	13756
718.579	20084
718.695	35208
718.812	24457
718.928	19929
719.045	14189
719.161	13147
719.277	12491
719.394	11838
719.510	13422
719.626	12166
719.743	17617
719.859	21759
719.975	36978
720.092	142734
720.208	276837
720.324	32602
720.440	15780
720.557	17517
720.673	27542
720.789	34751
720.905	68554
721.021	19503
721.137	12612
721.253	12102
721.369	12443
721.486	14635
721.602	20657
721.718	11024
721.834	10484
721.950	12039
722.066	10761
722.181	10487
722.297	12429
722.413	10675
722.529	10604
722.645	10741
722.761	10584
722.877	9502
722.993	10642
723.108	12108
723.224	11454
723.340	9921
723.456	10313
723.571	9519
723.687	9469
723.803	8254
723.918	9738
724.034	10407
724.150	9847
724.265	11643
724.381	26873
724.497	30114
724.612	9417
724.728	8229
724.843	9752
724.959	11220
725.074	26635
725.190	25026
725.305	10375
725.421	9596
725.536	9189
725.651	8200
725.767	8652
725.882	8269
725.997	7949
726.113	8463
726.228	8414
726.343	7781
726.459	7717
726.574	7850
726.689	8569
726.804	7791
726.920	8592
727.035	7483
727.150	8700
727.265	7606
727.380	9212
727.495	8181
727.610	7724
727.725	8302
727.841	7913
727.956	11165
728.071	11639
728.186	7323
728.301	7410
728.416	8110
728.531	7795
728.645	7101
728.760	8905
728.875	9024
728.990	8904
729.105	8432
729.220	9078
729.335	7916
729.449	8446
729.564	6900
729.679	6781
729.794	6472
729.908	8009
730.023	7051
730.138	6494
730.253	7098
730.367	6186
730.482	6667
730.596	7173
730.711	7720
730.826	8229
730.940	6919
731.055	7888
731.169	6735
731.284	6473
731.398	7109
731.513	9425
731.627	7301
731.742	10092
731.856	9672
731.970	8072
732.085	10190
732.199	12925
732.313	20104
732.428	55263
732.542	157044
732.656	76692
732.771	15877
732.885	10449
732.999	9025
733.113	9459
733.227	8890
733.342	8026
733.456	7640
733.570	7050
733.684	7224
733.798	7228
733.912	6699
734.026	6588
734.140	6310
734.254	9043
734.368	14655
734.482	16645
734.596	6392
734.710	6419
734.824	5798
734.938	6779
735.052	6461
735.166	9206
735.280	6402
735.393	6939
735.507	5495
735.621	9126
735.735	17515
735.849	7565
735.962	7517
736.076	7308
736.190	7154
736.303	10816
736.417	12145
736.531	7572
736.644	7262
736.758	6452
736.872	5663
736.985	6063
737.099	4895
737.212	5616
737.326	6193
737.439	6971
737.553	5458
737.666	6062
737.780	4693
737.893	6056
738.007	5965
738.120	5794
738.233	4288
738.347	5918
738.460	5223
738.573	6877
738.687	5227
738.800	6501
738.913	9667
739.026	5924
739.140	5006
739.253	5533
739.366	5229
739.479	5451
739.592	4515
739.705	4977
739.818	5258
739.932	5574
740.045	5268
740.158	5485
740.271	5684
740.384	5932
740.497	4945
740.610	5855
740.723	5686
740.836	6297
740.949	7547
741.062	10311
741.174	7797
741.287	6008
741.400	5160
741.513	6367
741.626	6559
741.739	6140
741.851	5375
741.964	5729
742.077	5090
742.189	5758
742.302	6641
742.415	6469
742.527	4809
742.640	4721
742.753	4268
742.865	4348
742.978	3840
743.090	5153
743.203	3930
743.316	4494
743.428	3190
743.541	4235
743.653	3676
743.766	4067
743.878	4441
743.990	7424
744.103	5925
744.215	5296
744.327	4028
744.440	7504
744.552	11734
744.664	4923
744.777	4134
744.889	4069
745.001	3543
745.113	4340
745.226	3235
745.338	3941
745.450	3319
745.562	3961
745.674	3730
745.786	3868
745.898	3993
746.010	3959
746.122	3380
746.234	4249
746.347	3282
746.459	4108
746.570	3790
746.682	4235
746.794	4428
746.906	4101
747.018	2988
747.130	3997
747.242	3464
747.354	4531
747.466	4296
747.577	3636
747.689	3372
747.801	4106
747.913	2129
748.024	2868
748.136	3479
748.248	3679
748.359	3516
748.471	3715
748.583	2010
748.694	4004
748.806	4149
748.918	6194
749.029	4229
749.141	5065
749.252	3880
749.364	5963
749.475	14265
749.587	7427
749.698	3663
749.809	3877
749.921	3931
750.032	3524
750.144	2183
750.255	3654
750.366	3195
750.478	4088
750.589	2977
750.700	3576
750.811	4228
750.923	6242
751.034	16469
751.145	14540
751.256	3056
751.367	2970
751.479	3097
751.590	3140
751.701	3096
751.812	2364
751.923	2376
752.034	3605
752.145	2450
752.256	3066
752.367	2206
752.478	2489
752.589	2184
752.700	2557
752.811	1937
752.922	2783
753.032	4093
753.143	5451
753.254	2650
753.365	4925
753.476	2723
753.586	2766
753.697	2564
753.808	2691
753.919	1743
754.029	3304
754.140	2740
754.251	2535
754.361	3220
754.472	2819
754.582	3286
754.693	3220
754.804	3045
754.914	2445
755.025	2610
755.135	2739
755.246	2310
755.356	2443
755.466	3160
755.577	3412
755.687	2119
755.798	3212
755.908	2904
756.018	2708
756.129	2467
756.239	2736
756.349	2821
756.460	2516
756.570	2981
756.680	3152
756.790	3212
756.900	4585
757.011	2675
757.121	2968
757.231	1968
757.341	3507
757.451	2074
757.561	2216
757.671	1883
757.781	1935
757.891	2635
758.001	3044
758.111	2680
758.221	3406
758.331	4588
758.441	4395
758.551	6491
758.661	4872
758.771	3145
758.880	2803
758.990	3047
759.100	3183
759.210	3186
759.320	3746
759.429	3495
759.539	3836
759.649	2733
759.758	4054
759.868	3800
759.978	3760
760.087	3758
760.197	4119
760.307	4063
760.416	4177
760.526	2991
760.635	4917
760.745	4452
760.854	5587
760.964	4809
761.073	4534
761.182	4142
761.292	4156
761.401	4423
761.511	3406
761.620	2737
761.729	3875
761.839	2220
761.948	4008
762.057	3891
762.166	3393
762.276	2388
762.385	4095
762.494	2856
762.603	2911
762.712	3223
762.822	3223
762.931	2952
763.040	3110
763.149	1945
763.258	3688
763.367	3424
763.476	3834
763.585	2913
763.694	3675
763.803	3413
763.912	4242
764.021	3155
764.130	3504
764.238	3686
764.347	3499
764.456	3338
764.565	4335
764.674	3788
764.783	4094
764.891	3697
765.000	5223
765.109	4804
765.217	4679
765.326	6219
765.435	9117
765.543	7624
765.652	8878
765.761	10152
765.869	15525
765.978	24603
766.086	43843
766.195	87639
766.303	237497
766.412	589916
766.520	446207
766.629	121868
766.737	46248
766.846	26778
766.954	17419
767.062	13779
767.171	12292
767.279	9296
767.387	7113
767.496	6018
767.604	7118
767.712	5722
767.820	5753
767.928	5323
768.037	4965
768.145	5537
768.253	5489
768.361	5129
768.469	5461
768.577	5364
768.685	5512
768.793	5211
768.901	6086
769.009	6577
769.117	6276
769.225	7801
769.333	11433
769.441	18739
769.549	33596
769.657	81793
769.765	274746
769.873	476938
769.981	150670
770.088	35639
770.196	19233
770.304	12133
770.412	10529
770.519	7394
770.627	7204
770.735	5340
770.842	6174
770.950	5407
771.058	5655
771.165	4794
771.273	5074
771.380	4471
771.488	5061
771.595	4599
771.703	5008
771.810	4309
771.918	4579
772.025	4526
772.133	5611
772.240	3622
772.348	5415
772.455	3591
772.562	4005
772.670	3435
772.777	4392
772.884	3753
772.991	4155
773.099	4431
773.206	4010
773.313	3991
773.420	4507
773.528	2852
773.635	2839
773.742	3324
773.849	3625
773.956	3637
774.063	2941
774.170	3132
774.277	4486
774.384	3016
774.491	4824
774.598	3977
774.705	5027
774.812	6042
774.919	4743
775.026	4108
775.133	4389
775.239	3834
775.346	3592
775.453	2965
775.560	3259
775.667	3350
775.773	3190
775.880	4216
775.987	3160
776.093	3311
776.200	4037
776.307	2638
776.413	3791
776.520	2931
776.627	3793
776.733	2865
776.840	2104
776.946	4657
777.053	4661
777.159	6050
777.266	3716
777.372	5923
777.478	5443
777.585	3753
777.691	3342
777.798	3222
777.904	4523
778.010	7192
778.117	5789
778.223	3297
778.329	3370
778.435	2987
778.542	3611
778.648	3384
778.754	3244
778.860	2094
778.966	3999
779.072	2936
779.178	3119
779.284	2510
779.391	3264
779.497	2146
779.603	4485
779.708	2582
779.815	5021
779.920	11569
780.026	16953
780.132	3821
780.238	2878
780.344	2450
780.450	3777
780.556	1948
780.661	2240
780.767	2324
780.873	3204
780.979	2676
781.085	2717
781.190	1961
781.296	2085
781.402	2178
781.507	2789
781.613	2243
781.719	2898
781.824	2747
781.930	3481
782.035	3516
782.141	2427
782.246	2634
782.352	2993
782.457	1278
782.563	2051
782.668	2207
782.773	2554
782.879	1640
782.984	3706
783.090	4119
783.195	6690
783.300	4004
783.405	3247
783.511	2951
783.616	3641
783.721	2379
783.826	2474
783.932	2706
784.037	2848
784.142	2384
784.247	2618
784.352	2882
784.457	2456
784.562	2541
784.667	2767
784.772	2239
784.877	2181
784.982	2594
785.087	2894
785.192	3043
785.297	3043
785.402	1809
785.507	2192
785.611	2510
785.716	2150
785.821	2557
785.926	2781
786.031	2032
786.135	2653
786.240	1931
786.345	1289
786.450	1680
786.554	2090
786.659	1038
786.763	1936
786.868	2193
786.973	3505
787.077	1757
787.182	1716
787.286	2061
787.391	1987
787.495	664
787.600	2143
787.704	1095
787.809	2327
787.913	903
788.017	2363
788.122	2513
788.226	2457
788.330	1006
788.435	1664
788.539	1210
788.643	1561
788.747	1091
788.852	1925
788.956	1133
789.060	3010
789.164	1219
789.268	1481
789.372	2181
789.476	1327
789.580	342
789.684	2050
789.788	2284
789.892	1592
789.996	2226
790.100	791
790.204	842
790.308	2012
790.412	1108
790.516	1958
790.620	1095
790.724	1643
790.828	1315
790.931	1295
791.035	2187
791.139	1579
791.242	534
791.346	2735
791.450	878
791.554	1446
791.657	43
791.761	2576
791.864	2725
791.968	1803
792.072	1979
792.175	2872
792.279	830
792.382	2181
792.486	1582
792.589	2636
792.693	1735
792.796	1230
792.899	1835
793.003	3093
793.106	173
793.209	1086
793.313	2368
793.416	1618
793.519	2373
793.623	5634
793.726	5811
793.829	2666
793.932	1406
794.035	956
794.138	2797
794.242	3344
794.345	2251
794.448	3099
794.551	5719
794.654	8778
794.757	9602
794.860	4426
794.963	2258
795.066	1400
795.169	1953
795.272	1182
795.375	495
795.477	1411
795.580	1087
795.683	1011
795.786	1143
795.889	1258
795.991	2219
796.094	2813
796.197	402
796.300	3091
796.402	227
796.505	734
796.608	387
796.710	1642
796.813	555
796.915	1823
797.018	653
797.120	1665
797.223	-64
797.326	2508
797.428	193
797.530	936
797.633	1769
797.735	3284
797.838	3967
797.940	4060
798.042	-100
798.145	719
798.247	1538
798.349	490
798.452	1262
798.554	1010
798.656	-630
798.758	2144
798.860	-88
798.962	1041
799.065	441
799.167	748
799.269	1981
799.371	2754
799.473	1367
799.575	1791
799.677	1872
799.779	4442
799.881	3887
799.983	3649
800.085	949
800.187	1795
800.289	1046
800.390	1322
800.492	1800
800.594	1400
800.696	113
800.798	1440
800.899	214
801.001	600
801.103	-92
801.205	1435
801.306	637
801.408	854
801.509	546
801.611	1071
801.713	1017
801.814	-182
801.916	1200
802.017	1083
802.119	-82
802.220	1233
802.322	-439
802.423	3700
802.525	339
802.626	1413
802.727	341
802.829	1758
802.930	-687
803.031	1852
803.133	192
803.234	661
803.335	92
803.436	793
803.538	535
803.639	278
803.740	1065
803.841	806
803.942	645
804.043	656
804.144	195
804.245	1062
804.346	-114
804.447	1309
804.548	3516
804.649	3072
804.750	662
804.851	816
804.952	-599
805.053	827
805.154	-388
805.255	1089
805.355	606
805.456	1030
805.557	-212
805.658	-297
805.758	1212
805.859	286
805.960	318
806.061	-165
806.161	355
806.262	1329
806.362	697
806.463	721
806.564	730
806.664	1570
806.765	250
806.865	1494
806.966	1647
807.066	1190
807.166	923
807.267	1741
807.367	168
807.468	308
807.568	-1315
807.668	1842
807.769	1019
807.869	211
807.969	-52
808.069	1276
808.170	1029
808.270	527
808.370	775
808.470	2159
808.570	586
808.670	906
808.770	21
808.870	621
808.970	877
809.070	420
809.170	-235
809.271	1172
809.370	-341
809.470	1144
809.570	-280
809.670	211
809.770	664
809.870	1500
809.970	445
810.070	302
810.169	1336
810.269	-599
810.369	830
810.469	-241
810.568	47
810.668	-1232
810.768	-103
810.867	1019
810.967	-288
811.066	551
811.166	289
811.265	1469
811.365	-968
811.464	253
811.564	533
811.663	679
811.763	-2204
811.862	218
811.962	444
812.061	616
812.160	0
812.260	456
812.359	370
812.458	1246
812.557	4060
812.657	5101
812.756	1746
812.855	728
812.954	332
813.053	914
813.153	362
813.252	108
813.351	708
813.450	-393
813.549	-727
813.648	1790
813.747	110
813.846	673
813.945	-211
814.044	833
814.143	563
814.242	812
814.341	372
814.439	836
814.538	124
814.637	706
814.736	-532
814.835	1663
814.933	52
815.032	1294
815.131	853
815.229	1954
815.328	1314
815.427	1434
815.525	1060
815.624	1737
815.722	411
815.821	1558
815.919	1217
816.018	1250
816.116	2905
816.215	2175
816.313	1860
816.412	1711
816.510	2329
816.609	4445
816.707	2338
816.805	2718
816.904	2180
817.002	3151
817.100	3488
817.198	3690
817.296	2802
817.395	3332
817.493	4864
817.591	5783
817.689	6652
817.787	9043
817.885	16559
817.983	29796
818.081	63604
818.179	154041
818.277	370203
818.375	283966
818.473	77114
818.571	31444
818.669	20222
818.767	17699
818.865	17615
818.963	22945
819.061	32869
819.158	56633
819.256	122278
819.354	285656
819.452	569671
819.549	346734
819.647	104506
819.745	43949
819.842	26664
819.940	18055
820.038	13138
820.135	10492
820.233	8801
820.330	6012
820.428	4755
820.525	6278
820.623	4293
820.720	3833
820.818	3196
820.915	4261
821.012	3195
821.110	1741
821.207	3600
821.304	2266
821.402	2853
821.499	3481
821.596	2824
821.693	2722
821.791	3126
821.888	4568
821.985	8330
822.082	5581
822.179	2667
822.276	1788
822.373	1736
822.470	804
822.567	1239
822.664	1217
822.761	2693
822.858	1194
822.955	582
823.052	1378
823.149	206
823.246	1473
823.343	537
823.440	2269
823.536	600
823.633	1231
823.730	770
823.827	913
823.923	1221
824.020	2588
824.117	404
824.213	1445
824.310	1577
824.407	746
824.503	1233
824.600	1655
824.696	607
824.793	2207
824.889	759
824.986	479
825.082	1049
825.179	1749
825.275	-98
825.371	347
825.468	1295
825.564	289
825.660	423
825.757	870
825.853	331
825.949	-283
826.045	-106
826.142	1052
826.238	-199
826.334	884
826.430	-353
826.526	1370
826.622	-438
826.718	562
826.814	-203
826.910	1432
827.006	-1092
827.102	412
827.198	1130
827.294	226
827.390	-217
827.486	1218
827.582	-800
827.678	-769
827.774	496
827.869	93
827.965	1096
828.061	-102
828.157	-128
828.252	887
828.348	-392
828.444	2284
828.539	-223
828.635	797
828.731	188
828.826	85
828.922	857
829.017	650
829.113	720
829.208	569
829.304	-506
829.399	2006
829.495	-821
829.590	670
829.685	-194
829.781	1104
829.876	146
829.971	59
830.066	-453
830.162	864
830.257	-167
830.352	-131
830.447	280
830.543	1258
830.638	-1006
830.733	1499
830.828	-286
830.923	510
831.018	498
831.113	1326
831.208	5
831.303	94
831.398	56
831.493	840
831.588	218
831.683	-4
831.778	366
831.873	1309
831.967	1140
832.062	-109
832.157	-43
832.252	1532
832.346	208
832.441	2146
832.536	2546
832.631	7809
832.725	4461
832.820	961
832.914	14
833.009	1008
833.104	613
833.198	2750
833.293	433
833.387	1480
833.482	142
833.576	73
833.670	20
833.765	920
833.859	1204
833.954	1353
834.048	582
834.142	621
834.237	-170
834.331	538
834.425	781
834.519	-865
834.613	768
834.708	-165
834.802	847
834.896	715
834.990	-37
835.084	749
835.178	574
835.272	132
835.366	-173
835.460	515
835.554	-258
835.648	678
835.742	-574
835.836	618
835.930	-1247
836.024	699
836.117	654
836.211	379
836.305	1665
836.399	1792
836.493	-1334
836.586	1439
836.680	-884
836.774	-152
836.867	712
836.961	-903
837.055	-420
837.148	520
837.242	-233
837.335	489
837.429	730
837.522	245
837.616	894
837.709	3453
837.803	1477
837.896	660
837.989	125
838.083	1855
838.176	3608
838.269	3372
838.363	624
838.456	458
838.549	2409
838.642	4034
838.735	8306
838.829	2614
838.922	-1
839.015	341
839.108	-1314
839.201	874
839.294	58
839.387	167
839.480	-322
839.573	996
839.666	1889
839.759	63
839.852	-8
839.945	810
840.038	-444
840.131	614
840.223	-620
840.316	117
840.409	-289
840.502	-230
840.594	-23
840.687	-660
840.780	400
840.873	87
840.965	295
841.058	2273
841.150	3144
841.243	2399
841.336	99
841.428	1059
841.521	-680
841.613	574
841.706	-140
841.798	221
841.890	356
841.983	-799
842.075	713
842.167	270
842.260	218
842.352	1477
842.444	1189
842.537	4452
842.629	5884
842.721	713
842.813	154
842.905	-508
842.997	23
843.090	151
843.182	2683
843.274	3920
843.366	10676
843.458	20791
843.550	11089
843.642	1429
843.734	181
843.826	1763
843.918	968
844.009	275
844.101	-750
844.193	120
844.285	-369
844.377	-60
844.469	125
844.560	240
844.652	233
844.744	618
844.835	-114
844.927	132
845.019	1420
845.110	53
845.202	159
845.293	-363
845.385	-743
845.476	1136
845.568	13
845.659	-67
845.751	166
845.842	394
845.934	-33
846.025	-496
846.116	311
846.208	-430
846.299	-720
846.390	800
846.482	97
846.573	1309
846.664	1353
846.755	3621
846.846	2336
846.937	-1661
847.029	-496
847.120	389
847.211	-135
847.302	519
847.393	-1354
847.484	445
847.575	-486
847.666	-412
847.757	-1214
847.847	211
847.938	372
848.029	522
848.120	-379
848.211	309
848.302	-808
848.392	-651
848.483	31
848.574	-175
848.664	79
848.755	64
848.846	-385
848.936	560
849.027	-77
849.118	1489
849.208	-562
849.299	1101
849.389	1755
849.480	7186
849.570	14003
849.661	29530
849.751	47407
849.841	14383
849.932	1162
850.022	802
850.112	-874
850.203	473
850.293	-788
850.383	-608
850.474	-1274
850.564	121
850.654	-254
850.744	555
850.834	190
850.924	-593
851.014	-771
851.104	-34
851.194	170
851.284	886
851.374	750
851.464	526
851.554	386
851.644	793
851.734	1203
851.824	1008
851.914	-10
852.004	539
852.094	-1011
852.183	-413
852.273	232
852.363	486
852.452	-305
852.542	607
852.632	-922
852.721	727
852.811	-635
852.901	549
852.990	-360
853.080	508
853.169	-761
853.259	883
853.348	284
853.438	1680
853.527	2284
853.617	4071
853.706	9359
853.795	19776
853.885	45859
853.974	87082
854.063	163597
854.152	237859
854.242	77385
854.331	13169
854.420	5056
854.509	3781
854.598	3226
854.687	2470
854.777	1784
854.866	1489
854.955	1227
855.044	315
855.133	504
855.222	961
855.311	6
855.400	1081
855.488	41
855.577	-3
855.666	-301
855.755	460
855.844	408
855.933	-59
856.021	-73
856.110	240
856.199	-971
856.288	-26
856.376	-927
856.465	-666
856.554	229
856.642	-156
856.731	-15
856.819	1121
856.908	-605
856.996	-39
857.085	-1057
857.173	-100
857.262	-581
857.350	493
857.438	44
857.527	503
857.615	-794
857.703	989
857.792	-591
857.880	662
857.968	-187
858.056	256
858.145	232
858.233	-567
858.321	-903
858.409	779
858.497	-1111
858.585	-1071
858.673	-31
858.761	-754
858.849	-1383
858.937	-246
859.025	-786
859.113	11
859.201	-834
859.289	518
859.377	-788
859.465	-238
859.552	-1117
859.640	-653
859.728	348
859.816	-344
859.903	-616
859.991	-643
860.079	212
860.166	-540
860.254	-997
860.342	99
860.429	-1492
860.517	-814
860.604	-262
860.692	-211
860.779	-562
860.867	223
860.954	2
861.042	528
861.129	536
861.216	260
861.304	-707
861.391	-52
861.478	-521
861.565	-313
861.653	56
861.740	-413
861.827	-489
861.914	185
862.001	-370
862.089	384
862.176	-418
862.263	-379
862.350	-336
862.437	-395
862.524	-515
862.611	-537
862.698	-272
862.785	201
862.871	-361
862.958	-72
863.045	-119
863.132	-232
863.219	-737
863.306	-386
863.392	-535
863.479	38
863.566	-386
863.652	-264
863.739	-774
863.826	-311
863.912	17
863.999	-1105
864.086	-689
864.172	45
864.259	-1028
864.345	305
864.432	-716
864.518	501
864.604	-365
864.691	34
864.777	-86
864.863	804
864.950	752
865.036	559
865.122	1069
865.209	2339
865.295	1481
865.381	2519
865.467	1808
865.553	3761
865.639	5248
865.726	10965
865.812	22519
865.898	46485
865.984	65834
866.070	129538
866.156	124665
866.242	29632
866.328	7027
866.414	2469
866.499	2480
866.585	2094
866.671	1537
866.757	1865
866.843	1082
866.928	103
867.014	129
867.100	1405
867.186	596
867.271	1686
867.357	2661
867.442	2792
867.528	809
867.614	1395
867.699	2
867.785	1815
867.870	303
867.956	1791
868.041	1508
868.127	1394
868.212	1131
868.297	1268
868.383	1590
868.468	2489
868.553	3554
868.639	4999
868.724	9374
868.809	7842
868.894	1066
868.979	747
869.065	437
869.150	1187
869.235	516
869.320	-210
869.405	-535
869.490	108
869.575	-72
869.660	-228
869.745	484
869.830	59
869.915	199
870.000	233
870.085	-584
870.169	618
870.254	-68
870.339	-438
870.424	-116
870.509	873
870.593	407
870.678	226
870.763	-621
870.847	-125
870.932	-341
871.016	659
871.101	269
871.186	323
871.270	398
871.355	410
871.439	-118
871.523	187
871.608	198
871.692	83
871.777	73
871.861	389
871.945	-399
872.030	155
872.114	-151
872.198	932
872.282	-696
872.367	-115
872.451	-717
872.535	-30
872.619	-6
872.703	594
872.787	51
872.871	452
872.955	-342
873.039	470
873.123	-139
873.207	1239
873.291	-99
873.375	477
873.459	-268
873.543	-43
873.627	-370
873.711	295
873.794	32
873.878	270
873.962	-756
874.045	287
874.129	-65
874.137	-51
874.213	87
874.245	42
874.296	-31
874.352	362
874.380	552
874.460	-452
874.464	-493
874.547	78
874.568	78
874.631	59
874.676	-23
874.714	-75
874.784	-22
874.798	-15
874.881	857
874.892	757
874.965	64
874.999	8
875.048	-70
875.107	32
875.131	79
875.215	525
875.215	525
875.298	-9
875.323	109
875.381	440
875.430	262
875.465	148
875.538	546
875.548	590
875.631	-427
875.646	-405
875.714	-283
875.753	-239
875.798	-172
875.861	90
875.881	167
875.964	-607
875.968	-585
876.047	-192
876.076	-147
876.130	-58
876.183	451
876.213	745
876.291	817
876.296	817
876.379	806
876.398	591
876.462	-67
876.506	-92
876.545	-162
876.613	17
876.628	81
876.711	989
876.721	949
876.794	542
876.828	188
876.877	-257
876.935	149
876.960	312
877.043	1371
877.043	1368
877.125	732
877.150	947
877.208	1471
877.258	1160
877.291	948
877.365	847
877.374	848
877.456	687
877.472	820
877.539	1225
877.579	1174
877.622	1092
877.687	1146
877.704	1212
877.787	328
877.794	413
877.869	1137
877.901	902
877.952	534
878.008	731
878.034	873
878.115	716
878.117	712
878.199	460
878.222	379
878.282	291
878.329	725
878.364	983
878.437	1105
878.447	1119
878.529	511
878.544	397
878.611	-85
878.651	412
878.694	1022
878.758	459
878.776	226
878.858	569
878.865	548
878.941	488
878.972	465
879.023	446
879.078	330
879.105	393
879.185	1559
879.187	1578
879.269	954
879.292	987
879.351	883
879.399	301
879.433	-34
879.506	556
879.516	640
879.598	-90
879.613	84
879.680	762
879.720	563
879.762	526
879.827	759
879.844	704
879.926	177
879.933	217
880.007	935
880.040	734
880.089	650
880.147	2409
880.171	3086
880.253	4159
880.254	4171
880.335	6232
880.360	6514
880.417	8388
880.467	13216
880.499	16566
880.574	19178
880.580	18825
880.662	6003
880.680	4322
880.744	1164
880.787	940
880.825	1085
880.893	342
880.907	269
880.989	791
881.000	788
881.070	495
881.106	397
881.152	385
881.213	250
881.233	173
881.315	713
881.319	690
881.396	723
881.426	679
881.478	400
881.532	623
881.559	752
881.639	820
881.641	820
881.722	349
881.745	425
881.803	1022
881.852	802
881.885	371
881.958	677
881.966	745
882.047	414
882.064	540
882.129	1334
882.171	1436
882.210	1884
882.277	3425
882.291	3457
882.372	1650
882.383	1534
882.454	987
882.489	691
882.535	585
882.596	824
882.616	952
882.697	773
882.702	792
882.778	613
882.808	441
882.859	555
882.914	944
882.940	976
883.020	208
883.021	210
883.102	894
883.127	939
883.183	863
883.233	947
883.264	930
883.339	245
883.345	216
883.426	360
883.445	379
883.507	825
883.551	1085
883.587	778
883.657	293
883.668	393
883.749	1272
883.763	1332
883.830	563
883.869	170
883.910	301
883.975	634
883.991	655
884.072	798
884.081	773
884.152	858
884.187	1003
884.233	976
884.292	938
884.314	964
884.394	707
884.398	694
884.475	581
884.504	649
884.555	956
884.610	1070
884.636	941
884.716	769
884.716	779
884.797	1145
884.821	1312
884.877	1115
884.927	864
884.958	820
885.033	715
885.038	706
885.118	514
885.139	510
885.199	761
885.244	698
885.279	942
885.350	1717
885.359	1694
885.439	913
885.456	862
885.520	824
885.561	617
885.600	599
885.667	742
885.680	740
885.760	533
885.773	521
885.840	658
885.878	654
885.920	890
885.984	1260
886.000	1233
886.080	1010
886.089	997
886.160	979
886.195	961
886.240	1045
886.300	996
886.320	1035
886.400	1133
886.406	1167
886.480	1121
886.511	895
886.560	1090
886.616	1448
886.640	1430
886.720	973
886.722	967
886.800	1324
886.827	1339
886.879	1280
886.932	1277
886.959	1410
887.038	1688
887.039	1693
887.119	1396
887.143	1266
887.198	1048
887.248	1021
887.278	1204
887.354	1061
887.358	1061
887.437	1437
887.459	1435
887.517	1344
887.564	1382
887.596	1148
887.669	474
887.676	475
887.755	467
887.774	451
887.835	518
887.880	675
887.914	915
887.985	1106
887.994	1094
888.073	1090
888.090	1089
888.153	1267
888.195	1304
888.232	992
888.300	520
888.311	612
888.391	1218
888.405	1300
888.470	896
888.510	679
888.549	843
888.615	1181
888.628	1213
888.708	1235
888.720	1237
888.787	1311
888.825	1351
888.866	936
888.930	300
888.945	465
889.024	1274
889.035	1382
889.103	1384
889.140	1376
889.182	1336
889.245	1234
889.261	1245
889.340	1303
889.349	1302
889.419	1422
889.454	1479
889.498	1486
889.559	1480
889.577	1493
889.656	1539
889.664	1540
889.735	1164
889.768	986
889.814	1060
889.873	1150
889.978	1227
890.083	1762
890.187	1271
890.292	1703
890.397	1216
890.501	1498
890.606	751
890.710	1751
890.815	2402
890.919	1417
891.024	1339
891.128	1716
891.233	1373
891.337	1565
891.442	1272
891.546	1774
891.650	1074
891.755	1429
891.859	2340
891.963	1224
892.068	2370
892.172	1542
892.276	1222
892.380	1431
892.484	1642
892.589	3098
892.693	2097
892.797	471
892.901	751
893.005	937
893.109	1929
893.213	2298
893.317	1155
893.421	1904
893.525	1301
893.629	1360
893.733	1511
893.837	875
893.941	1094
894.045	955
894.148	193
894.252	1358
894.356	2546
894.460	1750
894.564	1269
894.667	1419
894.771	1415
894.875	1158
894.978	1017
895.082	1183
895.186	1508
895.289	904
895.393	827
895.496	1587
895.600	-173
895.703	1535
895.807	1610
895.910	1843
896.014	1162
896.117	626
896.221	879
896.324	590
896.427	1021
896.531	354
896.634	1284
896.737	2003
896.840	1982
896.944	1589
897.047	1518
897.150	1609
897.253	627
897.356	1582
897.460	1465
897.563	589
897.666	1385
897.769	2205
897.872	1194
897.975	952
898.078	766
898.181	862
898.284	1154
898.387	1592
898.490	1417
898.593	1664
898.695	522
898.798	999
898.901	1693
899.004	1658
899.107	929
899.209	1313
899.312	1774
899.415	443
899.518	765
899.620	760
899.723	1357
899.826	2584
899.928	3312
900.031	1178
900.133	714
900.236	997
900.338	124
900.441	1946
900.543	689
900.646	1212
900.748	1110
900.851	1858
900.953	973
901.055	1364
901.158	678
901.260	898
901.362	707
901.465	1234
901.567	1025
901.669	1122
901.771	549
901.873	920
901.976	1277
902.078	1069
902.180	1351
902.282	393
902.384	377
902.486	1693
902.588	1435
902.690	1854
902.792	839
902.894	1370
902.996	1139
903.098	1491
903.200	498
903.302	1380
903.404	947
903.505	1537
903.607	544
903.709	1184
903.811	1222
903.913	977
904.014	512
904.116	1095
904.218	906
904.319	1968
904.421	1434
904.523	1708
904.624	1081
904.726	1144
904.827	1465
904.929	1367
905.030	343
905.132	1183
905.233	656
905.335	280
905.436	949
905.537	1259
905.639	195
905.740	263
905.841	1337
905.943	1127
906.044	984
906.145	675
906.247	951
906.348	1267
906.449	532
906.550	834
906.651	1010
906.752	1366
906.854	574
906.955	478
907.056	1184
907.157	418
907.258	960
907.359	470
907.460	944
907.561	-365
907.662	223
907.762	513
907.863	1590
907.964	952
908.065	1463
908.166	658
908.267	532
908.367	284
908.468	265
908.569	1095
908.670	1990
908.770	1915
908.871	1976
908.971	2240
909.072	1733
909.173	616
909.273	713
909.374	1288
909.474	1137
909.575	404
909.675	197
909.776	1043
909.876	1704
909.977	1505
910.077	1532
910.177	429
910.278	955
910.378	794
910.478	1225
910.579	1459
910.679	496
910.779	629
910.879	229
910.980	618
911.080	404
911.180	1568
911.280	1323
911.380	580
911.480	852
911.580	909
911.680	1166
911.780	1325
911.880	1224
911.980	432
912.080	327
912.180	1046
912.280	130
912.380	1059
912.480	875
912.580	2006
912.679	463
912.779	1036
912.879	103
912.979	732
913.078	513
913.178	1002
913.278	992
913.377	739
913.477	226
913.577	1250
913.676	1811
913.776	948
913.875	969
913.975	1591
914.074	-240
914.174	342
914.273	689
914.373	1278
914.472	1031
914.572	158
914.671	990
914.770	682
914.870	1133
914.969	867
915.068	648
915.167	1557
915.267	592
915.366	521
915.465	1161
915.564	424
915.663	25
915.763	1274
915.862	1209
915.961	900
916.060	1000
916.159	844
916.258	193
916.357	803
916.456	991
916.555	616
916.654	556
916.752	1151
916.851	399
916.950	959
917.049	-78
917.148	691
917.247	841
917.345	772
917.444	416
917.543	633
917.642	393
917.740	626
917.839	1053
917.937	1273
918.036	784
918.135	687
918.233	271
918.332	557
918.430	1210
918.529	669
918.627	432
918.726	1595
918.824	898
918.923	1282
919.021	500
919.119	963
919.218	426
919.316	568
919.414	-17
919.512	870
919.611	1030
919.709	1032
919.807	858
919.905	1078
920.003	1141
920.102	1228
920.200	1155
920.298	1538
920.396	885
920.494	1937
920.592	356
920.690	1190
920.788	1214
920.886	1681
920.984	1642
921.082	1300
921.180	2040
921.277	1251
921.375	1271
921.473	2314
921.571	877
921.669	2266
921.766	1641
921.864	1985
921.962	1911
922.060	1270
922.157	1246
922.255	1196
922.352	1900
922.450	2031
922.548	2296
922.645	2432
922.743	1351
922.840	4413
922.938	4110
923.035	3227
923.133	3561
923.230	3484
923.327	4060
923.425	4557
923.522	4850
923.619	3844
923.717	3633
923.814	3665
923.911	2828
924.008	4080
924.106	3198
924.203	3251
924.300	3602
924.397	4081
924.494	4199
924.591	3043
924.688	3405
924.786	3590
924.883	3347
924.979	3639
925.077	3885
925.173	3148
925.270	3055
925.367	3058
925.464	3732
925.561	3922
925.658	4013
925.755	3896
925.852	4159
925.948	4373
926.045	3515
926.142	4533
926.239	3546
926.335	3013
926.432	3731
926.529	4211
926.625	3773
926.722	2901
926.818	3003
926.915	3391
927.011	3025
927.108	3634
927.204	2810
927.301	2923
927.397	3403
927.494	3671
927.590	1777
927.687	3167
927.783	3414
927.879	2918
927.976	2484
928.072	2676
928.168	2806
928.264	3236
928.361	2148
928.457	3074
928.553	2175
928.649	3577
928.745	3061
928.841	3132
928.937	3183
929.033	2786
929.129	2571
929.225	2751
929.321	3146
929.417	2558
929.513	2980
929.609	2607
929.705	2071
929.801	3402
929.897	1896
929.993	2009
930.089	2048
930.184	2854
930.280	2575
930.376	3408
930.471	1365
930.567	2206
930.663	2008
930.758	1833
930.854	2218
930.950	2537
931.045	3037
931.141	2583
931.236	3392
931.332	3070
931.427	1821
931.523	2605
931.618	1978
931.714	1593
931.809	1878
931.905	3796
932.000	2198
932.095	1566
932.191	2775
932.286	2736
932.381	1765
932.476	2556
932.572	1526
932.667	2201
932.762	2445
932.857	2530
932.952	2451
933.047	1541
933.142	1689
933.237	2621
933.332	1982
933.427	2723
933.522	2111
933.617	1553
933.712	2067
933.807	2210
933.902	3344
933.997	2976
934.092	1436
934.187	2274
934.282	2224
934.376	2336
934.471	2558
934.566	1663
934.661	1399
934.755	2390
934.850	2440
934.945	2290
935.039	1899
935.134	2746
935.228	1604
935.323	3080
935.417	2536
935.512	1628
935.606	1557
935.701	1461
935.795	1871
935.890	2437
935.984	1680
936.079	1167
936.173	2227
936.267	1986
936.362	1661
936.456	2080
936.550	2395
936.644	1701
936.738	1336
936.833	1348
936.927	1010
937.021	1661
937.115	1452
937.209	1438
937.303	2625
937.397	1581
937.491	1603
937.585	2166
937.679	1702
937.773	1891
937.867	806
937.961	1276
938.055	2246
938.149	2310
938.243	1103
938.337	1858
938.430	1277
938.524	2557
938.618	2208
938.712	2000
938.805	2089
938.899	1685
938.993	1610
939.086	1703
939.180	1475
939.274	2696
939.367	2261
939.461	2377
939.554	1682
939.648	1365
939.741	1134
939.835	2102
939.928	1599
940.022	2194
940.115	1268
940.208	1336
940.302	3494
940.395	2510
940.488	658
940.582	2168
940.675	1449
940.768	1757
940.861	2263
940.954	2165
941.048	1353
941.141	834
941.234	1123
941.327	1892
941.420	2459
941.513	2176
941.606	1355
941.699	1350
941.792	2204
941.885	1330
941.978	1019
942.071	1774
942.164	1191
942.257	1317
942.349	1633
942.442	890
942.535	1229
942.628	1462
942.721	1788
942.813	607
942.906	1428
942.999	1276
943.091	821
943.184	1047
943.277	765
943.369	1287
943.462	338
943.554	1377
943.647	1916
943.739	1109
943.832	1099
943.924	543
944.017	1666
944.109	82
944.201	996
944.294	1164
944.386	1158
944.478	649
944.571	863
944.663	789
944.755	1097
944.847	1752
944.940	1231
945.032	272
945.124	325
945.216	2443
945.308	1934
945.400	1776
945.492	1152
945.584	1944
945.676	1472
945.768	961
945.860	1253
945.952	1443
946.044	966
946.136	817
946.228	766
946.320	1236
946.412	1045
946.503	1599
946.595	1668
946.687	1045
946.779	549
946.870	1309
946.962	257
947.054	1203
947.145	1582
947.237	1680
947.329	957
947.420	1019
947.512	968
947.603	998
947.695	901
947.786	519
947.878	1240
947.969	1199
948.061	388
948.152	1448
948.243	1186
948.335	1156
948.426	579
948.517	903
948.609	1147
948.700	1122
948.791	119
948.882	483
948.973	1297
949.065	1378
949.156	1404
949.247	-385
949.338	889
949.429	723
949.520	363
949.611	795
949.702	1549
949.793	1101
949.884	1175
949.975	1128
950.066	266
950.157	190
950.247	888
950.338	666
950.429	930
950.520	869
950.611	1356
950.701	987
950.792	775
950.883	1186
950.973	742
951.064	1133
951.155	768
951.245	1334
951.336	1190
951.427	-15
951.517	1215
951.608	1442
951.698	339
951.788	518
951.879	353
951.969	333
952.060	442
952.150	67
952.240	1381
952.331	-446
952.421	1757
952.511	217
952.602	435
952.692	-547
952.782	1099
952.872	1106
952.962	136
953.052	1204
953.143	55
953.233	1114
953.323	748
953.413	705
953.503	932
953.593	234
953.683	281
953.773	891
953.863	106
953.953	704
954.042	431
954.132	1602
954.222	1713
954.312	480
954.402	1317
954.492	1006
954.581	1764
954.671	1070
954.761	249
954.850	1803
954.940	684
955.030	123
955.119	46
955.209	276
955.298	441
955.388	918
955.477	939
955.567	-6
955.656	737
955.746	1375
955.835	29
955.925	-275
956.014	593
956.103	918
956.193	694
956.282	1057
956.371	870
956.461	341
956.550	-567
956.639	1023
956.728	114
956.817	985
956.906	615
956.995	340
957.085	684
957.174	156
957.263	713
957.352	1146
957.441	-182
957.530	-233
957.619	118
957.708	320
957.796	-14
957.885	1658
957.974	-105
958.063	1653
958.152	92
958.241	1008
958.329	731
958.418	665
958.507	569
958.596	1077
958.684	166
958.773	388
958.861	337
958.950	708
959.039	578
959.127	743
959.216	422
959.304	756
959.393	427
959.481	696
959.570	487
959.658	596
959.746	562
959.835	1284
959.923	2152
960.011	941
960.100	1091
960.188	589
960.276	891
960.365	755
960.453	482
960.541	-436
960.629	1062
960.717	-71
960.805	-169
960.893	64
960.981	-527
961.069	1630
961.158	241
961.245	1970
961.333	343
961.421	-312
961.509	1114
961.597	1185
961.685	-87
961.773	-167
961.861	199
961.949	1075
962.036	0
962.124	785
962.212	761
962.299	824
962.387	-210
962.475	319
962.562	252
962.650	1391
962.738	536
962.825	-308
962.913	521
963.000	367
963.088	-10
963.175	-215
963.263	470
963.350	1213
963.438	429
963.525	1178
963.612	3010
963.700	4871
963.787	12275
963.874	5046
963.962	-238
964.049	566
964.136	-9
964.223	-362
964.310	348
964.398	-78
964.485	-43
964.572	1341
964.659	1588
964.746	1606
964.833	35
964.920	-623
965.007	181
965.094	206
965.181	276
965.268	931
965.355	965
965.441	632
965.528	-272
965.615	1244
965.702	1344
965.789	-6
965.875	-208
965.962	727
966.049	298
966.136	1318
966.222	-461
966.309	805
966.395	270
966.482	323
966.569	511
966.655	893
966.742	461
966.828	1143
966.915	750
967.001	215
967.087	-38
967.174	468
967.260	-136
967.347	1580
967.433	3832
967.519	7913
967.605	2061
967.692	758
967.778	577
967.864	253
967.950	41
968.036	-94
968.123	539
968.209	109
968.295	-953
968.381	1372
968.467	337
968.553	-389
968.639	791
968.725	920
968.811	2132
968.897	2522
968.983	424
969.069	276
969.154	680
969.240	1142
969.326	-857
969.412	801
969.497	602
969.583	-290
969.669	943
969.755	682
969.840	182
969.926	1617
970.012	1031
970.097	1888
970.183	1066
970.268	1329
970.354	677
970.439	1244
970.525	6036
970.610	1705
970.696	1194
970.781	407
970.866	-257
970.952	546
971.037	-17
971.122	940
971.208	-374
971.293	957
971.378	-739
971.463	299
971.549	629
971.634	640
971.719	703
971.804	732
971.889	1408
971.974	464
972.059	446
972.144	596
972.229	-122
972.314	-198
972.399	540
972.484	-544
972.569	717
972.654	333
972.739	3085
972.824	1892
972.908	375
972.993	-75
973.078	-367
973.163	24
973.247	508
973.332	-1107
973.417	1207
973.501	-251
973.586	623
973.671	701
973.755	-91
973.840	639
973.924	963
974.009	624
974.093	271
974.178	1858
974.262	1627
974.346	2368
974.431	428
974.515	765
974.600	68
974.684	553
974.768	-623
974.852	1064
974.937	-1018
975.021	735
975.105	150
975.189	830
975.273	736
975.358	-383
975.442	-661
975.526	782
975.610	-1345
975.694	-712
975.778	711
975.862	231
975.946	-1815
976.030	1209
976.114	42
976.198	265
976.281	389
976.365	654
976.449	-579
976.533	825
976.617	-13
976.700	226
976.784	246
976.868	468
976.951	393
977.035	568
977.119	1294
977.202	233
977.286	60
977.369	170
977.453	659
977.536	639
977.620	-130
977.703	14
977.787	-170
977.870	910
977.953	810
978.037	-1362
978.120	845
978.203	1084
978.287	1923
978.370	1878
978.453	-1140
978.536	-125
978.620	1456
978.703	2159
978.786	-18
978.869	362
978.952	-711
979.035	1246
979.118	555
979.201	32
979.284	373
979.367	-223
979.450	267
979.533	-421
979.616	-814
979.699	140
979.782	543
979.865	492
979.948	-8
980.030	-74
980.113	652
980.196	35
980.279	99
980.361	434
980.444	-787
980.526	133
980.609	-452
980.692	-96
980.774	281
980.857	-624
980.939	790
981.022	-55
981.104	68
981.187	36
981.269	702
981.352	-42
981.434	-510
981.516	-453
981.599	1505
981.681	890
981.763	337
981.846	17
981.928	355
982.010	-219
982.092	-1068
982.174	810
982.256	-495
982.339	-344
982.421	163
982.503	91
982.585	-1693
982.667	-148
982.749	-211
982.831	664
982.913	-279
982.995	928
983.077	-920
983.158	588
983.240	-1009
983.322	725
983.404	1050
983.486	-418
983.568	317
983.649	506
983.731	694
983.813	-226
983.894	164
983.976	-239
984.058	-329
984.139	656
984.221	-1092
984.302	1644
984.384	-276
984.465	-143
984.547	-137
984.628	-793
984.710	602
984.791	37
984.872	-257
984.954	-147
985.035	-462
985.116	-501
985.198	-1045
985.279	1125
985.360	-469
985.441	-1092
985.522	785
985.604	-131
985.685	-1459
985.766	623
985.847	1654
985.928	-376
986.009	368
986.090	-1139
986.171	-103
986.252	93
986.333	728
986.414	-699
986.495	504
986.576	-282
986.656	-15
986.737	349
986.818	358
986.899	-486
986.980	-647
987.060	803
987.141	-859
987.222	-81
987.302	847
987.383	990
987.464	-428
987.544	528
987.625	-252
987.705	745
987.786	108
987.866	219
987.947	-542
988.027	-193
988.108	1018
988.188	-112
988.268	-124
988.349	1022
988.429	65
988.509	145
988.589	-303
988.670	-1097
988.750	487
988.830	89
988.910	778
988.990	184
989.070	73
989.151	139
989.231	-348
989.311	495
989.391	15
989.471	-725
989.551	47
989.631	-333
989.711	280
989.791	-497
989.870	-830
989.950	382
990.030	-840
990.110	-584
990.190	-968
990.269	-311
990.349	-242
990.429	-140
990.509	-287
990.588	-608
990.668	562
990.747	247
990.827	-457
990.907	513
990.986	-1125
991.066	70
991.145	-1133
991.225	729
991.304	-649
991.383	550
991.463	-492
991.542	-68
991.622	184
991.701	-470
991.780	-136
991.859	-552
991.939	211
992.018	-451
992.097	281
992.176	-1106
992.256	-63
992.335	-292
992.414	67
992.493	-392
992.572	-1276
992.651	363
992.730	-341
992.809	277
992.888	-1441
992.967	-908
993.046	-38
993.125	-961
993.203	-968
993.282	85
993.361	-27
993.440	-462
993.519	-1307
993.597	262
993.676	-922
993.755	311
993.834	-560
993.912	-1659
993.991	333
994.069	-1319
994.148	-376
994.226	-615
994.305	-667
994.384	-746
994.462	640
994.540	-691
994.619	-879
994.697	63
994.776	-270
994.854	-262
994.932	-1391
995.011	-269
995.089	-1481
995.167	-126
995.245	-995
995.324	-1513
995.402	31
995.480	-1096
995.558	-35
995.636	-1029
995.714	-561
995.792	715
995.870	-666
995.948	-572
996.026	-495
996.104	-1922
996.182	-24
996.260	-916
996.338	-450
996.416	-829
996.494	-568
996.572	221
996.649	-999
996.727	-1011
996.805	-132
996.883	-161
996.960	-757
997.038	-402
997.116	-1062
997.193	-575
997.271	-1041
997.348	-1048
997.426	-542
997.504	-868
997.581	200
997.658	-71
997.736	-1891
997.813	-1210
997.891	739
997.968	-361
998.046	-789
998.123	-941
998.200	-1099
998.277	-1837
998.355	-411
998.432	-1693
998.509	-868
998.586	20
998.663	-637
998.741	-512
998.818	-220
998.895	-906
998.972	188
999.049	-40
999.126	-638
999.203	-825
999.280	-837
999.357	-1217
999.434	-830
999.511	-586
999.587	167
999.664	-358
999.741	-514
999.818	-624
999.895	-1231
999.971	-250
1000.048	-1553
1000.125	110
1000.202	-836
1000.278	-901
1000.355	-157
1000.431	-1280
1000.508	-1419
1000.584	-385
1000.661	-459
1000.738	-1538
1000.814	-1219
1000.890	-185
1000.967	-1208
1001.043	-529
1001.120	-1764
1001.196	-583
1001.272	-1549
1001.349	-1052
1001.425	-1283
1001.501	-449
1001.577	-1106
1001.654	-816
1001.730	-1666
1001.806	-549
1001.882	-1557
1001.958	-42
1002.034	-742
1002.110	-832
1002.186	-1853
1002.262	-734
1002.338	-2062
1002.414	-1061
1002.490	-607
1002.566	-1324
1002.642	-1531
1002.718	-164
1002.794	-818
1002.870	-671
1002.945	-345
1003.021	-1348
1003.097	-1343
1003.173	-318
1003.248	-1463
1003.324	-1059
1003.400	-350
1003.475	-2007
1003.551	-992
1003.626	-862
1003.702	-908
1003.777	-1081
1003.853	-928
1003.928	-854
1004.004	-1101
1004.079	-676
1004.155	-726
1004.230	-2192
1004.305	-775
1004.381	-1107
1004.456	-907
1004.531	-1436
1004.607	-850
1004.682	-1358
1004.757	-817
1004.832	-553
1004.907	-814
1004.982	-646
1005.057	-823
1005.133	-1278
1005.208	-570
1005.283	-1718
1005.358	-826
1005.433	-1209
1005.508	-671
1005.583	-1562
1005.657	-1491
1005.732	-482
1005.807	-1411
1005.882	-1477
1005.957	-1286
1006.032	-1045
1006.106	-1534
1006.181	-1791
1006.256	-796
1006.331	-587
1006.405	-1194
1006.480	-1159
1006.554	-109
1006.629	-1365
1006.704	-965
1006.778	-830
1006.853	-505
1006.927	-1323
1007.002	-1145
1007.076	-115
1007.150	-1534
1007.225	-1246
1007.299	-659
1007.373	-1341
1007.448	-1276
1007.522	-544
1007.596	-735
1007.671	-1612
1007.745	-1180
1007.819	-2151
1007.893	-1726
1007.967	-489
1008.041	-1924
1008.115	-23
1008.190	-2013
1008.264	-1047
1008.338	-1659
1008.412	-1757
1008.486	-1081
1008.560	-1146
1008.633	-1872
1008.707	-1428
1008.781	-806
1008.855	-1007
1008.929	-1911
1009.003	-1205
1009.076	-763
1009.150	-1339
1009.224	-981
1009.298	-460
1009.371	-2391
1009.445	-462
1009.519	-741
1009.592	-1769
1009.666	-728
1009.739	-879
1009.813	-1729
1009.886	-1201
1009.960	-1253
1010.033	-1048
1010.107	-621
1010.180	-1407
1010.253	-682
1010.327	-1297
1010.400	-823
1010.473	-477
1010.547	188
1010.620	-843
1010.693	-1703
1010.766	-1372
1010.840	-1843
1010.913	-1285
1010.986	-1925
1011.059	-1217
1011.132	-1948
1011.205	-636
1011.278	-1263
1011.351	-808
1011.424	-667
1011.497	-1493
1011.570	-1289
1011.643	-1325
1011.716	-1175
1011.789	-1010
1011.862	-1125
1011.934	-754
1012.007	-803
1012.080	-421
1012.153	-1366
1012.225	-534
1012.298	-1741
1012.371	-1204
1012.443	-1161
1012.516	-2196
1012.588	-1220
1012.661	-748
1012.733	-2176
1012.806	-381
1012.879	-1377
1012.951	-1602
1013.023	-1068
1013.096	-814
1013.168	-1826
1013.241	-322
1013.313	-1505
1013.385	-859
1013.458	-989
1013.530	-633
1013.602	-1656
1013.674	332
1013.746	-1727
1013.819	-2399
1013.891	-1337
1013.963	-2112
1014.035	-726
1014.107	-1523
1014.179	-1503
1014.251	-1617
1014.323	-401
1014.395	-1253
1014.467	-1014
1014.539	-1560
1014.611	-1866
1014.683	-1187
1014.754	-1313
1014.826	-1630
1014.898	-1274
1014.970	-1723
1015.042	-1144
1015.113	-940
1015.185	-1698
1015.257	-2461
1015.328	-1139
1015.400	-991
1015.471	-1806
1015.543	-2021
1015.615	-1442
1015.686	-1168
1015.757	-1934
1015.829	-51
1015.901	-1619
1015.972	-1044
1016.043	-1354
1016.115	-1531
1016.186	-1368
1016.257	-1589
1016.328	-2000
1016.400	-510
1016.471	-1342
1016.542	-1760
1016.613	-1421
1016.685	-1270
1016.756	-666
1016.827	-1379
1016.898	-2134
1016.969	-685
1017.040	-1454
1017.111	-1510
1017.182	-1720
1017.253	-1036
1017.324	-1776
1017.395	-1911
1017.466	-1396
1017.537	-1094
1017.608	-1254
1017.678	-1360
1017.749	-2481
1017.820	-697
1017.891	-1218
1017.961	-2102
1018.032	-1494
1018.103	-1130
1018.173	-2122
1018.244	-1388
1018.315	-2413
1018.385	-636
1018.456	-1747
1018.526	-1651
1018.597	-1254
1018.667	-1428
1018.738	-1686
1018.808	-1722
1018.878	-2635
1018.949	-1767
1019.019	-981
1019.089	-2052
1019.160	-1812
1019.230	-2030
1019.300	-1790
1019.371	-2147
1019.441	-2603
1019.511	-1293
1019.581	-1596
1019.651	-1118
1019.721	-1135
1019.791	-2076
1019.861	-2448
1019.931	-1686
1020.001	-2602
1020.071	-1150
1020.141	-1779
1020.211	-1815
1020.281	-1752
1020.351	-2202
1020.421	-826
1020.491	-1473
1020.560	-2264
1020.630	-1755
1020.700	-2018
1020.770	-1601
1020.839	-1385
1020.909	-1659
1020.979	-2136
1021.048	-2227
1021.118	-1118
1021.187	-1889
1021.257	-1645
1021.326	-1622
1021.396	-1831
1021.465	-2159
1021.535	-1091
1021.604	-1910
1021.674	-1104
1021.743	-1347
1021.812	-1997
1021.882	-1735
1021.951	-2546
1022.020	-2015
1022.089	-1605
1022.159	-1995
1022.228	-1562
1022.297	-1595
1022.366	-2181
1022.435	-1251
1022.504	-1932
1022.573	-1534
1022.642	-1956
1022.711	-1967
1022.781	-1959
1022.849	-1674
1022.918	-1577
1022.987	-1616
1023.056	-1558
1023.125	-1517
1023.194	-2426
1023.263	-1916
1023.331	-1514
1023.400	-1589
1023.469	-2302
1023.538	-908
1023.606	-1953
1023.675	-2095
1023.744	-1364
1023.812	-2012
1023.881	-2003
1023.949	-2007
1024.018	-2160
1024.086	-2509
1024.155	-2046
1024.223	-2505
1024.292	-1952
1024.360	-1360
1024.429	-1821
1024.497	-1847
1024.565	-1913
1024.634	-1768
1024.702	-1787
1024.770	-1424
1024.838	-1640
1024.907	-1205
1024.975	-1845
1025.043	-1278
1025.111	-2457
1025.179	-1883
1025.247	-1497
1025.315	-1977
1025.383	-2045
1025.451	-1901
1025.519	-2499
1025.587	-1832
1025.655	-2494
1025.723	-1061
1025.791	-2520
1025.859	-1854
1025.927	-1371
1025.995	-2201
1026.062	-1882
1026.130	-1369
1026.198	-2179
1026.266	-2227
1026.333	-1803
1026.401	-1622
1026.469	-2258
1026.536	-2168
1026.604	-2071
1026.671	-1490
1026.739	-2884
1026.806	-2424
1026.874	-1481
1026.941	-1814
1027.009	-2589
1027.076	-2323
1027.144	-2028
1027.211	-1872
1027.278	-2629
1027.345	-1684
1027.413	-2453
1027.480	-1957
1027.547	-1741
1027.614	-1962
1027.682	-2343
1027.749	-1701
1027.816	-2319
1027.883	-1441
1027.950	-1156
1028.017	-1801
1028.084	-2066
1028.151	-2066
1028.218	-1853
1028.285	-1847
1028.352	-2608
1028.419	-2886
1028.486	-2082
1028.553	-1290
1028.619	-1443
1028.686	-2029
1028.753	-2685
1028.820	-2162
1028.886	-2718
1028.953	-1690
1029.020	-2860
1029.086	-2099
1029.153	-1337
1029.220	-2328
1029.286	-2448
1029.353	-1642
1029.419	-1484
1029.486	-1696
1029.552	-2752
1029.619	-2398
1029.685	-2621
1029.751	-1959
1029.818	-1385
1029.884	-1889
1029.951	-1298
1030.017	-1828
1030.083	-2360
1030.149	-2311
1030.216	-2728
1030.282	-1493
1030.348	-1794
1030.414	-2421
1030.480	-1929
1030.546	-1713
1030.612	-2000
1030.678	-2358
1030.744	-2324
1030.810	-2233
1030.876	-2519
1030.942	-2464
1031.008	-2371
1031.074	-2506
1031.140	-2098
1031.206	-2019
1031.272	-2260
1031.337	-1382
1031.403	-2456
1031.469	-1973
1031.534	-2200
1031.600	-1997
1031.666	-2283
1031.731	-2661
1031.797	-2024
1031.863	-1911
1031.928	-2257
1031.994	-2389
1032.059	-1896
1032.125	-1057
1032.190	-1622
1032.256	-2861
1032.321	-2752
1032.386	-2310
1032.452	-2365
1032.517	-2323
1032.582	-2469
1032.647	-1980
1032.713	-1961
1032.778	-2028
1032.843	-2260
1032.908	-2269
1032.974	-1781
1033.039	-3111
1033.104	-1683
1033.169	-2797
1033.234	-1736
1033.299	-1556
1033.364	-907
1033.429	-2437
1033.494	-2082
1033.559	-1850
1033.624	-2308
1033.688	-1859
1033.753	-2346
1033.818	-1902
1033.883	-1565
1033.948	-1129
1034.013	-1696
1034.077	-831
1034.142	-839
1034.207	-1151
1034.271	-417
1034.336	726
1034.400	-206
1034.465	-1181
1034.530	-965
1034.594	-2098
1034.658	-1592
1034.723	-2173
1034.787	-1845
1034.852	-1913
1034.916	-3071
1034.981	-1839
1035.045	-2660
1035.109	-2099
1035.173	-2587
1035.238	-2240
1035.302	-1989
1035.366	-2287
1035.430	-2771
1035.495	-2292
1035.559	-1659
1035.623	-1487
1035.687	-2659
1035.751	-2527
1035.815	-2554
1035.879	-2354
1035.943	-2232
1036.007	-2280
1036.071	-2232
1036.135	-1516
1036.198	-2126
1036.262	-2395
1036.326	-1781
1036.390	-2378
1036.454	-1826
1036.517	-1654
1036.581	-1199
1036.645	-906
1036.709	-717
1036.772	-1630
1036.836	-2292
1036.900	-2803
1036.963	-2307
1037.026	-2230
1037.090	-2776
1037.154	-2426
1037.217	-2656
1037.280	-2189
1037.344	-2072
1037.407	-2380
1037.471	-2221
1037.534	-2328
1037.597	-2239
1037.661	-1619
1037.724	-2116
1037.787	-2406
1037.850	-3082
1037.913	-1849
1037.977	-2062
1038.040	-2074
1038.103	-2394
1038.166	-1831
1038.229	-2663
1038.292	-3116
1038.355	-1700
1038.418	-2630
1038.481	-1330
1038.544	-2251
1038.607	-1969
1038.670	-1763
1038.732	-2397
1038.795	-2746
1038.858	-1859
1038.921	-2512
1038.984	-2170
1039.046	-2814
1039.109	-2647
1039.172	-2121
1039.234	-2488
1039.297	-2295
1039.360	-2099
1039.422	-1880
1039.485	-2588
1039.547	-2167
1039.610	-2084
1039.672	-2414
1039.734	-2310
1039.797	-2847
1039.859	-2541
1039.922	-2331
1039.984	-1864
1040.046	-3187
1040.109	-2891
1040.171	-2913
1040.233	-2321
1040.295	-2315
1040.358	-2073
1040.420	-2455
1040.482	-3284
1040.544	-2615
1040.606	-2355
1040.668	-1834
1040.730	-1965
1040.792	-1690
1040.854	-2654
1040.916	-2534
1040.978	-2215
1041.040	-1296
1041.102	-1804
1041.164	-2045
1041.225	-2214
1041.287	-2067
1041.349	-2614
1041.411	-2888
1041.472	-2325
1041.534	-1595
1041.596	-3111
1041.657	-1790
1041.719	-2649
1041.781	-2468
1041.842	-2872
1041.904	-2882
1041.965	-2277
1042.027	-2140
1042.088	-2475
1042.150	-2289
1042.211	-3033
1042.272	-2315
1042.334	-2192
1042.395	-2300
1042.456	-2255
1042.518	-2886
1042.579	-1943
1042.640	-1329
1042.701	-1968
1042.763	-1978
1042.824	-2159
1042.885	-2329
1042.946	-2780
1043.007	-2285
1043.068	-1905
1043.129	-2933
1043.190	-2777
1043.251	-2529
1043.312	-2780
1043.373	-1630
1043.434	-2418
1043.495	-2490
1043.556	-2322
1043.616	-2280
1043.677	-1904
1043.738	-3113
1043.799	-3297
1043.859	-1938
1043.920	-2402
1043.981	-2476
1044.041	-2027
1044.102	-3013
1044.162	-2173
1044.223	-2305
1044.284	-2233
1044.344	-1922
1044.405	-2621
1044.465	-1935
1044.525	-2283
1044.586	-2342
1044.646	-2378
1044.707	-1515
1044.767	-2222
1044.827	-2066
1044.887	-2455
1044.948	-3096
1045.008	-2131
1045.068	-1427
1045.128	-1862
1045.188	-2074
1045.249	-1982
1045.309	-2369
1045.369	-1972
1045.429	-1799
1045.489	-2048
1045.549	-2100
1045.609	-2533
1045.669	-2409
1045.729	-1855
1045.789	-2126
1045.848	-2032
1045.908	-1869
1045.968	-2302
1046.028	-2332
1046.088	-1785
1046.147	-1052
1046.207	-1861
1046.267	-1758
1046.326	-1532
1046.386	-1564
1046.446	-1409
1046.505	-1061
1046.565	-1766
1046.624	-1091
1046.684	-1309
1046.743	-1231
1046.803	-1136
1046.862	-808
1046.922	0
