'Start Wavelength	183.907
'End Wavelength	1046.922
'Gate Delay	5.000
'Gate Width (ms)	1.050
'Laser Output Level	0.000
'X Position	0.000
'Y Position	0.000
'Z Position	0.000
'Grid Point Number	1.000
'Shot Number	100.000
183.907	-62.000
183.977	-213.000
184.047	168
184.116	765
184.186	-60
184.256	-6
184.325	-2
184.395	-1400
184.465	525
184.534	305
184.604	-587
184.674	416
184.743	-159
184.813	858
184.883	460
184.952	323
185.022	380
185.092	250
185.161	-300
185.231	709
185.301	-35
185.370	1138
185.440	-859
185.509	-649
185.579	251
185.649	-252
185.718	291
185.788	563
185.857	-109
185.927	223
185.996	63
186.066	364
186.136	-313
186.205	-680
186.275	-84
186.344	512
186.414	-672
186.483	-39
186.553	1322
186.622	1235
186.692	-125
186.761	18
186.831	511
186.900	881
186.970	822
187.039	901
187.109	1049
187.178	-158
187.248	366
187.317	-263
187.387	-457
187.456	651
187.526	914
187.595	420
187.664	264
187.734	522
187.803	628
187.873	402
187.942	982
188.012	768
188.081	-136
188.150	398
188.220	910
188.289	1721
188.358	182
188.428	391
188.497	328
188.567	1679
188.636	472
188.705	-73
188.775	441
188.844	-175
188.913	1157
188.983	384
189.052	201
189.121	434
189.191	-243
189.260	443
189.329	332
189.399	1217
189.468	-106
189.537	31
189.606	1278
189.676	579
189.745	792
189.814	1346
189.883	-294
189.953	664
190.022	527
190.091	2194
190.161	3233
190.230	1494
190.299	266
190.368	-92
190.437	234
190.507	-70
190.576	-194
190.645	80
190.714	513
190.783	727
190.853	48
190.922	1091
190.991	-305
191.060	546
191.129	-461
191.198	622
191.268	653
191.337	383
191.406	341
191.475	621
191.544	161
191.613	379
191.682	457
191.752	278
191.821	-48
191.890	270
191.959	-54
192.028	457
192.097	836
192.166	663
192.235	-3
192.304	118
192.373	-460
192.442	705
192.511	-62
192.580	647
192.650	794
192.719	-182
192.788	1293
192.857	185
192.926	357
192.995	477
193.064	574
193.133	583
193.202	1286
193.271	1092
193.340	957
193.409	896
193.478	1056
193.547	958
193.615	1224
193.684	1792
193.753	412
193.822	1077
193.891	309
193.960	361
194.029	142
194.098	180
194.167	585
194.236	1473
194.305	-68
194.374	572
194.443	-107
194.512	1525
194.580	581
194.649	1139
194.718	1111
194.787	159
194.856	-1200
194.925	871
194.994	880
195.062	22
195.131	358
195.200	913
195.269	1072
195.338	868
195.407	487
195.475	-236
195.544	677
195.613	260
195.682	456
195.751	1538
195.819	320
195.888	216
195.957	1356
196.026	926
196.094	541
196.163	1631
196.232	784
196.301	1063
196.369	1173
196.438	851
196.507	417
196.576	459
196.644	705
196.713	64
196.782	128
196.850	1365
196.919	656
196.988	1223
197.056	-85
197.125	884
197.194	1054
197.262	404
197.331	228
197.400	479
197.468	388
197.537	419
197.606	99
197.674	1208
197.743	2008
197.812	875
197.880	2074
197.949	1668
198.017	1790
198.086	1529
198.155	84
198.223	804
198.292	2991
198.360	841
198.429	1080
198.497	636
198.566	1684
198.635	3695
198.703	1363
198.772	934
198.840	2972
198.909	3060
198.977	980
199.046	576
199.114	946
199.183	751
199.251	467
199.320	573
199.388	524
199.457	-207
199.525	831
199.594	120
199.662	508
199.731	-267
199.799	668
199.867	880
199.936	122
200.004	806
200.073	799
200.141	702
200.210	417
200.278	1345
200.346	1045
200.415	500
200.483	948
200.552	1467
200.620	498
200.688	580
200.757	989
200.825	118
200.893	589
200.962	531
201.030	392
201.098	1209
201.167	211
201.235	503
201.303	926
201.372	419
201.440	623
201.508	1113
201.577	1155
201.645	657
201.713	471
201.781	829
201.850	1091
201.918	1134
201.986	483
202.055	1773
202.123	416
202.191	831
202.259	146
202.327	857
202.396	569
202.464	717
202.532	1134
202.600	4957
202.669	2380
202.737	990
202.805	-179
202.873	395
202.941	528
203.009	658
203.078	496
203.146	585
203.214	708
203.282	-159
203.350	940
203.418	612
203.487	828
203.555	1199
203.623	1146
203.691	663
203.759	703
203.827	420
203.895	1232
203.963	1294
204.031	967
204.099	1015
204.168	153
204.236	1389
204.304	1628
204.372	1582
204.440	214
204.508	402
204.576	291
204.644	428
204.712	266
204.780	564
204.848	355
204.916	1045
204.984	703
205.052	202
205.120	-102
205.188	1106
205.256	806
205.324	749
205.392	829
205.460	1104
205.528	671
205.596	1178
205.664	-171
205.732	1243
205.799	3313
205.867	5160
205.935	1587
206.003	1729
206.071	797
206.139	1431
206.207	1306
206.275	392
206.343	583
206.411	888
206.478	235
206.546	946
206.614	1311
206.682	814
206.750	470
206.818	1170
206.885	2101
206.953	119
207.021	996
207.089	780
207.157	-189
207.225	1137
207.292	615
207.360	552
207.428	586
207.496	1073
207.563	1197
207.631	767
207.699	151
207.767	1372
207.834	910
207.902	1445
207.970	619
208.038	1324
208.105	893
208.173	856
208.241	1242
208.309	1322
208.376	1173
208.444	2678
208.512	1486
208.579	-252
208.647	2214
208.715	2040
208.782	295
208.850	778
208.918	-65
208.985	839
209.053	1153
209.120	1530
209.188	1114
209.256	1058
209.323	527
209.391	1457
209.459	2597
209.526	1211
209.594	750
209.661	1166
209.729	550
209.796	1716
209.864	1681
209.932	-155
209.999	1822
210.067	1488
210.134	676
210.202	1059
210.269	2199
210.337	2441
210.404	1703
210.472	1177
210.539	1219
210.607	1984
210.674	1209
210.742	1570
210.809	883
210.877	1888
210.944	2343
211.012	1061
211.079	3035
211.146	746
211.214	1135
211.281	2069
211.349	2117
211.416	1520
211.484	1442
211.551	902
211.618	1341
211.686	1252
211.753	-125
211.821	1520
211.888	1776
211.955	1201
212.023	1756
212.090	1966
212.157	1358
212.225	1936
212.292	3171
212.359	6338
212.427	15179
212.494	7675
212.561	3279
212.629	2910
212.696	1828
212.763	2843
212.831	1209
212.898	2688
212.965	1341
213.032	1686
213.100	1079
213.167	1203
213.234	2399
213.301	1646
213.369	874
213.436	1243
213.503	1636
213.570	2023
213.638	1591
213.705	1629
213.772	363
213.839	1441
213.906	2377
213.973	1621
214.041	989
214.108	2192
214.175	1215
214.242	963
214.309	1229
214.376	1553
214.444	1722
214.511	2050
214.578	1401
214.645	1577
214.712	1671
214.779	1416
214.846	685
214.913	2291
214.980	2392
215.048	2992
215.115	2824
215.182	2190
215.249	1614
215.316	1459
215.383	1398
215.450	1509
215.517	1248
215.584	1570
215.651	1582
215.718	1615
215.785	2041
215.852	1651
215.919	1813
215.986	1616
216.053	1422
216.120	52
216.187	2113
216.254	2044
216.321	1496
216.388	1785
216.455	1944
216.522	2136
216.589	2051
216.656	3315
216.722	3890
216.789	2668
216.856	2550
216.923	2868
216.990	2245
217.057	2423
217.124	3393
217.191	2360
217.258	2853
217.324	4158
217.391	4510
217.458	3908
217.525	1575
217.592	1862
217.659	721
217.725	3341
217.792	2750
217.859	3273
217.926	704
217.993	2047
218.059	1876
218.126	2348
218.193	1534
218.260	318
218.327	837
218.393	1197
218.460	697
218.527	958
218.594	1605
218.660	3150
218.727	3946
218.794	1054
218.860	1810
218.927	1260
218.994	1137
219.061	971
219.127	1647
219.194	2743
219.261	2302
219.327	979
219.394	1951
219.461	20
219.527	1739
219.594	3105
219.661	1671
219.727	1123
219.794	1737
219.860	964
219.927	1643
219.994	2764
220.060	4876
220.127	4542
220.193	2800
220.260	2218
220.326	2716
220.393	4391
220.460	6289
220.526	4516
220.593	2765
220.659	3517
220.726	2981
220.792	7367
220.859	6158
220.925	7109
220.992	10518
221.058	11603
221.125	12417
221.191	9337
221.258	3522
221.324	3658
221.391	1940
221.457	1032
221.524	2216
221.590	3184
221.657	9268
221.723	7303
221.789	6188
221.856	7058
221.922	2729
221.989	2013
222.055	2348
222.121	841
222.188	3479
222.254	1745
222.321	1739
222.387	1085
222.453	653
222.520	1044
222.586	672
222.652	1102
222.719	1021
222.785	1758
222.851	1431
222.918	1801
222.984	1676
223.050	891
223.116	-92
223.183	1570
223.249	894
223.315	1497
223.382	1554
223.448	1242
223.514	586
223.580	881
223.647	-6
223.713	632
223.779	1522
223.845	889
223.911	1718
223.978	1306
224.044	1491
224.110	1054
224.176	1191
224.242	1751
224.309	369
224.375	1441
224.441	1716
224.507	1423
224.573	491
224.639	1593
224.705	263
224.772	1060
224.838	1220
224.904	1717
224.970	1113
225.036	1148
225.102	28
225.168	2287
225.234	1539
225.300	1416
225.366	1520
225.432	2045
225.499	1392
225.565	1295
225.631	997
225.697	1695
225.763	2769
225.829	1873
225.895	2009
225.961	4123
226.027	3316
226.093	3054
226.159	3560
226.225	3996
226.291	8301
226.357	16971
226.423	8529
226.489	4929
226.554	3459
226.620	2697
226.686	3417
226.752	4699
226.818	7781
226.884	20301
226.950	19636
227.016	7630
227.082	4398
227.148	3210
227.214	3584
227.279	2837
227.345	2614
227.411	1721
227.477	2143
227.543	7304
227.609	8057
227.674	3951
227.740	2645
227.806	3092
227.872	1647
227.938	1669
228.003	2946
228.069	1475
228.135	910
228.201	1837
228.267	1550
228.332	1849
228.398	2777
228.464	2490
228.530	1221
228.595	1803
228.661	1036
228.727	2858
228.792	3200
228.858	1358
228.924	762
228.990	3073
229.055	934
229.121	2725
229.187	1679
229.252	1688
229.318	476
229.384	2065
229.449	2592
229.515	-279
229.581	-507
229.646	2414
229.712	1347
229.777	3808
229.843	4716
229.909	3397
229.974	3380
230.040	3239
230.105	2240
230.171	3480
230.236	3875
230.302	5905
230.368	4386
230.433	2008
230.499	2232
230.564	3754
230.630	660
230.695	1917
230.761	2955
230.826	753
230.892	3726
230.957	1586
231.023	1600
231.088	2275
231.154	816
231.219	2288
231.284	1890
231.350	2993
231.415	1378
231.481	2598
231.546	1339
231.612	1271
231.677	1662
231.742	1336
231.808	3006
231.873	1566
231.939	233
232.004	4005
232.069	4476
232.135	2470
232.200	1111
232.265	1802
232.331	731
232.396	586
232.461	1237
232.527	754
232.592	778
232.657	1755
232.723	3215
232.788	3934
232.853	2184
232.918	1401
232.984	1294
233.049	1724
233.114	3204
233.179	3652
233.245	5729
233.310	8491
233.375	1593
233.440	2302
233.506	894
233.571	1830
233.636	1018
233.701	2319
233.766	3063
233.832	6280
233.897	1897
233.962	1524
234.027	3528
234.092	3183
234.157	1937
234.222	1913
234.288	3501
234.353	13467
234.418	12094
234.483	6633
234.548	4079
234.613	3319
234.678	3227
234.743	4578
234.808	14039
234.873	9482
234.938	5073
235.004	3624
235.069	2698
235.134	2612
235.199	1929
235.264	2369
235.329	652
235.394	2716
235.459	3622
235.524	2581
235.589	2967
235.654	2280
235.719	1256
235.784	2797
235.849	3677
235.913	7771
235.978	7904
236.043	10320
236.108	3160
236.173	3138
236.238	4372
236.303	2122
236.368	2023
236.433	5242
236.498	8900
236.563	4732
236.627	7353
236.692	25800
236.757	23668
236.822	9298
236.887	7665
236.952	6312
237.017	4207
237.081	5859
237.146	6151
237.211	10803
237.276	24761
237.341	48052
237.405	25533
237.470	9690
237.535	8297
237.600	5507
237.664	4690
237.729	2479
237.794	3697
237.859	8395
237.923	6604
237.988	4536
238.053	6659
238.118	7201
238.182	17644
238.247	19068
238.312	8487
238.376	6155
238.441	3899
238.506	6057
238.570	1419
238.635	3875
238.700	2346
238.764	3012
238.829	7076
238.893	10192
238.958	5021
239.023	3327
239.087	2764
239.152	4543
239.216	3106
239.281	3252
239.346	2521
239.410	2762
239.475	3134
239.539	16092
239.604	15878
239.668	5550
239.733	3434
239.797	5468
239.862	13225
239.926	17637
239.991	8330
240.055	3953
240.120	2379
240.184	4034
240.249	2051
240.313	3117
240.378	2663
240.442	9618
240.507	18760
240.571	5795
240.635	7759
240.700	11569
240.764	3830
240.829	3765
240.893	1580
240.957	2760
241.022	8612
241.086	18623
241.151	7788
241.215	2489
241.279	5793
241.344	9422
241.408	5352
241.472	3455
241.537	4104
241.601	3097
241.665	2398
241.730	2579
241.794	4655
241.858	2740
241.922	3513
241.987	3401
242.051	2219
242.115	1394
242.179	2829
242.244	1981
242.308	3527
242.372	3249
242.436	2577
242.501	3298
242.565	2564
242.629	1806
242.693	2972
242.757	2029
242.822	2731
242.886	3267
242.950	4396
243.014	2484
243.078	3281
243.142	4020
243.206	2358
243.271	3687
243.335	3280
243.399	5655
243.463	14655
243.527	49856
243.591	17430
243.655	6865
243.719	3139
243.783	5573
243.847	6648
243.911	8986
243.975	9375
244.040	6348
244.104	5358
244.168	3456
244.232	4517
244.296	7136
244.360	7945
244.424	4732
244.488	4936
244.552	4273
244.615	2200
244.679	3073
244.743	3352
244.807	3102
244.871	2694
244.935	3063
244.999	805
245.063	2293
245.127	3317
245.191	5290
245.255	5603
245.319	4368
245.383	3584
245.446	4981
245.510	1898
245.574	2322
245.638	3165
245.702	2059
245.766	8309
245.829	6756
245.893	3702
245.957	2211
246.021	4332
246.085	3222
246.149	5129
246.212	10555
246.276	16635
246.340	7746
246.404	5543
246.467	5954
246.531	7570
246.595	5828
246.659	5492
246.722	4214
246.786	5586
246.850	5501
246.913	7598
246.977	2803
247.041	3804
247.104	3702
247.168	3737
247.232	9356
247.295	20757
247.359	11725
247.423	4890
247.486	9657
247.550	6910
247.614	5140
247.677	6701
247.741	4922
247.804	3796
247.868	5144
247.932	7680
247.995	20208
248.059	8062
248.122	3625
248.186	6790
248.249	9666
248.313	29950
248.376	36264
248.440	22313
248.503	8415
248.567	8632
248.630	9471
248.694	12599
248.757	15749
248.821	35170
248.884	22389
248.948	17915
249.011	26735
249.075	40700
249.138	37111
249.202	14170
249.265	9732
249.328	14488
249.392	9423
249.455	7572
249.519	6316
249.582	7926
249.645	11277
249.709	8553
249.772	6681
249.835	6421
249.899	8232
249.962	7062
250.025	6251
250.089	12622
250.152	19166
250.215	10203
250.279	7783
250.342	8048
250.405	8300
250.468	6919
250.532	8481
250.595	13711
250.658	41585
250.721	81771
250.785	28100
250.848	16152
250.911	10451
250.974	9731
251.038	10480
251.101	22783
251.164	13876
251.227	13752
251.290	12512
251.354	16301
251.417	60159
251.480	70232
251.543	40117
251.606	114996
251.669	95594
251.732	34548
251.795	32104
251.859	33606
251.922	74164
251.985	48209
252.048	18653
252.111	14034
252.174	11786
252.237	20019
252.300	43497
252.363	44233
252.426	97925
252.489	44926
252.552	22900
252.615	15556
252.678	16354
252.741	31645
252.804	41646
252.867	98284
252.930	60325
252.993	32551
253.056	19409
253.119	13631
253.182	10903
253.245	18518
253.308	14921
253.371	12313
253.434	12202
253.497	11160
253.559	21162
253.622	15912
253.685	16738
253.748	17669
253.811	9813
253.874	12759
253.937	12118
254.000	8539
254.062	13713
254.125	22759
254.188	17975
254.251	16780
254.314	8135
254.376	13837
254.439	15872
254.502	14502
254.565	13211
254.628	24575
254.690	14363
254.753	9232
254.816	7665
254.878	8607
254.941	14304
255.004	17500
255.067	8541
255.129	7147
255.192	5584
255.255	3791
255.317	5370
255.380	3800
255.443	3377
255.505	4197
255.568	2679
255.631	3191
255.693	4977
255.756	2388
255.819	4271
255.881	3083
255.944	3001
256.006	2689
256.069	3828
256.132	3379
256.194	5337
256.257	15166
256.319	11907
256.382	10465
256.444	6617
256.507	4353
256.569	3857
256.632	4404
256.694	7090
256.757	13924
256.819	41799
256.882	17773
256.944	7734
257.007	7100
257.069	6747
257.132	5217
257.194	5053
257.257	3964
257.319	4108
257.381	4400
257.444	11122
257.506	45550
257.569	56365
257.631	34644
257.693	18109
257.756	9534
257.818	8856
257.880	5260
257.943	4533
258.005	3695
258.067	4316
258.130	4147
258.192	4310
258.254	10311
258.317	7055
258.379	5497
258.441	12619
258.503	13487
258.566	17292
258.628	28207
258.690	6810
258.753	5593
258.815	9797
258.877	5958
258.939	4302
259.001	4924
259.064	4216
259.126	4811
259.188	8795
259.250	5895
259.312	7100
259.375	18577
259.437	12945
259.499	5850
259.561	4998
259.623	5301
259.685	4111
259.747	4953
259.809	15827
259.872	36300
259.934	45022
259.996	45054
260.058	12176
260.120	6045
260.182	4619
260.244	4002
260.306	4032
260.368	3817
260.430	4555
260.492	6949
260.554	15962
260.616	15525
260.678	21188
260.740	37444
260.802	10209
260.864	7128
260.926	4514
260.988	6366
261.050	4498
261.112	8847
261.174	29539
261.236	31001
261.298	8302
261.359	13919
261.421	23673
261.483	7273
261.545	5626
261.607	3188
261.669	4934
261.731	8000
261.793	23244
261.854	8689
261.916	6576
261.978	5098
262.040	5586
262.102	5120
262.164	8657
262.225	8468
262.287	4577
262.349	9189
262.411	9843
262.472	5133
262.534	8316
262.596	23733
262.658	8414
262.719	4276
262.781	6367
262.843	19919
262.904	11948
262.966	6897
263.028	8154
263.090	31088
263.151	90819
263.213	31327
263.275	13687
263.336	7294
263.398	5798
263.459	4334
263.521	4510
263.583	9536
263.644	7078
263.706	3426
263.767	3348
263.829	3042
263.891	2732
263.952	2268
264.014	2028
264.075	3432
264.137	8855
264.198	5327
264.260	2849
264.321	3058
264.383	6266
264.444	14402
264.506	5181
264.567	4237
264.629	5460
264.690	10387
264.752	5426
264.813	2955
264.875	3135
264.936	3000
264.998	3305
265.059	2632
265.120	2819
265.182	4154
265.243	18701
265.305	22414
265.366	5949
265.427	3186
265.489	3706
265.550	1537
265.611	3106
265.673	2723
265.734	2350
265.795	2441
265.857	1544
265.918	2353
265.979	5953
266.040	31514
266.102	30064
266.163	7633
266.224	5889
266.286	4776
266.347	3185
266.408	3095
266.469	4406
266.530	2881
266.592	3352
266.653	6045
266.714	10096
266.775	3855
266.836	3099
266.898	1878
266.959	3893
267.020	3723
267.081	3874
267.142	2647
267.203	3180
267.264	2433
267.326	3949
267.387	2378
267.448	2112
267.509	3188
267.570	2858
267.631	2634
267.692	1889
267.753	4922
267.814	2519
267.875	5610
267.936	13482
267.997	5613
268.058	3970
268.119	2985
268.180	2429
268.241	2428
268.302	2389
268.363	2162
268.424	2363
268.485	3340
268.546	2644
268.607	875
268.668	1689
268.729	2020
268.790	2926
268.851	2747
268.912	7601
268.972	9410
269.033	5162
269.094	1840
269.155	2914
269.216	2351
269.277	3247
269.338	2466
269.398	2703
269.459	3067
269.520	3911
269.581	5358
269.642	6653
269.702	4033
269.763	3676
269.824	2841
269.885	4017
269.945	6576
270.006	3474
270.067	2344
270.128	2190
270.188	2538
270.249	2546
270.310	2330
270.370	3362
270.431	2089
270.492	3051
270.553	2425
270.613	6350
270.674	12684
270.734	6285
270.795	3160
270.856	5260
270.916	3587
270.977	3057
271.038	3520
271.098	4037
271.159	5304
271.219	7569
271.280	3534
271.340	3298
271.401	3641
271.462	11583
271.522	7222
271.583	4007
271.643	3282
271.704	3411
271.764	5065
271.825	9338
271.885	28999
271.946	46550
272.006	15597
272.066	16471
272.127	36194
272.187	13589
272.248	7222
272.308	6612
272.369	24276
272.429	17125
272.489	9833
272.550	10830
272.610	9899
272.671	10267
272.731	7778
272.791	15980
272.852	8300
272.912	6983
272.972	4541
273.033	5204
273.093	7744
273.153	7815
273.214	5626
273.274	6610
273.334	15851
273.394	39337
273.455	16694
273.515	13831
273.575	33091
273.635	16401
273.696	19037
273.756	38620
273.816	18347
273.876	11219
273.936	19904
273.997	43445
274.057	12464
274.117	8722
274.177	11165
274.237	39366
274.297	43369
274.358	30903
274.418	30893
274.478	24959
274.538	11102
274.598	9991
274.658	31130
274.718	46142
274.778	19042
274.838	10011
274.898	17426
274.958	61536
275.018	44492
275.078	28864
275.138	12694
275.198	8239
275.258	5724
275.318	7315
275.378	12217
275.438	11883
275.498	10504
275.558	22621
275.618	54963
275.678	34225
275.738	16891
275.798	13431
275.858	7461
275.918	5057
275.978	6041
276.038	5559
276.098	5021
276.157	8860
276.217	25802
276.277	14103
276.337	9659
276.397	6037
276.457	6682
276.517	6020
276.576	4966
276.636	5202
276.696	8788
276.756	16074
276.815	14851
276.875	7233
276.935	7436
276.995	8070
277.055	5416
277.114	5443
277.174	6938
277.234	21139
277.293	12582
277.353	6713
277.413	6722
277.472	6090
277.532	6805
277.592	8887
277.651	23371
277.711	57100
277.771	19965
277.830	50774
277.890	55241
277.950	31157
278.009	95426
278.069	45177
278.128	34331
278.188	59736
278.248	24954
278.307	54960
278.367	43041
278.426	14256
278.486	10146
278.545	7620
278.605	8121
278.664	7342
278.724	8555
278.783	16251
278.843	45274
278.902	18120
278.962	10841
279.021	13334
279.081	23152
279.140	26704
279.199	13697
279.259	13269
279.318	15360
279.378	20599
279.437	34646
279.496	101275
279.556	291785
279.615	295106
279.675	91325
279.734	48889
279.793	59922
279.853	95040
279.912	40261
279.971	22655
280.031	19877
280.090	28369
280.149	55316
280.208	53358
280.268	191710
280.327	256423
280.386	72116
280.445	40078
280.505	34205
280.564	19268
280.623	14946
280.682	17063
280.742	26827
280.801	11638
280.860	9330
280.919	8817
280.978	7440
281.037	7877
281.097	6932
281.156	8380
281.215	7374
281.274	8714
281.333	27157
281.392	27831
281.451	9795
281.510	6978
281.569	6661
281.628	5804
281.688	6094
281.747	6867
281.806	7264
281.865	5859
281.924	4996
281.983	4821
282.042	4223
282.101	4327
282.160	4047
282.219	4559
282.278	5676
282.337	14914
282.396	12557
282.454	5789
282.513	7269
282.572	21419
282.631	17543
282.690	6424
282.749	5863
282.808	6660
282.867	6584
282.926	6664
282.985	4552
283.043	4745
283.102	4568
283.161	7180
283.220	11109
283.279	29668
283.338	12072
283.396	6976
283.455	7112
283.514	7267
283.573	13675
283.631	12840
283.690	7170
283.749	6614
283.808	10625
283.866	14695
283.925	7284
283.984	7328
284.043	8968
284.101	10560
284.160	8084
284.219	10004
284.277	10684
284.336	14408
284.395	34354
284.453	36223
284.512	14502
284.570	16199
284.629	17112
284.688	16210
284.746	18924
284.805	21602
284.863	28111
284.922	35079
284.981	40461
285.039	57668
285.098	91957
285.156	195256
285.215	344872
285.273	347018
285.332	252467
285.390	133131
285.449	82484
285.507	56055
285.566	42662
285.624	33925
285.683	25450
285.741	20626
285.799	17624
285.858	15814
285.916	15135
285.975	12309
286.033	9775
286.091	10129
286.150	9091
286.208	8708
286.267	10429
286.325	9604
286.383	11212
286.442	11744
286.500	7438
286.558	8728
286.616	7121
286.675	9446
286.733	9478
286.791	8953
286.850	7203
286.908	10106
286.966	15141
287.024	9009
287.083	6897
287.141	5463
287.199	6179
287.257	8486
287.315	7857
287.374	7921
287.432	14352
287.490	13156
287.548	7962
287.606	7478
287.664	7556
287.723	8370
287.781	11508
287.839	8507
287.897	8605
287.955	11553
288.013	18122
288.071	38141
288.129	115489
288.187	354135
288.245	204198
288.303	63725
288.361	34507
288.419	23803
288.477	18412
288.535	14132
288.593	11142
288.651	8517
288.709	6632
288.767	7200
288.825	6393
288.883	5639
288.941	6814
288.999	6733
289.057	4190
289.115	4748
289.173	6115
289.231	6140
289.289	6537
289.346	6329
289.404	7232
289.462	8944
289.520	9365
289.578	6161
289.636	4358
289.694	4862
289.751	3525
289.809	4178
289.867	3947
289.925	6134
289.983	6212
290.040	4593
290.098	3578
290.156	4100
290.214	5620
290.271	4681
290.329	3623
290.387	2815
290.444	2902
290.502	3123
290.560	3341
290.617	4479
290.675	4756
290.733	4208
290.790	4758
290.848	4270
290.906	4712
290.963	5822
291.021	5310
291.078	4607
291.136	5959
291.194	11068
291.251	27924
291.309	11307
291.366	4548
291.424	3995
291.481	5093
291.539	4920
291.596	6799
291.654	4358
291.711	3727
291.769	4833
291.826	8458
291.884	7422
291.941	4651
291.999	3958
292.056	4407
292.114	5533
292.171	3872
292.228	4687
292.286	5858
292.343	9428
292.401	14655
292.458	11419
292.515	6863
292.573	7383
292.630	7800
292.687	7148
292.745	6170
292.802	7077
292.859	15648
292.917	33912
292.974	25433
293.031	10207
293.089	6284
293.146	5108
293.203	4604
293.260	5409
293.318	7293
293.375	8715
293.432	5478
293.489	4755
293.546	5221
293.604	9441
293.661	24060
293.718	61080
293.775	35799
293.832	16383
293.889	14541
293.947	16600
294.004	13087
294.061	9672
294.118	14694
294.175	30071
294.232	33644
294.289	17590
294.346	9356
294.403	7730
294.460	8245
294.517	7168
294.574	5741
294.631	5956
294.688	7879
294.745	15319
294.802	52798
294.859	61590
294.916	29345
294.973	20096
295.030	13586
295.087	10610
295.144	7397
295.201	7272
295.258	6724
295.315	8778
295.372	20156
295.429	48875
295.486	25670
295.542	12883
295.599	18459
295.656	34483
295.713	26637
295.770	44729
295.827	22955
295.883	9736
295.940	7711
295.997	12697
296.054	14744
296.111	7656
296.167	6848
296.224	4183
296.281	4414
296.338	5052
296.394	4487
296.451	7349
296.508	16798
296.564	38758
296.621	26824
296.678	40930
296.734	74830
296.791	33702
296.848	15946
296.904	14286
296.961	27874
297.018	49147
297.074	46550
297.131	20808
297.187	14320
297.244	17961
297.301	43676
297.357	98590
297.414	45275
297.470	16656
297.527	10704
297.583	9283
297.640	8972
297.696	7884
297.753	5786
297.809	5452
297.866	4441
297.922	4677
297.979	5066
298.035	6985
298.092	10712
298.148	28167
298.204	34410
298.261	18018
298.317	20972
298.374	55587
298.430	45379
298.486	21676
298.543	18238
298.599	18635
298.656	25400
298.712	29249
298.768	51510
298.824	50793
298.881	21090
298.937	11721
298.993	8879
299.050	10345
299.106	9565
299.162	7716
299.218	9532
299.275	8419
299.331	9199
299.387	16602
299.443	48605
299.500	70623
299.556	36661
299.612	17422
299.668	15271
299.724	20039
299.780	24289
299.837	15345
299.893	17856
299.949	45160
300.005	70355
300.061	50836
300.117	83791
300.173	54910
300.229	23590
300.285	22430
300.341	25366
300.397	17444
300.453	11091
300.510	10675
300.566	12063
300.622	15361
300.678	32852
300.734	65735
300.790	55235
300.845	65660
300.901	46900
300.957	54487
301.013	47839
301.069	21911
301.125	13663
301.181	13840
301.237	12060
301.293	9901
301.349	8927
301.405	11020
301.461	12720
301.516	23070
301.572	19434
301.628	18609
301.684	18563
301.740	23934
301.796	47709
301.851	34045
301.907	39615
301.963	45781
302.019	57450
302.074	150211
302.130	178699
302.186	103455
302.242	43465
302.297	25130
302.353	20632
302.409	35954
302.464	42127
302.520	32237
302.576	53677
302.631	75203
302.687	46139
302.743	21076
302.798	12112
302.854	9674
302.910	10091
302.965	11679
303.021	20806
303.076	23727
303.132	22983
303.187	28639
303.243	18917
303.299	9733
303.354	7238
303.410	7250
303.465	7590
303.521	7620
303.576	7063
303.632	10158
303.687	16683
303.743	49528
303.798	55021
303.853	24677
303.909	12396
303.964	10274
304.020	13531
304.075	21794
304.130	20787
304.186	30002
304.241	34920
304.297	28461
304.352	17320
304.358	16657
304.407	11285
304.449	9843
304.463	9366
304.518	9827
304.539	9801
304.573	9758
304.629	10840
304.630	10921
304.684	15060
304.720	26752
304.739	32593
304.794	62967
304.811	55248
304.850	36951
304.902	17179
304.905	15894
304.960	10130
304.992	9698
305.015	9403
305.071	10236
305.083	9944
305.126	8814
305.173	7323
305.181	7120
305.236	5826
305.264	6317
305.292	6698
305.347	7748
305.354	8198
305.402	11133
305.445	11681
305.457	11806
305.512	12510
305.535	12451
305.567	12449
305.622	13126
305.626	13448
305.678	20391
305.716	38849
305.733	45814
305.788	67692
305.807	59352
305.843	44642
305.897	45853
305.898	45811
305.953	56437
305.988	39789
306.008	30512
306.063	17742
306.078	16111
306.118	12215
306.168	9138
306.173	8852
306.228	6860
306.259	6170
306.283	5802
306.338	5713
306.349	5874
306.393	6284
306.440	6968
306.448	7123
306.503	8345
306.530	8969
306.558	10515
306.613	20292
306.620	22159
306.668	33934
306.711	44817
306.723	46627
306.778	44663
306.801	35274
306.833	23897
306.888	11712
306.892	11398
306.943	8089
306.982	6382
306.997	5835
307.052	6652
307.072	6630
307.107	6898
307.162	8149
307.163	8193
307.217	12375
307.253	15285
307.272	16089
307.327	18348
307.343	17350
307.381	15309
307.434	13332
307.436	13455
307.491	21568
307.524	32128
307.546	36109
307.600	42694
307.614	38736
307.655	26289
307.704	14359
307.710	13486
307.765	12680
307.795	14967
307.819	17075
307.874	27915
307.885	28294
307.929	25350
307.975	18699
307.984	18164
308.038	19119
308.065	23562
308.093	36588
308.148	72609
308.156	83197
308.202	137836
308.246	188282
308.257	192435
308.312	114745
308.336	84128
308.366	59119
308.421	39138
308.426	37526
308.475	24314
308.517	17385
308.530	15655
308.585	13525
308.607	13230
308.639	13414
308.694	14359
308.697	14577
308.748	23326
308.787	34654
308.803	35444
308.857	30788
308.877	26118
308.912	20827
308.967	18242
308.967	18293
309.021	22572
309.058	29152
309.076	34839
309.130	58965
309.148	69649
309.185	118937
309.238	204389
309.239	204766
309.293	259474
309.328	245111
309.348	222028
309.402	115412
309.418	90876
309.457	59884
309.508	38763
309.511	37813
309.566	36124
309.598	38398
309.620	44070
309.674	67314
309.688	74563
309.729	76565
309.778	63011
309.783	61607
309.837	42018
309.868	33457
309.892	32719
309.946	37086
309.959	40363
310.001	49022
310.049	57834
310.055	56677
310.109	38978
310.139	26796
310.163	20836
310.218	13140
310.229	12211
310.272	10080
310.319	9075
310.326	8784
310.381	6895
310.409	6281
310.435	6097
310.489	6104
310.499	6123
310.543	5832
310.589	5829
310.598	5796
310.652	5918
310.679	5772
310.706	5074
310.760	3774
310.769	3602
310.814	3586
310.859	3852
310.868	3858
310.923	3778
310.948	3925
310.977	4383
311.031	5177
311.038	5356
311.085	4853
311.128	3801
311.139	3761
311.193	3899
311.218	3973
311.247	3809
311.301	3638
311.308	3617
311.356	3442
311.398	3447
311.410	3397
311.464	3223
311.488	3110
311.518	3078
311.572	3131
311.578	3158
311.626	3907
311.668	4609
311.680	4705
311.734	5146
311.758	5348
311.788	5432
311.842	5640
311.847	5678
311.896	6142
311.937	6652
311.950	6370
312.004	5216
312.027	4728
312.058	4125
312.112	3112
312.117	3040
312.165	3167
312.207	3335
312.297	3577
312.386	3365
312.476	3968
312.566	7843
312.656	3776
312.745	2483
312.835	4236
312.925	3096
313.015	3176
313.104	3495
313.194	3778
313.284	3371
313.374	4460
313.463	3541
313.553	3193
313.643	2220
313.732	2972
313.822	1575
313.912	3578
314.001	3506
314.091	3256
314.180	4800
314.270	5713
314.360	5185
314.449	5079
314.539	2833
314.628	3223
314.718	3034
314.808	5025
314.897	3355
314.987	3587
315.076	4404
315.166	6606
315.255	5124
315.345	5805
315.434	5048
315.524	5832
315.613	5937
315.703	9107
315.792	18087
315.881	69046
315.971	19709
316.060	10801
316.150	13891
316.239	14777
316.328	5612
316.418	4237
316.507	3097
316.597	6270
316.686	4272
316.775	7692
316.865	15459
316.954	4587
317.043	2968
317.133	3945
317.222	2672
317.311	2971
317.400	1805
317.490	6556
317.579	6205
317.668	7131
317.757	11648
317.847	32321
317.936	114043
318.025	32830
318.114	22612
318.203	11152
318.293	8820
318.382	17586
318.471	12425
318.560	16490
318.649	27902
318.738	6631
318.828	5656
318.917	6067
319.006	7117
319.095	17150
319.184	35478
319.273	21169
319.362	10929
319.451	5178
319.540	4609
319.629	9494
319.718	14665
319.807	6916
319.896	12563
319.985	46434
320.074	15628
320.163	5475
320.252	8915
320.341	6328
320.430	4624
320.519	8460
320.608	5175
320.697	4802
320.786	3659
320.875	6671
320.964	7357
321.053	11242
321.142	14674
321.230	15332
321.319	11678
321.408	26302
321.497	11553
321.586	12225
321.675	14626
321.764	14127
321.852	8766
321.941	15155
322.030	10163
322.119	11538
322.207	26924
322.296	22210
322.385	9716
322.474	14457
322.562	32934
322.651	17036
322.740	14010
322.829	18086
322.917	19342
323.006	11089
323.095	9432
323.183	8043
323.272	11115
323.361	20880
323.449	69156
323.538	20813
323.626	46029
323.715	27212
323.804	11100
323.892	40559
323.981	19481
324.069	7692
324.158	22550
324.246	20035
324.335	6841
324.424	9299
324.512	4097
324.601	6234
324.689	11878
324.778	22140
324.866	15491
324.954	5139
325.043	4519
325.131	8657
325.220	15639
325.308	17864
325.397	11912
325.485	7492
325.574	3336
325.662	3426
325.750	2462
325.839	3282
325.927	2294
326.015	4226
326.104	6396
326.192	10018
326.280	3166
326.369	3349
326.457	4949
326.545	7879
326.634	3128
326.722	3215
326.810	2146
326.898	3641
326.987	3688
327.075	7144
327.163	8923
327.251	4989
327.340	7770
327.428	10929
327.516	3763
327.604	3278
327.692	3517
327.781	4224
327.869	6571
327.957	4670
328.045	3751
328.133	3116
328.221	3343
328.309	3211
328.397	2762
328.485	4265
328.574	4970
328.662	16826
328.750	9050
328.838	4607
328.926	3252
329.014	2488
329.102	3685
329.190	8871
329.278	5457
329.366	2584
329.454	1487
329.542	1846
329.630	1369
329.718	2563
329.806	2550
329.893	3277
329.981	2284
330.069	4193
330.157	10308
330.245	32466
330.333	15321
330.421	4346
330.509	5468
330.597	19290
330.684	11494
330.772	5389
330.860	5191
330.948	6700
331.036	2065
331.123	1787
331.211	1980
331.299	3277
331.387	5249
331.475	9887
331.562	2918
331.650	2144
331.738	2965
331.825	4932
331.913	1030
332.001	2237
332.089	3490
332.176	7938
332.264	20317
332.352	13984
332.439	3975
332.527	3327
332.614	2177
332.702	4503
332.790	3412
332.877	10154
332.965	19521
333.052	6540
333.140	6625
333.228	15740
333.315	3531
333.403	4433
333.490	11716
333.578	10567
333.665	19323
333.753	7952
333.840	3723
333.928	4958
334.015	12705
334.103	18432
334.190	54063
334.278	13386
334.365	8402
334.452	7370
334.540	4204
334.627	5004
334.715	7496
334.802	17271
334.889	84733
334.977	84004
335.064	14766
335.151	5737
335.239	4472
335.326	6818
335.413	23971
335.501	30218
335.588	5099
335.675	4360
335.762	4279
335.850	7321
335.937	8202
336.024	22255
336.111	87160
336.199	40959
336.286	8125
336.373	5075
336.460	3315
336.547	3220
336.635	4239
336.722	3889
336.809	2614
336.896	5486
336.983	13960
337.070	32564
337.157	50833
337.245	51428
337.332	33631
337.419	4748
337.506	2864
337.593	3445
337.680	9734
337.767	26878
337.854	7829
337.941	9838
338.028	14558
338.115	4637
338.202	6005
338.289	13283
338.376	48329
338.463	13509
338.550	15727
338.637	17070
338.724	8769
338.811	13531
338.898	2470
338.984	2752
339.071	3120
339.158	4032
339.245	9382
339.332	6571
339.419	9419
339.506	9210
339.593	1801
339.679	2592
339.766	1521
339.853	3248
339.940	6371
340.027	2402
340.113	3032
340.200	4179
340.287	2903
340.374	4420
340.460	5999
340.547	2655
340.634	5075
340.720	19938
340.807	9461
340.894	3051
340.980	2694
341.067	2848
341.154	3249
341.240	5071
341.327	9490
341.414	4026
341.500	3363
341.587	3227
341.674	2032
341.760	6937
341.847	6544
341.933	2907
342.020	327
342.106	2084
342.193	3000
342.279	4518
342.366	2807
342.452	6516
342.539	3844
342.625	9399
342.712	20503
342.798	7952
342.885	3267
342.971	1151
343.058	1449
343.144	1755
343.230	1977
343.317	2951
343.403	2147
343.490	1811
343.576	1089
343.662	2414
343.749	2540
343.835	4341
343.921	8217
344.008	52668
344.094	113676
344.180	23985
344.267	8480
344.353	30120
344.439	28401
344.525	10280
344.612	4262
344.698	3438
344.784	1487
344.870	2150
344.957	1440
345.043	4214
345.129	2121
345.215	6344
345.301	3651
345.387	2720
345.474	1273
345.560	1579
345.646	1642
345.732	2202
345.818	2536
345.904	3198
345.990	3106
346.076	3832
346.162	5997
346.249	4076
346.335	1547
346.421	3852
346.507	13007
346.593	43991
346.679	8436
346.765	3990
346.851	3409
346.937	2757
347.023	2442
347.108	3308
347.194	1368
347.280	2993
347.366	3578
347.452	14686
347.538	55575
347.624	36745
347.710	26124
347.796	4988
347.882	2717
347.967	2114
348.053	1974
348.139	2956
348.225	2102
348.311	2185
348.397	1994
348.482	3466
348.568	3595
348.654	1743
348.740	5085
348.825	4231
348.911	6625
348.997	25205
349.083	48656
349.168	7395
349.254	2857
349.340	2804
349.425	1459
349.511	3153
349.597	3903
349.682	8131
349.768	26881
349.854	12130
349.939	2359
350.025	2059
350.110	2143
350.196	1147
350.282	553
350.367	2456
350.453	4417
350.538	4785
350.624	2838
350.709	3144
350.795	1301
350.880	1876
350.966	2918
351.051	4930
351.137	2823
351.222	2682
351.308	8795
351.393	21120
351.479	4884
351.564	1670
351.649	2027
351.735	1885
351.820	1693
351.906	2470
351.991	3104
352.076	14698
352.162	19937
352.247	4023
352.332	2641
352.418	5442
352.503	7479
352.588	30883
352.673	22407
352.759	4878
352.844	2545
352.929	3707
353.014	3342
353.100	3722
353.185	6082
353.270	8381
353.355	7767
353.441	3449
353.526	2506
353.611	7167
353.696	6818
353.781	5131
353.866	1632
353.952	3521
354.037	6566
354.122	14859
354.207	12632
354.292	5149
354.377	2405
354.462	2414
354.547	2422
354.632	3329
354.717	4279
354.802	7114
354.887	2967
354.972	2319
355.057	1936
355.142	1917
355.227	2544
355.312	4401
355.397	9176
355.482	23930
355.567	9986
355.652	8593
355.737	9630
355.822	32403
355.907	23394
355.991	4989
356.076	1680
356.161	3223
356.246	1705
356.331	3842
356.416	8316
356.501	61570
356.585	56004
356.670	7088
356.755	6241
356.840	8748
356.924	39727
357.009	139236
357.094	44256
357.179	9729
357.263	6802
357.348	7650
357.433	4848
357.517	5695
357.602	4097
357.687	4601
357.771	10482
357.856	39559
357.941	20922
358.025	31015
358.110	134147
358.195	54358
358.279	7592
358.364	6397
358.448	20615
358.533	55042
358.617	37496
358.702	39642
358.787	12544
358.871	7897
358.956	5961
359.040	2110
359.125	2369
359.209	5170
359.294	20356
359.378	30931
359.462	8576
359.547	4365
359.631	3210
359.716	1686
359.800	2064
359.885	3699
359.969	2271
360.053	3184
360.138	2356
360.222	4364
360.306	6426
360.391	7128
360.475	19226
360.559	36565
360.644	21147
360.728	14479
360.812	33172
360.896	87916
360.981	28883
361.065	13265
361.149	4139
361.233	3904
361.318	3561
361.402	4915
361.486	4376
361.570	3154
361.654	4272
361.739	11657
361.823	56504
361.907	85436
361.991	13890
362.075	7689
362.159	12521
362.243	12104
362.327	12491
362.411	23121
362.495	9522
362.580	5205
362.664	2818
362.748	3095
362.832	4383
362.916	8179
363.000	33140
363.084	95251
363.168	106363
363.252	21646
363.336	7569
363.420	10493
363.503	33366
363.587	36277
363.671	6811
363.755	4642
363.839	7200
363.923	3773
364.007	7880
364.091	9928
364.175	13019
364.258	58128
364.342	46185
364.426	80324
364.510	41244
364.594	14623
364.677	16919
364.761	77539
364.845	50262
364.929	13376
365.013	9823
365.096	8700
365.180	9923
365.264	15552
365.347	54633
365.431	20478
365.515	4395
365.598	3056
365.682	4132
365.766	3700
365.849	5431
365.933	3620
366.017	5529
366.100	2558
366.184	1294
366.267	3873
366.351	1491
366.435	1544
366.518	846
366.602	2335
366.685	2182
366.769	3529
366.852	4483
366.936	8238
367.019	4620
367.103	2605
367.186	6428
367.270	2853
367.353	528
367.436	3073
367.520	1901
367.603	4221
367.687	4292
367.770	9094
367.853	6310
367.937	21319
368.020	33259
368.104	7654
368.187	6874
368.270	9530
368.353	7262
368.437	12952
368.520	31467
368.603	16437
368.687	22559
368.770	41126
368.853	8050
368.936	9140
369.020	6849
369.103	3029
369.186	1270
369.269	2569
369.352	5407
369.436	7933
369.519	4230
369.602	2179
369.685	4678
369.768	2677
369.851	2732
369.934	2238
370.018	2802
370.101	6863
370.184	6393
370.267	4434
370.350	7656
370.433	12569
370.516	42160
370.599	62575
370.682	17580
370.765	20793
370.848	27580
370.931	53459
371.014	18251
371.097	3506
371.180	3667
371.263	3277
371.346	880
371.429	3576
371.511	1760
371.594	5033
371.677	7730
371.760	8354
371.843	7434
371.926	47225
372.009	102496
372.091	31144
372.174	22502
372.257	56006
372.340	19047
372.423	11351
372.505	11886
372.588	6719
372.671	16730
372.754	53165
372.836	24497
372.919	15240
373.002	25597
373.085	9984
373.167	9111
373.250	22539
373.332	51926
373.415	72489
373.498	145773
373.580	50970
373.663	94676
373.746	108901
373.828	18721
373.911	9392
373.993	7592
374.076	28870
374.159	25632
374.241	14835
374.324	43035
374.406	27400
374.489	44394
374.571	124279
374.654	44171
374.736	23694
374.819	76061
374.901	109225
374.983	105748
375.066	17908
375.148	6063
375.231	24896
375.313	43647
375.395	14296
375.478	4356
375.560	4382
375.643	5544
375.725	22788
375.807	98926
375.890	74173
375.972	27541
376.054	16035
376.136	24840
376.219	11398
376.301	28182
376.383	81932
376.465	27942
376.548	14956
376.630	21151
376.712	67466
376.794	26673
376.877	4753
376.959	1119
377.041	3892
377.123	4536
377.205	6535
377.287	1433
377.369	3405
377.452	1427
377.534	3468
377.616	2429
377.698	2463
377.780	1488
377.862	3033
377.944	3134
378.026	1693
378.108	2190
378.190	2076
378.272	2841
378.354	2264
378.436	1532
378.518	3184
378.600	10800
378.682	11196
378.764	29006
378.846	21135
378.928	5768
379.010	7110
379.091	4456
379.173	3149
379.255	1865
379.337	4057
379.419	14633
379.501	41842
379.583	14777
379.664	4938
379.746	8466
379.828	28669
379.910	37574
379.991	33824
380.073	5265
380.155	4426
380.237	3473
380.318	2349
380.400	3163
380.482	7144
380.564	8797
380.645	9469
380.727	7533
380.809	6118
380.890	3472
380.972	3145
381.053	3060
381.135	5265
381.217	10587
381.298	29673
381.380	14133
381.461	13833
381.543	67591
381.624	76782
381.706	12893
381.787	6944
381.869	8009
381.951	32094
382.032	118118
382.113	67912
382.195	11890
382.276	10975
382.358	22729
382.439	62966
382.521	71044
382.602	109337
382.684	46292
382.765	82118
382.846	92763
382.928	155007
383.009	79119
383.090	52837
383.172	214829
383.253	316014
383.334	98263
383.416	98377
383.497	47215
383.578	22881
383.659	42554
383.741	177589
383.822	467917
383.903	216915
383.984	69581
384.066	109651
384.147	61184
384.228	14234
384.309	10862
384.390	8636
384.471	6639
384.553	6860
384.634	8259
384.715	9549
384.796	4732
384.877	7662
384.958	28629
385.039	31065
385.120	10661
385.201	6940
385.282	6358
385.363	7208
385.444	6288
385.525	13884
385.606	48695
385.687	40633
385.768	8443
385.849	10466
385.930	51236
386.011	88867
386.092	20054
386.173	5564
386.254	4266
386.335	5060
386.416	4658
386.496	18848
386.577	26889
386.658	10111
386.739	5039
386.820	6465
386.901	3448
386.981	5187
387.062	3560
387.143	8561
387.224	29113
387.304	26076
387.385	10118
387.466	6317
387.547	8736
387.627	6815
387.708	12804
387.789	53966
387.869	67099
387.950	18712
388.031	3584
388.111	1642
388.192	6663
388.273	10940
388.353	6344
388.434	4655
388.514	11132
388.595	57792
388.676	66906
388.756	27590
388.837	24258
388.917	14919
388.998	3351
389.078	5266
389.159	3632
389.239	3216
389.320	6811
389.400	3745
389.480	11654
389.561	32106
389.641	15011
389.722	6322
389.802	7283
389.883	14831
389.963	40318
390.043	23144
390.124	6409
390.204	12464
390.284	30905
390.365	18972
390.445	22432
390.525	66152
390.605	53741
390.686	15609
390.766	7000
390.846	5310
390.927	2282
391.007	3553
391.087	4236
391.167	4553
391.247	3513
391.328	7601
391.408	8059
391.488	5678
391.568	1856
391.648	5380
391.728	7425
391.808	7581
391.888	7441
391.969	18302
392.049	27730
392.129	12599
392.209	14231
392.289	38865
392.369	20618
392.449	13333
392.529	9697
392.609	10821
392.689	14814
392.769	41705
392.849	34119
392.929	26473
393.009	58877
393.089	52373
393.169	61545
393.248	202649
393.328	682428
393.408	684487
393.488	190556
393.568	56923
393.648	28480
393.728	17653
393.807	12302
393.887	12032
393.967	9290
394.047	10607
394.127	8914
394.206	13698
394.286	44501
394.366	214953
394.446	207506
394.525	38168
394.605	11199
394.685	9989
394.764	17833
394.844	29870
394.924	21477
395.003	8346
395.083	5640
395.163	6984
395.242	5632
395.322	6053
395.402	3668
395.481	6771
395.561	13426
395.640	36656
395.720	33858
395.799	38319
395.879	26731
395.958	16946
396.038	61073
396.117	275057
396.197	274761
396.276	61979
396.356	19929
396.435	18077
396.515	16020
396.594	23433
396.673	51723
396.753	211299
396.832	611167
396.912	413173
396.991	92537
397.070	28551
397.150	14125
397.229	12339
397.308	16444
397.388	25612
397.467	11980
397.546	6753
397.625	3166
397.705	6914
397.784	5917
397.863	3744
397.942	3374
398.022	4478
398.101	10665
398.180	29836
398.259	14568
398.338	5680
398.417	3503
398.497	3407
398.576	3249
398.655	1992
398.734	2405
398.813	3162
398.892	10147
398.971	33984
399.050	14728
399.129	2865
399.208	1624
399.287	2831
399.366	505
399.445	1986
399.524	1623
399.603	352
399.682	4957
399.761	11735
399.840	37082
399.919	26626
399.998	3501
400.077	1391
400.156	90
400.235	4209
400.313	1090
400.392	2709
400.471	14895
400.550	22649
400.629	4446
400.708	3439
400.786	1381
400.865	5904
400.944	5639
401.023	5021
401.102	713
401.180	2394
401.259	1145
401.338	1881
401.416	2868
401.495	1734
401.574	1873
401.652	1901
401.731	2527
401.810	2495
401.888	461
401.967	1928
402.046	2262
402.124	3855
402.203	1445
402.281	3161
402.360	3020
402.438	8224
402.517	3309
402.596	2394
402.674	1849
402.753	1822
402.831	1440
402.910	3361
402.988	11437
403.066	43376
403.145	22541
403.223	13619
403.302	33673
403.380	24289
403.459	24450
403.537	9036
403.615	1943
403.694	741
403.772	1852
403.850	1546
403.929	616
404.007	1413
404.085	4512
404.164	4665
404.242	1133
404.320	3504
404.398	3938
404.477	16717
404.555	85431
404.633	68694
404.711	9092
404.789	3054
404.868	2263
404.946	1042
405.024	678
405.102	1148
405.180	-26
405.258	283
405.336	1167
405.415	851
405.493	3469
405.571	4103
405.649	652
405.727	771
405.805	2911
405.883	2331
405.961	1985
406.039	1948
406.117	40
406.195	3172
406.273	17840
406.351	68266
406.429	35542
406.507	4647
406.585	844
406.663	2532
406.740	2405
406.818	1855
406.896	229
406.974	2141
407.052	4388
407.130	39033
407.208	50969
407.285	9272
407.363	970
407.441	2294
407.519	1009
407.596	2213
407.674	6043
407.752	19597
407.830	15474
407.907	5687
407.985	883
408.063	1592
408.141	491
408.218	3173
408.296	1177
408.373	2066
408.451	2001
408.529	2053
408.606	670
408.684	1038
408.762	266
408.839	470
408.917	-89
408.994	634
409.072	-220
409.149	745
409.227	3960
409.304	4743
409.382	2812
409.459	4428
409.537	7000
409.614	5606
409.692	2271
409.769	3730
409.846	7459
409.924	9008
410.001	3084
410.079	3311
410.156	2409
410.233	2210
410.311	567
410.388	1171
410.465	1352
410.543	1238
410.620	1426
410.697	1762
410.775	1713
410.852	686
410.929	2957
411.006	4429
411.083	1160
411.161	5000
411.238	4568
411.315	2598
411.392	40
411.469	2678
411.547	2732
411.624	481
411.701	207
411.778	1938
411.855	3666
411.932	2546
412.009	65
412.086	1672
412.163	-27
412.240	1715
412.317	1812
412.394	700
412.471	1054
412.548	804
412.625	-636
412.702	1832
412.779	3899
412.856	2885
412.933	24
413.010	986
413.087	1923
413.164	13058
413.241	17073
413.318	3449
413.395	2626
413.471	2890
413.548	1554
413.625	1091
413.702	168
413.779	1106
413.855	-400
413.932	288
414.009	-273
414.086	719
414.162	240
414.239	2512
414.316	12547
414.393	29054
414.469	9132
414.546	1029
414.623	-115
414.699	869
414.776	679
414.853	384
414.929	904
415.006	302
415.082	663
415.159	105
415.236	246
415.312	1579
415.389	2509
415.465	2826
415.542	1746
415.618	148
415.695	2326
415.771	1353
415.848	425
415.924	1121
416.000	101
416.077	1190
416.153	-1037
416.230	-70
416.306	342
416.383	273
416.459	-393
416.535	299
416.612	-122
416.688	1335
416.764	554
416.841	529
416.917	-15
416.993	998
417.069	577
417.146	950
417.222	1484
417.298	561
417.374	195
417.451	1833
417.527	1062
417.603	2405
417.679	1413
417.755	1713
417.831	-849
417.908	943
417.984	-347
418.060	-432
418.136	2914
418.212	3565
418.288	828
418.364	1404
418.440	-254
418.516	2811
418.592	1845
418.668	5320
418.744	8341
418.820	5667
418.896	935
418.972	262
419.048	88
419.124	4123
419.200	2272
419.276	776
419.352	-929
419.428	483
419.504	1131
419.579	1486
419.655	691
419.731	1373
419.807	5098
419.883	10742
419.959	6615
420.034	2574
420.110	4418
420.186	18695
420.262	13128
420.337	2540
420.413	887
420.489	1210
420.565	976
420.640	729
420.716	834
420.792	268
420.867	1697
420.943	712
421.019	2075
421.094	2119
421.170	1512
421.245	723
421.321	1597
421.397	1440
421.472	4839
421.548	11159
421.623	7703
421.699	2532
421.774	3029
421.850	3132
421.925	5153
422.001	5420
422.076	4463
422.152	5948
422.227	9227
422.302	12246
422.378	17767
422.453	34390
422.529	85517
422.604	233130
422.679	341540
422.755	234348
422.830	90433
422.905	36696
422.981	19085
423.056	14164
423.131	10065
423.207	7282
423.282	6124
423.357	8965
423.432	5703
423.508	6165
423.583	10202
423.658	8239
423.733	3298
423.808	3537
423.883	4026
423.959	3545
424.034	3376
424.109	3797
424.184	1070
424.259	1475
424.334	1773
424.409	1399
424.484	664
424.559	1464
424.634	820
424.709	2889
424.784	2306
424.859	2231
424.934	2215
425.009	13332
425.084	22530
425.159	7621
425.234	992
425.309	1842
425.384	11778
425.459	21321
425.534	5226
425.609	663
425.683	402
425.758	743
425.833	620
425.908	2693
425.983	7691
426.058	23479
426.132	9592
426.207	1317
426.282	2844
426.357	1387
426.431	629
426.506	1307
426.581	289
426.655	1218
426.730	-76
426.805	1068
426.879	1589
426.954	1770
427.029	3392
427.103	23955
427.178	61535
427.253	26865
427.327	2800
427.402	6645
427.476	20080
427.551	10297
427.625	1465
427.700	2025
427.774	502
427.849	2098
427.923	36
427.998	721
428.072	767
428.147	5291
428.221	24019
428.296	79361
428.370	40844
428.444	5151
428.519	2606
428.593	6160
428.667	4951
428.742	6814
428.816	10028
428.890	49179
428.965	84944
429.039	26944
429.113	8548
429.188	4139
429.262	1187
429.336	3569
429.410	10972
429.485	7201
429.559	5022
429.633	4779
429.707	2572
429.781	7857
429.855	47213
429.930	74750
430.004	29406
430.078	33048
430.152	38194
430.226	103746
430.300	103689
430.374	17350
430.448	4961
430.522	11490
430.596	31829
430.670	27892
430.744	83952
430.818	116177
430.892	24098
430.966	3675
431.040	1596
431.114	668
431.188	182
431.262	951
431.336	1200
431.410	3331
431.484	8385
431.557	7322
431.631	1224
431.705	2875
431.779	15157
431.853	73404
431.927	50390
432.000	7354
432.074	1318
432.148	1167
432.222	940
432.295	901
432.369	271
432.443	3080
432.516	24421
432.590	67449
432.664	25844
432.737	3006
432.811	-334
432.885	231
432.958	-385
433.032	309
433.106	-767
433.179	650
433.253	-490
433.326	-244
433.400	-386
433.473	744
433.547	-1466
433.620	365
433.694	765
433.767	3043
433.841	109
433.914	779
433.988	55
434.061	1110
434.134	-419
434.208	-334
434.281	-955
434.355	237
434.428	538
434.501	599
434.575	36
434.648	337
434.721	-737
434.795	-365
434.868	-1202
434.941	-143
435.014	-693
435.088	772
435.161	3135
435.234	4315
435.307	3778
435.381	2443
435.454	1905
435.527	4802
435.600	4077
435.673	3031
435.746	473
435.819	1505
435.892	88
435.966	1504
436.039	1003
436.112	726
436.185	-422
436.258	-721
436.331	-1127
436.404	-399
436.477	-1046
436.550	454
436.623	-489
436.696	-180
436.769	563
436.842	890
436.915	-471
436.987	1724
437.060	143
437.133	54
437.206	-413
437.279	98
437.352	-552
437.425	-114
437.498	260
437.570	2099
437.643	1945
437.716	598
437.789	-103
437.861	1626
437.934	9406
438.007	4969
438.080	98
438.152	983
438.225	5045
438.298	37908
438.370	112630
438.443	50193
438.516	10852
438.588	2605
438.661	-226
438.734	503
438.806	486
438.879	1265
438.951	1853
439.024	5031
439.096	1403
439.169	509
439.241	-236
439.314	-166
439.386	69
439.459	3159
439.531	4937
439.604	1726
439.676	-71
439.749	189
439.821	185
439.893	132
439.966	312
440.038	1230
440.110	1421
440.183	877
440.255	-224
440.327	1713
440.400	13652
440.472	66263
440.544	49355
440.617	6863
440.689	3451
440.761	4654
440.833	7726
440.905	6337
440.978	337
441.050	-91
441.122	300
441.194	591
441.266	341
441.338	542
441.411	2146
441.483	18031
441.555	32200
441.627	9591
441.699	2744
441.771	3423
441.843	317
441.915	960
441.987	-374
442.059	501
442.131	1033
442.203	2841
442.275	2649
442.347	5389
442.419	7722
442.491	42600
442.563	113242
442.635	57229
442.706	17806
442.778	13854
442.850	2809
442.922	2114
442.994	1114
443.066	4116
443.137	3587
443.209	3545
443.281	4754
443.353	12961
443.425	52647
443.496	197638
443.568	213198
443.640	88602
443.711	18168
443.783	6241
443.855	3069
443.926	2480
443.998	1556
444.070	3167
444.141	1730
444.213	4177
444.285	5439
444.356	5026
444.428	4033
444.499	1668
444.571	687
444.642	1913
444.714	1790
444.785	3699
444.857	4381
444.928	8200
445.000	6933
445.071	6020
445.143	8926
445.214	9375
445.285	12377
445.357	33387
445.428	126256
445.500	305176
445.571	216122
445.642	122052
445.714	42197
445.785	22911
445.856	9785
445.928	6924
445.999	5827
446.070	4223
446.141	3844
446.213	5606
446.284	2901
446.355	2820
446.426	1525
446.497	1692
446.569	2517
446.640	5587
446.711	4869
446.782	2292
446.853	2524
446.924	3845
446.995	1892
447.066	1991
447.138	2810
447.209	2336
447.280	-630
447.351	775
447.422	408
447.493	1379
447.564	2491
447.635	3764
447.706	2123
447.777	239
447.847	-1013
447.918	-348
447.989	1024
448.060	2377
448.131	4452
448.202	6778
448.273	4588
448.344	2077
448.414	782
448.485	1062
448.556	249
448.627	-113
448.698	166
448.768	212
448.839	-206
448.910	3085
448.981	1719
449.051	1661
449.122	-639
449.193	244
449.263	-217
449.334	454
449.405	1550
449.475	5369
449.546	4430
449.616	3628
449.687	3295
449.758	2020
449.828	-528
449.899	171
449.969	-321
450.040	836
450.110	1109
450.181	2225
450.251	1433
450.322	963
450.392	230
450.463	1261
450.533	-814
450.604	607
450.674	-65
450.744	1295
450.815	-1217
450.885	497
450.955	673
451.026	824
451.096	53
451.166	1280
451.237	3013
451.307	9724
451.377	5615
451.447	1278
451.518	-134
451.588	740
451.658	1113
451.728	2642
451.799	8412
451.869	13446
451.939	2980
452.009	1120
452.079	-230
452.149	1563
452.219	2415
452.289	10863
452.360	11229
452.430	3162
452.500	1351
452.570	4127
452.640	6949
452.710	17571
452.780	23918
452.850	19537
452.920	16994
452.990	7305
453.060	3055
453.129	4097
453.199	5284
453.269	15064
453.339	39542
453.409	64069
453.479	47509
453.549	75434
453.619	76969
453.688	39653
453.758	6208
453.828	2317
453.898	1079
453.968	983
454.037	385
454.087	1254
454.107	1585
454.168	1004
454.177	893
454.247	535
454.249	554
454.316	393
454.330	672
454.386	1615
454.411	3126
454.456	5203
454.492	8003
454.525	10432
454.574	6219
454.595	4371
454.655	2546
454.665	2293
454.734	1818
454.736	1970
454.804	5468
454.817	7004
454.873	12018
454.898	14048
454.943	17217
454.979	12481
455.013	8407
455.060	5319
455.082	4246
455.141	3606
455.152	3310
455.221	9847
455.222	10036
455.291	15715
455.303	14867
455.360	11498
455.384	11225
455.430	10433
455.465	11099
455.499	11520
455.546	12004
455.569	11591
455.627	10494
455.638	10470
455.707	2604
455.708	2625
455.777	1966
455.789	1928
455.846	1724
455.869	1842
455.916	2004
455.950	2187
455.985	2297
456.031	2430
456.054	2389
456.112	1822
456.124	1759
456.193	2230
456.193	2204
456.262	2908
456.274	3216
456.332	4439
456.355	4587
456.401	4033
456.436	3542
456.470	3160
456.516	2162
456.540	1801
456.597	2133
456.609	2138
456.678	2014
456.678	1989
456.747	2122
456.759	1925
456.817	1469
456.840	2070
456.886	2781
456.920	2358
456.955	2245
457.001	3126
457.024	3810
457.082	4235
457.093	4240
457.162	7014
457.163	7073
457.232	7015
457.243	6736
457.301	5380
457.324	4226
457.370	2816
457.405	3185
457.439	3653
457.485	3293
457.508	3101
457.566	4263
457.577	4687
457.646	6308
457.647	6375
457.715	15927
457.727	17837
457.784	29933
457.808	37471
457.853	44180
457.889	50043
457.922	47327
457.969	34326
457.991	38211
458.050	48672
458.060	50485
458.129	80577
458.130	81531
458.198	66823
458.211	60080
458.267	37601
458.292	25722
458.336	17471
458.372	16327
458.405	23912
458.453	37318
458.474	48216
458.533	86267
458.543	88491
458.611	124205
458.614	125184
458.680	71575
458.694	54893
458.749	29205
458.775	20448
458.818	11792
458.855	9127
458.887	7734
458.936	7024
458.955	6772
459.016	6074
459.024	6014
459.093	6829
459.097	6860
459.162	6709
459.177	6815
459.230	7864
459.257	8255
459.299	7939
459.338	7966
459.368	8626
459.418	9481
459.437	8654
459.499	6374
459.505	6443
459.574	5901
459.579	5943
459.643	5048
459.659	4787
459.711	5228
459.740	5797
459.780	6440
459.820	6534
459.849	6301
459.900	6752
459.917	7123
459.981	7921
459.986	7957
460.054	8550
460.061	8698
460.123	7602
460.141	7171
460.191	8596
460.222	9302
460.260	9259
460.302	9727
460.328	8814
460.382	6872
460.397	7024
460.462	6071
460.465	6124
460.534	9810
460.543	10221
460.602	23623
460.623	28599
460.671	42550
460.703	54774
460.739	48507
460.783	38429
460.808	32774
460.864	10517
460.876	8989
460.944	6054
460.945	6029
461.013	7013
461.024	7108
461.081	7417
461.104	8066
461.150	8493
461.184	8042
461.218	7562
461.264	6931
461.286	7129
461.345	7996
461.355	7817
461.423	7238
461.425	7208
461.491	8709
461.505	9110
461.559	14662
461.585	17180
461.628	22136
461.665	27554
461.696	28814
461.745	32294
461.764	28944
461.825	13943
461.832	13833
461.901	9304
461.905	9285
461.969	8359
461.985	8114
462.037	7617
462.065	7437
462.105	8169
462.145	8715
462.173	11040
462.225	15772
462.241	16965
462.305	22530
462.310	21974
462.378	14056
462.385	12704
462.446	9941
462.465	9503
462.514	9920
462.545	10559
462.582	11117
462.625	11855
462.650	10496
462.705	7269
462.718	7375
462.785	7653
462.786	7688
462.854	9888
462.865	10310
462.922	12134
462.945	12883
462.990	10662
463.025	8493
463.058	8126
463.104	7337
463.126	6945
463.184	6432
463.194	6643
463.262	7770
463.264	7831
463.330	7596
463.344	7373
463.398	8286
463.424	8837
463.466	8202
463.504	7804
463.533	8574
463.583	9549
463.601	9628
463.663	9649
463.669	9922
463.737	13658
463.743	13969
463.805	17882
463.823	19059
463.873	26337
463.903	30814
463.940	31592
463.982	33076
464.008	27530
464.062	14196
464.076	13424
464.142	8174
464.144	8155
464.211	8327
464.221	8500
464.279	9258
464.301	9457
464.347	10472
464.381	11281
464.414	12875
464.461	14881
464.482	17665
464.540	25691
464.550	26321
464.617	29859
464.620	29957
464.685	18929
464.699	16323
464.753	15479
464.779	15157
464.820	16367
464.859	17329
464.888	16301
464.938	14656
464.956	15279
465.018	17342
465.023	17515
465.091	19661
465.098	19825
465.158	22285
465.177	23154
465.226	20059
465.257	17823
465.293	16633
465.336	15073
465.361	15816
465.416	17535
465.428	18295
465.495	22681
465.496	22766
465.563	30444
465.575	31774
465.631	35928
465.654	37880
465.698	25149
465.734	13910
465.765	13075
465.813	11351
465.833	11071
465.893	11013
465.900	11044
465.968	11213
465.972	11209
466.035	11478
466.052	11476
466.102	12330
466.131	12851
466.170	12329
466.210	11667
466.237	12442
466.290	13980
466.304	14241
466.369	15169
466.372	15222
466.439	16073
466.449	16143
466.506	17127
466.528	17487
466.573	22919
466.607	26890
466.641	35683
466.687	47907
466.708	52072
466.766	63490
466.775	59128
466.842	25495
466.845	23844
466.909	19163
466.925	18098
466.977	16743
467.004	16041
467.044	16791
467.083	17534
467.111	18254
467.163	19465
467.178	20229
467.242	23261
467.245	23223
467.312	21493
467.321	21224
467.379	19881
467.400	19332
467.446	20277
467.480	20894
467.559	18890
467.638	17020
467.717	18548
467.796	22204
467.875	25950
467.955	21024
468.034	28853
468.113	53653
468.192	74004
468.271	26778
468.350	26305
468.429	34733
468.508	37786
468.588	25120
468.667	20390
468.746	18859
468.825	18174
468.904	16207
468.983	19795
469.062	25658
469.141	29585
469.220	15605
469.299	16762
469.378	16770
469.456	21276
469.535	18529
469.614	17876
469.693	19155
469.772	24101
469.851	30454
469.930	23304
470.009	21770
470.088	24672
470.166	37278
470.245	66488
470.324	86744
470.403	48783
470.482	28668
470.560	23382
470.639	22798
470.718	27600
470.797	20651
470.875	22346
470.954	26391
471.033	26488
471.111	13908
471.190	13919
471.269	14026
471.347	13766
471.426	14794
471.505	17046
471.583	16267
471.662	16769
471.740	15962
471.819	17954
471.898	14663
471.976	15088
472.055	13829
472.133	15089
472.212	19375
472.290	19500
472.369	13532
472.447	14334
472.526	12082
472.604	14808
472.683	16024
472.761	19405
472.839	16559
472.918	16924
472.996	16013
473.075	18346
473.153	15442
473.231	14502
473.310	17580
473.388	17261
473.466	15221
473.545	19711
473.623	27001
473.701	27264
473.780	16362
473.858	14632
473.936	17402
474.014	15553
474.093	16964
474.171	22225
474.249	28135
474.327	19894
474.405	14387
474.484	15847
474.562	14292
474.640	14610
474.718	14499
474.796	15129
474.874	13051
474.952	12329
475.030	12815
475.108	15103
475.187	16390
475.265	19737
475.343	31913
475.421	35889
475.499	16944
475.577	19613
475.655	20385
475.733	32579
475.811	49019
475.889	44429
475.966	30507
476.044	16508
476.122	24033
476.200	34052
476.278	22961
476.356	14417
476.434	15331
476.512	21713
476.590	31036
476.667	23760
476.745	13127
476.823	13704
476.901	12064
476.979	13146
477.056	13511
477.134	13663
477.212	14042
477.290	13350
477.367	11187
477.445	11831
477.523	11879
477.601	12522
477.678	11891
477.756	15187
477.834	15081
477.911	13825
477.989	12124
478.066	12988
478.144	14700
478.222	22400
478.299	40468
478.377	33311
478.454	12453
478.532	12480
478.609	13137
478.687	15901
478.764	11900
478.842	16289
478.919	18211
478.997	14549
479.074	10577
479.152	13715
479.229	16844
479.307	11693
479.384	8853
479.461	10820
479.539	11626
479.616	13582
479.694	11750
479.771	12627
479.848	12614
479.926	16124
480.003	18247
480.080	13769
480.157	10184
480.235	11610
480.312	10601
480.389	13612
480.467	17589
480.544	22958
480.621	13033
480.698	14543
480.775	15429
480.853	14044
480.930	11034
481.007	12618
481.084	12993
481.161	14812
481.238	13448
481.315	10329
481.392	10587
481.470	12129
481.547	10953
481.624	11702
481.701	10933
481.778	12959
481.855	13365
481.932	20161
482.009	28373
482.086	22366
482.163	16754
482.240	30741
482.317	55608
482.393	37248
482.470	14456
482.547	14373
482.624	13552
482.701	14763
482.778	14036
482.855	13044
482.932	13847
483.009	12808
483.085	15330
483.162	20529
483.239	19675
483.316	15723
483.393	16505
483.469	15224
483.546	14350
483.623	15370
483.699	11541
483.776	13155
483.853	15172
483.930	19678
484.006	41501
484.083	66140
484.160	37356
484.236	50161
484.313	39501
484.389	31515
484.466	28718
484.543	29072
484.619	31525
484.696	35576
484.772	32065
484.849	30828
484.925	24864
485.002	26075
485.078	28643
485.155	28727
485.231	23716
485.308	22665
485.384	23302
485.461	29059
485.537	45517
485.614	50155
485.690	25035
485.766	23478
485.843	26963
485.919	43408
485.995	42372
486.072	23075
486.148	22142
486.224	23275
486.301	22961
486.377	28662
486.453	30148
486.530	27241
486.606	31821
486.682	35304
486.758	40814
486.835	47151
486.911	38834
486.987	65152
487.063	86624
487.139	116979
487.215	74969
487.292	34317
487.368	30607
487.444	39267
487.520	52987
487.596	56089
487.672	101519
487.748	312652
487.824	448285
487.900	121103
487.976	43875
488.052	37852
488.128	44122
488.204	33186
488.280	25216
488.356	28810
488.432	51342
488.508	74962
488.584	33173
488.660	30622
488.736	27978
488.812	27601
488.888	34806
488.964	49219
489.039	115755
489.115	175872
489.191	89257
489.267	24904
489.343	21461
489.418	19555
489.494	18153
489.570	17102
489.646	19694
489.722	19113
489.797	19692
489.873	29861
489.949	54813
490.024	44224
490.100	19015
490.176	20012
490.251	26886
490.327	38286
490.403	19989
490.478	18552
490.554	15331
490.629	16945
490.705	15929
490.781	18828
490.856	16949
490.932	23067
491.007	22468
491.083	20670
491.158	17122
491.234	22627
491.309	42842
491.385	40436
491.460	17979
491.536	21441
491.611	20003
491.686	24328
491.762	33231
491.837	75317
491.913	115341
491.988	170357
492.063	206318
492.139	45010
492.214	31094
492.289	18040
492.365	17430
492.440	20407
492.515	18321
492.590	17936
492.666	13433
492.741	20699
492.816	26808
492.891	15795
492.967	14239
493.042	14466
493.117	12875
493.192	13545
493.267	17680
493.342	32375
493.418	34111
493.493	15748
493.568	14088
493.643	15534
493.718	17192
493.793	27585
493.868	34102
493.943	22114
494.018	15455
494.093	12877
494.168	13984
494.243	13126
494.318	12303
494.393	12370
494.468	11797
494.543	13090
494.618	17097
494.693	14176
494.768	12947
494.842	13214
494.917	12067
494.992	14434
495.067	12453
495.142	13092
495.217	15310
495.292	16467
495.366	18085
495.441	25399
495.516	30313
495.591	43014
495.665	163491
495.740	376185
495.815	118479
495.890	20921
495.964	14387
496.039	18464
496.114	14964
496.188	18615
496.263	16756
496.338	14311
496.412	16542
496.487	19249
496.561	23496
496.636	23893
496.710	16574
496.785	18717
496.860	19613
496.934	16686
497.009	16724
497.083	16111
497.158	16307
497.232	19609
497.307	23803
497.381	20450
497.455	22214
497.530	27676
497.604	20047
497.679	22975
497.753	34090
497.827	45524
497.902	42405
497.976	47343
498.050	106296
498.125	408769
498.199	365538
498.273	70553
498.348	53212
498.422	40969
498.496	39487
498.570	35780
498.645	23516
498.719	23212
498.793	29064
498.867	43375
498.941	52101
499.016	158539
499.090	408854
499.164	115095
499.238	20468
499.312	19063
499.386	24643
499.460	22287
499.534	20431
499.609	26743
499.683	31293
499.757	29302
499.831	67206
499.905	268343
499.979	212704
500.053	37087
500.127	43049
500.201	38690
500.275	21990
500.349	21583
500.422	24105
500.496	40159
500.570	83922
500.644	162665
500.718	255332
500.792	50196
500.866	17472
500.940	22023
501.013	19407
501.087	21063
501.161	38071
501.235	43352
501.309	79855
501.382	219377
501.456	169658
501.530	44464
501.603	64945
501.677	25805
501.751	14689
501.825	20630
501.898	30816
501.972	84168
502.046	45536
502.119	19277
502.193	42408
502.266	91908
502.340	38080
502.413	40474
502.487	72628
502.561	41555
502.634	16424
502.708	19205
502.781	14869
502.855	12793
502.928	9515
503.002	10984
503.075	10155
503.149	11113
503.222	11895
503.295	12575
503.369	16208
503.442	20651
503.516	65382
503.589	155473
503.662	90191
503.736	35353
503.809	77279
503.882	62076
503.956	96590
504.029	102650
504.102	167429
504.175	223925
504.249	62607
504.322	29165
504.395	20697
504.468	14431
504.542	13353
504.615	10925
504.688	10083
504.761	10232
504.834	13760
504.907	19202
504.980	29494
505.053	13824
505.127	17220
505.200	19549
505.273	14685
505.346	11027
505.419	8439
505.492	9413
505.565	7426
505.638	8839
505.711	7280
505.784	7063
505.857	6884
505.930	9662
506.003	7139
506.076	11718
506.149	11291
506.221	13564
506.294	14635
506.367	34637
506.440	111646
506.513	53903
506.586	16301
506.659	10622
506.731	10757
506.804	14027
506.877	20472
506.950	11927
507.022	9129
507.095	11272
507.168	14296
507.241	12440
507.313	8616
507.386	11985
507.459	18410
507.531	10474
507.604	7917
507.677	9520
507.749	6858
507.822	13769
507.894	24708
507.967	26066
508.040	13075
508.112	14192
508.185	12477
508.257	11768
508.330	20773
508.402	11992
508.475	10461
508.547	12088
508.620	11437
508.692	17498
508.765	10770
508.837	8043
508.909	9875
508.982	10067
509.054	12199
509.127	11024
509.199	8633
509.271	7916
509.344	8691
509.416	8660
509.488	7917
509.560	10284
509.633	10863
509.705	13832
509.777	12202
509.849	19067
509.922	11332
509.994	8083
510.066	10006
510.138	9617
510.210	20306
510.283	17155
510.355	14041
510.427	13588
510.499	12026
510.571	12873
510.643	11987
510.715	24495
510.787	17641
510.859	13927
510.931	14574
511.003	21835
511.076	17046
511.148	10839
511.219	10120
511.291	17733
511.363	16735
511.435	10862
511.507	8739
511.579	11247
511.651	11106
511.723	10267
511.795	8710
511.867	10217
511.939	12129
512.010	23560
512.082	18226
512.154	11414
512.226	10746
512.298	18127
512.369	23755
512.441	19874
512.513	21504
512.585	15020
512.656	15060
512.728	17813
512.800	11988
512.871	14267
512.943	13253
513.015	11226
513.086	12747
513.158	16026
513.230	15129
513.301	26466
513.373	30280
513.444	15501
513.516	11797
513.588	12216
513.659	15720
513.731	20985
513.802	15639
513.874	41271
513.945	70048
514.016	19292
514.088	12212
514.159	14821
514.231	21999
514.302	23973
514.374	15829
514.445	13775
514.516	27455
514.588	18828
514.659	14087
514.730	24615
514.802	21258
514.873	15453
514.944	15923
515.016	16530
515.087	17426
515.158	21518
515.229	23904
515.301	16182
515.372	19012
515.443	13875
515.514	13080
515.585	12029
515.656	12138
515.728	13671
515.799	11774
515.870	16355
515.941	15187
516.012	16172
516.083	22267
516.154	28271
516.225	38077
516.296	38230
516.367	38495
516.438	48068
516.509	63031
516.580	94392
516.651	336766
516.722	1170037
516.793	350671
516.864	85920
516.935	83011
517.006	101887
517.077	133863
517.148	310747
517.219	1408438
517.289	1785605
517.360	275030
517.431	77495
517.502	37615
517.573	35940
517.643	31165
517.714	34682
517.785	38546
517.856	45175
517.926	60759
517.997	78015
518.068	105094
518.138	141479
518.209	220081
518.280	876144
518.350	2823875
518.421	848758
518.492	119531
518.562	65234
518.633	57936
518.703	59090
518.774	104472
518.845	283894
518.915	241074
518.986	68003
519.056	45011
519.127	66654
519.197	84455
519.268	137901
519.338	67955
519.408	26856
519.479	38084
519.549	28195
519.620	18814
519.690	14580
519.760	14683
519.831	16418
519.901	14894
519.971	14919
520.042	14568
520.112	19180
520.182	26463
520.253	31497
520.323	30899
520.393	93516
520.463	150541
520.534	104669
520.604	243440
520.674	54022
520.744	65833
520.814	285166
520.885	152910
520.955	46349
521.025	135762
521.095	42890
521.165	14211
521.235	13718
521.305	10889
521.375	12116
521.445	14407
521.515	21212
521.585	22455
521.655	19260
521.725	17821
521.795	15293
521.865	9130
521.935	17673
522.005	11933
522.075	9896
522.145	13285
522.215	14011
522.285	17217
522.355	22526
522.424	41055
522.494	34426
522.564	22479
522.634	54844
522.704	154153
522.774	43960
522.843	15162
522.913	14641
522.983	19864
523.053	14391
523.122	15000
523.192	24573
523.262	93890
523.331	69336
523.401	14443
523.471	11320
523.540	12081
523.610	8838
523.680	8127
523.749	9728
523.819	11436
523.888	11183
523.958	9071
524.027	9643
524.097	10144
524.166	9727
524.236	12562
524.305	13071
524.375	10071
524.444	8514
524.514	10837
524.583	10313
524.653	11932
524.722	17039
524.791	10882
524.861	10778
524.930	7907
524.999	11458
525.069	15754
525.138	11425
525.207	12154
525.277	11423
525.346	11447
525.415	12082
525.484	13908
525.554	16281
525.623	16294
525.692	17866
525.761	21582
525.830	26171
525.900	33353
525.969	51318
526.038	84561
526.107	191132
526.176	543361
526.245	380590
526.314	123054
526.383	291896
526.452	345965
526.522	633348
526.591	508071
526.660	128334
526.729	74069
526.797	82171
526.867	148401
526.935	599050
527.004	1268008
527.073	569510
527.142	58235
527.211	28684
527.280	25242
527.349	23799
527.418	14106
527.487	16242
527.555	14203
527.624	12625
527.693	8664
527.762	11941
527.831	7949
527.899	10367
527.968	9190
528.037	9342
528.106	13578
528.174	25433
528.243	16188
528.312	26732
528.380	33942
528.449	10683
528.518	9660
528.586	6923
528.655	7626
528.723	7366
528.792	6147
528.861	7742
528.929	6007
528.998	8208
529.066	6303
529.135	7223
529.203	6729
529.272	6330
529.340	7625
529.409	9549
529.477	7394
529.545	10091
529.614	16722
529.682	20815
529.751	18817
529.819	30788
529.887	12488
529.956	8509
530.024	9075
530.092	9627
530.161	11042
530.229	20196
530.297	9395
530.365	9080
530.434	6788
530.502	6877
530.570	6494
530.638	6516
530.707	8754
530.775	9615
530.843	5851
530.911	7564
530.979	7277
531.047	6998
531.115	7900
531.183	7033
531.252	7331
531.320	7558
531.388	5976
531.456	8416
531.524	5716
531.592	8761
531.660	10188
531.728	7711
531.796	6619
531.864	8286
531.932	7457
532.000	8924
532.067	8681
532.135	10490
532.203	12144
532.271	13877
532.339	25058
532.407	70742
532.475	32923
532.542	18721
532.610	19341
532.678	26484
532.746	123080
532.814	264086
532.881	54330
532.949	16085
533.017	11691
533.084	9669
533.152	8399
533.220	10197
533.287	10713
533.355	8640
533.423	8883
533.490	7795
533.558	7800
533.625	10065
533.693	9065
533.761	9168
533.828	9785
533.896	10100
533.963	22029
534.031	26893
534.098	37860
534.166	16585
534.233	11388
534.300	12999
534.368	13539
534.435	12995
534.503	17432
534.570	36345
534.637	22679
534.705	22768
534.772	29251
534.840	58687
534.907	250001
534.974	257860
535.041	27687
535.109	17308
535.176	11171
535.243	12022
535.310	13039
535.378	10333
535.445	10298
535.512	10408
535.579	9811
535.646	10160
535.714	9360
535.781	12055
535.848	11023
535.915	12475
535.982	9372
536.049	11152
536.116	11745
536.183	10548
536.250	10801
536.317	13250
536.384	15216
536.451	23121
536.518	24099
536.585	15159
536.652	19586
536.719	31101
536.786	22004
536.853	19128
536.920	26815
536.987	42889
537.053	37947
537.120	145192
537.187	94553
537.254	16028
537.321	13292
537.388	14397
537.454	10850
537.521	11781
537.588	10667
537.654	13652
537.721	14818
537.788	14723
537.855	11463
537.921	12936
537.988	12888
538.055	13651
538.121	11276
538.188	14374
538.254	23374
538.321	46108
538.388	23975
538.454	13499
538.521	12582
538.587	12901
538.654	11807
538.720	10915
538.787	11799
538.853	12866
538.920	15093
538.986	15651
539.053	11835
539.119	14980
539.185	14184
539.252	18080
539.318	26078
539.385	19628
539.451	16066
539.517	16554
539.583	18637
539.650	42936
539.716	92902
539.782	22776
539.849	13006
539.915	15635
539.981	14755
540.047	19338
540.114	15055
540.180	17603
540.246	16157
540.312	23403
540.378	45001
540.444	41534
540.510	45448
540.576	109779
540.643	28234
540.709	14913
540.775	13945
540.841	16160
540.907	24971
540.973	55796
541.039	31258
541.105	26518
541.171	15205
541.237	15037
541.303	15421
541.369	18727
541.435	23492
541.500	40744
541.566	21687
541.632	13270
541.698	10888
541.764	13878
541.830	11869
541.896	11885
541.961	13538
542.027	14148
542.093	13761
542.159	14521
542.224	14597
542.290	23560
542.356	39703
542.421	41693
542.487	18113
542.553	15333
542.618	15216
542.684	14327
542.750	14542
542.815	17554
542.881	26666
542.947	101463
543.012	56667
543.078	14562
543.143	13417
543.209	15011
543.274	14408
543.340	17209
543.405	39901
543.471	52255
543.536	14997
543.602	13733
543.667	10670
543.732	13777
543.798	11621
543.863	12476
543.928	11518
543.994	11342
544.059	11394
544.124	13480
544.190	12814
544.255	14402
544.320	13276
544.386	15885
544.451	21540
544.516	23678
544.581	22269
544.646	65144
544.712	81341
544.777	19446
544.842	15053
544.907	15541
544.972	14019
545.037	15362
545.102	15454
545.168	16012
545.233	16195
545.298	18668
545.363	19728
545.428	22447
545.493	41297
545.558	77304
545.623	26417
545.688	16904
545.753	17459
545.818	16661
545.883	17047
545.947	17168
546.012	18503
546.077	19462
546.142	19614
546.207	20701
546.272	28306
546.337	27928
546.401	22410
546.466	22823
546.531	21594
546.596	24649
546.661	25056
546.725	26034
546.790	24381
546.855	28504
546.919	28052
546.984	33138
547.049	34653
547.113	40105
547.178	41090
547.243	48582
547.307	56086
547.372	64399
547.436	63559
547.501	64095
547.565	67581
547.630	68546
547.695	65135
547.759	65032
547.823	61138
547.888	62053
547.952	63247
548.017	65247
548.081	68490
548.146	71704
548.210	70923
548.274	72810
548.339	70713
548.403	65685
548.468	60750
548.532	60501
548.596	62013
548.660	62813
548.725	69908
548.789	77653
548.853	72768
548.917	68585
548.982	70669
549.046	63915
549.110	53805
549.174	57531
549.238	63621
549.303	70074
549.367	73770
549.431	70887
549.495	64642
549.559	66049
549.623	76617
549.687	85370
549.751	89802
549.815	99374
549.879	96687
549.943	93828
550.007	98215
550.071	98555
550.135	91806
550.199	84360
550.263	80362
550.327	78795
550.391	81589
550.455	89099
550.519	91077
550.582	99848
550.646	118743
550.710	119151
550.774	111146
550.838	113416
550.901	116143
550.965	122721
551.029	128869
551.093	136558
551.156	154064
551.220	188775
551.284	218790
551.347	150514
551.411	145254
551.475	136598
551.538	120515
551.602	110439
551.666	104646
551.729	99153
551.793	95142
551.856	95103
551.920	91623
551.983	93823
552.047	90529
552.110	92472
552.174	92189
552.237	96093
552.301	88261
552.364	84859
552.428	83826
552.491	86697
552.554	90716
552.618	91558
552.681	95703
552.745	99982
552.808	142668
552.871	166904
552.934	109958
552.998	94767
553.061	88667
553.124	83708
553.187	82644
553.251	84295
553.314	85691
553.377	83767
553.440	91227
553.503	96539
553.567	96519
553.630	92068
553.693	90648
553.756	90174
553.819	87084
553.882	83794
553.945	84216
554.008	85746
554.071	85287
554.134	87472
554.197	82597
554.260	80267
554.323	83713
554.386	82137
554.449	84896
554.512	85720
554.575	83140
554.638	82686
554.701	80100
554.764	79029
554.827	76591
554.889	72932
554.952	68429
555.015	68727
555.078	68602
555.141	71517
555.203	69185
555.266	69598
555.329	69085
555.391	66326
555.454	66090
555.517	63934
555.580	60184
555.642	57740
555.705	56686
555.768	57120
555.830	54506
555.893	53045
555.955	50726
556.018	51022
556.080	51723
556.143	53161
556.206	51756
556.268	52710
556.330	50095
556.393	49836
556.455	47939
556.518	52912
556.580	49259
556.643	43704
556.705	42591
556.767	42495
556.830	42497
556.892	45799
556.955	56201
557.017	44362
557.079	39153
557.142	39532
557.204	42285
557.266	62327
557.328	48669
557.391	34354
557.453	32833
557.515	34995
557.577	37701
557.639	39279
557.701	35841
557.764	36020
557.826	37046
557.888	40631
557.950	42312
558.012	46647
558.074	62124
558.136	154422
558.198	329622
558.260	90824
558.322	47525
558.384	51241
558.446	56961
558.508	67619
558.570	81274
558.632	116524
558.694	145612
558.756	199461
558.818	667051
558.880	1364052
558.942	349422
559.003	365630
559.065	141561
559.127	72135
559.189	70586
559.251	81176
559.312	115497
559.374	315907
559.436	976536
559.498	341132
559.559	77194
559.621	68920
559.683	79178
559.744	136593
559.806	491122
559.868	586516
559.929	94780
559.991	70303
560.052	119514
560.114	333205
560.176	164220
560.237	199632
560.299	272300
560.360	47737
560.422	24480
560.483	22309
560.545	20379
560.606	19375
560.667	18027
560.729	17819
560.790	17683
560.852	17253
560.913	16790
560.974	16764
561.036	16169
561.097	17761
561.158	16663
561.220	17622
561.281	16984
561.342	17533
561.403	19881
561.465	25347
561.526	58290
561.587	62210
561.648	18950
561.709	16119
561.771	15429
561.832	14823
561.893	14389
561.954	14187
562.015	14603
562.076	14496
562.137	13861
562.198	14900
562.259	14396
562.320	14901
562.381	17165
562.442	24111
562.503	17352
562.564	13969
562.625	13598
562.686	14126
562.747	15138
562.808	14129
562.869	12770
562.930	14987
562.991	13746
563.051	13217
563.112	11948
563.173	13689
563.234	11911
563.294	14068
563.355	12465
563.416	13877
563.477	12281
563.537	14299
563.598	13513
563.659	12612
563.720	13408
563.780	14143
563.841	13426
563.901	13424
563.962	12184
564.023	12910
564.083	12310
564.144	13265
564.204	12301
564.265	13707
564.325	14204
564.386	23077
564.446	18462
564.507	11735
564.567	11551
564.628	12458
564.688	11595
564.749	12102
564.809	13140
564.869	14544
564.930	11761
564.990	12697
565.050	11624
565.111	12764
565.171	10905
565.231	12004
565.292	12342
565.352	11442
565.412	12093
565.472	12339
565.532	14134
565.593	12495
565.653	11878
565.713	12628
565.773	14484
565.833	17265
565.893	19253
565.953	12072
566.013	11197
566.074	13481
566.134	15793
566.194	21915
566.254	21752
566.314	15973
566.374	12487
566.434	12759
566.494	12019
566.554	12430
566.614	12495
566.673	13013
566.733	13912
566.793	14479
566.853	13687
566.913	13544
566.973	14452
567.033	15772
567.092	16016
567.152	15689
567.212	14152
567.272	13920
567.331	13893
567.391	14934
567.451	15034
567.511	20010
567.570	18496
567.630	14542
567.690	13329
567.749	14251
567.809	14077
567.868	16133
567.928	17611
567.988	18530
568.047	19555
568.107	23982
568.166	30051
568.226	48254
568.285	63682
568.345	46469
568.404	37075
568.464	32003
568.523	29851
568.582	32282
568.642	36371
568.701	42944
568.761	65125
568.820	104831
568.879	86907
568.939	59664
568.998	41950
569.057	32307
569.116	26814
569.176	23442
569.235	19843
569.294	17941
569.353	17191
569.413	17451
569.472	14700
569.531	13693
569.590	14287
569.649	13366
569.708	12070
569.767	15621
569.827	18877
569.886	15407
569.945	12029
570.004	14855
570.063	13308
570.122	15394
570.181	14270
570.240	14659
570.299	15674
570.358	17546
570.417	12731
570.475	12274
570.534	12905
570.593	14409
570.652	14968
570.711	14876
570.770	12634
570.829	15856
570.887	15039
570.946	17186
571.005	12132
571.064	14680
571.122	16454
571.181	15697
571.240	12239
571.299	11334
571.357	11756
571.416	11923
571.475	13080
571.533	13103
571.592	11471
571.650	12788
571.709	11275
571.768	13770
571.826	13010
571.885	10768
571.943	11023
572.002	11111
572.060	10682
572.119	10222
572.177	10710
572.236	10918
572.294	10433
572.352	11265
572.411	10653
572.469	10729
572.528	10518
572.586	10702
572.644	13206
572.703	17366
572.761	11565
572.819	10137
572.877	9629
572.936	9434
572.994	9253
573.052	10057
573.110	10817
573.169	11659
573.227	9934
573.285	9533
573.343	10245
573.401	10463
573.459	10408
573.517	10594
573.576	9600
573.634	10253
573.692	11550
573.750	10728
573.808	9886
573.866	10753
573.924	11756
573.982	12096
574.040	9640
574.098	10225
574.155	8530
574.213	9117
574.271	9529
574.329	10800
574.387	8656
574.445	8472
574.503	8356
574.560	8484
574.618	8533
574.676	7675
574.734	8190
574.792	9673
574.849	7920
574.907	8205
574.965	7045
575.022	7794
575.080	7666
575.138	9455
575.195	8163
575.253	8898
575.311	10074
575.368	8721
575.426	7967
575.483	8865
575.541	7491
575.598	7746
575.656	8166
575.713	8771
575.771	8519
575.828	8420
575.886	7750
575.943	9137
576.001	6649
576.058	7894
576.115	8992
576.173	10217
576.230	11715
576.287	14066
576.345	10118
576.402	8924
576.459	9104
576.517	8722
576.574	8874
576.631	9362
576.688	7400
576.746	8635
576.803	7321
576.860	7517
576.917	8394
576.974	8230
577.031	7692
577.089	7386
577.146	8570
577.203	7928
577.260	8416
577.317	9054
577.374	9820
577.431	8210
577.488	8142
577.545	7472
577.602	6804
577.659	8519
577.716	6841
577.773	8036
577.830	6403
577.886	7948
577.943	7507
578.000	7863
578.057	8234
578.114	9343
578.171	7196
578.227	8587
578.284	7796
578.341	8658
578.398	7745
578.454	9054
578.511	9067
578.568	11304
578.625	8489
578.681	8762
578.738	7527
578.794	7748
578.851	7581
578.908	8009
578.964	7752
579.021	9974
579.077	9561
579.134	10095
579.190	8230
579.247	8352
579.303	7703
579.360	7516
579.416	7834
579.473	7783
579.529	7388
579.586	8712
579.642	7633
579.698	8602
579.755	7904
579.811	8475
579.867	7912
579.924	7039
579.980	7258
580.036	7559
580.093	6216
580.149	8560
580.205	7805
580.261	8509
580.317	7781
580.374	9321
580.430	9711
580.486	10761
580.542	7223
580.598	8710
580.619	8689
580.654	8661
580.692	8778
580.710	8851
580.765	7951
580.767	7932
580.823	8122
580.838	8080
580.879	7984
580.911	8396
580.935	8724
580.984	8046
580.991	7962
581.047	8595
581.057	8521
581.103	8284
581.130	9025
581.159	9775
581.203	8179
581.215	7782
581.270	8393
581.276	8323
581.326	7619
581.349	7767
581.382	8054
581.422	7956
581.438	7899
581.494	8244
581.494	8240
581.550	8599
581.567	8784
581.606	9199
581.640	8474
581.661	7997
581.713	8852
581.717	8933
581.773	7531
581.786	7836
581.829	8825
581.859	7886
581.885	7128
581.932	8700
581.940	8993
581.996	8082
582.004	8265
582.052	9180
582.077	8488
582.107	7747
582.150	7936
582.163	7996
582.219	8158
582.223	8205
582.274	8842
582.296	8662
582.330	8400
582.368	8736
582.386	8874
582.441	7738
582.441	7738
582.497	7982
582.514	7983
582.552	8101
582.587	8254
582.608	8290
582.659	7832
582.663	7800
582.719	8743
582.732	8574
582.774	8173
582.805	8620
582.830	8923
582.877	8512
582.885	8437
582.941	8967
582.950	8834
582.996	8231
583.023	8340
583.052	8590
583.095	8275
583.107	8142
583.162	8938
583.168	8923
583.218	8713
583.240	8545
583.273	8345
583.313	7736
583.328	7587
583.384	8748
583.385	8737
583.439	7795
583.458	8124
583.494	8947
583.531	7974
583.549	7554
583.603	8777
583.605	8805
583.660	7757
583.676	8128
583.715	9187
583.748	9041
583.770	8951
583.820	9038
583.825	9027
583.881	8269
583.893	8240
583.936	8267
583.965	7947
583.991	7745
584.038	8408
584.046	8498
584.101	8922
584.110	9009
584.156	9354
584.183	9016
584.211	8550
584.255	8190
584.266	8182
584.321	8485
584.328	8597
584.376	9467
584.400	9491
584.431	9411
584.472	9583
584.486	9615
584.541	9044
584.545	9049
584.596	9389
584.617	9538
584.651	9785
584.689	10102
584.706	10117
584.761	10294
584.762	10296
584.816	10519
584.834	10699
584.871	10736
584.906	10921
584.926	11197
584.978	11340
584.980	11342
585.035	13162
585.051	13417
585.090	14123
585.123	15814
585.145	16893
585.195	17332
585.200	17388
585.254	20033
585.267	20905
585.309	23839
585.340	26370
585.364	28241
585.412	31235
585.419	31706
585.473	36045
585.484	37802
585.528	46699
585.556	57895
585.583	75928
585.628	126439
585.637	141219
585.692	304047
585.700	328006
585.747	415997
585.772	317967
585.801	172581
585.845	60988
585.856	45231
585.910	28319
585.917	26811
585.965	20732
585.989	19001
586.019	17494
586.061	16103
586.074	15821
586.128	16362
586.133	16391
586.183	16426
586.205	16390
586.237	16209
586.277	15470
586.292	15242
586.346	15634
586.349	15619
586.401	14917
586.421	15151
586.455	16151
586.493	17146
586.509	17895
586.564	20772
586.565	20929
586.618	27988
586.637	28178
586.672	25569
586.709	22277
586.727	21149
586.781	20756
586.781	20743
586.835	17272
586.853	16990
586.889	16650
586.925	15437
586.944	15100
586.996	16335
586.998	16360
587.052	16577
587.068	16841
587.106	17505
587.140	17168
587.161	16929
587.212	17668
587.215	17691
587.269	18143
587.284	18102
587.323	18495
587.356	18790
587.377	18728
587.427	20282
587.431	20390
587.485	20373
587.499	20492
587.539	21117
587.571	21644
587.593	21957
587.643	23202
587.648	23315
587.702	23783
587.715	24198
587.755	25932
587.786	26564
587.810	26613
587.858	27945
587.864	28207
587.917	30507
587.930	31287
587.971	33944
588.001	35461
588.025	36473
588.073	39031
588.079	39481
588.133	43696
588.145	44992
588.187	49624
588.217	52973
588.241	56267
588.288	64161
588.295	65354
588.348	76461
588.360	79324
588.402	89542
588.431	96934
588.456	104049
588.503	120724
588.510	123290
588.564	147751
588.575	153761
588.617	180011
588.646	200567
588.671	224244
588.718	280874
588.725	295153
588.778	429705
588.789	465612
588.832	715741
588.861	918336
588.886	1149199
588.932	1598673
588.939	1619455
588.993	1596243
589.004	1579196
589.047	1216535
589.075	918284
589.100	708007
589.147	402970
589.154	383129
589.207	284204
589.218	268144
589.261	249527
589.290	244284
589.314	254995
589.361	289048
589.368	303232
589.421	448703
589.433	487959
589.475	788046
589.504	1030913
589.528	1203796
589.576	1459683
589.582	1424843
589.635	966861
589.647	857726
589.689	490849
589.718	282027
589.742	224249
589.790	138835
589.795	134193
589.849	101208
589.861	94973
589.902	82628
589.932	73797
589.955	67451
590.004	55481
590.009	54680
590.062	47807
590.075	46362
590.115	43242
590.146	41035
590.168	39854
590.218	37518
590.222	37313
590.275	34916
590.289	34455
590.328	33317
590.360	32100
590.381	31382
590.431	30141
590.435	30052
590.488	28766
590.503	28523
590.541	27940
590.574	27332
590.594	27209
590.645	26961
590.647	26918
590.700	25980
590.716	25748
590.753	25539
590.787	25207
590.806	25027
590.859	25065
590.859	25058
590.912	24677
590.930	24646
590.965	24960
591.001	25039
591.018	24488
591.071	23071
591.072	23064
591.124	22946
591.143	23033
591.177	23057
591.214	22887
591.230	23078
591.283	23996
591.285	24034
591.336	24707
591.356	24998
591.389	24581
591.427	23829
591.442	23342
591.495	21761
591.498	21646
591.547	21794
591.569	21991
591.600	22132
591.640	22101
591.653	22031
591.706	22026
591.711	22022
591.759	22242
591.782	22360
591.811	23178
591.853	24385
591.864	24177
591.917	23071
591.924	22916
591.969	23027
591.995	23079
592.022	22674
592.066	22086
592.075	22332
592.127	23875
592.137	24167
592.180	25598
592.208	26499
592.233	25392
592.279	23241
592.285	23210
592.338	23081
592.350	23040
592.390	22614
592.421	22346
592.443	22419
592.491	22597
592.495	22596
592.548	22737
592.562	22784
592.600	22470
592.633	22232
592.653	22280
592.704	22319
592.705	22450
592.775	22659
592.846	23393
592.916	24891
592.987	25946
593.058	24304
593.128	24907
593.199	23313
593.270	24894
593.341	24269
593.411	24846
593.482	24860
593.553	25585
593.623	24904
593.694	26108
593.764	26332
593.835	25595
593.906	26507
593.976	25390
594.047	26975
594.117	29914
594.188	29986
594.258	28714
594.329	27944
594.399	29369
594.470	29368
594.540	29238
594.611	30772
594.681	30527
594.751	30008
594.822	32405
594.892	33907
594.963	33866
595.033	33571
595.103	35663
595.174	36099
595.244	41701
595.314	43370
595.384	38116
595.455	36814
595.525	39295
595.595	40163
595.665	40372
595.736	39215
595.806	40806
595.876	39963
595.946	40398
596.016	42159
596.087	43665
596.157	43230
596.227	42224
596.297	45923
596.367	47770
596.437	51501
596.507	54877
596.577	56443
596.647	52183
596.717	54850
596.787	55257
596.857	54032
596.927	54824
596.997	55334
597.067	55978
597.137	56656
597.207	57457
597.277	57447
597.347	55072
597.417	53776
597.487	53894
597.557	54790
597.626	56355
597.696	57599
597.766	58550
597.836	60279
597.906	52443
597.975	50704
598.045	51191
598.115	51866
598.185	56863
598.254	63962
598.324	70555
598.394	70242
598.464	68453
598.533	64844
598.603	61623
598.672	60717
598.742	60058
598.812	61602
598.881	61721
598.951	62738
599.020	63302
599.090	65247
599.159	65656
599.229	63060
599.299	62813
599.368	64229
599.437	62323
599.507	58627
599.576	55943
599.646	55374
599.715	54516
599.785	54662
599.854	53614
599.924	53150
599.993	52848
600.062	53356
600.132	53312
600.201	59361
600.270	68463
600.340	70718
600.409	66241
600.478	68605
600.547	71529
600.617	62357
600.686	50753
600.755	47263
600.824	45417
600.894	43696
600.963	43224
601.032	42147
601.101	41671
601.170	39808
601.239	38758
601.308	39634
601.378	38391
601.447	38645
601.516	37653
601.585	40601
601.654	42589
601.723	40440
601.792	40454
601.861	42059
601.930	45685
601.999	45785
602.068	44666
602.137	45875
602.206	46695
602.275	45311
602.343	48377
602.412	48948
602.481	46316
602.550	46825
602.619	47296
602.688	49195
602.756	48528
602.825	48212
602.894	49878
602.963	50640
603.032	51586
603.100	52149
603.169	52515
603.238	51976
603.307	51878
603.375	53507
603.444	53996
603.513	54536
603.581	55642
603.650	57247
603.719	54739
603.787	57332
603.856	58057
603.924	60348
603.993	61410
604.061	64389
604.130	67785
604.198	68980
604.267	68264
604.335	70123
604.404	71792
604.472	72035
604.541	73477
604.609	73046
604.678	73892
604.746	74271
604.815	75758
604.883	76217
604.951	79411
605.020	78569
605.088	80484
605.156	82644
605.225	83698
605.293	84609
605.361	83927
605.429	84970
605.498	87345
605.566	90149
605.634	93990
605.702	98771
605.771	101078
605.839	99427
605.907	98591
605.975	93694
606.043	93503
606.111	92385
606.180	91440
606.248	90007
606.316	90769
606.384	89550
606.452	95101
606.520	99184
606.588	98780
606.656	97212
606.724	95602
606.792	89496
606.860	79672
606.928	73057
606.996	70873
607.064	67625
607.132	71577
607.200	77117
607.267	78604
607.335	81262
607.403	81757
607.471	76721
607.539	76213
607.607	76323
607.674	67331
607.742	68695
607.810	68735
607.878	67637
607.946	67907
608.013	72258
608.081	72211
608.149	75532
608.216	75827
608.284	79507
608.352	78231
608.419	78270
608.487	80402
608.555	76322
608.622	77739
608.690	83121
608.757	90216
608.825	93272
608.893	91013
608.960	87708
609.028	85694
609.095	85439
609.163	81549
609.230	72169
609.298	66961
609.365	70759
609.432	75865
609.500	83304
609.567	96925
609.635	111438
609.702	116232
609.769	110465
609.837	83984
609.904	73110
609.971	74540
610.039	84890
610.106	113448
610.173	217470
610.241	482047
610.308	226532
610.375	90339
610.442	78665
610.509	73257
610.577	76043
610.644	76328
610.711	77886
610.778	81517
610.845	83711
610.912	90809
610.980	94188
611.047	92355
611.114	93846
611.181	87385
611.248	87383
611.315	95249
611.382	95979
611.449	99240
611.516	100913
611.583	100113
611.650	101843
611.717	102226
611.784	104855
611.851	108062
611.918	117525
611.984	139552
612.051	205553
612.118	425804
612.185	1020444
612.252	518021
612.319	150644
612.386	131512
612.452	119436
612.519	115547
612.586	115968
612.653	115368
612.719	121197
612.786	113954
612.853	105167
612.919	103446
612.986	105581
613.053	98311
613.120	91646
613.186	88622
613.253	92093
613.319	90100
613.386	91050
613.453	92748
613.519	94372
613.586	96224
613.652	103285
613.719	97757
613.785	97149
613.852	93065
613.918	91798
613.985	94926
614.051	99669
614.118	102575
614.184	95771
614.250	92443
614.317	94614
614.383	92896
614.449	95538
614.516	95163
614.582	96373
614.648	94312
614.715	93197
614.781	91405
614.847	90981
614.914	90694
614.980	88331
615.046	87981
615.112	90910
615.179	92878
615.245	93466
615.311	93353
615.377	101314
615.443	100952
615.509	95363
615.575	99008
615.642	98088
615.708	101765
615.774	106970
615.840	112542
615.906	122926
615.972	157182
616.038	249262
616.104	528187
616.170	1235197
616.236	856905
616.302	204482
616.368	160630
616.434	119175
616.500	114303
616.565	128343
616.631	154332
616.697	125260
616.763	133222
616.829	203953
616.895	350389
616.961	291929
617.026	125979
617.092	99993
617.158	97013
617.224	94651
617.289	86717
617.355	83354
617.421	82969
617.487	83105
617.552	78302
617.618	77706
617.684	77490
617.749	80128
617.815	75400
617.880	72627
617.946	73786
618.012	75436
618.077	75548
618.143	72434
618.208	74372
618.274	79206
618.339	79814
618.405	64488
618.470	67241
618.536	66217
618.601	67457
618.667	61005
618.732	58561
618.798	57586
618.863	57895
618.928	56987
618.994	59287
619.059	59418
619.124	65206
619.190	59485
619.255	57051
619.320	57240
619.386	57543
619.451	55823
619.516	54936
619.581	54949
619.647	57545
619.712	56649
619.777	54979
619.842	55365
619.907	56618
619.972	58290
620.038	57358
620.103	55123
620.168	54181
620.233	56390
620.298	55599
620.363	55747
620.428	58250
620.493	59754
620.558	60068
620.623	60793
620.688	61630
620.753	60387
620.818	61333
620.883	61443
620.948	60381
621.013	60545
621.078	59621
621.143	60618
621.207	63511
621.272	60731
621.337	60058
621.402	59492
621.467	61580
621.532	61380
621.596	60828
621.661	57147
621.726	55605
621.791	56975
621.855	58153
621.920	57166
621.985	58402
622.049	61174
622.114	60667
622.179	59200
622.243	61155
622.308	62516
622.373	66887
622.437	63273
622.502	59403
622.566	59646
622.631	58829
622.695	61493
622.760	62039
622.824	59550
622.889	61190
622.953	62309
623.018	74003
623.082	71670
623.147	64372
623.211	62536
623.276	61631
623.340	59498
623.404	57914
623.469	58540
623.533	58278
623.597	55905
623.662	56712
623.726	51964
623.790	49822
623.854	48711
623.919	50544
623.983	49546
624.047	51541
624.111	51365
624.176	52618
624.240	54500
624.304	58258
624.368	52445
624.432	52656
624.496	54521
624.560	58962
624.625	59536
624.689	56978
624.753	58971
624.817	55585
624.881	54038
624.945	49625
625.009	47386
625.073	49605
625.137	51563
625.201	56864
625.265	55660
625.329	51507
625.393	52169
625.456	52153
625.520	53320
625.584	54955
625.648	60212
625.712	66360
625.776	86960
625.839	85329
625.903	52272
625.967	44366
626.031	55339
626.095	69524
626.158	51106
626.222	37134
626.286	38221
626.349	34289
626.413	31586
626.477	34906
626.540	33279
626.604	32825
626.668	33540
626.731	31835
626.795	31630
626.858	32742
626.922	30740
626.986	31159
627.049	30406
627.113	32985
627.176	31878
627.240	30416
627.303	29521
627.366	30493
627.430	31533
627.493	30371
627.557	29585
627.620	30562
627.684	32614
627.747	32716
627.810	27735
627.874	26874
627.937	24857
628.000	28486
628.064	26357
628.127	21199
628.190	23958
628.253	23481
628.317	22544
628.380	21134
628.443	21305
628.506	20738
628.569	21408
628.632	18125
628.696	18651
628.759	18304
628.822	17688
628.885	17573
628.948	17131
629.011	17900
629.074	17354
629.137	16288
629.200	16174
629.263	19507
629.326	14738
629.389	16084
629.452	15290
629.515	16451
629.578	15915
629.641	16201
629.704	14706
629.767	15671
629.830	15129
629.892	15615
629.955	15553
630.018	17719
630.081	16882
630.144	19821
630.207	14556
630.269	17805
630.332	14250
630.395	15219
630.458	13600
630.520	13052
630.583	15481
630.646	14176
630.708	13231
630.771	13429
630.834	15368
630.896	14102
630.959	14316
631.021	14094
631.084	13898
631.146	15493
631.209	15287
631.272	13500
631.334	14017
631.397	13365
631.459	14320
631.522	15291
631.584	15670
631.646	17164
631.709	17304
631.771	19644
631.834	17098
631.896	15809
631.958	14045
632.021	15131
632.083	12826
632.145	13437
632.208	13509
632.270	14250
632.332	13042
632.395	12351
632.457	13781
632.519	13000
632.581	13540
632.643	12619
632.706	13415
632.768	12641
632.830	13903
632.892	13513
632.954	12202
633.016	13815
633.078	12854
633.141	12049
633.203	13217
633.265	13534
633.327	13232
633.389	12786
633.451	15298
633.513	14837
633.575	16007
633.637	15353
633.698	14740
633.760	14749
633.822	14080
633.884	14913
633.946	14890
634.008	15435
634.070	16126
634.132	17436
634.193	17349
634.255	20073
634.317	19630
634.379	20299
634.441	16414
634.502	15896
634.564	15051
634.626	14109
634.687	15118
634.749	13186
634.811	13225
634.873	11966
634.934	11570
634.996	12782
635.057	11250
635.119	11783
635.181	12666
635.242	13866
635.304	11114
635.365	16010
635.427	11704
635.488	13243
635.550	12417
635.611	12472
635.673	10079
635.734	14775
635.796	14160
635.857	17051
635.918	15373
635.980	19400
636.041	18487
636.102	21224
636.164	20973
636.225	19897
636.286	15261
636.348	16632
636.409	13325
636.470	12890
636.531	12701
636.593	11871
636.654	12388
636.715	10975
636.776	11191
636.838	10230
636.899	11368
636.960	10291
637.021	9535
637.082	10443
637.143	11123
637.204	9727
637.265	9685
637.326	10141
637.387	10219
637.448	8886
637.509	10262
637.570	9703
637.631	10920
637.692	8378
637.753	8393
637.814	9294
637.875	8578
637.936	10531
637.997	8811
638.058	9367
638.119	9801
638.179	9315
638.240	8570
638.301	8811
638.362	8892
638.423	9482
638.483	10459
638.544	7405
638.605	9085
638.666	8485
638.726	9261
638.787	8872
638.848	9198
638.908	8349
638.969	8173
639.030	8929
639.090	6995
639.151	7741
639.211	9251
639.272	11671
639.332	14470
639.393	10732
639.453	8395
639.514	9987
639.574	8702
639.635	7513
639.695	8580
639.756	7845
639.816	8489
639.877	10614
639.937	15040
639.997	17269
640.058	7785
640.118	7926
640.178	8798
640.239	7663
640.299	7684
640.359	7524
640.420	8341
640.480	9435
640.540	10317
640.600	9749
640.661	10594
640.721	8582
640.781	11147
640.841	7020
640.901	8701
640.961	7901
641.021	8848
641.082	9802
641.142	11245
641.202	9337
641.262	5748
641.322	7771
641.382	7070
641.442	8171
641.502	7650
641.562	8165
641.622	7201
641.682	8647
641.742	9189
641.802	7838
641.861	8170
641.921	8417
641.981	9980
642.041	8432
642.101	9659
642.161	6473
642.221	6410
642.280	6671
642.340	6595
642.400	6162
642.460	7657
642.519	7298
642.579	6631
642.639	8131
642.698	5764
642.758	8328
642.818	7116
642.877	6344
642.937	6947
642.997	8878
643.056	10925
643.116	6306
643.175	8730
643.235	7011
643.294	8165
643.354	9311
643.414	10163
643.473	11794
643.532	14427
643.592	20935
643.651	37459
643.711	70769
643.770	147781
643.830	381794
643.889	717192
643.948	126479
644.008	23759
644.067	14684
644.126	11602
644.186	10301
644.245	10052
644.304	6293
644.363	9654
644.423	6764
644.482	7495
644.541	9063
644.600	6606
644.659	10218
644.719	12861
644.778	20714
644.837	38915
644.896	85041
644.955	180368
645.014	47199
645.073	11421
645.132	9018
645.191	8762
645.250	7841
645.309	9698
645.368	8967
645.427	12890
645.486	20427
645.545	33009
645.604	10402
645.663	7706
645.722	7891
645.781	8613
645.840	10408
645.898	13471
645.957	21114
646.016	32549
646.075	65641
646.134	137314
646.192	394501
646.251	481797
646.310	56231
646.369	16995
646.427	14415
646.486	8720
646.545	8785
646.603	8113
646.662	7958
646.721	7494
646.779	6708
646.838	6271
646.896	9889
646.955	13432
647.014	22745
647.072	43826
647.131	117519
647.189	44451
647.248	7892
647.306	6794
647.365	6495
647.423	4097
647.481	7051
647.540	4375
647.598	4992
647.657	4423
647.715	5469
647.773	3696
647.832	5337
647.890	3239
647.948	3725
648.007	5278
648.065	3810
648.123	4760
648.181	5592
648.240	5145
648.298	3997
648.356	3732
648.414	4260
648.472	4595
648.531	3703
648.589	3792
648.647	3381
648.705	3622
648.763	4188
648.821	4209
648.879	4326
648.937	4753
648.995	7287
649.053	10209
649.111	15791
649.169	27141
649.227	52558
649.285	117968
649.343	326896
649.401	118212
649.459	25155
649.516	13906
649.574	7172
649.632	9099
649.690	9992
649.748	9445
649.806	14922
649.863	29809
649.921	81629
649.979	42286
650.037	7099
650.094	3157
650.152	4251
650.210	3466
650.268	3515
650.325	3680
650.383	3123
650.440	2397
650.498	3562
650.556	3628
650.613	2554
650.671	2671
650.728	2506
650.786	3989
650.843	4263
650.901	1685
650.958	3061
651.016	2424
651.073	2408
651.131	2080
651.188	1051
651.246	2601
651.303	1987
651.360	2397
651.418	2156
651.475	2702
651.532	2235
651.590	2216
651.647	1236
651.704	1903
651.762	2065
651.819	1794
651.876	2192
651.933	1482
651.990	2837
652.048	186
652.105	1647
652.162	1966
652.219	1409
652.276	1400
652.333	2720
652.390	1068
652.448	1864
652.505	1794
652.562	2196
652.619	1535
652.676	1964
652.733	2414
652.790	2207
652.847	-141
652.904	1685
652.961	819
653.017	1072
653.074	1619
653.131	1912
653.188	970
653.245	1628
653.302	1585
653.359	1216
653.415	2114
653.472	1240
653.529	1586
653.586	1687
653.642	852
653.699	2921
653.756	1015
653.813	1339
653.869	1454
653.926	1347
653.983	819
654.039	1657
654.096	632
654.152	1796
654.209	-309
654.266	1696
654.322	511
654.379	2342
654.435	2385
654.492	2078
654.548	3274
654.605	4683
654.661	2773
654.717	1566
654.774	1951
654.830	1857
654.887	1779
654.943	2000
655.000	1721
655.056	2240
655.112	1874
655.168	1083
655.225	1407
655.281	2302
655.337	2184
655.394	3348
655.450	2545
655.506	2051
655.562	3984
655.618	3432
655.675	664
655.731	1082
655.787	993
655.843	2573
655.899	1376
655.955	1623
656.011	1771
656.067	1316
656.123	2096
656.179	1498
656.235	2924
656.291	1286
656.347	2995
656.403	1477
656.459	720
656.515	1187
656.571	1892
656.627	2496
656.683	1348
656.739	2096
656.795	1643
656.850	2272
656.906	1932
656.962	2789
657.018	762
657.074	1508
657.129	2547
657.185	5101
657.241	9979
657.297	3735
657.352	1834
657.408	976
657.464	1791
657.519	1155
657.575	1026
657.630	1626
657.686	79
657.742	1041
657.797	952
657.853	959
657.908	2058
657.964	611
658.019	1190
658.075	1051
658.130	1251
658.186	645
658.241	425
658.297	689
658.352	593
658.407	1476
658.463	580
658.518	1615
658.573	1446
658.629	-844
658.684	1087
658.739	1396
658.795	589
658.850	1740
658.905	775
658.960	262
659.016	551
659.071	929
659.126	620
659.181	944
659.236	3696
659.291	4238
659.346	1941
659.401	1172
659.457	1525
659.512	53
659.567	1255
659.622	670
659.677	550
659.732	-825
659.787	499
659.842	1133
659.897	925
659.952	955
660.007	866
660.061	952
660.116	984
660.171	728
660.226	846
660.281	1699
660.336	-539
660.391	1600
660.445	78
660.500	1125
660.555	1072
660.610	839
660.664	564
660.719	391
660.774	472
660.828	1326
660.883	1216
660.938	1493
660.992	-744
661.047	1014
661.101	711
661.156	303
661.211	68
661.265	836
661.320	-676
661.374	1015
661.429	-109
661.483	896
661.538	-114
661.592	1043
661.647	128
661.701	1075
661.755	-279
661.810	618
661.864	500
661.919	-310
661.973	1184
662.027	543
662.081	-530
662.136	244
662.190	1087
662.244	951
662.299	1151
662.353	970
662.407	-181
662.461	822
662.515	264
662.569	886
662.624	710
662.678	379
662.732	446
662.786	775
662.840	713
662.894	-86
662.948	285
663.002	507
663.056	918
663.110	-286
663.164	19
663.218	776
663.272	1609
663.326	1701
663.380	133
663.434	1292
663.488	-620
663.542	770
663.595	685
663.649	898
663.703	797
663.757	1004
663.811	155
663.864	484
663.918	1017
663.972	346
664.026	-45
664.079	795
664.133	951
664.187	909
664.240	307
664.294	644
664.348	1039
664.401	689
664.455	334
664.508	519
664.562	484
664.615	944
664.669	470
664.722	610
664.776	360
664.829	507
664.883	694
664.936	386
664.990	878
665.043	864
665.097	-418
665.150	1134
665.203	308
665.257	337
665.310	420
665.363	835
665.417	363
665.470	504
665.523	389
665.576	753
665.630	-151
665.683	801
665.736	878
665.789	723
665.842	56
665.895	353
665.949	295
666.002	340
666.055	881
666.108	1061
666.161	636
666.214	1901
666.267	1145
666.320	1563
666.373	1343
666.426	1288
666.479	401
666.532	718
666.585	1053
666.638	1167
666.691	581
666.744	809
666.796	1522
666.849	787
666.902	542
666.955	1071
667.008	432
667.060	882
667.113	205
667.166	1031
667.219	1367
667.271	837
667.324	709
667.377	1599
667.430	555
667.482	660
667.535	995
667.587	1466
667.640	1103
667.693	1714
667.745	3460
667.798	2647
667.850	1040
667.903	357
667.955	570
668.008	1043
668.060	1930
668.113	936
668.165	1742
668.218	1407
668.270	1211
668.322	532
668.375	-238
668.427	631
668.479	815
668.532	1131
668.584	975
668.636	-792
668.689	701
668.741	870
668.793	938
668.845	348
668.898	1311
668.950	1647
669.002	1003
669.054	922
669.106	466
669.158	1136
669.211	1098
669.263	369
669.315	1072
669.367	1610
669.419	280
669.471	1943
669.523	1326
669.575	2013
669.627	884
669.679	618
669.731	967
669.783	1706
669.835	637
669.886	1348
669.938	969
669.990	1466
670.042	470
670.094	1960
670.146	312
670.197	568
670.249	1368
670.301	1244
670.353	1545
670.404	2586
670.456	2603
670.508	5607
670.560	8980
670.611	15030
670.663	28559
670.715	77744
670.766	102800
670.818	20745
670.869	4143
670.921	2987
670.972	1444
671.024	1732
671.075	1140
671.127	1234
671.178	629
671.230	1524
671.281	1059
671.333	2225
671.384	1041
671.436	2031
671.487	3372
671.538	5363
671.590	8306
671.641	15435
671.692	29565
671.744	56608
671.795	25685
671.846	7471
671.897	3135
671.949	2357
672.000	1866
672.051	1730
672.102	1804
672.153	434
672.204	1290
672.256	1363
672.307	928
672.358	675
672.409	632
672.460	1161
672.511	-72
672.562	395
672.613	646
672.664	269
672.715	488
672.766	70
672.817	547
672.868	699
672.919	1087
672.970	39
673.021	256
673.071	89
673.122	118
673.173	882
673.224	-214
673.275	-71
673.326	125
673.376	286
673.427	-447
673.478	96
673.528	506
673.579	178
673.630	-204
673.680	762
673.731	-224
673.782	-192
673.832	762
673.883	807
673.934	9
673.984	-272
674.035	140
674.085	635
674.136	1168
674.186	1559
674.237	548
674.287	1493
674.338	430
674.388	-50
674.438	88
674.489	1319
674.539	747
674.589	394
674.640	93
674.690	1718
674.740	-163
674.791	421
674.841	1037
674.891	649
674.942	813
674.992	206
675.042	148
675.092	-105
675.142	-740
675.193	-237
675.243	-765
675.293	166
675.343	240
675.393	-292
675.443	-216
675.493	-205
675.543	-408
675.593	56
675.643	-298
675.693	483
675.743	-513
675.793	242
675.843	516
675.893	599
675.943	60
675.993	331
676.043	39
676.093	-334
676.142	-344
676.192	171
676.242	25
676.292	-418
676.341	13
676.391	59
676.441	-44
676.491	-70
676.540	91
676.590	106
676.640	-69
676.689	-73
676.739	120
676.789	188
676.838	116
676.888	-89
676.937	208
676.987	537
677.037	-617
677.086	-850
677.136	739
677.185	-373
677.235	-346
677.284	-219
677.333	110
677.383	-1229
677.432	-1031
677.482	-799
677.531	-815
677.580	-350
677.630	-601
677.679	-355
677.728	-396
677.778	-125
677.827	-799
677.876	-646
677.925	-222
677.975	-260
678.024	-15
678.073	-14
678.122	541
678.171	147
678.220	447
678.269	753
678.319	-77
678.368	219
678.417	194
678.466	0
678.515	657
678.564	-106
678.613	-175
678.662	-242
678.711	529
678.760	-367
678.809	-569
678.857	-497
678.906	-97
678.955	-557
679.004	-234
679.053	182
679.102	-212
679.151	-455
679.199	-844
679.248	-257
679.297	-484
679.346	-439
679.394	-999
679.443	-655
679.492	300
679.540	-494
679.589	-175
679.638	405
679.686	-244
679.735	344
679.784	-220
679.832	417
679.881	-1032
679.929	-921
679.978	-1051
680.026	-163
680.075	-224
680.123	-410
680.172	-600
680.220	-706
680.268	-407
680.317	-224
680.365	-572
680.414	-558
680.462	-785
680.510	196
680.559	-238
680.607	-506
680.655	-385
680.703	64
680.752	-1253
680.800	-280
680.848	-348
680.896	-962
680.945	-35
680.993	-1248
681.041	-231
681.089	-520
681.137	-974
681.185	-154
681.233	-658
681.258	-526
681.281	-425
681.329	492
681.377	-472
681.380	-428
681.425	-59
681.473	-320
681.502	164
681.521	452
681.569	-336
681.617	301
681.624	357
681.665	550
681.713	330
681.745	390
681.761	393
681.809	-498
681.857	648
681.867	759
681.904	1039
681.952	-269
681.989	308
682.000	452
682.048	-408
682.096	-133
682.111	221
682.143	894
682.191	86
682.233	627
682.239	687
682.286	573
682.334	589
682.354	452
682.382	204
682.430	1092
682.476	-102
682.477	-148
682.525	749
682.572	370
682.598	645
682.620	880
682.667	653
682.715	1844
682.720	1831
682.763	1409
682.810	742
682.841	964
682.857	1061
682.905	1421
682.952	1126
682.963	1193
683.000	1319
683.047	495
683.085	1301
683.095	1508
683.142	1071
683.190	1034
683.206	1088
683.237	1108
683.284	1717
683.328	1051
683.332	979
683.379	2012
683.426	1607
683.449	1501
683.473	1390
683.521	972
683.568	2213
683.571	2181
683.615	1494
683.662	2163
683.693	1681
683.709	1360
683.757	1237
683.804	2014
683.814	1876
683.851	1458
683.898	2441
683.936	1970
683.945	1829
683.992	1991
684.039	2783
684.057	2628
684.086	2343
684.133	2734
684.179	2689
684.180	2666
684.227	3088
684.274	3046
684.300	3108
684.321	3147
684.368	1917
684.415	2939
684.422	2891
684.462	2505
684.509	1722
684.543	2394
684.556	2645
684.603	3264
684.649	2175
684.665	2529
684.696	3255
684.743	2946
684.786	2650
684.790	2614
684.837	2612
684.883	3091
684.908	3162
684.930	3124
684.977	3188
685.023	2996
685.029	3001
685.070	2980
685.117	3386
685.150	3424
685.164	3478
685.210	3521
685.257	3915
685.272	3864
685.303	3745
685.350	4148
685.393	3776
685.396	3741
685.443	4943
685.490	4935
685.514	5038
685.536	4855
685.583	4363
685.629	3751
685.636	3754
685.675	3944
685.722	3977
685.757	3931
685.768	3923
685.815	4568
685.861	4117
685.878	4193
685.908	4425
685.954	4500
686.000	4886
686.000	4888
686.047	4688
686.093	6314
686.121	6513
686.139	6262
686.185	5422
686.232	5098
686.242	4900
686.278	4525
686.324	4596
686.363	4589
686.370	4587
686.416	3926
686.463	4709
686.484	4466
686.509	4328
686.555	4992
686.601	4693
686.606	4750
686.647	5045
686.693	4440
686.727	4562
686.739	4649
686.785	4671
686.831	4680
686.848	4838
686.877	4935
686.923	4555
686.969	4748
686.969	4749
687.015	4530
687.061	4294
687.090	4662
687.107	4884
687.153	4756
687.199	5359
687.211	5273
687.245	4977
687.291	5157
687.332	5287
687.336	5294
687.382	5513
687.428	5759
687.453	5676
687.474	5547
687.520	4904
687.565	5128
687.574	5039
687.611	5111
687.657	5427
687.695	6076
687.702	6174
687.748	6198
687.794	6020
687.816	6100
687.839	5967
687.885	5571
687.931	5596
687.937	5543
687.976	5501
688.022	6201
688.058	6138
688.067	6103
688.113	5601
688.158	5440
688.179	5423
688.204	5483
688.249	6049
688.295	6005
688.300	5975
688.340	5826
688.386	6354
688.421	5967
688.431	5865
688.477	6200
688.522	6238
688.542	6501
688.567	6748
688.613	6411
688.658	5745
688.663	5795
688.703	6361
688.749	6506
688.784	6169
688.794	6033
688.839	6108
688.884	5619
688.905	5665
688.930	5830
688.975	5760
689.020	6163
689.026	6151
689.065	6165
689.110	5484
689.146	5806
689.155	5904
689.201	6206
689.246	6371
689.267	6316
689.291	6321
689.336	6807
689.381	6271
689.388	6339
689.426	6518
689.471	6415
689.509	6729
689.516	6789
689.561	5830
689.606	5972
689.630	6189
689.651	6563
689.696	6414
689.741	6889
689.750	6819
689.785	6281
689.830	6526
689.871	5810
689.875	5764
689.920	6158
689.965	6015
689.992	6037
690.010	6171
690.054	5972
690.099	6224
690.112	6255
690.144	6226
690.189	6356
690.233	6366
690.233	6377
690.278	6512
690.323	6491
690.354	6471
690.367	6530
690.412	6608
690.457	6737
690.474	7008
690.501	7272
690.546	7061
690.590	6546
690.595	6511
690.635	6553
690.680	6689
690.716	6480
690.724	6434
690.769	6845
690.813	7048
690.836	7027
690.857	7075
690.902	6968
690.946	6972
690.957	7074
690.991	7501
691.035	7344
691.077	7924
691.080	7983
691.124	8437
691.168	8647
691.198	8780
691.213	8697
691.257	9116
691.301	8637
691.318	8484
691.346	8024
691.390	7440
691.434	6925
691.439	6852
691.478	7093
691.522	7709
691.559	7467
691.567	7469
691.611	8345
691.655	8608
691.680	8648
691.699	8364
691.743	7933
691.787	7768
691.800	7627
691.831	7705
691.875	7598
691.919	7888
691.921	7879
691.964	8169
692.008	8043
692.041	8204
692.052	8314
692.096	8634
692.139	9157
692.162	9237
692.183	9148
692.227	9043
692.271	8585
692.282	8652
692.315	8896
692.359	8828
692.402	8394
692.403	8413
692.447	8367
692.490	8965
692.523	8830
692.534	8731
692.578	9027
692.622	8895
692.643	8740
692.666	8600
692.709	8604
692.753	8395
692.763	8343
692.797	8175
692.840	8065
692.884	7949
692.884	7969
692.928	7845
692.971	8153
693.004	7974
693.015	7904
693.059	7941
693.102	8137
693.124	8051
693.146	8235
693.189	8628
693.233	8978
693.245	9083
693.276	9276
693.320	9622
693.363	9582
693.365	9569
693.407	9506
693.450	9149
693.485	9243
693.493	9352
693.537	9345
693.580	9500
693.605	9495
693.624	9495
693.667	9342
693.710	9427
693.725	9465
693.753	9977
693.797	10539
693.840	11097
693.845	11190
693.883	11368
693.926	10662
693.966	10621
693.970	10633
694.013	10246
694.056	9819
694.086	9702
694.099	9786
694.142	9635
694.185	9479
694.206	9636
694.229	10087
694.272	10270
694.315	10936
694.326	10925
694.358	10898
694.401	11425
694.444	11564
694.446	11553
694.487	11389
694.530	10851
694.566	10398
694.573	10316
694.616	10037
694.659	9469
694.686	9232
694.702	9268
694.745	9151
694.787	8677
694.806	8614
694.830	8680
694.873	8822
694.916	8714
694.926	8690
694.959	8975
695.002	9421
695.044	9761
695.046	9752
695.087	9853
695.130	9793
695.166	9717
695.172	9749
695.215	9524
695.258	9872
695.286	9823
695.301	9759
695.343	9642
695.386	9553
695.406	9456
695.428	9615
695.471	9634
695.514	10024
695.526	10047
695.556	10140
695.599	10495
695.641	10538
695.646	10537
695.684	10347
695.726	9937
695.766	9460
695.769	9490
695.811	9677
695.854	9989
695.886	10049
695.896	10029
695.938	9826
695.981	9835
696.005	9640
696.023	9760
696.065	10250
696.108	10564
696.125	10751
696.150	10981
696.192	11064
696.235	11160
696.245	11205
696.277	11324
696.319	11153
696.361	11383
696.365	11331
696.404	11105
696.446	11248
696.485	11188
696.488	11223
696.530	11295
696.572	11352
696.604	11326
696.614	11322
696.656	11157
696.698	11117
696.724	11003
696.740	11006
696.783	11008
696.825	10965
696.844	10936
696.867	11113
696.909	11347
696.951	11412
696.964	11448
696.992	11429
697.034	11408
697.076	11365
697.083	11322
697.118	11546
697.160	11699
697.202	11821
697.203	11793
697.244	11840
697.286	11825
697.323	11721
697.327	11767
697.369	11811
697.411	11881
697.442	12014
697.453	12098
697.494	12123
697.536	12245
697.562	12320
697.578	12567
697.620	13006
697.661	13520
697.682	13725
697.703	13995
697.744	14487
697.786	15009
697.801	15083
697.828	15020
697.869	15017
697.911	14921
697.921	14891
697.952	14281
697.994	13260
698.035	12327
698.040	12179
698.077	12206
698.118	12186
698.160	12116
698.160	12081
698.201	12081
698.243	12101
698.279	12078
698.284	12170
698.325	12688
698.367	13215
698.399	13577
698.408	13474
698.449	12804
698.491	12153
698.518	11688
698.532	11827
698.573	12129
698.614	12458
698.638	12587
698.656	12803
698.697	13243
698.738	13686
698.757	13853
698.779	13879
698.820	13849
698.862	13813
698.877	13766
698.903	14104
698.944	14577
698.985	15050
698.996	15141
699.026	14832
699.067	14344
699.116	13725
699.235	12336
699.354	12744
699.474	12381
699.593	14194
699.713	13174
699.832	14271
699.951	14762
700.070	13437
700.190	12300
700.309	12756
700.428	14743
700.547	12451
700.667	12745
700.786	14751
700.905	12216
701.024	13529
701.143	12336
701.262	10713
701.381	12040
701.500	12944
701.619	13765
701.738	12159
701.857	12176
701.976	11548
702.095	12362
702.214	13968
702.333	13420
702.452	12920
702.571	11462
702.690	12115
702.809	11103
702.928	11486
703.047	11008
703.165	11567
703.284	10923
703.403	11540
703.522	12037
703.640	12002
703.759	15101
703.878	19023
703.997	12221
704.115	11918
704.234	11274
704.353	11195
704.471	10054
704.590	10085
704.708	9765
704.827	9594
704.946	9772
705.064	11162
705.183	9478
705.301	11391
705.420	13205
705.538	12290
705.656	10317
705.775	10618
705.893	13123
706.012	13358
706.130	11030
706.249	11829
706.367	10879
706.485	12096
706.604	10755
706.722	12667
706.840	15855
706.958	15048
707.077	10868
707.195	10845
707.313	10546
707.431	10288
707.549	10163
707.668	9555
707.786	12214
707.904	9871
708.022	10401
708.140	10450
708.258	10144
708.376	10299
708.494	10467
708.612	11443
708.730	14238
708.848	13530
708.966	14111
709.084	13464
709.202	11570
709.320	11540
709.438	12259
709.556	12055
709.674	11287
709.791	12110
709.909	10826
710.027	11534
710.145	11254
710.263	12807
710.380	11428
710.498	10564
710.616	11076
710.733	11154
710.851	11353
710.969	12316
711.086	11151
711.204	11779
711.322	11495
711.439	11085
711.557	11478
711.674	10608
711.792	11396
711.909	10607
712.027	10515
712.144	11189
712.262	10615
712.379	12305
712.497	14599
712.614	13651
712.732	12666
712.849	11953
712.966	14836
713.084	17570
713.201	13519
713.318	13200
713.436	13369
713.553	12766
713.670	14227
713.787	15602
713.905	15007
714.022	13904
714.139	14493
714.256	18931
714.373	27715
714.490	52205
714.608	159033
714.725	687331
714.842	545010
714.959	39408
715.076	18600
715.193	15708
715.310	14449
715.427	11340
715.544	12037
715.661	11158
715.778	11014
715.895	11736
716.011	12097
716.128	11967
716.245	11013
716.362	15409
716.479	13753
716.596	11067
716.713	11191
716.829	11414
716.946	11111
717.063	9276
717.180	9678
717.296	8562
717.413	9125
717.530	9821
717.646	9249
717.763	9346
717.880	9023
717.996	9266
718.113	9267
718.229	9283
718.346	8410
718.462	10657
718.579	14641
718.695	25675
718.812	15443
718.928	14948
719.045	10066
719.161	8486
719.277	9572
719.394	9671
719.510	9636
719.626	11297
719.743	14780
719.859	21601
719.975	44591
720.092	199775
720.208	395731
720.324	34837
720.440	13484
720.557	13687
720.673	21281
720.789	24814
720.905	44756
721.021	13504
721.137	8250
721.253	8629
721.369	8282
721.486	10331
721.602	13733
721.718	8123
721.834	7344
721.950	7751
722.066	7816
722.181	6741
722.297	8159
722.413	7857
722.529	6634
722.645	7595
722.761	6380
722.877	7456
722.993	7427
723.108	9938
723.224	8186
723.340	7074
723.456	7579
723.571	7675
723.687	6456
723.803	7559
723.918	6654
724.034	6859
724.150	7462
724.265	8737
724.381	17703
724.497	18540
724.612	6877
724.728	6791
724.843	5762
724.959	8403
725.074	17545
725.190	16176
725.305	7757
725.421	6360
725.536	5772
725.651	5724
725.767	5948
725.882	6253
725.997	6527
726.113	6463
726.228	5760
726.343	6302
726.459	5293
726.574	6021
726.689	5141
726.804	5195
726.920	5810
727.035	6336
727.150	6450
727.265	6536
727.380	6544
727.495	5734
727.610	4678
727.725	5694
727.841	5148
727.956	6691
728.071	6882
728.186	6017
728.301	5246
728.416	6627
728.531	5547
728.645	5607
728.760	7147
728.875	7345
728.990	6930
729.105	6907
729.220	6695
729.335	6446
729.449	5145
729.564	5063
729.679	4657
729.794	4840
729.908	5912
730.023	5414
730.138	4430
730.253	5480
730.367	4518
730.482	5223
730.596	5300
730.711	6207
730.826	6545
730.940	5977
731.055	6176
731.169	5549
731.284	5360
731.398	6130
731.513	6549
731.627	6752
731.742	8084
731.856	8594
731.970	8156
732.085	10846
732.199	15285
732.313	28025
732.428	80267
732.542	235323
732.656	110008
732.771	19008
732.885	10698
732.999	9051
733.113	9396
733.227	8815
733.342	7424
733.456	7145
733.570	6687
733.684	6318
733.798	5909
733.912	5838
734.026	5608
734.140	6196
734.254	6916
734.368	10317
734.482	11760
734.596	5362
734.710	5389
734.824	5709
734.938	5605
735.052	5988
735.166	6421
735.280	5871
735.393	5255
735.507	6045
735.621	7510
735.735	13003
735.849	6291
735.962	6005
736.076	5478
736.190	5694
736.303	8102
736.417	9319
736.531	5188
736.644	6103
736.758	4602
736.872	5053
736.985	4190
737.099	4982
737.212	4502
737.326	5265
737.439	4439
737.553	4865
737.666	5668
737.780	4722
737.893	4585
738.007	4744
738.120	4173
738.233	5046
738.347	5584
738.460	4475
738.573	5559
738.687	5545
738.800	6437
738.913	7643
739.026	4726
739.140	4487
739.253	4965
739.366	4731
739.479	4187
739.592	3972
739.705	3911
739.818	4603
739.932	4745
740.045	5669
740.158	4843
740.271	4751
740.384	4552
740.497	5416
740.610	5975
740.723	5095
740.836	5626
740.949	6272
741.062	7831
741.174	6663
741.287	4842
741.400	4956
741.513	5911
741.626	7326
741.739	5218
741.851	5055
741.964	4634
742.077	5017
742.189	6124
742.302	7100
742.415	6651
742.527	5388
742.640	4464
742.753	4566
742.865	3031
742.978	4403
743.090	3980
743.203	4327
743.316	3424
743.428	3939
743.541	2932
743.653	4011
743.766	3814
743.878	3683
743.990	5810
744.103	6616
744.215	5732
744.327	3860
744.440	5894
744.552	9527
744.664	4429
744.777	3418
744.889	2826
745.001	5004
745.113	3534
745.226	3055
745.338	4383
745.450	4313
745.562	4282
745.674	3304
745.786	3005
745.898	3679
746.010	3859
746.122	3689
746.234	4785
746.347	2935
746.459	3639
746.570	3626
746.682	4357
746.794	5636
746.906	3562
747.018	3235
747.130	3293
747.242	3564
747.354	3053
747.466	4191
747.577	2646
747.689	3943
747.801	3023
747.913	2759
748.024	3363
748.136	2951
748.248	2314
748.359	2815
748.471	3285
748.583	3496
748.694	2474
748.806	3998
748.918	4860
749.029	3281
749.141	4188
749.252	4171
749.364	5586
749.475	11276
749.587	5377
749.698	2448
749.809	3112
749.921	3542
750.032	2926
750.144	2200
750.255	2998
750.366	2509
750.478	2092
750.589	3116
750.700	2641
750.811	3848
750.923	5034
751.034	13436
751.145	10763
751.256	3329
751.367	2852
751.479	2395
751.590	2432
751.701	2363
751.812	2499
751.923	2802
752.034	3022
752.145	2502
752.256	2412
752.367	2005
752.478	2204
752.589	2582
752.700	3062
752.811	1943
752.922	2710
753.032	2682
753.143	4214
753.254	1794
753.365	3258
753.476	2643
753.586	2423
753.697	2793
753.808	2088
753.919	2082
754.029	2079
754.140	2155
754.251	2606
754.361	2658
754.472	1987
754.582	2231
754.693	1960
754.804	1965
754.914	1232
755.025	1882
755.135	2015
755.246	1623
755.356	1758
755.466	2692
755.577	2657
755.687	2294
755.798	2034
755.908	2481
756.018	2195
756.129	1835
756.239	2203
756.349	2255
756.460	2244
756.570	2601
756.680	3250
756.790	2633
756.900	3744
757.011	2461
757.121	2322
757.231	1698
757.341	1669
757.451	2422
757.561	1910
757.671	2423
757.781	1086
757.891	2589
758.001	2990
758.111	2506
758.221	2588
758.331	3192
758.441	3901
758.551	5023
758.661	4350
758.771	2940
758.880	2169
758.990	1920
759.100	1853
759.210	2609
759.320	3019
759.429	2887
759.539	3427
759.649	2724
759.758	3738
759.868	4750
759.978	3308
760.087	4760
760.197	4994
760.307	3919
760.416	3731
760.526	1952
760.635	3755
760.745	4452
760.854	5127
760.964	4639
761.073	4996
761.182	4707
761.292	4116
761.401	3614
761.511	2131
761.620	3116
761.729	3793
761.839	2670
761.948	2226
762.057	3451
762.166	3623
762.276	1857
762.385	3854
762.494	2648
762.603	2102
762.712	2553
762.822	2245
762.931	1890
763.040	960
763.149	2241
763.258	1621
763.367	1516
763.476	2786
763.585	2146
763.694	1977
763.803	2542
763.912	3050
764.021	2472
764.130	1909
764.238	2849
764.347	2096
764.456	2212
764.565	2213
764.674	2525
764.783	2281
764.891	1293
765.000	3529
765.109	3079
765.217	2975
765.326	3832
765.435	4255
765.543	3596
765.652	4093
765.761	3414
765.869	6169
765.978	8531
766.086	15435
766.195	31048
766.303	92996
766.412	334881
766.520	242431
766.629	33717
766.737	11802
766.846	8027
766.954	5324
767.062	6179
767.171	4565
767.279	4388
767.387	3894
767.496	3412
767.604	3224
767.712	2997
767.820	2372
767.928	2591
768.037	2683
768.145	3203
768.253	2671
768.361	3052
768.469	2677
768.577	2633
768.685	3139
768.793	2612
768.901	2171
769.009	3279
769.117	2581
769.225	4014
769.333	4335
769.441	7409
769.549	12428
769.657	30170
769.765	123057
769.873	278443
769.981	56692
770.088	9747
770.196	6132
770.304	4185
770.412	3684
770.519	3455
770.627	2746
770.735	2269
770.842	2946
770.950	2808
771.058	2697
771.165	3077
771.273	3272
771.380	3450
771.488	3333
771.595	3479
771.703	2186
771.810	3548
771.918	2494
772.025	3097
772.133	2960
772.240	3491
772.348	3436
772.455	4718
772.562	2281
772.670	3911
772.777	4017
772.884	3259
772.991	3675
773.099	3599
773.206	2385
773.313	3656
773.420	3442
773.528	1971
773.635	2732
773.742	3943
773.849	4302
773.956	2899
774.063	2556
774.170	2733
774.277	3869
774.384	3089
774.491	2770
774.598	3401
774.705	3731
774.812	4602
774.919	2836
775.026	3673
775.133	3437
775.239	3874
775.346	2496
775.453	2032
775.560	2654
775.667	3241
775.773	1957
775.880	3436
775.987	2916
776.093	3869
776.200	2851
776.307	1793
776.413	2903
776.520	2997
776.627	2158
776.733	3193
776.840	779
776.946	4846
777.053	5200
777.159	7358
777.266	4463
777.372	7462
777.478	5935
777.585	4134
777.691	1919
777.798	3199
777.904	3248
778.010	4673
778.117	3593
778.223	2898
778.329	2479
778.435	3004
778.542	2741
778.648	1657
778.754	1860
778.860	2274
778.966	2969
779.072	2518
779.178	3366
779.284	2436
779.391	1609
779.497	717
779.603	3469
779.708	1106
779.815	2715
779.920	4113
780.026	3785
780.132	2326
780.238	1106
780.344	2634
780.450	2876
780.556	2792
780.661	1504
780.767	2381
780.873	2267
780.979	2242
781.085	2512
781.190	2737
781.296	2286
781.402	1924
781.507	1236
781.613	2009
781.719	1325
781.824	2457
781.930	2085
782.035	1885
782.141	1654
782.246	2008
782.352	1325
782.457	2263
782.563	1431
782.668	1751
782.773	2134
782.879	1522
782.984	2580
783.090	3209
783.195	5467
783.300	3078
783.405	1507
783.511	1208
783.616	2396
783.721	2212
783.826	989
783.932	2307
784.037	1601
784.142	1743
784.247	1636
784.352	1864
784.457	1371
784.562	1377
784.667	1868
784.772	1825
784.877	1285
784.982	2048
785.087	1275
785.192	2585
785.297	1061
785.402	1817
785.507	1641
785.611	1858
785.716	1724
785.821	2151
785.926	1158
786.031	1467
786.135	725
786.240	1833
786.345	55
786.450	1638
786.554	1347
786.659	899
786.763	292
786.868	2167
786.973	1938
787.077	1554
787.182	920
787.286	1664
787.391	1660
787.495	472
787.600	399
787.704	970
787.809	1382
787.913	173
788.017	871
788.122	1866
788.226	1692
788.330	683
788.435	1846
788.539	1109
788.643	246
788.747	1033
788.852	1048
788.956	986
789.060	1332
789.164	1442
789.268	-215
789.372	2232
789.476	1465
789.580	1238
789.684	1110
789.788	1636
789.892	715
789.996	1482
790.100	950
790.204	530
790.308	1563
790.412	506
790.516	1895
790.620	1000
790.724	1332
790.828	1635
790.931	403
791.035	3027
791.139	851
791.242	236
791.346	1791
791.450	1062
791.554	755
791.657	858
791.761	2135
791.864	1111
791.968	1412
792.072	1839
792.175	795
792.279	1372
792.382	806
792.486	591
792.589	843
792.693	1266
792.796	503
792.899	1661
793.003	1348
793.106	572
793.209	361
793.313	2665
793.416	164
793.519	2689
793.623	2992
793.726	4573
793.829	1313
793.932	521
794.035	233
794.138	1778
794.242	2046
794.345	1400
794.448	2624
794.551	3796
794.654	4423
794.757	3766
794.860	1959
794.963	1824
795.066	918
795.169	2440
795.272	-136
795.375	787
795.477	758
795.580	1373
795.683	-210
795.786	526
795.889	-19
795.991	1699
796.094	2130
796.197	-251
796.300	1782
796.402	705
796.505	271
796.608	347
796.710	1650
796.813	1138
796.915	-45
797.018	1444
797.120	1615
797.223	-123
797.326	2396
797.428	-153
797.530	626
797.633	937
797.735	1912
797.838	3153
797.940	2313
798.042	696
798.145	1202
798.247	1671
798.349	-440
798.452	1290
798.554	1427
798.656	435
798.758	2160
798.860	595
798.962	-335
799.065	151
799.167	-300
799.269	1344
799.371	2013
799.473	2270
799.575	982
799.677	1764
799.779	2887
799.881	2845
799.983	1751
800.085	1077
800.187	1408
800.289	368
800.390	697
800.492	1280
800.594	1308
800.696	848
800.798	1062
800.899	441
801.001	738
801.103	328
801.205	782
801.306	1347
801.408	277
801.509	599
801.611	908
801.713	496
801.814	518
801.916	-99
802.017	87
802.119	-599
802.220	403
802.322	-58
802.423	3313
802.525	-655
802.626	1016
802.727	1162
802.829	1098
802.930	-1067
803.031	2628
803.133	459
803.234	650
803.335	686
803.436	-997
803.538	659
803.639	-141
803.740	445
803.841	179
803.942	461
804.043	977
804.144	203
804.245	1029
804.346	549
804.447	1140
804.548	1979
804.649	3232
804.750	1038
804.851	484
804.952	31
805.053	235
805.154	173
805.255	810
805.355	1323
805.456	205
805.557	-58
805.658	-624
805.758	661
805.859	867
805.960	4
806.061	-356
806.161	106
806.262	-208
806.362	-50
806.463	236
806.564	960
806.664	215
806.765	1004
806.865	1565
806.966	292
807.066	-117
807.166	357
807.267	405
807.367	339
807.468	759
807.568	-910
807.668	376
807.769	2160
807.869	397
807.969	636
808.069	495
808.170	1368
808.270	481
808.370	373
808.470	2190
808.570	164
808.670	478
808.770	98
808.870	-171
808.970	1198
809.070	657
809.170	-355
809.271	679
809.370	702
809.470	-379
809.570	946
809.670	-80
809.770	-53
809.870	903
809.970	-111
810.070	-173
810.169	938
810.269	-1119
810.369	1227
810.469	-143
810.568	482
810.668	-32
810.768	165
810.867	571
810.967	-102
811.066	731
811.166	-304
811.265	581
811.365	-664
811.464	-271
811.564	695
811.663	974
811.763	-745
811.862	-18
811.962	1110
812.061	-93
812.160	233
812.260	-430
812.359	171
812.458	-640
812.557	1924
812.657	551
812.756	513
812.855	-405
812.954	266
813.053	117
813.153	780
813.252	-602
813.351	-257
813.450	-407
813.549	175
813.648	643
813.747	6
813.846	480
813.945	104
814.044	193
814.143	486
814.242	508
814.341	-569
814.439	486
814.538	738
814.637	411
814.736	250
814.835	1000
814.933	391
815.032	679
815.131	3
815.229	2068
815.328	2743
815.427	1178
815.525	2490
815.624	1441
815.722	455
815.821	1750
815.919	1899
816.018	629
816.116	2205
816.215	749
816.313	1852
816.412	1282
816.510	2074
816.609	3178
816.707	2672
816.805	1776
816.904	1692
817.002	2532
817.100	3598
817.198	4009
817.296	3811
817.395	3671
817.493	4514
817.591	3609
817.689	5826
817.787	7844
817.885	12447
817.983	22470
818.081	49080
818.179	123294
818.277	313071
818.375	239342
818.473	62397
818.571	25429
818.669	17329
818.767	14672
818.865	15002
818.963	16684
819.061	26148
819.158	45152
819.256	102800
819.354	241267
819.452	518563
819.549	303073
819.647	83009
819.745	34620
819.842	21679
819.940	15094
820.038	10388
820.135	8344
820.233	7872
820.330	4961
820.428	4199
820.525	5666
820.623	4187
820.720	3536
820.818	3925
820.915	2631
821.012	3557
821.110	2227
821.207	2528
821.304	1600
821.402	2422
821.499	3901
821.596	3957
821.693	3003
821.791	3462
821.888	3335
821.985	8128
822.082	3877
822.179	2982
822.276	2403
822.373	1772
822.470	1801
822.567	1259
822.664	1144
822.761	1736
822.858	169
822.955	2077
823.052	1102
823.149	1723
823.246	1858
823.343	797
823.440	1795
823.536	619
823.633	1271
823.730	1403
823.827	1331
823.923	1969
824.020	1894
824.117	1405
824.213	619
824.310	1455
824.407	133
824.503	1211
824.600	1401
824.696	1022
824.793	1938
824.889	1031
824.986	442
825.082	1455
825.179	1134
825.275	548
825.371	83
825.468	1213
825.564	296
825.660	985
825.757	714
825.853	1914
825.949	442
826.045	782
826.142	409
826.238	1110
826.334	958
826.430	-171
826.526	276
826.622	684
826.718	968
826.814	-73
826.910	1549
827.006	626
827.102	364
827.198	1869
827.294	647
827.390	492
827.486	1378
827.582	-407
827.678	-112
827.774	1482
827.869	-469
827.965	1734
828.061	75
828.157	934
828.252	591
828.348	-654
828.444	1180
828.539	90
828.635	598
828.731	1430
828.826	353
828.922	1285
829.017	235
829.113	498
829.208	819
829.304	1050
829.399	1743
829.495	462
829.590	1357
829.685	152
829.781	652
829.876	686
829.971	-182
830.066	-170
830.162	37
830.257	-245
830.352	-423
830.447	1379
830.543	1046
830.638	-165
830.733	2146
830.828	610
830.923	621
831.018	479
831.113	861
831.208	-83
831.303	386
831.398	861
831.493	-13
831.588	1681
831.683	125
831.778	199
831.873	268
831.967	1445
832.062	448
832.157	-204
832.252	1215
832.346	1107
832.441	1079
832.536	1810
832.631	5159
832.725	3410
832.820	325
832.914	358
833.009	-42
833.104	827
833.198	1101
833.293	1034
833.387	771
833.482	526
833.576	-224
833.670	613
833.765	468
833.859	794
833.954	1561
834.048	148
834.142	231
834.237	-176
834.331	896
834.425	-347
834.519	-355
834.613	1205
834.708	-200
834.802	363
834.896	-609
834.990	289
835.084	78
835.178	294
835.272	-275
835.366	1126
835.460	222
835.554	137
835.648	1044
835.742	-410
835.836	210
835.930	-760
836.024	130
836.117	1516
836.211	73
836.305	861
836.399	1994
836.493	-956
836.586	749
836.680	-303
836.774	-441
836.867	1156
836.961	-854
837.055	-405
837.148	303
837.242	373
837.335	512
837.429	-586
837.522	166
837.616	520
837.709	1614
837.803	-24
837.896	215
837.989	36
838.083	690
838.176	1760
838.269	933
838.363	1443
838.456	-462
838.549	1335
838.642	1326
838.735	5857
838.829	2777
838.922	-183
839.015	437
839.108	-984
839.201	877
839.294	439
839.387	303
839.480	-305
839.573	819
839.666	1350
839.759	-266
839.852	-312
839.945	-277
840.038	-120
840.131	-462
840.223	107
840.316	331
840.409	735
840.502	-558
840.594	634
840.687	-461
840.780	227
840.873	-132
840.965	337
841.058	776
841.150	1573
841.243	1340
841.336	636
841.428	-247
841.521	-372
841.613	438
841.706	245
841.798	-291
841.890	-429
841.983	-1271
842.075	1072
842.167	-308
842.260	670
842.352	1137
842.444	645
842.537	2783
842.629	3337
842.721	-172
842.813	-129
842.905	-1162
842.997	104
843.090	153
843.182	689
843.274	1265
843.366	6606
843.458	13036
843.550	7254
843.642	380
843.734	668
843.826	411
843.918	1199
844.009	-196
844.101	-1107
844.193	-109
844.285	473
844.377	-205
844.469	823
844.560	859
844.652	1172
844.744	-141
844.835	164
844.927	-165
845.019	242
845.110	-358
845.202	401
845.293	-495
845.385	-835
845.476	-991
845.568	815
845.659	-1802
845.751	66
845.842	-607
845.934	-941
846.025	-492
846.116	-22
846.208	-334
846.299	25
846.390	-126
846.482	756
846.573	686
846.664	941
846.755	1062
846.846	1847
846.937	-2017
847.029	-125
847.120	252
847.211	12
847.302	559
847.393	-1007
847.484	828
847.575	-330
847.666	-339
847.757	-409
847.847	236
847.938	-497
848.029	-572
848.120	-849
848.211	791
848.302	-731
848.392	-312
848.483	362
848.574	-841
848.664	-341
848.755	-36
848.846	57
848.936	-68
849.027	93
849.118	-41
849.208	843
849.299	2962
849.389	5221
849.480	12994
849.570	27055
849.661	55476
849.751	87787
849.841	26942
849.932	3624
850.022	1255
850.112	1809
850.203	440
850.293	499
850.383	-79
850.474	-637
850.564	-100
850.654	653
850.744	344
850.834	-146
850.924	355
851.014	229
851.104	-556
851.194	419
851.284	107
851.374	724
851.464	3
851.554	363
851.644	251
851.734	1073
851.824	-229
851.914	82
852.004	226
852.094	-679
852.183	474
852.273	1004
852.363	216
852.452	-309
852.542	123
852.632	144
852.721	123
852.811	792
852.901	450
852.990	117
853.080	630
853.169	1008
853.259	1164
853.348	2022
853.438	2654
853.527	4180
853.617	8099
853.706	16410
853.795	31036
853.885	71155
853.974	134103
854.063	248418
854.152	348186
854.242	123216
854.331	25025
854.420	10773
854.509	7127
854.598	5744
854.687	4944
854.777	3231
854.866	1776
854.955	1868
855.044	870
855.133	748
855.222	955
855.311	358
855.400	896
855.488	566
855.577	383
855.666	466
855.755	664
855.844	-318
855.933	-481
856.021	1218
856.110	523
856.199	-323
856.288	-589
856.376	-807
856.465	-353
856.554	579
856.642	-311
856.731	690
856.819	276
856.908	-136
856.996	397
857.085	-554
857.173	-251
857.262	-340
857.350	-422
857.438	-5
857.527	-255
857.615	196
857.703	-120
857.792	-347
857.880	-547
857.968	-1306
858.056	-87
858.145	426
858.233	-743
858.321	-130
858.409	-10
858.497	-682
858.585	-1082
858.673	-667
858.761	-1151
858.849	1
858.937	-1099
859.025	-768
859.113	-203
859.201	141
859.289	1040
859.377	96
859.465	-243
859.552	-742
859.640	-385
859.728	-594
859.816	-615
859.903	462
859.991	-1594
860.079	-611
860.166	-549
860.254	-555
860.342	-450
860.429	-895
860.517	-974
860.604	-377
860.692	-595
860.779	-1283
860.867	-706
860.954	49
861.042	-380
861.129	264
861.216	-680
861.304	55
861.391	-230
861.478	-400
861.565	-405
861.653	-95
861.740	-1021
861.827	-1059
861.914	-56
862.001	-568
862.089	-795
862.176	-423
862.263	-1477
862.350	-138
862.437	-1363
862.524	-885
862.611	-674
862.698	325
862.785	431
862.871	242
862.958	-767
863.045	-450
863.132	-325
863.219	-1313
863.306	-1032
863.392	174
863.479	-1006
863.566	-629
863.652	-589
863.739	-122
863.826	-303
863.912	-27
863.999	-960
864.086	-521
864.172	-675
864.259	101
864.345	-570
864.432	348
864.518	-78
864.604	-146
864.691	-394
864.777	724
864.863	512
864.950	1565
865.036	797
865.122	2838
865.209	2180
865.295	2259
865.381	2447
865.467	3813
865.553	5325
865.639	8984
865.726	16498
865.812	36294
865.898	70816
865.984	106556
866.070	200666
866.156	193883
866.242	47977
866.328	11215
866.414	5847
866.499	4660
866.585	2956
866.671	2866
866.757	2556
866.843	2567
866.928	1243
867.014	1128
867.100	1203
867.186	1860
867.271	509
867.357	2443
867.442	1292
867.528	561
867.614	849
867.699	1331
867.785	2398
867.870	1758
867.956	2244
868.041	2149
868.127	1227
868.212	2333
868.297	1640
868.383	1449
868.468	1137
868.553	2829
868.639	3788
868.724	7593
868.809	6035
868.894	1042
868.979	900
869.065	729
869.150	-249
869.235	680
869.320	-546
869.405	-186
869.490	196
869.575	-643
869.660	507
869.745	805
869.830	469
869.915	885
870.000	-297
870.085	-51
870.169	523
870.254	1668
870.339	-730
870.424	-569
870.509	101
870.593	538
870.678	572
870.763	406
870.847	-107
870.932	148
871.016	317
871.101	538
871.186	651
871.270	1219
871.355	-268
871.439	541
871.523	-3
871.608	575
871.692	184
871.777	970
871.861	486
871.945	914
872.030	982
872.114	-377
872.198	-309
872.282	406
872.367	-209
872.451	-376
872.535	223
872.619	281
872.703	-637
872.787	642
872.871	-487
872.955	229
873.039	-801
873.123	-294
873.207	400
873.291	64
873.375	-70
873.459	767
873.543	-97
873.627	333
873.711	-203
873.794	-152
873.878	-454
873.962	51
874.045	275
874.129	-300
874.137	-242
874.213	337
874.245	96
874.296	-296
874.352	-458
874.380	-538
874.460	-539
874.464	-540
874.547	-498
874.568	-202
874.631	690
874.676	395
874.714	134
874.784	999
874.798	1179
874.881	1055
874.892	964
874.965	309
874.999	-81
875.048	-649
875.107	-146
875.131	66
875.215	-70
875.215	-70
875.298	-176
875.323	-154
875.381	-97
875.430	277
875.465	563
875.538	1112
875.548	1170
875.631	-825
875.646	-753
875.714	-311
875.753	-473
875.798	-671
875.861	-255
875.881	-124
875.964	589
875.968	547
876.047	-175
876.076	53
876.130	463
876.183	275
876.213	167
876.291	530
876.296	552
876.379	-86
876.398	-43
876.462	127
876.506	35
876.545	-19
876.613	419
876.628	509
876.711	83
876.721	130
876.794	438
876.828	304
876.877	132
876.935	467
876.960	619
877.043	-359
877.043	-357
877.125	511
877.150	659
877.208	836
877.258	564
877.291	442
877.365	25
877.374	-17
877.456	717
877.472	589
877.539	0
877.579	455
877.622	949
877.687	301
877.704	112
877.787	293
877.794	272
877.869	-105
877.901	-158
877.952	-40
878.008	208
878.034	297
878.115	283
878.117	281
878.199	-359
878.222	-108
878.282	777
878.329	885
878.364	886
878.437	611
878.447	552
878.529	-410
878.544	-297
878.611	319
878.651	176
878.694	127
878.758	182
878.776	171
878.858	292
878.865	341
878.941	795
878.972	467
879.023	-39
879.078	102
879.105	356
879.185	995
879.187	993
879.269	1260
879.292	885
879.351	196
879.399	-60
879.433	-174
879.506	259
879.516	305
879.598	216
879.613	157
879.680	-243
879.720	23
879.762	443
879.827	568
879.844	545
879.926	518
879.933	488
880.007	385
880.040	697
880.089	1189
880.147	1584
880.171	1856
880.253	4221
880.254	4236
880.335	6199
880.360	6639
880.417	8760
880.467	13923
880.499	17323
880.574	18993
880.580	18660
880.662	5924
880.680	4486
880.744	1612
880.787	995
880.825	836
880.893	782
880.907	751
880.989	712
881.000	683
881.070	736
881.106	425
881.152	-69
881.213	31
881.233	94
881.315	105
881.319	124
881.396	558
881.426	391
881.478	206
881.532	768
881.559	963
881.639	510
881.641	500
881.722	256
881.745	257
881.803	543
881.852	662
881.885	656
881.958	965
881.966	969
882.047	464
882.064	439
882.129	506
882.171	578
882.210	927
882.277	1585
882.291	1629
882.372	1219
882.383	1143
882.454	535
882.489	401
882.535	440
882.596	442
882.616	463
882.697	209
882.702	219
882.778	163
882.808	358
882.859	581
882.914	42
882.940	22
883.020	526
883.021	531
883.102	561
883.127	627
883.183	563
883.233	94
883.264	-29
883.339	372
883.345	419
883.426	822
883.445	823
883.507	593
883.551	603
883.587	656
883.657	795
883.668	806
883.749	686
883.763	634
883.830	182
883.869	-57
883.910	87
883.975	442
883.991	405
884.072	-67
884.081	-65
884.152	572
884.187	611
884.233	685
884.292	1257
884.314	1249
884.394	672
884.398	646
884.475	164
884.504	-57
884.555	260
884.610	559
884.636	504
884.716	645
884.716	653
884.797	960
884.821	1023
884.877	1048
884.927	923
884.958	803
885.033	646
885.038	627
885.118	649
885.139	459
885.199	324
885.244	487
885.279	439
885.350	229
885.359	333
885.439	1271
885.456	1376
885.520	667
885.561	380
885.600	402
885.667	584
885.680	701
885.760	1261
885.773	1296
885.840	727
885.878	597
885.920	640
885.984	356
886.000	354
886.080	623
886.089	640
886.160	985
886.195	1095
886.240	827
886.300	542
886.320	515
886.400	572
886.406	552
886.480	346
886.511	387
886.560	816
886.616	932
886.640	827
886.720	802
886.722	794
886.800	794
886.827	802
886.879	721
886.932	605
886.959	835
887.038	1472
887.039	1472
887.119	844
887.143	780
887.198	852
887.248	573
887.278	485
887.354	523
887.358	547
887.437	806
887.459	939
887.517	1176
887.564	1199
887.596	991
887.669	598
887.676	592
887.755	435
887.774	409
887.835	702
887.880	892
887.914	843
887.985	628
887.994	681
888.073	1166
888.090	1278
888.153	1159
888.195	1029
888.232	845
888.300	574
888.311	543
888.391	230
888.405	156
888.470	494
888.510	750
888.549	977
888.615	1396
888.628	1442
888.708	1556
888.720	1573
888.787	1162
888.825	900
888.866	882
888.930	905
888.945	1009
889.024	1530
889.035	1585
889.103	1094
889.140	852
889.182	671
889.245	359
889.261	408
889.340	645
889.349	675
889.419	1136
889.454	1343
889.498	1411
889.559	1514
889.577	1444
889.656	1114
889.664	1079
889.735	1401
889.768	1544
889.814	1250
889.873	855
889.978	376
890.083	1142
890.187	779
890.292	909
890.397	460
890.501	1396
890.606	419
890.710	1039
890.815	1674
890.919	1579
891.024	1550
891.128	1061
891.233	1282
891.337	1222
891.442	1317
891.546	776
891.650	1012
891.755	550
891.859	2134
891.963	1070
892.068	1176
892.172	1483
892.276	353
892.380	1458
892.484	1353
892.589	931
892.693	1073
892.797	995
892.901	1243
893.005	1347
893.109	1177
893.213	612
893.317	954
893.421	487
893.525	636
893.629	1114
893.733	1061
893.837	1552
893.941	851
894.045	231
894.148	-71
894.252	1282
894.356	907
894.460	1193
894.564	1176
894.667	1074
894.771	965
894.875	194
894.978	800
895.082	660
895.186	939
895.289	1020
895.393	1369
895.496	575
895.600	122
895.703	406
895.807	1177
895.910	1266
896.014	291
896.117	624
896.221	956
896.324	870
896.427	1108
896.531	667
896.634	939
896.737	730
896.840	997
896.944	1179
897.047	1619
897.150	458
897.253	751
897.356	1165
897.460	574
897.563	898
897.666	1430
897.769	1560
897.872	-7
897.975	703
898.078	1633
898.181	1290
898.284	934
898.387	793
898.490	1341
898.593	79
898.695	693
898.798	201
898.901	1774
899.004	888
899.107	433
899.209	1000
899.312	1362
899.415	657
899.518	1281
899.620	550
899.723	1161
899.826	1713
899.928	2128
900.031	1048
900.133	1084
900.236	233
900.338	870
900.441	711
900.543	782
900.646	1222
900.748	964
900.851	1109
900.953	1067
901.055	838
901.158	1430
901.260	927
901.362	989
901.465	120
901.567	803
901.669	1136
901.771	858
901.873	922
901.976	491
902.078	302
902.180	-67
902.282	77
902.384	-14
902.486	1695
902.588	453
902.690	307
902.792	936
902.894	1380
902.996	126
903.098	723
903.200	1096
903.302	1490
903.404	1288
903.505	520
903.607	910
903.709	452
903.811	1135
903.913	489
904.014	931
904.116	437
904.218	364
904.319	972
904.421	748
904.523	1570
904.624	717
904.726	854
904.827	845
904.929	953
905.030	1466
905.132	573
905.233	1134
905.335	435
905.436	1009
905.537	-54
905.639	1170
905.740	1340
905.841	863
905.943	564
906.044	732
906.145	757
906.247	344
906.348	1270
906.449	1168
906.550	713
906.651	1052
906.752	852
906.854	188
906.955	680
907.056	738
907.157	260
907.258	915
907.359	302
907.460	184
907.561	351
907.662	1159
907.762	998
907.863	414
907.964	937
908.065	976
908.166	330
908.267	865
908.367	520
908.468	1229
908.569	494
908.670	114
908.770	1411
908.871	797
908.971	766
909.072	468
909.173	16
909.273	371
909.374	606
909.474	538
909.575	964
909.675	447
909.776	730
909.876	466
909.977	1110
910.077	1616
910.177	732
910.278	1405
910.378	78
910.478	277
910.579	898
910.679	1372
910.779	1135
910.879	1255
910.980	380
911.080	418
911.180	28
911.280	78
911.380	901
911.480	784
911.580	-174
911.680	851
911.780	581
911.880	1326
911.980	720
912.080	1029
912.180	1101
912.280	1253
912.380	1086
912.480	110
912.580	438
912.679	760
912.779	1173
912.879	403
912.979	156
913.078	1024
913.178	-290
913.278	844
913.377	453
913.477	519
913.577	-133
913.676	1235
913.776	1142
913.875	645
913.975	1485
914.074	833
914.174	241
914.273	333
914.373	1165
914.472	706
914.572	155
914.671	378
914.770	183
914.870	-125
914.969	799
915.068	548
915.167	740
915.267	-70
915.366	57
915.465	541
915.564	915
915.663	808
915.763	477
915.862	741
915.961	313
916.060	265
916.159	962
916.258	566
916.357	660
916.456	893
916.555	972
916.654	448
916.752	734
916.851	882
916.950	1003
917.049	1323
917.148	-25
917.247	132
917.345	245
917.444	212
917.543	831
917.642	416
917.740	19
917.839	678
917.937	1538
918.036	893
918.135	259
918.233	1049
918.332	671
918.430	932
918.529	1151
918.627	398
918.726	668
918.824	665
918.923	-71
919.021	897
919.119	91
919.218	176
919.316	491
919.414	582
919.512	620
919.611	1072
919.709	671
919.807	1286
919.905	949
920.003	1002
920.102	934
920.200	1211
920.298	705
920.396	728
920.494	1364
920.592	704
920.690	700
920.788	798
920.886	1316
920.984	1493
921.082	1035
921.180	1502
921.277	674
921.375	1570
921.473	2012
921.571	916
921.669	1186
921.766	1344
921.864	2351
921.962	1821
922.060	1581
922.157	1898
922.255	1052
922.352	1455
922.450	2575
922.548	1265
922.645	1959
922.743	2254
922.840	3258
922.938	3883
923.035	3522
923.133	3724
923.230	4513
923.327	4921
923.425	4015
923.522	4832
923.619	3504
923.717	3317
923.814	3066
923.911	3517
924.008	3901
924.106	3202
924.203	3511
924.300	3588
924.397	2821
924.494	4117
924.591	3779
924.688	2884
924.786	3450
924.883	3200
924.979	3653
925.077	3591
925.173	3476
925.270	3493
925.367	2712
925.464	3622
925.561	3857
925.658	3940
925.755	3791
925.852	4017
925.948	3666
926.045	4294
926.142	3868
926.239	3181
926.335	3802
926.432	3850
926.529	3719
926.625	3997
926.722	4141
926.818	2718
926.915	3591
927.011	3328
927.108	3241
927.204	3022
927.301	2914
927.397	3497
927.494	4361
927.590	2387
927.687	2788
927.783	3643
927.879	3353
927.976	3213
928.072	2974
928.168	3122
928.264	3293
928.361	2792
928.457	2966
928.553	2667
928.649	3446
928.745	3286
928.841	3063
928.937	2786
929.033	4236
929.129	2610
929.225	2325
929.321	2814
929.417	3022
929.513	2247
929.609	2373
929.705	2548
929.801	2815
929.897	2053
929.993	2474
930.089	2424
930.184	2219
930.280	2622
930.376	3898
930.471	2873
930.567	2078
930.663	3389
930.758	1872
930.854	1817
930.950	2140
931.045	2415
931.141	2910
931.236	3526
931.332	2397
931.427	1479
931.523	2654
931.618	3021
931.714	1711
931.809	2025
931.905	3232
932.000	2043
932.095	1906
932.191	3030
932.286	2958
932.381	2265
932.476	1772
932.572	3113
932.667	2144
932.762	2498
932.857	2605
932.952	3396
933.047	2363
933.142	1738
933.237	2809
933.332	2337
933.427	2828
933.522	2534
933.617	2238
933.712	2081
933.807	2138
933.902	2230
933.997	2813
934.092	2179
934.187	1867
934.282	1999
934.376	2247
934.471	3304
934.566	1856
934.661	1738
934.755	1733
934.850	2539
934.945	1856
935.039	2455
935.134	1429
935.228	1478
935.323	3491
935.417	1873
935.512	1400
935.606	748
935.701	2249
935.795	1968
935.890	1730
935.984	2165
936.079	2094
936.173	1778
936.267	1539
936.362	1233
936.456	1960
936.550	2758
936.644	1799
936.738	970
936.833	1347
936.927	1598
937.021	1624
937.115	2381
937.209	720
937.303	1503
937.397	1340
937.491	1783
937.585	2184
937.679	1762
937.773	1810
937.867	985
937.961	1798
938.055	2489
938.149	2088
938.243	1363
938.337	942
938.430	2294
938.524	2148
938.618	2288
938.712	2442
938.805	1287
938.899	1163
938.993	2412
939.086	1166
939.180	2389
939.274	2478
939.367	2728
939.461	2221
939.554	1728
939.648	1659
939.741	1403
939.835	1773
939.928	2424
940.022	1632
940.115	2238
940.208	2991
940.302	2604
940.395	1905
940.488	369
940.582	1355
940.675	1029
940.768	1512
940.861	928
940.954	1555
941.048	377
941.141	1567
941.234	837
941.327	2966
941.420	2601
941.513	2858
941.606	1531
941.699	1291
941.792	2181
941.885	2079
941.978	1914
942.071	1807
942.164	742
942.257	1053
942.349	959
942.442	1869
942.535	453
942.628	1459
942.721	855
942.813	467
942.906	2048
942.999	1144
943.091	802
943.184	1279
943.277	1457
943.369	1551
943.462	725
943.554	1283
943.647	1164
943.739	1328
943.832	1788
943.924	-338
944.017	1132
944.109	280
944.201	946
944.294	1501
944.386	1373
944.478	1511
944.571	929
944.663	694
944.755	1695
944.847	620
944.940	1518
945.032	-167
945.124	1050
945.216	1283
945.308	1144
945.400	1161
945.492	933
945.584	820
945.676	782
945.768	1153
945.860	2058
945.952	684
946.044	1683
946.136	976
946.228	1717
946.320	575
946.412	844
946.503	1147
946.595	2397
946.687	787
946.779	629
946.870	1069
946.962	787
947.054	1390
947.145	1445
947.237	129
947.329	766
947.420	265
947.512	1979
947.603	1472
947.695	816
947.786	110
947.878	409
947.969	784
948.061	1721
948.152	222
948.243	564
948.335	952
948.426	329
948.517	-118
948.609	585
948.700	127
948.791	975
948.882	1218
948.973	85
949.065	619
949.156	1581
949.247	196
949.338	977
949.429	48
949.520	771
949.611	30
949.702	1500
949.793	415
949.884	870
949.975	1450
950.066	642
950.157	533
950.247	897
950.338	-21
950.429	898
950.520	524
950.611	912
950.701	754
950.792	780
950.883	1369
950.973	1083
951.064	1454
951.155	866
951.245	1041
951.336	927
951.427	11
951.517	1772
951.608	607
951.698	479
951.788	108
951.879	673
951.969	148
952.060	346
952.150	241
952.240	1510
952.331	-937
952.421	2086
952.511	575
952.602	928
952.692	376
952.782	991
952.872	1277
952.962	572
953.052	842
953.143	868
953.233	678
953.323	450
953.413	473
953.503	1166
953.593	484
953.683	1013
953.773	-258
953.863	835
953.953	-477
954.042	-327
954.132	96
954.222	1631
954.312	-153
954.402	1010
954.492	-53
954.581	394
954.671	-72
954.761	-613
954.850	533
954.940	489
955.030	335
955.119	274
955.209	-112
955.298	55
955.388	875
955.477	831
955.567	-314
955.656	555
955.746	1330
955.835	74
955.925	-542
956.014	1078
956.103	1143
956.193	561
956.282	1054
956.371	725
956.461	518
956.550	574
956.639	398
956.728	33
956.817	1275
956.906	348
956.995	358
957.085	562
957.174	463
957.263	137
957.352	307
957.441	-92
957.530	713
957.619	-35
957.708	37
957.796	41
957.885	217
957.974	443
958.063	761
958.152	-1212
958.241	260
958.329	451
958.418	83
958.507	-1347
958.596	945
958.684	-442
958.773	411
958.861	429
958.950	-247
959.039	486
959.127	883
959.216	1130
959.304	55
959.393	-450
959.481	788
959.570	-171
959.658	411
959.746	819
959.835	232
959.923	599
960.011	368
960.100	670
960.188	481
960.276	-129
960.365	295
960.453	136
960.541	-360
960.629	270
960.717	238
960.805	-145
960.893	869
960.981	-146
961.069	642
961.158	148
961.245	1579
961.333	302
961.421	494
961.509	201
961.597	669
961.685	472
961.773	409
961.861	75
961.949	333
962.036	-289
962.124	1004
962.212	256
962.299	-169
962.387	-900
962.475	431
962.562	-190
962.650	380
962.738	22
962.825	677
962.913	493
963.000	49
963.088	958
963.175	125
963.263	-75
963.350	-588
963.438	137
963.525	-781
963.612	1293
963.700	628
963.787	3563
963.874	839
963.962	367
964.049	625
964.136	8
964.223	622
964.310	-419
964.398	415
964.485	-258
964.572	228
964.659	500
964.746	63
964.833	348
964.920	487
965.007	438
965.094	440
965.181	63
965.268	-376
965.355	-229
965.441	168
965.528	-612
965.615	1257
965.702	-149
965.789	-904
965.875	406
965.962	854
966.049	-502
966.136	389
966.222	285
966.309	559
966.395	357
966.482	251
966.569	-914
966.655	209
966.742	255
966.828	563
966.915	228
967.001	476
967.087	-163
967.174	-54
967.260	570
967.347	535
967.433	1321
967.519	2332
967.605	870
967.692	-450
967.778	874
967.864	795
967.950	339
968.036	-533
968.123	710
968.209	-485
968.295	-271
968.381	1638
968.467	264
968.553	-722
968.639	1029
968.725	-263
968.811	718
968.897	513
968.983	643
969.069	-528
969.154	457
969.240	454
969.326	-104
969.412	32
969.497	26
969.583	-87
969.669	1031
969.755	-23
969.840	-448
969.926	625
970.012	568
970.097	2154
970.183	389
970.268	700
970.354	724
970.439	-175
970.525	1976
970.610	-101
970.696	833
970.781	128
970.866	-871
970.952	730
971.037	277
971.122	3
971.208	109
971.293	513
971.378	-857
971.463	-65
971.549	718
971.634	-349
971.719	288
971.804	438
971.889	168
971.974	228
972.059	501
972.144	248
972.229	103
972.314	-142
972.399	675
972.484	-957
972.569	43
972.654	-1040
972.739	1555
972.824	-109
972.908	-44
972.993	472
973.078	334
973.163	158
973.247	-13
973.332	-1206
973.417	1282
973.501	-562
973.586	-28
973.671	-408
973.755	1130
973.840	1006
973.924	838
974.009	338
974.093	-686
974.178	1217
974.262	974
974.346	1108
974.431	566
974.515	-207
974.600	-335
974.684	744
974.768	219
974.852	1343
974.937	-644
975.021	704
975.105	328
975.189	-574
975.273	1133
975.358	-283
975.442	75
975.526	940
975.610	43
975.694	-24
975.778	223
975.862	408
975.946	-1713
976.030	1631
976.114	-127
976.198	432
976.281	356
976.365	571
976.449	44
976.533	740
976.617	207
976.700	502
976.784	243
976.868	1
976.951	100
977.035	-78
977.119	-658
977.202	-559
977.286	1226
977.369	-237
977.453	887
977.536	511
977.620	-198
977.703	13
977.787	90
977.870	692
977.953	792
978.037	-589
978.120	1100
978.203	-36
978.287	1119
978.370	-84
978.453	-657
978.536	-58
978.620	1048
978.703	1150
978.786	373
978.869	61
978.952	-40
979.035	1049
979.118	529
979.201	-743
979.284	467
979.367	-293
979.450	1054
979.533	96
979.616	74
979.699	-120
979.782	548
979.865	507
979.948	-427
980.030	146
980.113	439
980.196	-432
980.279	492
980.361	-9
980.444	651
980.526	523
980.609	510
980.692	147
980.774	641
980.857	-936
980.939	1459
981.022	-565
981.104	19
981.187	-504
981.269	994
981.352	19
981.434	-452
981.516	-730
981.599	1513
981.681	441
981.763	314
981.846	316
981.928	315
982.010	11
982.092	-695
982.174	738
982.256	154
982.339	571
982.421	434
982.503	944
982.585	-469
982.667	60
982.749	473
982.831	-178
982.913	-284
982.995	341
983.077	-46
983.158	2198
983.240	-823
983.322	446
983.404	1561
983.486	-177
983.568	1077
983.649	621
983.731	285
983.813	515
983.894	1062
983.976	37
984.058	104
984.139	1946
984.221	-467
984.302	316
984.384	69
984.465	-824
984.547	430
984.628	-39
984.710	677
984.791	756
984.872	489
984.954	254
985.035	29
985.116	248
985.198	-602
985.279	1898
985.360	206
985.441	66
985.522	901
985.604	138
985.685	-1152
985.766	1006
985.847	1318
985.928	-462
986.009	-37
986.090	-310
986.171	826
986.252	135
986.333	679
986.414	208
986.495	1304
986.576	704
986.656	909
986.737	795
986.818	274
986.899	207
986.980	-275
987.060	1155
987.141	281
987.222	-102
987.302	842
987.383	1142
987.464	717
987.544	521
987.625	573
987.705	614
987.786	980
987.866	416
987.947	167
988.027	-448
988.108	328
988.188	1236
988.268	704
988.349	709
988.429	306
988.509	1101
988.589	253
988.670	-724
988.750	1673
988.830	63
988.910	1303
988.990	-37
989.070	170
989.151	499
989.231	190
989.311	727
989.391	130
989.471	-31
989.551	730
989.631	143
989.711	1026
989.791	-376
989.870	-881
989.950	1079
990.030	-3
990.110	723
990.190	-131
990.269	655
990.349	507
990.429	942
990.509	1397
990.588	-604
990.668	216
990.747	160
990.827	-136
990.907	1374
990.986	162
991.066	851
991.145	-294
991.225	1389
991.304	302
991.383	833
991.463	-398
991.542	1050
991.622	-85
991.701	-577
991.780	688
991.859	-34
991.939	-327
992.018	-378
992.097	-327
992.176	343
992.256	251
992.335	-235
992.414	745
992.493	-287
992.572	-107
992.651	1434
992.730	193
992.809	979
992.888	-561
992.967	227
993.046	798
993.125	-137
993.203	-158
993.282	336
993.361	789
993.440	185
993.519	-1427
993.597	1103
993.676	-1305
993.755	568
993.834	440
993.912	-1666
993.991	724
994.069	-764
994.148	411
994.226	-576
994.305	125
994.384	-487
994.462	963
994.540	-458
994.619	-234
994.697	128
994.776	-602
994.854	174
994.932	-604
995.011	412
995.089	-1021
995.167	-181
995.245	274
995.324	-496
995.402	577
995.480	-305
995.558	-374
995.636	-1397
995.714	-943
995.792	576
995.870	-188
995.948	124
996.026	354
996.104	-1286
996.182	626
996.260	355
996.338	290
996.416	-933
996.494	-431
996.572	1042
996.649	-373
996.727	-1412
996.805	-66
996.883	-1075
996.960	-459
997.038	447
997.116	99
997.193	-679
997.271	465
997.348	-710
997.426	473
997.504	-1086
997.581	-636
997.658	211
997.736	-771
997.813	-758
997.891	-109
997.968	-509
998.046	-151
998.123	-73
998.200	-7
998.277	-892
998.355	385
998.432	-1287
998.509	-207
998.586	352
998.663	464
998.741	-351
998.818	-217
998.895	-952
998.972	-125
999.049	-707
999.126	-901
999.203	-69
999.280	-57
999.357	-372
999.434	-672
999.511	-154
999.587	-337
999.664	-1330
999.741	-280
999.818	172
999.895	-323
999.971	-673
1000.048	55
1000.125	-230
1000.202	-1318
1000.278	-883
1000.355	512
1000.431	-760
1000.508	-934
1000.584	8
1000.661	29
1000.738	-1322
1000.814	166
1000.890	22
1000.967	-227
1001.043	261
1001.120	-1232
1001.196	-1425
1001.272	-1420
1001.349	-34
1001.425	393
1001.501	-785
1001.577	-870
1001.654	-201
1001.730	-944
1001.806	-683
1001.882	-1532
1001.958	-234
1002.034	291
1002.110	-1008
1002.186	-272
1002.262	-1028
1002.338	-780
1002.414	172
1002.490	-297
1002.566	-1851
1002.642	-820
1002.718	-735
1002.794	-395
1002.870	-578
1002.945	-572
1003.021	-1230
1003.097	-693
1003.173	-327
1003.248	-893
1003.324	-752
1003.400	-1272
1003.475	-2423
1003.551	-76
1003.626	-1534
1003.702	-473
1003.777	-1350
1003.853	-1001
1003.928	-1501
1004.004	-1185
1004.079	-60
1004.155	-762
1004.230	-1841
1004.305	745
1004.381	-1340
1004.456	-897
1004.531	-1294
1004.607	-980
1004.682	-237
1004.757	-608
1004.832	-1001
1004.907	-1288
1004.982	-283
1005.057	-262
1005.133	-1764
1005.208	-919
1005.283	-894
1005.358	-105
1005.433	-956
1005.508	-98
1005.583	-1234
1005.657	-1210
1005.732	73
1005.807	-1508
1005.882	-1368
1005.957	-1278
1006.032	-768
1006.106	-1025
1006.181	-1227
1006.256	-315
1006.331	-1608
1006.405	-2309
1006.480	-1407
1006.554	-1080
1006.629	-117
1006.704	-1320
1006.778	-864
1006.853	-1573
1006.927	-1602
1007.002	-1186
1007.076	-1041
1007.150	-707
1007.225	-871
1007.299	-819
1007.373	-1595
1007.448	-1349
1007.522	-718
1007.596	-976
1007.671	-620
1007.745	-346
1007.819	-1047
1007.893	-1102
1007.967	-663
1008.041	-1969
1008.115	74
1008.190	-1055
1008.264	-152
1008.338	-1170
1008.412	-1454
1008.486	-1925
1008.560	-1114
1008.633	-979
1008.707	-756
1008.781	-450
1008.855	-1105
1008.929	-1241
1009.003	-1796
1009.076	-1137
1009.150	-683
1009.224	-1010
1009.298	-643
1009.371	-1209
1009.445	-359
1009.519	-441
1009.592	-2069
1009.666	-1131
1009.739	-1546
1009.813	-1975
1009.886	-1425
1009.960	-2217
1010.033	-1157
1010.107	-848
1010.180	-1888
1010.253	-666
1010.327	-1373
1010.400	-1353
1010.473	-1612
1010.547	-164
1010.620	-1774
1010.693	-623
1010.766	-830
1010.840	-643
1010.913	-1140
1010.986	-1571
1011.059	-1535
1011.132	-973
1011.205	-508
1011.278	-1169
1011.351	-2107
1011.424	-739
1011.497	-1742
1011.570	-1494
1011.643	-1476
1011.716	-1324
1011.789	-1665
1011.862	-1264
1011.934	-975
1012.007	-1298
1012.080	-1074
1012.153	-1848
1012.225	-1009
1012.298	-1610
1012.371	-2150
1012.443	-1718
1012.516	-1895
1012.588	-844
1012.661	-904
1012.733	-1198
1012.806	-215
1012.879	-1635
1012.951	-312
1013.023	-438
1013.096	-901
1013.168	-1322
1013.241	-713
1013.313	-983
1013.385	-1569
1013.458	-749
1013.530	-215
1013.602	-2030
1013.674	-752
1013.746	-2076
1013.819	-1279
1013.891	-1009
1013.963	-1630
1014.035	-1226
1014.107	-693
1014.179	-911
1014.251	-1280
1014.323	-802
1014.395	-1353
1014.467	-1376
1014.539	-808
1014.611	-1570
1014.683	-1264
1014.754	-971
1014.826	-2475
1014.898	-717
1014.970	-1209
1015.042	-695
1015.113	-1422
1015.185	-1340
1015.257	-2019
1015.328	-1416
1015.400	-1811
1015.471	-1128
1015.543	-2352
1015.615	-468
1015.686	-1690
1015.757	-1620
1015.829	-1556
1015.901	-386
1015.972	-1846
1016.043	-1007
1016.115	-1004
1016.186	-570
1016.257	-2258
1016.328	-908
1016.400	-1065
1016.471	-1240
1016.542	-1146
1016.613	-327
1016.685	-2117
1016.756	-1338
1016.827	-826
1016.898	-2091
1016.969	-1097
1017.040	-1208
1017.111	-1790
1017.182	-1698
1017.253	-982
1017.324	-1013
1017.395	-1768
1017.466	-1151
1017.537	-1152
1017.608	-1196
1017.678	-2210
1017.749	-1427
1017.820	-869
1017.891	-629
1017.961	-997
1018.032	-555
1018.103	-1556
1018.173	-1675
1018.244	-2071
1018.315	-1631
1018.385	-767
1018.456	-1553
1018.526	-1839
1018.597	-895
1018.667	-1657
1018.738	-1072
1018.808	-948
1018.878	-1510
1018.949	-1022
1019.019	-1386
1019.089	-1833
1019.160	-1893
1019.230	-1131
1019.300	-878
1019.371	-1801
1019.441	-1396
1019.511	-1364
1019.581	-1607
1019.651	-1475
1019.721	-529
1019.791	-1114
1019.861	-1372
1019.931	-1324
1020.001	-1619
1020.071	-1704
1020.141	-985
1020.211	-1052
1020.281	-1286
1020.351	-1781
1020.421	-82
1020.491	-898
1020.560	-1019
1020.630	-1373
1020.700	-726
1020.770	-1501
1020.839	-1130
1020.909	-1536
1020.979	-1470
1021.048	-862
1021.118	-279
1021.187	-1049
1021.257	-1214
1021.326	-917
1021.396	-360
1021.465	-1631
1021.535	-1432
1021.604	-1514
1021.674	-858
1021.743	-1573
1021.812	-1557
1021.882	-1242
1021.951	-651
1022.020	-1044
1022.089	-1041
1022.159	-1435
1022.228	-1329
1022.297	-1058
1022.366	-1320
1022.435	-1296
1022.504	-972
1022.573	-1426
1022.642	-544
1022.711	-1645
1022.781	-507
1022.849	-846
1022.918	-1162
1022.987	-1479
1023.056	-1136
1023.125	-748
1023.194	-1882
1023.263	-601
1023.331	-1088
1023.400	-1640
1023.469	-1425
1023.538	-1141
1023.606	-1644
1023.675	-816
1023.744	-1546
1023.812	-1881
1023.881	-1120
1023.949	-999
1024.018	-1373
1024.086	-1366
1024.155	-893
1024.223	-1415
1024.292	-1200
1024.360	-1186
1024.429	-966
1024.497	-1082
1024.565	-7
1024.634	-1366
1024.702	-1604
1024.770	-767
1024.838	-571
1024.907	-1602
1024.975	-1197
1025.043	-1447
1025.111	-1297
1025.179	-953
1025.247	-1530
1025.315	-511
1025.383	-1443
1025.451	-941
1025.519	-783
1025.587	-708
1025.655	-929
1025.723	-1506
1025.791	-1693
1025.859	-871
1025.927	-1046
1025.995	-1448
1026.062	-1478
1026.130	-1486
1026.198	-1173
1026.266	-1168
1026.333	-1366
1026.401	-638
1026.469	-1187
1026.536	-1590
1026.604	-1366
1026.671	-1552
1026.739	-1276
1026.806	-922
1026.874	-1445
1026.941	-1287
1027.009	-1333
1027.076	-1799
1027.144	127
1027.211	-1955
1027.278	-852
1027.345	-342
1027.413	-1475
1027.480	-1187
1027.547	-1072
1027.614	-1076
1027.682	-142
1027.749	-1894
1027.816	-1313
1027.883	-1571
1027.950	-1174
1028.017	-2054
1028.084	-777
1028.151	-1459
1028.218	-669
1028.285	-872
1028.352	-1042
1028.419	-969
1028.486	-1068
1028.553	-646
1028.619	-1161
1028.686	-1184
1028.753	-348
1028.820	-1691
1028.886	-617
1028.953	-1095
1029.020	-1735
1029.086	-977
1029.153	-758
1029.220	-1338
1029.286	-1140
1029.353	-1195
1029.419	-1389
1029.486	-1535
1029.552	-1851
1029.619	-1461
1029.685	-1638
1029.751	-1381
1029.818	-334
1029.884	-1180
1029.951	-473
1030.017	-1812
1030.083	-1541
1030.149	-598
1030.216	-1709
1030.282	-1174
1030.348	-970
1030.414	-1641
1030.480	-1735
1030.546	-1252
1030.612	-540
1030.678	-1589
1030.744	-836
1030.810	-881
1030.876	-1420
1030.942	-1085
1031.008	-839
1031.074	-1936
1031.140	-1346
1031.206	-632
1031.272	-1876
1031.337	-1180
1031.403	-729
1031.469	-1850
1031.534	-740
1031.600	-1381
1031.666	-1934
1031.731	-1425
1031.797	-1095
1031.863	-1670
1031.928	-1774
1031.994	-1394
1032.059	-1368
1032.125	-1626
1032.190	-1815
1032.256	-1279
1032.321	-1948
1032.386	-1735
1032.452	-1049
1032.517	-1714
1032.582	-1174
1032.647	-1587
1032.713	-1693
1032.778	-1150
1032.843	-1818
1032.908	-1390
1032.974	-1131
1033.039	-1586
1033.104	-677
1033.169	-1529
1033.234	-1073
1033.299	-522
1033.364	-554
1033.429	-1015
1033.494	-1129
1033.559	-992
1033.624	-932
1033.688	-1041
1033.753	-1321
1033.818	-1248
1033.883	-1125
1033.948	-640
1034.013	-932
1034.077	-1002
1034.142	-470
1034.207	-1226
1034.271	578
1034.336	985
1034.400	190
1034.465	-252
1034.530	-868
1034.594	-994
1034.658	-1574
1034.723	-2075
1034.787	-1044
1034.852	-1556
1034.916	-1808
1034.981	-1900
1035.045	-1602
1035.109	-1052
1035.173	-1956
1035.238	-1582
1035.302	-541
1035.366	-1295
1035.430	-885
1035.495	-1303
1035.559	-591
1035.623	-1770
1035.687	-1003
1035.751	-1741
1035.815	-1517
1035.879	-1010
1035.943	-858
1036.007	-2058
1036.071	-1273
1036.135	-1703
1036.198	-1857
1036.262	-2050
1036.326	-554
1036.390	-1310
1036.454	-651
1036.517	-1142
1036.581	-639
1036.645	662
1036.709	-380
1036.772	-929
1036.836	-1412
1036.900	-1136
1036.963	-859
1037.026	-1461
1037.090	-995
1037.154	-1328
1037.217	-1504
1037.280	-1759
1037.344	-1346
1037.407	-2073
1037.471	-1574
1037.534	-897
1037.597	-870
1037.661	-1345
1037.724	-1350
1037.787	-1495
1037.850	-1506
1037.913	-2346
1037.977	-336
1038.040	-1051
1038.103	-1451
1038.166	-1676
1038.229	-615
1038.292	-1274
1038.355	-1007
1038.418	-1455
1038.481	-1298
1038.544	-1377
1038.607	-2228
1038.670	-1386
1038.732	-1473
1038.795	-1187
1038.858	-1748
1038.921	-1545
1038.984	-1262
1039.046	-1435
1039.109	-1138
1039.172	-1737
1039.234	-2024
1039.297	-1720
1039.360	-1210
1039.422	-1325
1039.485	-1858
1039.547	-1772
1039.610	-1697
1039.672	-2035
1039.734	-1492
1039.797	-900
1039.859	-1231
1039.922	-1280
1039.984	-1258
1040.046	-1730
1040.109	-1479
1040.171	-1287
1040.233	-1333
1040.295	-1702
1040.358	-1840
1040.420	-2071
1040.482	-1170
1040.544	-1159
1040.606	-710
1040.668	-1978
1040.730	-24
1040.792	-1725
1040.854	-1067
1040.916	-1646
1040.978	-1553
1041.040	-1199
1041.102	-629
1041.164	-1533
1041.225	-1145
1041.287	-1806
1041.349	-1541
1041.411	-1187
1041.472	-1962
1041.534	-2169
1041.596	-1380
1041.657	-2059
1041.719	-804
1041.781	-2142
1041.842	-1373
1041.904	-2179
1041.965	-1738
1042.027	-1788
1042.088	-1010
1042.150	-1569
1042.211	-1886
1042.272	-1412
1042.334	-1159
1042.395	-1136
1042.456	-1260
1042.518	-1482
1042.579	-1207
1042.640	-1619
1042.701	-1283
1042.763	-1720
1042.824	-1937
1042.885	-1284
1042.946	-1858
1043.007	-977
1043.068	-2102
1043.129	-1096
1043.190	-1435
1043.251	-743
1043.312	-1689
1043.373	-1187
1043.434	-1788
1043.495	-1993
1043.556	-2157
1043.616	-1508
1043.677	-643
1043.738	-1642
1043.799	-1393
1043.859	-1817
1043.920	-1498
1043.981	-1653
1044.041	-1600
1044.102	-1717
1044.162	-987
1044.223	-1757
1044.284	-947
1044.344	-1202
1044.405	-977
1044.465	-1244
1044.525	-1527
1044.586	-897
1044.646	-2068
1044.707	-858
1044.767	-1780
1044.827	-1854
1044.887	-995
1044.948	-934
1045.008	-1351
1045.068	-1827
1045.128	-1096
1045.188	-650
1045.249	-661
1045.309	-2492
1045.369	-2142
1045.429	-1017
1045.489	-1113
1045.549	-1653
1045.609	-1483
1045.669	-601
1045.729	-833
1045.789	-1925
1045.848	-462
1045.908	-1202
1045.968	-1169
1046.028	-913
1046.088	-1154
1046.147	-1068
1046.207	-1024
1046.267	-614
1046.326	-1118
1046.386	-882
1046.446	-899
1046.505	-747
1046.565	-797
1046.624	84
1046.684	665
1046.743	-1498
1046.803	650
1046.862	233
1046.922	0
