'Start Wavelength	183.907
'End Wavelength	1046.922
'Gate Delay	5.000
'Gate Width (ms)	1.050
'Laser Output Level	0.000
'X Position	0.000
'Y Position	0.000
'Z Position	0.000
'Grid Point Number	1.000
'Shot Number	100.000
183.907	709.000
183.977	264.000
184.047	299
184.116	1255
184.186	628
184.256	417
184.325	582
184.395	-387
184.465	955
184.534	51
184.604	-164
184.674	-241
184.743	-593
184.813	405
184.883	52
184.952	-527
185.022	318
185.092	540
185.161	334
185.231	547
185.301	211
185.370	628
185.440	565
185.509	-334
185.579	-42
185.649	670
185.718	774
185.788	-10
185.857	269
185.927	-13
185.996	462
186.066	555
186.136	-309
186.205	182
186.275	982
186.344	-221
186.414	-157
186.483	-350
186.553	597
186.622	254
186.692	413
186.761	-73
186.831	417
186.900	802
186.970	-264
187.039	427
187.109	1276
187.178	1253
187.248	592
187.317	200
187.387	119
187.456	301
187.526	154
187.595	482
187.664	144
187.734	70
187.803	619
187.873	-8
187.942	759
188.012	420
188.081	382
188.150	-287
188.220	363
188.289	-488
188.358	655
188.428	427
188.497	169
188.567	1016
188.636	1214
188.705	205
188.775	179
188.844	-198
188.913	516
188.983	613
189.052	492
189.121	559
189.191	803
189.260	1004
189.329	1273
189.399	212
189.468	99
189.537	-305
189.606	618
189.676	1026
189.745	579
189.814	1478
189.883	88
189.953	350
190.022	953
190.091	1573
190.161	2099
190.230	1378
190.299	983
190.368	676
190.437	239
190.507	40
190.576	634
190.645	1407
190.714	1010
190.783	-332
190.853	1444
190.922	1385
190.991	205
191.060	470
191.129	286
191.198	601
191.268	-148
191.337	684
191.406	294
191.475	341
191.544	459
191.613	1087
191.682	889
191.752	171
191.821	-608
191.890	711
191.959	139
192.028	673
192.097	590
192.166	716
192.235	-58
192.304	938
192.373	-327
192.442	373
192.511	439
192.580	372
192.650	903
192.719	660
192.788	270
192.857	712
192.926	127
192.995	873
193.064	1423
193.133	777
193.202	1526
193.271	1204
193.340	1297
193.409	1114
193.478	788
193.547	1691
193.615	1451
193.684	1853
193.753	979
193.822	1324
193.891	913
193.960	693
194.029	1135
194.098	769
194.167	738
194.236	961
194.305	988
194.374	287
194.443	769
194.512	727
194.580	767
194.649	1600
194.718	1481
194.787	563
194.856	126
194.925	672
194.994	522
195.062	910
195.131	883
195.200	933
195.269	1084
195.338	651
195.407	1004
195.475	574
195.544	1277
195.613	974
195.682	1153
195.751	682
195.819	1483
195.888	1537
195.957	1296
196.026	1435
196.094	1758
196.163	831
196.232	964
196.301	1844
196.369	918
196.438	1193
196.507	943
196.576	1128
196.644	1161
196.713	473
196.782	362
196.850	736
196.919	1057
196.988	430
197.056	342
197.125	340
197.194	1051
197.262	473
197.331	1319
197.400	1322
197.468	834
197.537	298
197.606	1569
197.674	1147
197.743	1837
197.812	1128
197.880	1991
197.949	449
198.017	1375
198.086	1220
198.155	1564
198.223	1070
198.292	1888
198.360	1497
198.429	498
198.497	1136
198.566	1114
198.635	1949
198.703	1309
198.772	1631
198.840	1753
198.909	2457
198.977	1167
199.046	1427
199.114	1331
199.183	1347
199.251	469
199.320	1171
199.388	710
199.457	486
199.525	1079
199.594	777
199.662	667
199.731	1095
199.799	638
199.867	799
199.936	172
200.004	1148
200.073	1075
200.141	1285
200.210	899
200.278	1607
200.346	1292
200.415	816
200.483	1922
200.552	1044
200.620	844
200.688	734
200.757	502
200.825	714
200.893	1031
200.962	1013
201.030	1230
201.098	727
201.167	1491
201.235	940
201.303	1881
201.372	986
201.440	985
201.508	1310
201.577	690
201.645	1511
201.713	1181
201.781	592
201.850	2351
201.918	1769
201.986	1159
202.055	1896
202.123	588
202.191	1602
202.259	680
202.327	1034
202.396	905
202.464	1733
202.532	1624
202.600	3306
202.669	3018
202.737	1414
202.805	1036
202.873	2161
202.941	1759
203.009	1365
203.078	1324
203.146	1076
203.214	1135
203.282	1462
203.350	1914
203.418	584
203.487	1451
203.555	1601
203.623	1233
203.691	1137
203.759	1068
203.827	1166
203.895	1145
203.963	1869
204.031	648
204.099	1247
204.168	941
204.236	1220
204.304	1208
204.372	1195
204.440	1991
204.508	1347
204.576	289
204.644	865
204.712	1238
204.780	904
204.848	926
204.916	895
204.984	1411
205.052	863
205.120	1555
205.188	1286
205.256	1387
205.324	1063
205.392	1560
205.460	1491
205.528	1160
205.596	2056
205.664	2096
205.732	728
205.799	3229
205.867	4750
205.935	1547
206.003	1841
206.071	1272
206.139	1168
206.207	1331
206.275	1371
206.343	1085
206.411	1457
206.478	1485
206.546	2081
206.614	1448
206.682	1257
206.750	1720
206.818	1406
206.885	1596
206.953	42
207.021	2421
207.089	1624
207.157	1163
207.225	1440
207.292	917
207.360	1188
207.428	1829
207.496	1870
207.563	1592
207.631	1703
207.699	1092
207.767	1505
207.834	1127
207.902	1170
207.970	1312
208.038	1064
208.105	1641
208.173	1492
208.241	2681
208.309	2832
208.376	1595
208.444	2862
208.512	1773
208.579	290
208.647	1899
208.715	2083
208.782	721
208.850	1579
208.918	967
208.985	1703
209.053	2328
209.120	1774
209.188	1930
209.256	1795
209.323	1080
209.391	2626
209.459	2807
209.526	1995
209.594	2255
209.661	2326
209.729	1951
209.796	1743
209.864	1835
209.932	475
209.999	2697
210.067	2041
210.134	1467
210.202	2054
210.269	2853
210.337	2184
210.404	2178
210.472	1928
210.539	3261
210.607	719
210.674	1799
210.742	2131
210.809	1472
210.877	2574
210.944	2460
211.012	1701
211.079	3221
211.146	2019
211.214	1872
211.281	2170
211.349	3131
211.416	2318
211.484	2784
211.551	2396
211.618	2188
211.686	1689
211.753	1538
211.821	1809
211.888	1656
211.955	2325
212.023	2137
212.090	1855
212.157	1697
212.225	2162
212.292	3183
212.359	5357
212.427	10563
212.494	6331
212.561	2827
212.629	3193
212.696	3179
212.763	3087
212.831	1976
212.898	2730
212.965	1568
213.032	1555
213.100	2376
213.167	2691
213.234	2988
213.301	2515
213.369	2927
213.436	1505
213.503	1922
213.570	2763
213.638	2274
213.705	1647
213.772	1788
213.839	2274
213.906	2759
213.973	2894
214.041	1840
214.108	2860
214.175	2882
214.242	2052
214.309	2529
214.376	2207
214.444	2483
214.511	3483
214.578	2524
214.645	2731
214.712	3401
214.779	2405
214.846	1556
214.913	3879
214.980	3437
215.048	3138
215.115	3679
215.182	3759
215.249	2749
215.316	1808
215.383	3152
215.450	2988
215.517	2708
215.584	2661
215.651	2214
215.718	1638
215.785	2935
215.852	1989
215.919	3429
215.986	3400
216.053	2309
216.120	1172
216.187	3258
216.254	2965
216.321	1925
216.388	2254
216.455	3034
216.522	3238
216.589	3086
216.656	4532
216.722	4969
216.789	4539
216.856	4069
216.923	3789
216.990	3836
217.057	2473
217.124	3912
217.191	4392
217.258	4324
217.324	5653
217.391	6041
217.458	4457
217.525	2900
217.592	3417
217.659	2232
217.725	3752
217.792	3455
217.859	3018
217.926	2215
217.993	2075
218.059	2570
218.126	2832
218.193	1935
218.260	2727
218.327	2605
218.393	1578
218.460	3113
218.527	2042
218.594	2345
218.660	2758
218.727	3799
218.794	1777
218.860	3125
218.927	1461
218.994	2441
219.061	1884
219.127	2015
219.194	3100
219.261	2406
219.327	1440
219.394	2103
219.461	1112
219.527	1280
219.594	2817
219.661	2168
219.727	1233
219.794	2349
219.860	1457
219.927	2038
219.994	3133
220.060	4443
220.127	4405
220.193	3375
220.260	3548
220.326	4499
220.393	6888
220.460	8180
220.526	5969
220.593	4088
220.659	5001
220.726	4050
220.792	7597
220.859	7683
220.925	9878
220.992	12654
221.058	12144
221.125	10406
221.191	8275
221.258	3290
221.324	4195
221.391	3269
221.457	2050
221.524	2270
221.590	3373
221.657	7562
221.723	6489
221.789	5948
221.856	6443
221.922	3236
221.989	3316
222.055	2804
222.121	1533
222.188	3745
222.254	2529
222.321	2326
222.387	1924
222.453	2267
222.520	1461
222.586	1938
222.652	2687
222.719	1378
222.785	2529
222.851	2298
222.918	2576
222.984	2331
223.050	2426
223.116	1508
223.183	2371
223.249	1707
223.315	2259
223.382	1837
223.448	1556
223.514	1451
223.580	2577
223.647	931
223.713	997
223.779	2209
223.845	1845
223.911	2286
223.978	995
224.044	2584
224.110	1452
224.176	2807
224.242	1679
224.309	1115
224.375	1554
224.441	1936
224.507	1364
224.573	996
224.639	2052
224.705	1237
224.772	1423
224.838	996
224.904	3041
224.970	2164
225.036	1602
225.102	1339
225.168	2378
225.234	2204
225.300	1042
225.366	1439
225.432	2004
225.499	2125
225.565	1626
225.631	2322
225.697	2483
225.763	3347
225.829	2647
225.895	3381
225.961	4115
226.027	4858
226.093	3738
226.159	4465
226.225	6277
226.291	11538
226.357	18482
226.423	11141
226.489	6806
226.554	5192
226.620	4718
226.686	5818
226.752	7627
226.818	11587
226.884	21184
226.950	20069
227.016	9799
227.082	6916
227.148	5092
227.214	4499
227.279	3939
227.345	3484
227.411	3122
227.477	3295
227.543	5127
227.609	5492
227.674	3585
227.740	2606
227.806	3467
227.872	2896
227.938	2032
228.003	3528
228.069	2899
228.135	2536
228.201	2419
228.267	1787
228.332	2974
228.398	2726
228.464	3290
228.530	2002
228.595	2001
228.661	1920
228.727	3011
228.792	4200
228.858	2033
228.924	2126
228.990	3823
229.055	2704
229.121	3798
229.187	2945
229.252	2137
229.318	1815
229.384	2122
229.449	2773
229.515	1325
229.581	1340
229.646	3583
229.712	2762
229.777	3728
229.843	5799
229.909	4021
229.974	5158
230.040	4633
230.105	4202
230.171	3269
230.236	4691
230.302	5635
230.368	5045
230.433	3163
230.499	3387
230.564	3480
230.630	2386
230.695	2989
230.761	3965
230.826	1325
230.892	4570
230.957	1384
231.023	2122
231.088	2460
231.154	2593
231.219	3252
231.284	3226
231.350	4417
231.415	1702
231.481	3388
231.546	2419
231.612	2461
231.677	1310
231.742	1319
231.808	3220
231.873	1512
231.939	1210
232.004	4759
232.069	4151
232.135	3468
232.200	2505
232.265	2333
232.331	2191
232.396	1449
232.461	1905
232.527	2292
232.592	2565
232.657	3024
232.723	3042
232.788	3980
232.853	3042
232.918	2590
232.984	1184
233.049	2257
233.114	2812
233.179	3358
233.245	5473
233.310	6074
233.375	1719
233.440	2593
233.506	1571
233.571	862
233.636	2090
233.701	2528
233.766	3719
233.832	5284
233.897	2956
233.962	2101
234.027	4512
234.092	3717
234.157	2276
234.222	2671
234.288	4088
234.353	9966
234.418	10296
234.483	6689
234.548	5312
234.613	4718
234.678	3848
234.743	4118
234.808	12045
234.873	6484
234.938	5783
235.004	3711
235.069	3143
235.134	3219
235.199	3901
235.264	3920
235.329	2662
235.394	2884
235.459	4798
235.524	3227
235.589	4221
235.654	2781
235.719	2345
235.784	3570
235.849	3399
235.913	6857
235.978	7386
236.043	8218
236.108	4537
236.173	2938
236.238	3969
236.303	3314
236.368	3113
236.433	4658
236.498	7219
236.563	6456
236.627	9872
236.692	26417
236.757	23861
236.822	11353
236.887	9606
236.952	7759
237.017	4839
237.081	7941
237.146	7584
237.211	16119
237.276	27076
237.341	40238
237.405	24838
237.470	11337
237.535	8692
237.600	5584
237.664	4603
237.729	4391
237.794	5651
237.859	11165
237.923	7791
237.988	4883
238.053	6860
238.118	6822
238.182	11927
238.247	13151
238.312	6297
238.376	6596
238.441	3796
238.506	5293
238.570	2663
238.635	4398
238.700	3007
238.764	3242
238.829	6151
238.893	7865
238.958	4720
239.023	4052
239.087	3136
239.152	4455
239.216	2489
239.281	3522
239.346	2358
239.410	3422
239.475	2913
239.539	11297
239.604	9602
239.668	4925
239.733	3323
239.797	4555
239.862	8387
239.926	10992
239.991	5991
240.055	4302
240.120	2692
240.184	3231
240.249	3637
240.313	2924
240.378	3316
240.442	7319
240.507	11851
240.571	4959
240.635	5797
240.700	8554
240.764	3867
240.829	3483
240.893	1739
240.957	4313
241.022	6782
241.086	12364
241.151	7068
241.215	3173
241.279	4934
241.344	7515
241.408	5132
241.472	3783
241.537	5372
241.601	4926
241.665	2987
241.730	3436
241.794	4653
241.858	2740
241.922	4309
241.987	4481
242.051	3454
242.115	2219
242.179	3110
242.244	3080
242.308	4289
242.372	4206
242.436	3945
242.501	4337
242.565	2705
242.629	2903
242.693	4366
242.757	3379
242.822	2903
242.886	3445
242.950	4057
243.014	3072
243.078	4884
243.142	4758
243.206	3611
243.271	5267
243.335	3843
243.399	5984
243.463	14218
243.527	37548
243.591	14495
243.655	7518
243.719	4782
243.783	6106
243.847	8109
243.911	8930
243.975	11675
244.040	9058
244.104	6263
244.168	5190
244.232	6702
244.296	8989
244.360	8912
244.424	4741
244.488	4867
244.552	5929
244.615	2471
244.679	4465
244.743	3889
244.807	4257
244.871	4069
244.935	3725
244.999	2305
245.063	3950
245.127	4784
245.191	6471
245.255	6365
245.319	5986
245.383	4909
245.446	4993
245.510	3035
245.574	3885
245.638	4878
245.702	2920
245.766	8992
245.829	7545
245.893	3920
245.957	3613
246.021	5356
246.085	4928
246.149	6118
246.212	11006
246.276	15108
246.340	8770
246.404	5992
246.467	6567
246.531	7201
246.595	6692
246.659	6417
246.722	5494
246.786	8056
246.850	6420
246.913	8537
246.977	3842
247.041	4345
247.104	5491
247.168	5901
247.232	10901
247.295	19798
247.359	12493
247.423	5889
247.486	9904
247.550	7835
247.614	5950
247.677	8182
247.741	6118
247.804	4060
247.868	5505
247.932	9337
247.995	20280
248.059	9572
248.122	4771
248.186	8028
248.249	11627
248.313	27965
248.376	30722
248.440	22483
248.503	9326
248.567	9377
248.630	11412
248.694	15373
248.757	18418
248.821	30684
248.884	23868
248.948	20250
249.011	27519
249.075	35674
249.138	33623
249.202	16958
249.265	11541
249.328	12609
249.392	10068
249.455	9059
249.519	7138
249.582	9098
249.645	13227
249.709	9568
249.772	6374
249.835	6650
249.899	7379
249.962	6903
250.025	6839
250.089	13531
250.152	19337
250.215	11574
250.279	7755
250.342	8914
250.405	8305
250.468	7348
250.532	9507
250.595	13701
250.658	34165
250.721	58256
250.785	25072
250.848	15806
250.911	8651
250.974	8448
251.038	10634
251.101	20548
251.164	11970
251.227	14157
251.290	12435
251.354	16603
251.417	47687
251.480	52270
251.543	36722
251.606	81075
251.669	69770
251.732	30549
251.795	29625
251.859	29677
251.922	55605
251.985	39118
252.048	16359
252.111	12781
252.174	12551
252.237	21231
252.300	38609
252.363	40708
252.426	70372
252.489	35473
252.552	20220
252.615	13171
252.678	15289
252.741	28865
252.804	36514
252.867	73521
252.930	50331
252.993	28304
253.056	18446
253.119	14341
253.182	10420
253.245	17029
253.308	14926
253.371	14959
253.434	13828
253.497	12404
253.559	20103
253.622	16304
253.685	21254
253.748	24325
253.811	11947
253.874	13780
253.937	13056
254.000	10929
254.062	14500
254.125	22889
254.188	18739
254.251	17666
254.314	9166
254.376	16180
254.439	20369
254.502	18098
254.565	16302
254.628	27163
254.690	19263
254.753	11985
254.816	9381
254.878	10022
254.941	15360
255.004	16856
255.067	8928
255.129	9682
255.192	6167
255.255	5166
255.317	6679
255.380	4744
255.443	4054
255.505	3811
255.568	3352
255.631	4914
255.693	5455
255.756	3867
255.819	4981
255.881	3586
255.944	4182
256.006	2984
256.069	3473
256.132	3981
256.194	5418
256.257	12257
256.319	9769
256.382	9565
256.444	6264
256.507	5646
256.569	4803
256.632	5638
256.694	8089
256.757	17059
256.819	46352
256.882	22254
256.944	10624
257.007	8868
257.069	8986
257.132	5737
257.194	5747
257.257	5237
257.319	5179
257.381	5731
257.444	13519
257.506	47329
257.569	61456
257.631	34110
257.693	18354
257.756	10247
257.818	9305
257.880	6239
257.943	6038
258.005	4816
258.067	4937
258.130	5182
258.192	6146
258.254	13407
258.317	8349
258.379	5444
258.441	11430
258.503	12537
258.566	12693
258.628	19405
258.690	6118
258.753	7076
258.815	12620
258.877	7894
258.939	5861
259.001	5369
259.064	4781
259.126	6595
259.188	8359
259.250	6079
259.312	6929
259.375	13887
259.437	11988
259.499	5624
259.561	5198
259.623	5724
259.685	4985
259.747	5206
259.809	12465
259.872	25778
259.934	32835
259.996	31965
260.058	10385
260.120	6001
260.182	5031
260.244	4746
260.306	3519
260.368	4795
260.430	4503
260.492	7220
260.554	13700
260.616	11038
260.678	17278
260.740	26594
260.802	9537
260.864	7325
260.926	6509
260.988	6882
261.050	5853
261.112	8370
261.174	22321
261.236	21081
261.298	7897
261.359	11766
261.421	17195
261.483	6584
261.545	5922
261.607	3999
261.669	5430
261.731	7602
261.793	18621
261.854	9023
261.916	7759
261.978	5043
262.040	6278
262.102	5232
262.164	7513
262.225	7769
262.287	4599
262.349	9919
262.411	9358
262.472	5357
262.534	7407
262.596	17172
262.658	6673
262.719	4285
262.781	6218
262.843	15847
262.904	7950
262.966	6012
263.028	7430
263.090	24508
263.151	65104
263.213	23347
263.275	14125
263.336	7622
263.398	5879
263.459	3697
263.521	5058
263.583	10869
263.644	9459
263.706	4236
263.767	3243
263.829	3594
263.891	2956
263.952	2178
264.014	3292
264.075	3528
264.137	8314
264.198	7080
264.260	2957
264.321	2892
264.383	6635
264.444	15054
264.506	5018
264.567	4477
264.629	6049
264.690	9494
264.752	6184
264.813	5316
264.875	3166
264.936	4236
264.998	2608
265.059	3308
265.120	3568
265.182	6659
265.243	24526
265.305	27551
265.366	8590
265.427	5066
265.489	4392
265.550	2520
265.611	4301
265.673	4154
265.734	3621
265.795	3215
265.857	3512
265.918	3674
265.979	8395
266.040	37302
266.102	36369
266.163	11421
266.224	9022
266.286	6622
266.347	4848
266.408	4912
266.469	4900
266.530	4397
266.592	4162
266.653	7837
266.714	13743
266.775	4962
266.836	3821
266.898	4308
266.959	5485
267.020	4550
267.081	4765
267.142	4052
267.203	3418
267.264	2707
267.326	4432
267.387	3272
267.448	4477
267.509	4730
267.570	4254
267.631	3299
267.692	1927
267.753	3714
267.814	2948
267.875	6173
267.936	13466
267.997	6653
268.058	7464
268.119	4906
268.180	4532
268.241	2971
268.302	3597
268.363	2839
268.424	4039
268.485	3631
268.546	3460
268.607	2410
268.668	2696
268.729	2660
268.790	3648
268.851	3596
268.912	8240
268.972	12360
269.033	7889
269.094	3054
269.155	2993
269.216	2680
269.277	3414
269.338	3317
269.398	2993
269.459	3940
269.520	6797
269.581	8079
269.642	10459
269.702	7617
269.763	5362
269.824	4598
269.885	5625
269.945	8515
270.006	4045
270.067	3082
270.128	3644
270.188	2340
270.249	2946
270.310	3082
270.370	3957
270.431	3734
270.492	2617
270.553	4029
270.613	8780
270.674	15502
270.734	7317
270.795	4548
270.856	6320
270.916	5604
270.977	4113
271.038	5024
271.098	5339
271.159	7903
271.219	8106
271.280	4053
271.340	3397
271.401	4121
271.462	10937
271.522	7267
271.583	5072
271.643	3884
271.704	4725
271.764	5990
271.825	12175
271.885	31754
271.946	42638
272.006	17639
272.066	19350
272.127	33568
272.187	12940
272.248	7341
272.308	7421
272.369	20240
272.429	14747
272.489	11536
272.550	13344
272.610	13882
272.671	11590
272.731	8721
272.791	14094
272.852	9666
272.912	9031
272.972	4735
273.033	4944
273.093	8222
273.153	8913
273.214	5645
273.274	6442
273.334	15816
273.394	34120
273.455	18488
273.515	15047
273.575	30199
273.635	16447
273.696	17724
273.756	32410
273.816	18815
273.876	10732
273.936	15849
273.997	29408
274.057	9339
274.117	7366
274.177	11108
274.237	37756
274.297	35741
274.358	26608
274.418	26051
274.478	23118
274.538	9935
274.598	7336
274.658	22405
274.718	31207
274.778	14208
274.838	8359
274.898	12909
274.958	40161
275.018	33237
275.078	22749
275.138	11730
275.198	7280
275.258	5799
275.318	6747
275.378	13891
275.438	15725
275.498	9512
275.558	18039
275.618	37081
275.678	24158
275.738	16879
275.798	13103
275.858	6819
275.918	3323
275.978	6037
276.038	6644
276.098	4040
276.157	8836
276.217	27158
276.277	13807
276.337	11404
276.397	7366
276.457	7893
276.517	5405
276.576	4430
276.636	4323
276.696	8355
276.756	16146
276.815	13351
276.875	7746
276.935	6896
276.995	7178
277.055	4838
277.114	4198
277.174	6575
277.234	19400
277.293	11502
277.353	6163
277.413	4537
277.472	5557
277.532	6250
277.592	6809
277.651	19026
277.711	39660
277.771	14596
277.830	40285
277.890	39022
277.950	24270
278.009	64314
278.069	29434
278.128	26998
278.188	43167
278.248	20316
278.307	41321
278.367	29556
278.426	10990
278.486	7029
278.545	6490
278.605	4998
278.664	5456
278.724	5711
278.783	12199
278.843	30917
278.902	12428
278.962	8233
279.021	9856
279.081	13015
279.140	13599
279.199	11610
279.259	11112
279.318	11699
279.378	14660
279.437	24274
279.496	63517
279.556	164482
279.615	154207
279.675	53197
279.734	31194
279.793	37386
279.853	49066
279.912	21758
279.971	15135
280.031	13039
280.090	17569
280.149	31481
280.208	32623
280.268	111126
280.327	132689
280.386	41703
280.445	27292
280.505	25056
280.564	13761
280.623	10124
280.682	13040
280.742	20944
280.801	9248
280.860	7370
280.919	6057
280.978	6280
281.037	5262
281.097	5163
281.156	6557
281.215	5130
281.274	5863
281.333	18917
281.392	17927
281.451	5802
281.510	4244
281.569	5019
281.628	4656
281.688	4266
281.747	6058
281.806	5043
281.865	4416
281.924	4218
281.983	4896
282.042	3879
282.101	3884
282.160	4822
282.219	4141
282.278	3914
282.337	13292
282.396	11280
282.454	5565
282.513	6546
282.572	20002
282.631	15546
282.690	5769
282.749	4487
282.808	6517
282.867	6262
282.926	6404
282.985	4736
283.043	4159
283.102	4145
283.161	5626
283.220	9320
283.279	21845
283.338	8203
283.396	6388
283.455	6064
283.514	7498
283.573	10244
283.631	7966
283.690	6447
283.749	5925
283.808	11748
283.866	15102
283.925	7287
283.984	6961
284.043	8819
284.101	9811
284.160	7873
284.219	8827
284.277	8917
284.336	12601
284.395	31387
284.453	28130
284.512	15193
284.570	18234
284.629	18083
284.688	19452
284.746	21065
284.805	26213
284.863	32312
284.922	42048
284.981	49003
285.039	65217
285.098	98258
285.156	143603
285.215	121004
285.273	110229
285.332	148699
285.390	117556
285.449	81918
285.507	58970
285.566	43802
285.624	33750
285.683	27444
285.741	22249
285.799	19202
285.858	16099
285.916	15395
285.975	12277
286.033	9767
286.091	9086
286.150	8134
286.208	8753
286.267	8918
286.325	9511
286.383	12574
286.442	11514
286.500	6689
286.558	6503
286.616	5422
286.675	8870
286.733	8011
286.791	6893
286.850	7894
286.908	7962
286.966	14560
287.024	7143
287.083	5290
287.141	4045
287.199	5228
287.257	8991
287.315	6282
287.374	6049
287.432	13351
287.490	11350
287.548	7276
287.606	5491
287.664	5673
287.723	7706
287.781	9342
287.839	6175
287.897	6340
287.955	7335
288.013	11108
288.071	23093
288.129	72346
288.187	192213
288.245	105267
288.303	34415
288.361	19296
288.419	14587
288.477	10877
288.535	8173
288.593	6845
288.651	6091
288.709	4424
288.767	4878
288.825	4967
288.883	3964
288.941	3437
288.999	3016
289.057	3917
289.115	3008
289.173	3314
289.231	4243
289.289	3751
289.346	2959
289.404	3937
289.462	8611
289.520	9942
289.578	4313
289.636	3005
289.694	2212
289.751	2380
289.809	2817
289.867	3442
289.925	4282
289.983	5917
290.040	2959
290.098	2612
290.156	4420
290.214	4657
290.271	3515
290.329	2435
290.387	1991
290.444	2934
290.502	1890
290.560	1915
290.617	2835
290.675	2642
290.733	3102
290.790	4121
290.848	2896
290.906	3412
290.963	3558
291.021	3409
291.078	2492
291.136	3394
291.194	7016
291.251	20016
291.309	7663
291.366	3112
291.424	3863
291.481	4242
291.539	4217
291.596	4315
291.654	2768
291.711	2263
291.769	4253
291.826	9556
291.884	6533
291.941	3428
291.999	3393
292.056	4156
292.114	5186
292.171	3478
292.228	3751
292.286	4291
292.343	9014
292.401	11478
292.458	7235
292.515	4360
292.573	6109
292.630	6800
292.687	5965
292.745	4109
292.802	5057
292.859	10932
292.917	23290
292.974	17284
293.031	6232
293.089	3122
293.146	3252
293.203	3785
293.260	2207
293.318	3939
293.375	4714
293.432	3255
293.489	2751
293.546	3553
293.604	5790
293.661	14565
293.718	36716
293.775	21136
293.832	12895
293.889	11207
293.947	9673
294.004	5740
294.061	6225
294.118	10769
294.175	21497
294.232	23775
294.289	12502
294.346	6316
294.403	7026
294.460	5609
294.517	5199
294.574	3345
294.631	3107
294.688	4836
294.745	10854
294.802	34399
294.859	37909
294.916	17088
294.973	10501
295.030	10036
295.087	8996
295.144	5691
295.201	4677
295.258	4753
295.315	6024
295.372	14038
295.429	29261
295.486	14264
295.542	8311
295.599	11529
295.656	22363
295.713	17437
295.770	26131
295.827	12059
295.883	6294
295.940	5751
295.997	11133
296.054	11776
296.111	6183
296.167	5106
296.224	3714
296.281	2719
296.338	2536
296.394	4294
296.451	5139
296.508	11123
296.564	23255
296.621	17777
296.678	30466
296.734	46606
296.791	20235
296.848	10626
296.904	11389
296.961	24462
297.018	33400
297.074	24150
297.131	9819
297.187	8290
297.244	12132
297.301	25752
297.357	49460
297.414	22415
297.470	8942
297.527	5938
297.583	5118
297.640	6616
297.696	5128
297.753	3923
297.809	2443
297.866	2866
297.922	3715
297.979	3387
298.035	4522
298.092	8008
298.148	16331
298.204	20341
298.261	10530
298.317	14675
298.374	36367
298.430	25608
298.486	12360
298.543	9337
298.599	8302
298.656	10235
298.712	15666
298.768	35784
298.824	28653
298.881	10312
298.937	5560
298.993	6511
299.050	7767
299.106	6144
299.162	6066
299.218	6466
299.275	5444
299.331	5921
299.387	10444
299.443	31187
299.500	37950
299.556	17126
299.612	8842
299.668	7624
299.724	8243
299.780	9150
299.837	7458
299.893	9917
299.949	27563
300.005	36876
300.061	30070
300.117	45694
300.173	27022
300.229	13328
300.285	16621
300.341	20120
300.397	11449
300.453	6489
300.510	5188
300.566	6461
300.622	6840
300.678	15145
300.734	32523
300.790	31166
300.845	34751
300.901	23886
300.957	30931
301.013	28024
301.069	12304
301.125	8032
301.181	9627
301.237	8036
301.293	4913
301.349	5231
301.405	3780
301.461	4468
301.516	5195
301.572	6132
301.628	11555
301.684	12136
301.740	13762
301.796	23126
301.851	17445
301.907	26589
301.963	28976
302.019	35434
302.074	82120
302.130	93579
302.186	49847
302.242	20483
302.297	13150
302.353	12627
302.409	21099
302.464	20204
302.520	17171
302.576	37056
302.631	45294
302.687	30011
302.743	13358
302.798	7468
302.854	6625
302.910	6973
302.965	8722
303.021	16559
303.076	16747
303.132	19277
303.187	24482
303.243	13667
303.299	7193
303.354	5409
303.410	5003
303.465	5407
303.521	4435
303.576	4444
303.632	6614
303.687	11184
303.743	28172
303.798	29165
303.853	12628
303.909	7954
303.964	6878
304.020	11472
304.075	18846
304.130	16675
304.186	28782
304.241	31182
304.297	24342
304.352	12721
304.358	12219
304.407	8157
304.449	8150
304.463	8153
304.518	7163
304.539	7017
304.573	6790
304.629	6923
304.630	6982
304.684	9882
304.720	17337
304.739	21061
304.794	35684
304.811	31280
304.850	20792
304.902	10331
304.905	9658
304.960	7601
304.992	7573
305.015	7534
305.071	6956
305.083	6873
305.126	6554
305.173	4783
305.181	4505
305.236	3304
305.264	3949
305.292	4572
305.347	5502
305.354	5635
305.402	6599
305.445	6882
305.457	6926
305.512	8571
305.535	9137
305.567	9975
305.622	8342
305.626	8578
305.678	13829
305.716	25670
305.733	29936
305.788	39587
305.807	34463
305.843	25667
305.897	28608
305.898	28613
305.953	30909
305.988	21413
306.008	16228
306.063	10393
306.078	9465
306.118	7328
306.168	5067
306.173	4850
306.228	4304
306.259	4210
306.283	4189
306.338	3532
306.349	3481
306.393	3522
306.440	4865
306.448	5052
306.503	5276
306.530	5268
306.558	6001
306.613	12570
306.620	13537
306.668	20405
306.711	28887
306.723	30099
306.778	27426
306.801	21604
306.833	14879
306.888	7921
306.892	7711
306.943	5738
306.982	4845
306.997	4537
307.052	4157
307.072	4016
307.107	4048
307.162	5197
307.163	5218
307.217	7143
307.253	8038
307.272	8195
307.327	9617
307.343	9141
307.381	8170
307.434	7930
307.436	8087
307.491	13824
307.524	20291
307.546	22384
307.600	26899
307.614	24280
307.655	15607
307.704	8347
307.710	7910
307.765	7873
307.795	9321
307.819	10466
307.874	15313
307.885	15326
307.929	13613
307.975	11716
307.984	11928
308.038	16565
308.065	21316
308.093	34990
308.148	71312
308.156	79852
308.202	120175
308.246	149017
308.257	148381
308.312	88333
308.336	64905
308.366	48501
308.421	32753
308.426	31264
308.475	19876
308.517	14295
308.530	13005
308.585	11191
308.607	10724
308.639	10528
308.694	10436
308.697	10550
308.748	14978
308.787	20034
308.803	20297
308.857	18154
308.877	16416
308.912	14947
308.967	14760
308.967	14825
309.021	21811
309.058	28749
309.076	34975
309.130	59669
309.148	69148
309.185	110846
309.238	179755
309.239	180032
309.293	195331
309.328	184027
309.348	165620
309.402	90542
309.418	71554
309.457	50542
309.508	33908
309.511	33339
309.566	33103
309.598	35424
309.620	41853
309.674	64595
309.688	71271
309.729	70364
309.778	55525
309.783	54083
309.837	35740
309.868	27380
309.892	27984
309.946	34686
309.959	37892
310.001	45179
310.049	51355
310.055	49999
310.109	31113
310.139	20066
310.163	15685
310.218	10073
310.229	9329
310.272	7260
310.319	5734
310.326	5496
310.381	4149
310.409	3674
310.435	3495
310.489	3214
310.499	3220
310.543	3395
310.589	3407
310.598	3317
310.652	3362
310.679	3155
310.706	2722
310.760	2025
310.769	1921
310.814	1990
310.859	2286
310.868	2266
310.923	1972
310.948	1948
310.977	2317
311.031	3078
311.038	3190
311.085	2900
311.128	2527
311.139	2593
311.193	3080
311.218	3249
311.247	2952
311.301	2442
311.308	2393
311.356	2396
311.398	2403
311.410	2321
311.464	2035
311.488	1845
311.518	1986
311.572	2400
311.578	2456
311.626	3472
311.668	4490
311.680	4399
311.734	3813
311.758	3557
311.788	3171
311.842	2581
311.847	2533
311.896	3904
311.937	5139
311.950	5038
312.004	4627
312.027	4442
312.058	3680
312.112	2359
312.117	2243
312.165	2508
312.207	2770
312.297	3161
312.386	1935
312.476	3386
312.566	6497
312.656	3135
312.745	1430
312.835	2488
312.925	2428
313.015	2871
313.104	3004
313.194	2620
313.284	2446
313.374	3256
313.463	3467
313.553	1982
313.643	2004
313.732	2334
313.822	1720
313.912	2776
314.001	2254
314.091	2785
314.180	2875
314.270	3767
314.360	4046
314.449	3458
314.539	1839
314.628	2040
314.718	2409
314.808	3275
314.897	2960
314.987	2673
315.076	3427
315.166	4238
315.255	4328
315.345	3602
315.434	3628
315.524	3760
315.613	3701
315.703	5899
315.792	7207
315.881	16388
315.971	6053
316.060	6309
316.150	8084
316.239	8717
316.328	3234
316.418	1703
316.507	2857
316.597	4192
316.686	3360
316.775	4934
316.865	8017
316.954	2772
317.043	1755
317.133	2780
317.222	2656
317.311	2629
317.400	1093
317.490	4254
317.579	3664
317.668	3617
317.757	4946
317.847	9919
317.936	28299
318.025	13714
318.114	7751
318.203	4998
318.293	6384
318.382	11081
318.471	9647
318.560	12092
318.649	21882
318.738	4527
318.828	4154
318.917	4664
319.006	5664
319.095	12061
319.184	30359
319.273	18592
319.362	10696
319.451	3598
319.540	3686
319.629	10594
319.718	14725
319.807	6489
319.896	11431
319.985	39410
320.074	13933
320.163	3717
320.252	5225
320.341	4524
320.430	3612
320.519	7224
320.608	3270
320.697	3622
320.786	3163
320.875	4800
320.964	6632
321.053	10119
321.142	15272
321.230	15334
321.319	11704
321.408	24663
321.497	9599
321.586	10128
321.675	9454
321.764	9415
321.852	6682
321.941	14263
322.030	8929
322.119	10648
322.207	26522
322.296	13837
322.385	7970
322.474	11207
322.562	32449
322.651	14646
322.740	11696
322.829	14468
322.917	12379
323.006	8350
323.095	8439
323.183	5180
323.272	9184
323.361	14741
323.449	39126
323.538	13528
323.626	26426
323.715	15040
323.804	6337
323.892	23373
323.981	13669
324.069	5216
324.158	11394
324.246	10804
324.335	6529
324.424	9401
324.512	4135
324.601	6560
324.689	14970
324.778	24801
324.866	10058
324.954	3294
325.043	2456
325.131	5791
325.220	9035
325.308	9764
325.397	7435
325.485	4948
325.574	1488
325.662	1336
325.750	2220
325.839	3221
325.927	1788
326.015	2041
326.104	3908
326.192	4825
326.280	2176
326.369	2913
326.457	4000
326.545	8237
326.634	2148
326.722	1550
326.810	1793
326.898	1772
326.987	3586
327.075	6979
327.163	7514
327.251	3500
327.340	10489
327.428	13147
327.516	2147
327.604	1875
327.692	2617
327.781	2361
327.869	3203
327.957	3105
328.045	3206
328.133	1905
328.221	2390
328.309	2557
328.397	2668
328.485	3535
328.574	5090
328.662	17150
328.750	7423
328.838	2306
328.926	2969
329.014	2076
329.102	3155
329.190	8284
329.278	5861
329.366	1881
329.454	904
329.542	1452
329.630	1559
329.718	1950
329.806	2849
329.893	2572
329.981	1980
330.069	4750
330.157	18514
330.245	49005
330.333	23902
330.421	4465
330.509	6472
330.597	21644
330.684	11691
330.772	2904
330.860	3516
330.948	4747
331.036	2772
331.123	783
331.211	2048
331.299	1880
331.387	4507
331.475	7805
331.562	3259
331.650	1898
331.738	1674
331.825	2181
331.913	1623
332.001	1655
332.089	2301
332.176	4483
332.264	10765
332.352	7583
332.439	2910
332.527	2410
332.614	1257
332.702	2292
332.790	2029
332.877	6348
332.965	12231
333.052	5309
333.140	7160
333.228	15154
333.315	3567
333.403	2411
333.490	7614
333.578	9149
333.665	22396
333.753	7152
333.840	2306
333.928	3151
334.015	7703
334.103	12848
334.190	37087
334.278	9152
334.365	4506
334.452	3387
334.540	1859
334.627	2126
334.715	4984
334.802	9769
334.889	44252
334.977	42680
335.064	6491
335.151	2539
335.239	3515
335.326	5021
335.413	19477
335.501	23156
335.588	3966
335.675	2210
335.762	3302
335.850	5329
335.937	4730
336.024	13734
336.111	47293
336.199	20019
336.286	4369
336.373	2934
336.460	1628
336.547	2332
336.635	3200
336.722	2890
336.809	1903
336.896	4380
336.983	11955
337.070	28239
337.157	39238
337.245	28140
337.332	17989
337.419	2281
337.506	1428
337.593	2237
337.680	7325
337.767	22255
337.854	6659
337.941	7282
338.028	8921
338.115	2923
338.202	3596
338.289	7875
338.376	26664
338.463	8659
338.550	13891
338.637	13650
338.724	5272
338.811	6412
338.898	2188
338.984	1398
339.071	2207
339.158	4149
339.245	9525
339.332	5301
339.419	6211
339.506	5332
339.593	547
339.679	2699
339.766	1725
339.853	3423
339.940	6503
340.027	2780
340.113	3545
340.200	3342
340.287	2752
340.374	3449
340.460	6603
340.547	2558
340.634	6188
340.720	22117
340.807	10521
340.894	2390
340.980	1910
341.067	2197
341.154	3476
341.240	4946
341.327	9927
341.414	3611
341.500	3227
341.587	2994
341.674	3238
341.760	6600
341.847	7167
341.933	2275
342.020	1179
342.106	2141
342.193	3059
342.279	5098
342.366	3562
342.452	6466
342.539	3316
342.625	11220
342.712	22864
342.798	8862
342.885	3124
342.971	478
343.058	1353
343.144	1506
343.230	2179
343.317	1819
343.403	1042
343.490	1073
343.576	1174
343.662	1439
343.749	2078
343.835	3103
343.921	8122
344.008	45860
344.094	88239
344.180	18165
344.267	8474
344.353	27301
344.439	23725
344.525	9824
344.612	5007
344.698	3568
344.784	1995
344.870	1606
344.957	1288
345.043	4140
345.129	2140
345.215	6820
345.301	4057
345.387	2718
345.474	1300
345.560	305
345.646	874
345.732	2171
345.818	3206
345.904	1986
345.990	2839
346.076	2197
346.162	3423
346.249	2774
346.335	1993
346.421	3178
346.507	12437
346.593	36083
346.679	6184
346.765	3319
346.851	1737
346.937	1277
347.023	3431
347.108	2658
347.194	2944
347.280	2958
347.366	3679
347.452	13308
347.538	44567
347.624	33697
347.710	23156
347.796	3100
347.882	1711
347.967	1659
348.053	2700
348.139	1781
348.225	1387
348.311	1497
348.397	1668
348.482	2888
348.568	2665
348.654	1582
348.740	2149
348.825	1019
348.911	6303
348.997	23193
349.083	37664
349.168	5165
349.254	2744
349.340	2824
349.425	2038
349.511	2926
349.597	3175
349.682	9097
349.768	27129
349.854	11165
349.939	2031
350.025	972
350.110	1549
350.196	1489
350.282	224
350.367	2065
350.453	2971
350.538	2718
350.624	2876
350.709	2770
350.795	1640
350.880	1782
350.966	2654
351.051	3010
351.137	2034
351.222	2392
351.308	10788
351.393	23078
351.479	5494
351.564	1651
351.649	1654
351.735	1372
351.820	525
351.906	1933
351.991	2553
352.076	16754
352.162	20869
352.247	4500
352.332	2547
352.418	7226
352.503	10636
352.588	36117
352.673	24429
352.759	4998
352.844	2215
352.929	3618
353.014	4111
353.100	2962
353.185	5389
353.270	7976
353.355	8183
353.441	2101
353.526	2649
353.611	7586
353.696	7205
353.781	5291
353.866	1696
353.952	3645
354.037	8229
354.122	16245
354.207	13876
354.292	4883
354.377	2177
354.462	2422
354.547	2134
354.632	3292
354.717	3589
354.802	5059
354.887	2430
354.972	1963
355.057	1296
355.142	1037
355.227	2836
355.312	5252
355.397	12076
355.482	25497
355.567	10859
355.652	9250
355.737	11123
355.822	33530
355.907	22021
355.991	4343
356.076	1744
356.161	1592
356.246	2003
356.331	2772
356.416	8224
356.501	55241
356.585	46820
356.670	6139
356.755	5847
356.840	8568
356.924	39402
357.009	118539
357.094	39762
357.179	9584
357.263	6308
357.348	6805
357.433	5344
357.517	5146
357.602	3767
357.687	3285
357.771	7566
357.856	16546
357.941	11649
358.025	30529
358.110	113435
358.195	46002
358.279	8335
358.364	6602
358.448	24451
358.533	61293
358.617	42219
358.702	41596
358.787	13588
358.871	8118
358.956	6353
359.040	2404
359.125	1440
359.209	2703
359.294	7851
359.378	12442
359.462	6179
359.547	3455
359.631	2099
359.716	1289
359.800	1919
359.885	3625
359.969	2328
360.053	3123
360.138	2319
360.222	3697
360.306	8202
360.391	5968
360.475	12408
360.559	23963
360.644	22484
360.728	14911
360.812	32440
360.896	74798
360.981	27009
361.065	12128
361.149	5014
361.233	3510
361.318	3031
361.402	3482
361.486	3240
361.570	1816
361.654	4137
361.739	12258
361.823	53790
361.907	71316
361.991	11921
362.075	7849
362.159	14410
362.243	10491
362.327	9164
362.411	12103
362.495	5143
362.580	2675
362.664	2654
362.748	1986
362.832	2601
362.916	4688
363.000	21143
363.084	67881
363.168	82872
363.252	17790
363.336	6597
363.420	9261
363.503	29776
363.587	29618
363.671	5933
363.755	3771
363.839	7410
363.923	2999
364.007	8613
364.091	8150
364.175	10742
364.258	45893
364.342	29915
364.426	38507
364.510	18912
364.594	10607
364.677	17905
364.761	69072
364.845	42272
364.929	15406
365.013	10963
365.096	10199
365.180	10517
365.264	13775
365.347	44797
365.431	17305
365.515	3691
365.598	3113
365.682	3823
365.766	3744
365.849	4039
365.933	3374
366.017	5668
366.100	1376
366.184	1122
366.267	3209
366.351	2206
366.435	1936
366.518	1091
366.602	1644
366.685	2650
366.769	2125
366.852	3634
366.936	7773
367.019	5260
367.103	2632
367.186	5149
367.270	1816
367.353	525
367.436	3516
367.520	2113
367.603	3377
367.687	4745
367.770	8643
367.853	6445
367.937	23173
368.020	30513
368.104	6475
368.187	8273
368.270	10876
368.353	8619
368.437	9186
368.520	18311
368.603	13988
368.687	25743
368.770	41341
368.853	8982
368.936	9236
369.020	6973
369.103	3018
369.186	1874
369.269	2257
369.352	6354
369.436	8366
369.519	5228
369.602	1888
369.685	4327
369.768	3242
369.851	2799
369.934	1776
370.018	3501
370.101	7423
370.184	6675
370.267	4739
370.350	7528
370.433	12243
370.516	35834
370.599	38878
370.682	11149
370.765	25665
370.848	32149
370.931	52610
371.014	16965
371.097	3830
371.180	4929
371.263	3478
371.346	1074
371.429	3744
371.511	2504
371.594	5748
371.677	8474
371.760	8443
371.843	10780
371.926	47986
372.009	92636
372.091	30690
372.174	24004
372.257	49430
372.340	18124
372.423	12914
372.505	13021
372.588	7065
372.671	20864
372.754	55509
372.836	23631
372.919	15409
373.002	23994
373.085	9091
373.167	11535
373.250	25435
373.332	50533
373.415	69790
373.498	124079
373.580	43509
373.663	62901
373.746	74154
373.828	15914
373.911	7506
373.993	7721
374.076	24208
374.159	20035
374.241	16132
374.324	45778
374.406	28919
374.489	43781
374.571	105328
374.654	38987
374.736	23331
374.819	66074
374.901	96878
374.983	86981
375.066	15039
375.148	5625
375.231	21965
375.313	36303
375.395	12146
375.478	3612
375.560	3965
375.643	5358
375.725	23947
375.807	85248
375.890	54360
375.972	17892
376.054	11355
376.136	14763
376.219	8238
376.301	29590
376.383	73362
376.465	24363
376.548	16128
376.630	24217
376.712	63123
376.794	24285
376.877	3949
376.959	2228
377.041	3350
377.123	4259
377.205	5521
377.287	1304
377.369	2204
377.452	2299
377.534	1911
377.616	2390
377.698	1744
377.780	1414
377.862	2791
377.944	3020
378.026	8
378.108	2976
378.190	1437
378.272	1738
378.354	1784
378.436	1600
378.518	3164
378.600	10184
378.682	14476
378.764	33580
378.846	21823
378.928	6785
379.010	8863
379.091	5147
379.173	3395
379.255	2279
379.337	4389
379.419	18021
379.501	45185
379.583	15262
379.664	4933
379.746	12657
379.828	33548
379.910	43904
379.991	35115
380.073	5363
380.155	3102
380.237	3374
380.318	1822
380.400	2603
380.482	6396
380.564	10093
380.645	9373
380.727	8848
380.809	6183
380.890	3691
380.972	2278
381.053	3075
381.135	4624
381.217	13143
381.298	33846
381.380	14372
381.461	15582
381.543	68513
381.624	71266
381.706	12272
381.787	6632
381.869	8260
381.951	32148
382.032	103120
382.113	57369
382.195	12206
382.276	10432
382.358	22676
382.439	57178
382.521	66589
382.602	94686
382.684	46059
382.765	88390
382.846	112525
382.928	188167
383.009	92046
383.090	71503
383.172	260501
383.253	341879
383.334	107012
383.416	95088
383.497	44775
383.578	27529
383.659	56985
383.741	220054
383.822	489085
383.903	224371
383.984	80387
384.066	112018
384.147	62178
384.228	15474
384.309	11834
384.390	9536
384.471	7114
384.553	7469
384.634	9740
384.715	9248
384.796	5037
384.877	8776
384.958	33155
385.039	34489
385.120	12072
385.201	6551
385.282	6521
385.363	7035
385.444	6634
385.525	13515
385.606	44393
385.687	32640
385.768	8100
385.849	11251
385.930	50998
386.011	74933
386.092	17383
386.173	4878
386.254	4037
386.335	4033
386.416	5367
386.496	21152
386.577	30985
386.658	8664
386.739	4652
386.820	4480
386.901	3033
386.981	4022
387.062	2533
387.143	8711
387.224	32382
387.304	26242
387.385	8279
387.466	4398
387.547	5922
387.627	4534
387.708	14727
387.789	59293
387.869	61467
387.950	15090
388.031	3141
388.111	1246
388.192	5962
388.273	7873
388.353	4545
388.434	4493
388.514	12201
388.595	52787
388.676	62650
388.756	30278
388.837	29962
388.917	15300
388.998	1551
389.078	4383
389.159	3431
389.239	2050
389.320	5827
389.400	3219
389.480	12660
389.561	32491
389.641	14484
389.722	5261
389.802	8973
389.883	15235
389.963	40139
390.043	19784
390.124	4482
390.204	11939
390.284	36287
390.365	19358
390.445	19606
390.525	51511
390.605	43982
390.686	15774
390.766	5998
390.846	3587
390.927	1380
391.007	1559
391.087	3785
391.167	2792
391.247	1539
391.328	4438
391.408	5252
391.488	4335
391.568	1447
391.648	3999
391.728	6387
391.808	6027
391.888	6876
391.969	20450
392.049	28176
392.129	10686
392.209	15998
392.289	37464
392.369	16733
392.449	9704
392.529	6850
392.609	6833
392.689	12331
392.769	37253
392.849	27087
392.929	19734
393.009	46213
393.089	32091
393.169	26529
393.248	95512
393.328	372298
393.408	358227
393.488	79801
393.568	22064
393.648	11440
393.728	6731
393.807	5180
393.887	5504
393.967	4473
394.047	5842
394.127	7446
394.206	16042
394.286	61935
394.366	243196
394.446	224168
394.525	45755
394.605	11289
394.685	9059
394.764	15697
394.844	24704
394.924	16362
395.003	6671
395.083	5350
395.163	4656
395.242	4224
395.322	4190
395.402	2390
395.481	6582
395.561	12247
395.640	31082
395.720	24649
395.799	32956
395.879	24599
395.958	21557
396.038	91312
396.117	321258
396.197	300595
396.276	77024
396.356	21986
396.435	15057
396.515	11917
396.594	13979
396.673	25996
396.753	111258
396.832	338657
396.912	228152
396.991	49386
397.070	13648
397.150	7051
397.229	5422
397.308	7076
397.388	11046
397.467	6256
397.546	2987
397.625	712
397.705	5480
397.784	4233
397.863	2095
397.942	961
398.022	2136
398.101	9069
398.180	24688
398.259	10960
398.338	3929
398.417	2714
398.497	1437
398.576	2633
398.655	682
398.734	1527
398.813	2473
398.892	8844
398.971	28440
399.050	11245
399.129	1273
399.208	1191
399.287	1351
399.366	593
399.445	1148
399.524	943
399.603	565
399.682	4016
399.761	11433
399.840	32683
399.919	22101
399.998	2881
400.077	422
400.156	-427
400.235	3519
400.313	895
400.392	2012
400.471	18597
400.550	25564
400.629	4685
400.708	2811
400.786	1919
400.865	3851
400.944	4600
401.023	4410
401.102	961
401.180	663
401.259	405
401.338	1710
401.416	2837
401.495	846
401.574	2257
401.652	551
401.731	2599
401.810	1053
401.888	587
401.967	448
402.046	1262
402.124	1801
402.203	2317
402.281	1659
402.360	2504
402.438	7316
402.517	2422
402.596	1492
402.674	1550
402.753	431
402.831	159
402.910	2735
402.988	12832
403.066	36945
403.145	19119
403.223	13711
403.302	30474
403.380	21964
403.459	20458
403.537	6626
403.615	2283
403.694	-607
403.772	1018
403.850	20
403.929	150
404.007	83
404.085	4602
404.164	3477
404.242	1186
404.320	2240
404.398	4387
404.477	19843
404.555	85526
404.633	60979
404.711	7124
404.789	2690
404.868	1193
404.946	635
405.024	662
405.102	355
405.180	-258
405.258	-972
405.336	1468
405.415	775
405.493	3599
405.571	2769
405.649	140
405.727	-685
405.805	1819
405.883	1721
405.961	1948
406.039	1130
406.117	-545
406.195	3815
406.273	21931
406.351	70576
406.429	33818
406.507	3402
406.585	423
406.663	2107
406.740	2699
406.818	1206
406.896	600
406.974	2526
407.052	6568
407.130	44447
407.208	52188
407.285	8451
407.363	654
407.441	890
407.519	761
407.596	2143
407.674	7998
407.752	26039
407.830	19855
407.907	5683
407.985	1122
408.063	979
408.141	-336
408.218	1805
408.296	1184
408.373	1351
408.451	1926
408.529	1095
408.606	-16
408.684	-589
408.762	-139
408.839	-731
408.917	-535
408.994	17
409.072	-264
409.149	80
409.227	1405
409.304	2123
409.382	1417
409.459	904
409.537	2425
409.614	2349
409.692	1340
409.769	858
409.846	2692
409.924	4141
410.001	722
410.079	499
410.156	1310
410.233	201
410.311	-292
410.388	285
410.465	1383
410.543	163
410.620	955
410.697	1114
410.775	1486
410.852	-1067
410.929	2403
411.006	1815
411.083	130
411.161	2425
411.238	2609
411.315	840
411.392	-23
411.469	1979
411.547	680
411.624	-389
411.701	323
411.778	2075
411.855	3938
411.932	465
412.009	-228
412.086	397
412.163	531
412.240	377
412.317	735
412.394	-259
412.471	1146
412.548	-160
412.625	370
412.702	1361
412.779	1846
412.856	1090
412.933	-587
413.010	382
413.087	2413
413.164	15334
413.241	19149
413.318	4090
413.395	2657
413.471	3115
413.548	788
413.625	6
413.702	656
413.779	171
413.855	-439
413.932	-437
414.009	-879
414.086	140
414.162	350
414.239	2837
414.316	15620
414.393	34323
414.469	8797
414.546	588
414.623	135
414.699	252
414.776	860
414.853	-133
414.929	306
415.006	683
415.082	-24
415.159	-28
415.236	447
415.312	941
415.389	2936
415.465	3235
415.542	678
415.618	25
415.695	2259
415.771	865
415.848	462
415.924	420
416.000	-451
416.077	469
416.153	-1597
416.230	-922
416.306	-99
416.383	-621
416.459	-325
416.535	-610
416.612	451
416.688	97
416.764	336
416.841	-348
416.917	-547
416.993	-543
417.069	1075
417.146	1382
417.222	2470
417.298	1285
417.374	63
417.451	573
417.527	680
417.603	1139
417.679	987
417.755	749
417.831	-946
417.908	-483
417.984	-699
418.060	-1076
418.136	3982
418.212	3923
418.288	175
418.364	344
418.440	73
418.516	1551
418.592	1529
418.668	5797
418.744	8932
418.820	5369
418.896	1170
418.972	-448
419.048	278
419.124	4403
419.200	1458
419.276	228
419.352	-1097
419.428	95
419.504	144
419.579	118
419.655	859
419.731	1024
419.807	6336
419.883	11176
419.959	6654
420.034	1994
420.110	5141
420.186	21696
420.262	13708
420.337	1730
420.413	578
420.489	-342
420.565	270
420.640	194
420.716	866
420.792	-1281
420.867	1149
420.943	270
421.019	2619
421.094	527
421.170	529
421.245	-487
421.321	1135
421.397	184
421.472	4941
421.548	13171
421.623	7597
421.699	2374
421.774	2078
421.850	594
421.925	2613
422.001	1923
422.076	1617
422.152	1952
422.227	5471
422.302	6152
422.378	8457
422.453	17203
422.529	50514
422.604	165010
422.679	266137
422.755	149298
422.830	44216
422.905	16866
422.981	8673
423.056	5513
423.131	3627
423.207	2382
423.282	3230
423.357	6465
423.432	3580
423.508	4613
423.583	9418
423.658	5783
423.733	1352
423.808	1623
423.883	2811
423.959	1401
424.034	582
424.109	866
424.184	-367
424.259	477
424.334	243
424.409	-1154
424.484	-55
424.559	435
424.634	-48
424.709	1441
424.784	2048
424.859	329
424.934	3222
425.009	15576
425.084	24471
425.159	6865
425.234	934
425.309	305
425.384	3766
425.459	5187
425.534	1579
425.609	-141
425.683	-1154
425.758	-419
425.833	-433
425.908	2039
425.983	9504
426.058	25165
426.132	7871
426.207	608
426.282	2589
426.357	436
426.431	66
426.506	353
426.581	458
426.655	518
426.730	367
426.805	-621
426.879	821
426.954	250
427.029	4504
427.103	27809
427.178	59847
427.253	21631
427.327	1730
427.402	2268
427.476	6113
427.551	1859
427.625	-426
427.700	336
427.774	-579
427.849	760
427.923	-1107
427.998	-611
428.072	81
428.147	3170
428.221	17853
428.296	46310
428.370	19061
428.444	1569
428.519	1136
428.593	3639
428.667	2872
428.742	4962
428.816	5798
428.890	27727
428.965	41148
429.039	9843
429.113	5073
429.188	1075
429.262	375
429.336	3307
429.410	10591
429.485	5300
429.559	2560
429.633	2316
429.707	786
429.781	4995
429.855	29079
429.930	42077
430.004	17082
430.078	23424
430.152	26649
430.226	65434
430.300	57244
430.374	6420
430.448	2116
430.522	8591
430.596	23133
430.670	19633
430.744	63151
430.818	81815
430.892	14219
430.966	1060
431.040	1135
431.114	-1193
431.188	-1064
431.262	-525
431.336	-615
431.410	2533
431.484	6478
431.557	4197
431.631	-400
431.705	245
431.779	8947
431.853	39750
431.927	23129
432.000	1949
432.074	-115
432.148	-129
432.222	-370
432.295	-261
432.369	445
432.443	2500
432.516	26229
432.590	59089
432.664	17147
432.737	936
432.811	-965
432.885	-962
432.958	327
433.032	-681
433.106	-748
433.179	-1086
433.253	-1096
433.326	-725
433.400	-349
433.473	-526
433.547	-1237
433.620	282
433.694	912
433.767	852
433.841	-836
433.914	-672
433.988	-1509
434.061	-268
434.134	-873
434.208	-1656
434.281	-1676
434.355	-1111
434.428	-591
434.501	-713
434.575	-966
434.648	-1156
434.721	-891
434.795	-1545
434.868	-1194
434.941	-479
435.014	-1490
435.088	-850
435.161	941
435.234	2835
435.307	2225
435.381	-209
435.454	767
435.527	338
435.600	776
435.673	-122
435.746	-740
435.819	-255
435.892	-287
435.966	-960
436.039	-1144
436.112	175
436.185	-1604
436.258	-2049
436.331	-1665
436.404	-1521
436.477	-969
436.550	-808
436.623	-630
436.696	-784
436.769	-685
436.842	-335
436.915	-906
436.987	-168
437.060	-909
437.133	-1559
437.206	-1610
437.279	-469
437.352	-877
437.425	-863
437.498	-62
437.570	2920
437.643	1836
437.716	-914
437.789	-805
437.861	139
437.934	3135
438.007	165
438.080	-899
438.152	793
438.225	3856
438.298	35925
438.370	84906
438.443	27899
438.516	4031
438.588	241
438.661	-1071
438.734	-437
438.806	-349
438.879	746
438.951	-17
439.024	391
439.096	-400
439.169	-1523
439.241	-1438
439.314	-864
439.386	-996
439.459	265
439.531	1166
439.604	264
439.676	-643
439.749	-2314
439.821	-850
439.893	-1062
439.966	-944
440.038	-461
440.110	341
440.183	-473
440.255	-1255
440.327	794
440.400	13509
440.472	55011
440.544	30299
440.617	2616
440.689	915
440.761	1876
440.833	2772
440.905	1322
440.978	-902
441.050	-923
441.122	-691
441.194	-1638
441.266	-991
441.338	-1168
441.411	1805
441.483	18699
441.555	22517
441.627	3665
441.699	1152
441.771	127
441.843	-291
441.915	-1523
441.987	-987
442.059	-1002
442.131	-642
442.203	373
442.275	1111
442.347	1747
442.419	1875
442.491	17533
442.563	40755
442.635	15109
442.706	7160
442.778	6464
442.850	619
442.922	-841
442.994	70
443.066	768
443.137	-16
443.209	-350
443.281	422
443.353	3720
443.425	23237
443.496	83077
443.568	71287
443.640	22135
443.711	2834
443.783	246
443.855	-442
443.926	-1283
443.998	-723
444.070	-272
444.141	-141
444.213	826
444.285	1914
444.356	1493
444.428	299
444.499	-897
444.571	-885
444.642	-325
444.714	200
444.785	1000
444.857	1171
444.928	2432
445.000	1486
445.071	2437
445.143	2552
445.214	2662
445.285	3428
445.357	13283
445.428	58100
445.500	126439
445.571	69900
445.642	32446
445.714	10673
445.785	7563
445.856	1779
445.928	2374
445.999	1214
446.070	231
446.141	1471
446.213	2040
446.284	826
446.355	423
446.426	-945
446.497	-220
446.569	667
446.640	2794
446.711	1813
446.782	-204
446.853	134
446.924	357
446.995	-261
447.066	235
447.138	-320
447.209	-122
447.280	-1381
447.351	-947
447.422	-1506
447.493	-937
447.564	-478
447.635	938
447.706	-1136
447.777	-1328
447.847	-1708
447.918	-1516
447.989	-960
448.060	130
448.131	1481
448.202	2863
448.273	2290
448.344	-113
448.414	-359
448.485	-136
448.556	-490
448.627	-1543
448.698	-1052
448.768	-1377
448.839	-2163
448.910	-143
448.981	677
449.051	-1104
449.122	-916
449.193	-1120
449.263	-1398
449.334	-680
449.405	833
449.475	2498
449.546	1951
449.616	792
449.687	710
449.758	17
449.828	-571
449.899	-894
449.969	-1373
450.040	-362
450.110	-794
450.181	392
450.251	-859
450.322	-1271
450.392	-251
450.463	-877
450.533	-951
450.604	-959
450.674	-1388
450.744	-1029
450.815	-2013
450.885	-810
450.955	-762
451.026	-876
451.096	-1164
451.166	-493
451.237	9
451.307	3294
451.377	978
451.447	-204
451.518	-1083
451.588	-1143
451.658	31
451.728	733
451.799	4094
451.869	4833
451.939	-52
452.009	-1400
452.079	-993
452.149	-804
452.219	0
452.289	4346
452.360	4227
452.430	560
452.500	-566
452.570	145
452.640	1487
452.710	4979
452.780	7362
452.850	7740
452.920	7018
452.990	1359
453.060	-94
453.129	1571
453.199	1310
453.269	7222
453.339	17116
453.409	27056
453.479	23874
453.549	35644
453.619	36257
453.688	15440
453.758	1173
453.828	-395
453.898	-1010
453.968	-68
454.037	-445
454.087	-541
454.107	-602
454.168	-381
454.177	-378
454.247	-700
454.249	-693
454.316	-1152
454.330	-1018
454.386	-614
454.411	303
454.456	1470
454.492	2825
454.525	3990
454.574	2233
454.595	1496
454.655	-89
454.665	-354
454.734	448
454.736	542
454.804	2010
454.817	2935
454.873	5654
454.898	6161
454.943	6856
454.979	4391
455.013	2310
455.060	772
455.082	271
455.141	1906
455.152	2059
455.221	4760
455.222	4890
455.291	7946
455.303	7447
455.360	5193
455.384	5458
455.430	6158
455.465	5734
455.499	4973
455.546	6160
455.569	6286
455.627	3927
455.638	3559
455.707	435
455.708	461
455.777	473
455.789	564
455.846	795
455.869	480
455.916	-33
455.950	393
455.985	693
456.031	664
456.054	591
456.112	251
456.124	186
456.193	649
456.193	627
456.262	726
456.274	901
456.332	1668
456.355	1462
456.401	825
456.436	834
456.470	682
456.516	458
456.540	404
456.597	467
456.609	432
456.678	387
456.678	366
456.747	165
456.759	73
456.817	-309
456.840	-66
456.886	95
456.920	381
456.955	917
457.001	997
457.024	1078
457.082	1739
457.093	1761
457.162	1971
457.163	2003
457.232	2764
457.243	2571
457.301	1288
457.324	699
457.370	-149
457.405	587
457.439	1537
457.485	1360
457.508	1099
457.566	1096
457.577	1135
457.646	2118
457.647	2146
457.715	4109
457.727	4483
457.784	6334
457.808	8055
457.853	10188
457.889	11274
457.922	10503
457.969	7322
457.991	7823
458.050	10359
458.060	10703
458.129	17096
458.130	17281
458.198	14668
458.211	13149
458.267	7058
458.292	4872
458.336	3820
458.372	3877
458.405	5535
458.453	8303
458.474	10526
458.533	18721
458.543	19314
458.611	28273
458.614	28433
458.680	15867
458.694	12335
458.749	5856
458.775	4118
458.818	2759
458.855	2265
458.887	1926
458.936	1896
458.955	2012
459.016	2754
459.024	2852
459.093	2764
459.097	2831
459.162	4269
459.177	4564
459.230	5083
459.257	5336
459.299	4881
459.338	4199
459.368	4030
459.418	4092
459.437	3964
459.499	4005
459.505	4039
459.574	4243
459.579	4237
459.643	3738
459.659	3701
459.711	4068
459.740	4273
459.780	4381
459.820	4744
459.849	4897
459.900	4939
459.917	5052
459.981	5578
459.986	5587
460.054	6220
460.061	6238
460.123	7244
460.141	7648
460.191	9848
460.222	11496
460.260	13292
460.302	15156
460.328	13247
460.382	8967
460.397	8646
460.462	7199
460.465	7267
460.534	8798
460.543	9155
460.602	24887
460.623	30680
460.671	45120
460.703	58087
460.739	52664
460.783	40818
460.808	32883
460.864	8406
460.876	6959
460.944	5197
460.945	5179
461.013	5493
461.024	5538
461.081	6572
461.104	7088
461.150	6049
461.184	5177
461.218	5036
461.264	4830
461.286	4744
461.345	4364
461.355	4320
461.423	4293
461.425	4299
461.491	4363
461.505	4294
461.559	7367
461.585	8977
461.628	13151
461.665	17251
461.696	18496
461.745	20961
461.764	18239
461.825	7394
461.832	7412
461.901	6831
461.905	6871
461.969	5210
461.985	4868
462.037	4753
462.065	4612
462.105	4659
462.145	4989
462.173	6931
462.225	10173
462.241	10885
462.305	14626
462.310	14308
462.378	9206
462.385	8436
462.446	6244
462.465	5914
462.514	6380
462.545	6475
462.582	5851
462.625	5295
462.650	5086
462.705	4604
462.718	4759
462.785	5421
462.786	5445
462.854	6620
462.865	6864
462.922	8403
462.945	9125
462.990	7295
463.025	5464
463.058	5039
463.104	4370
463.126	4567
463.184	5473
463.194	5580
463.262	6236
463.264	6259
463.330	5658
463.344	5515
463.398	6532
463.424	6841
463.466	5968
463.504	5590
463.533	6181
463.583	6503
463.601	6781
463.663	8150
463.669	8395
463.737	11130
463.743	11361
463.805	13787
463.823	14565
463.873	18821
463.903	21294
463.940	21796
463.982	22650
464.008	18566
464.062	9269
464.076	8869
464.142	6046
464.144	6035
464.211	6248
464.221	6274
464.279	7344
464.301	7727
464.347	7566
464.381	7451
464.414	8129
464.461	9180
464.482	9429
464.540	9792
464.550	9776
464.617	9613
464.620	9600
464.685	12649
464.699	13256
464.753	15334
464.779	16412
464.820	16877
464.859	17140
464.888	16074
464.938	14099
464.956	14100
465.018	14056
465.023	14001
465.091	12981
465.098	12851
465.158	12040
465.177	11780
465.226	12373
465.257	12710
465.293	14006
465.336	15482
465.361	16700
465.416	19408
465.428	19729
465.495	21208
465.496	21275
465.563	25895
465.575	26678
465.631	29835
465.654	31282
465.698	21786
465.734	13436
465.765	12402
465.813	10663
465.833	10800
465.893	11462
465.900	11457
465.968	11382
465.972	11351
466.035	12128
466.052	12275
466.102	12471
466.131	12586
466.170	12900
466.210	13147
466.237	13457
466.290	14004
466.304	14121
466.369	14493
466.372	14544
466.439	15133
466.449	15188
466.506	17095
466.528	17792
466.573	21445
466.607	24099
466.641	31631
466.687	42049
466.708	45723
466.766	55627
466.775	52400
466.842	27353
466.845	26102
466.909	20460
466.925	19106
466.977	17680
467.004	16894
467.044	17395
467.083	17817
467.111	19783
467.163	23379
467.178	24348
467.242	28137
467.245	28023
467.312	24408
467.321	23878
467.379	22360
467.400	21738
467.446	22034
467.480	22167
467.559	19931
467.638	18056
467.717	19445
467.796	23034
467.875	26462
467.955	20991
468.034	25534
468.113	43187
468.192	57719
468.271	22412
468.350	18483
468.429	18999
468.508	19919
468.588	17262
468.667	16437
468.746	18165
468.825	17409
468.904	16419
468.983	18935
469.062	23394
469.141	27095
469.220	16369
469.299	15593
469.378	19080
469.456	23558
469.535	21779
469.614	19164
469.693	21346
469.772	23152
469.851	27583
469.930	22974
470.009	22002
470.088	25320
470.166	37094
470.245	62859
470.324	81875
470.403	51002
470.482	30058
470.560	23989
470.639	24546
470.718	27808
470.797	21157
470.875	21194
470.954	25574
471.033	25281
471.111	15675
471.190	14391
471.269	13680
471.347	14372
471.426	15030
471.505	16561
471.583	20075
471.662	18786
471.740	16762
471.819	15509
471.898	15050
471.976	15137
472.055	15601
472.133	16498
472.212	19013
472.290	17706
472.369	15260
472.447	14242
472.526	13984
472.604	14836
472.683	16966
472.761	19084
472.839	17377
472.918	16359
472.996	15617
473.075	15971
473.153	16803
473.231	13301
473.310	17519
473.388	17336
473.466	15819
473.545	20852
473.623	31210
473.701	30111
473.780	16710
473.858	13766
473.936	17746
474.014	15527
474.093	17986
474.171	19753
474.249	24392
474.327	17040
474.405	13758
474.484	14764
474.562	16475
474.640	14125
474.718	15047
474.796	15012
474.874	14442
474.952	12632
475.030	13050
475.108	14671
475.187	15850
475.265	17459
475.343	24562
475.421	28178
475.499	14596
475.577	14310
475.655	16809
475.733	24601
475.811	38114
475.889	34555
475.966	24405
476.044	14120
476.122	18077
476.200	23934
476.278	19471
476.356	13119
476.434	14387
476.512	16473
476.590	23677
476.667	18829
476.745	12214
476.823	14199
476.901	12718
476.979	12099
477.056	12839
477.134	12826
477.212	14437
477.290	13658
477.367	11703
477.445	11567
477.523	11706
477.601	10554
477.678	11206
477.756	11860
477.834	13682
477.911	11091
477.989	11533
478.066	10700
478.144	12045
478.222	16424
478.299	28776
478.377	24972
478.454	11619
478.532	10580
478.609	12739
478.687	14665
478.764	10900
478.842	13248
478.919	15818
478.997	13997
479.074	10265
479.152	11114
479.229	13276
479.307	9291
479.384	8849
479.461	9202
479.539	8730
479.616	12011
479.694	9787
479.771	10652
479.848	11064
479.926	12865
480.003	15472
480.080	10327
480.157	9855
480.235	9358
480.312	10067
480.389	9490
480.467	13984
480.544	16131
480.621	10399
480.698	10143
480.775	11935
480.853	10556
480.930	10077
481.007	9564
481.084	10933
481.161	12316
481.238	11357
481.315	8888
481.392	9017
481.470	7918
481.547	8673
481.624	8786
481.701	8980
481.778	9209
481.855	10464
481.932	14248
482.009	20226
482.086	15175
482.163	11226
482.240	17556
482.317	34453
482.393	24465
482.470	10108
482.547	9839
482.624	9020
482.701	9219
482.778	8805
482.855	7629
482.932	7907
483.009	7677
483.085	9391
483.162	11765
483.239	11219
483.316	8989
483.393	8810
483.469	9112
483.546	9748
483.623	10092
483.699	7963
483.776	9587
483.853	12378
483.930	15510
484.006	32268
484.083	51491
484.160	42036
484.236	70302
484.313	55243
484.389	39065
484.466	35394
484.543	33297
484.619	33582
484.696	34150
484.772	34148
484.849	34256
484.925	30902
485.002	29974
485.078	30897
485.155	31701
485.231	29559
485.308	28966
485.384	29385
485.461	32015
485.537	43446
485.614	47817
485.690	29823
485.766	29115
485.843	34378
485.919	53182
485.995	55698
486.072	28031
486.148	25916
486.224	24600
486.301	28027
486.377	30084
486.453	28683
486.530	30038
486.606	41348
486.682	46058
486.758	45909
486.835	48259
486.911	42131
486.987	62047
487.063	98398
487.139	148856
487.215	96356
487.292	39562
487.368	30722
487.444	33243
487.520	36785
487.596	36189
487.672	45841
487.748	98045
487.824	138380
487.900	51342
487.976	31826
488.052	30810
488.128	36057
488.204	32327
488.280	27488
488.356	29793
488.432	47013
488.508	62967
488.584	34879
488.660	29578
488.736	30709
488.812	34407
488.888	45255
488.964	62080
489.039	145432
489.115	225383
489.191	119805
489.267	29341
489.343	26066
489.418	22628
489.494	22491
489.570	20205
489.646	24471
489.722	23204
489.797	22919
489.873	28229
489.949	46130
490.024	40654
490.100	22198
490.176	22607
490.251	31486
490.327	45215
490.403	23940
490.478	21552
490.554	18707
490.629	19239
490.705	19111
490.781	21096
490.856	20159
490.932	26061
491.007	27987
491.083	24897
491.158	18512
491.234	23243
491.309	36753
491.385	36567
491.460	20764
491.536	23544
491.611	23552
491.686	27777
491.762	41399
491.837	92837
491.913	146942
491.988	204093
492.063	263233
492.139	48002
492.214	26100
492.289	18201
492.365	19065
492.440	22617
492.515	19610
492.590	18298
492.666	16275
492.741	19966
492.816	25055
492.891	15204
492.967	16330
493.042	14733
493.117	15255
493.192	15037
493.267	19931
493.342	30133
493.418	31569
493.493	17225
493.568	13865
493.643	15184
493.718	19254
493.793	28470
493.868	40089
493.943	26188
494.018	17921
494.093	13871
494.168	14791
494.243	13761
494.318	13050
494.393	13396
494.468	14457
494.543	15159
494.618	19574
494.693	15880
494.768	13959
494.842	15141
494.917	14094
494.992	16300
495.067	14014
495.142	13586
495.217	17744
495.292	17703
495.366	21653
495.441	26335
495.516	33703
495.591	50236
495.665	195813
495.740	470548
495.815	161497
495.890	23932
495.964	17379
496.039	18567
496.114	16828
496.188	19297
496.263	18662
496.338	14701
496.412	16832
496.487	19801
496.561	25408
496.636	27355
496.710	18775
496.785	19050
496.860	21638
496.934	18209
497.009	19829
497.083	18921
497.158	22046
497.232	23097
497.307	27598
497.381	22161
497.455	23385
497.530	27033
497.604	22189
497.679	22990
497.753	33388
497.827	44692
497.902	43837
497.976	44313
498.050	85725
498.125	294009
498.199	293499
498.273	79305
498.348	67260
498.422	50428
498.496	48989
498.570	42902
498.645	26679
498.719	23241
498.793	27029
498.867	36160
498.941	43217
499.016	113353
499.090	296956
499.164	98179
499.238	20074
499.312	19025
499.386	28541
499.460	22375
499.534	19463
499.609	25173
499.683	29491
499.757	23446
499.831	49460
499.905	190692
499.979	167243
500.053	30323
500.127	41518
500.201	42744
500.275	22855
500.349	20962
500.422	24843
500.496	40651
500.570	92592
500.644	136942
500.718	196590
500.792	44664
500.866	16447
500.940	17943
501.013	17122
501.087	18653
501.161	43320
501.235	45278
501.309	59180
501.382	161153
501.456	140667
501.530	39355
501.603	50851
501.677	21405
501.751	11204
501.825	16497
501.898	23900
501.972	62548
502.046	38243
502.119	16310
502.193	36576
502.266	69545
502.340	32589
502.413	30042
502.487	55195
502.561	32481
502.634	15166
502.708	18862
502.781	14999
502.855	12586
502.928	9329
503.002	9393
503.075	8413
503.149	9963
503.222	9648
503.295	10346
503.369	13131
503.442	15494
503.516	47441
503.589	111348
503.662	67984
503.736	24126
503.809	53238
503.882	44048
503.956	66693
504.029	63026
504.102	63682
504.175	75866
504.249	23276
504.322	14909
504.395	13680
504.468	10358
504.542	9531
504.615	7888
504.688	9731
504.761	8168
504.834	13593
504.907	21703
504.980	38880
505.053	15286
505.127	23011
505.200	22227
505.273	12188
505.346	9745
505.419	7382
505.492	8234
505.565	6423
505.638	6830
505.711	6656
505.784	5991
505.857	6130
505.930	8581
506.003	6688
506.076	9312
506.149	10170
506.221	10234
506.294	12227
506.367	26413
506.440	89147
506.513	49146
506.586	13856
506.659	9357
506.731	10626
506.804	14461
506.877	22926
506.950	11524
507.022	8345
507.095	9046
507.168	13286
507.241	11790
507.313	9358
507.386	11930
507.459	21984
507.531	12151
507.604	8131
507.677	9262
507.749	7501
507.822	14550
507.894	32507
507.967	37227
508.040	17791
508.112	15661
508.185	13789
508.257	14606
508.330	26224
508.402	13699
508.475	11541
508.547	12714
508.620	11818
508.692	16048
508.765	12902
508.837	10355
508.909	10906
508.982	10790
509.054	14716
509.127	12129
509.199	9761
509.271	9098
509.344	9806
509.416	10801
509.488	10541
509.560	11196
509.633	13195
509.705	16952
509.777	15220
509.849	25367
509.922	14891
509.994	10096
510.066	10983
510.138	12196
510.210	27625
510.283	23603
510.355	19210
510.427	18567
510.499	16834
510.571	16260
510.643	17731
510.715	31175
510.787	26691
510.859	17012
510.931	19159
511.003	29688
511.076	25059
511.148	13200
511.219	12564
511.291	17541
511.363	18778
511.435	13432
511.507	11621
511.579	13146
511.651	12288
511.723	12565
511.795	12639
511.867	11778
511.939	13918
512.010	20384
512.082	19871
512.154	13432
512.226	13930
512.298	24041
512.369	36509
512.441	26287
512.513	29508
512.585	19339
512.656	20779
512.728	22269
512.800	16334
512.871	16000
512.943	16398
513.015	14026
513.086	17148
513.158	20168
513.230	19486
513.301	31906
513.373	38963
513.444	20146
513.516	15691
513.588	16375
513.659	19845
513.731	25176
513.802	21398
513.874	52516
513.945	93741
514.016	25499
514.088	16617
514.159	19292
514.231	27162
514.302	34069
514.374	22283
514.445	18893
514.516	28899
514.588	20590
514.659	17336
514.730	25878
514.802	26446
514.873	21430
514.944	21543
515.016	19914
515.087	23723
515.158	23136
515.229	27745
515.301	21185
515.372	26145
515.443	17631
515.514	16131
515.585	13345
515.656	15993
515.728	15581
515.799	15203
515.870	17878
515.941	18407
516.012	19153
516.083	26534
516.154	32035
516.225	45359
516.296	43601
516.367	41622
516.438	50696
516.509	65747
516.580	96738
516.651	314715
516.722	1112859
516.793	401089
516.864	86770
516.935	78187
517.006	90612
517.077	124770
517.148	285600
517.219	1092518
517.289	1510141
517.360	271456
517.431	77875
517.502	38610
517.573	34022
517.643	32032
517.714	34722
517.785	37344
517.856	41693
517.926	53439
517.997	66207
518.068	88984
518.138	119676
518.209	187191
518.280	679564
518.350	2104369
518.421	814267
518.492	118134
518.562	56649
518.633	41896
518.703	33377
518.774	43060
518.845	77392
518.915	75208
518.986	35407
519.056	35816
519.127	70770
519.197	93739
519.268	125386
519.338	61798
519.408	28513
519.479	47139
519.549	30705
519.620	19997
519.690	14249
519.760	15510
519.831	17712
519.901	16983
519.971	12648
520.042	13094
520.112	14182
520.182	22687
520.253	26679
520.323	14555
520.393	18564
520.463	29655
520.534	17465
520.604	35704
520.674	18032
520.744	18400
520.814	42926
520.885	37980
520.955	31780
521.025	105331
521.095	39803
521.165	14300
521.235	12512
521.305	12269
521.375	12943
521.445	16348
521.515	24606
521.585	28114
521.655	24445
521.725	20765
521.795	17615
521.865	10261
521.935	16309
522.005	13750
522.075	10900
522.145	14062
522.215	12537
522.285	16607
522.355	20514
522.424	34262
522.494	29816
522.564	24873
522.634	65181
522.704	205846
522.774	62343
522.843	17262
522.913	16473
522.983	24514
523.053	17061
523.122	16337
523.192	28491
523.262	116917
523.331	96883
523.401	16608
523.471	11350
523.540	12767
523.610	9273
523.680	9087
523.749	9841
523.819	10635
523.888	10244
523.958	8541
524.027	8815
524.097	10423
524.166	10451
524.236	14508
524.305	12972
524.375	9555
524.444	7323
524.514	11043
524.583	8801
524.653	10480
524.722	13305
524.791	9072
524.861	10196
524.930	8939
524.999	10691
525.069	18118
525.138	10373
525.207	11363
525.277	8986
525.346	10874
525.415	9923
525.484	10958
525.554	10762
525.623	10787
525.692	10880
525.761	11419
525.830	12609
525.900	12240
525.969	18455
526.038	25443
526.107	45860
526.176	132749
526.245	107628
526.314	48761
526.383	77706
526.452	94022
526.522	164491
526.591	177136
526.660	100218
526.729	45278
526.797	45278
526.867	101353
526.935	459732
527.004	521392
527.073	235830
527.142	27086
527.211	15276
527.280	18683
527.349	19100
527.418	8924
527.487	10256
527.555	8294
527.624	6918
527.693	6418
527.762	8343
527.831	7489
527.899	8187
527.968	8828
528.037	8446
528.106	13362
528.174	30344
528.243	17253
528.312	29062
528.380	40899
528.449	10226
528.518	8684
528.586	4743
528.655	7036
528.723	6184
528.792	6823
528.861	7188
528.929	4892
528.998	7261
529.066	5454
529.135	5538
529.203	5436
529.272	4981
529.340	6451
529.409	7217
529.477	5669
529.545	6339
529.614	9951
529.682	7066
529.751	9727
529.819	12342
529.887	7751
529.956	5245
530.024	6868
530.092	5958
530.161	11682
530.229	21798
530.297	8400
530.365	6470
530.434	6472
530.502	5094
530.570	7016
530.638	3896
530.707	7971
530.775	8519
530.843	6117
530.911	4281
530.979	6708
531.047	5856
531.115	6620
531.183	5195
531.252	6320
531.320	6507
531.388	4985
531.456	6302
531.524	4952
531.592	6403
531.660	9685
531.728	5470
531.796	6044
531.864	6194
531.932	6616
532.000	6732
532.067	9164
532.135	8998
532.203	12633
532.271	12063
532.339	27453
532.407	87500
532.475	41917
532.542	18241
532.610	20509
532.678	28587
532.746	135684
532.814	330949
532.881	70826
532.949	13834
533.017	9557
533.084	7192
533.152	7529
533.220	8218
533.287	10731
533.355	7461
533.423	6980
533.490	5660
533.558	7434
533.625	6774
533.693	8849
533.761	8215
533.828	9259
533.896	8383
533.963	26212
534.031	29870
534.098	43613
534.166	13796
534.233	7093
534.300	7918
534.368	8841
534.435	7028
534.503	7384
534.570	8880
534.637	8313
534.705	9189
534.772	9931
534.840	14514
534.907	61758
534.974	73153
535.041	12291
535.109	8812
535.176	6731
535.243	7477
535.310	9221
535.378	7130
535.445	7043
535.512	6423
535.579	7556
535.646	6296
535.714	7857
535.781	11023
535.848	9501
535.915	9657
535.982	7838
536.049	8153
536.116	9823
536.183	8439
536.250	9825
536.317	9387
536.384	14339
536.451	23800
536.518	25221
536.585	13652
536.652	20468
536.719	33878
536.786	24017
536.853	17729
536.920	28700
536.987	47328
537.053	43764
537.120	178997
537.187	132610
537.254	14297
537.321	11063
537.388	11286
537.454	8743
537.521	7760
537.588	8378
537.654	10423
537.721	12970
537.788	12444
537.855	10112
537.921	10971
537.988	10542
538.055	10677
538.121	10232
538.188	13153
538.254	22731
538.321	52139
538.388	26672
538.454	11513
538.521	10659
538.587	8833
538.654	8420
538.720	8889
538.787	9192
538.853	10292
538.920	13280
538.986	12877
539.053	11186
539.119	12226
539.185	12530
539.252	17302
539.318	28283
539.385	17545
539.451	16036
539.517	16221
539.583	18715
539.650	49351
539.716	127992
539.782	29463
539.849	13873
539.915	12456
539.981	13868
540.047	18167
540.114	15351
540.180	16782
540.246	15097
540.312	23938
540.378	50433
540.444	45687
540.510	52380
540.576	148582
540.643	37277
540.709	12342
540.775	12499
540.841	11447
540.907	14768
540.973	21622
541.039	24956
541.105	26551
541.171	15381
541.237	10662
541.303	13260
541.369	15854
541.435	23301
541.500	44482
541.566	22099
541.632	11188
541.698	9536
541.764	10303
541.830	9101
541.896	9152
541.961	10636
542.027	11103
542.093	11518
542.159	13006
542.224	13629
542.290	23048
542.356	43958
542.421	47203
542.487	19051
542.553	13017
542.618	14973
542.684	13802
542.750	13961
542.815	17177
542.881	29383
542.947	129780
543.012	79249
543.078	14227
543.143	11774
543.209	14246
543.274	13365
543.340	17054
543.405	49949
543.471	74116
543.536	15346
543.602	11508
543.667	9514
543.732	10982
543.798	9704
543.863	11896
543.928	9105
543.994	8895
544.059	10136
544.124	11079
544.190	11188
544.255	12296
544.320	11945
544.386	13311
544.451	21876
544.516	24886
544.581	23692
544.646	80145
544.712	116276
544.777	20094
544.842	13553
544.907	12733
544.972	12106
545.037	10803
545.102	12226
545.168	12632
545.233	14820
545.298	15632
545.363	16859
545.428	22071
545.493	44712
545.558	101390
545.623	32575
545.688	12784
545.753	13220
545.818	11589
545.883	13294
545.947	12255
546.012	12747
546.077	12931
546.142	14690
546.207	14128
546.272	21882
546.337	22421
546.401	17324
546.466	15090
546.531	13413
546.596	15356
546.661	15719
546.725	14588
546.790	13255
546.855	14145
546.919	14338
546.984	15115
547.049	15780
547.113	17370
547.178	16910
547.243	19948
547.307	23144
547.372	25797
547.436	25048
547.501	21775
547.565	25983
547.630	30183
547.695	28171
547.759	25047
547.823	23142
547.888	22730
547.952	22486
548.017	23352
548.081	26973
548.146	30231
548.210	25877
548.274	24434
548.339	24282
548.403	23250
548.468	21523
548.532	21660
548.596	22427
548.660	21980
548.725	25812
548.789	27899
548.853	27748
548.917	24537
548.982	26628
549.046	24155
549.110	20108
549.174	20562
549.238	21611
549.303	23339
549.367	26133
549.431	23012
549.495	22939
549.559	23031
549.623	25893
549.687	31091
549.751	41465
549.815	32647
549.879	31927
549.943	29366
550.007	31861
550.071	32331
550.135	38784
550.199	29694
550.263	28210
550.327	27943
550.391	29891
550.455	29601
550.519	29809
550.582	33990
550.646	46622
550.710	45721
550.774	34001
550.838	35007
550.901	36164
550.965	36624
551.029	38737
551.093	41534
551.156	46494
551.220	60546
551.284	68712
551.347	47807
551.411	56106
551.475	52658
551.538	36250
551.602	34321
551.666	32349
551.729	30109
551.793	30305
551.856	30201
551.920	29260
551.983	30195
552.047	28957
552.110	29620
552.174	30511
552.237	31649
552.301	28745
552.364	28069
552.428	29090
552.491	29804
552.554	32588
552.618	32401
552.681	35486
552.745	42845
552.808	79910
552.871	108842
552.934	54483
552.998	35365
553.061	31947
553.124	28611
553.187	27676
553.251	28456
553.314	28303
553.377	26866
553.440	30820
553.503	36664
553.567	40648
553.630	28956
553.693	28485
553.756	29090
553.819	28759
553.882	27847
553.945	27143
554.008	27397
554.071	27040
554.134	27849
554.197	26319
554.260	25382
554.323	28790
554.386	27493
554.449	27649
554.512	28420
554.575	25279
554.638	26933
554.701	24740
554.764	25774
554.827	25364
554.889	23143
554.952	23020
555.015	21564
555.078	22675
555.141	23622
555.203	21923
555.266	22918
555.329	24195
555.391	23278
555.454	24201
555.517	24142
555.580	22450
555.642	20774
555.705	20609
555.768	20754
555.830	20803
555.893	20020
555.955	19316
556.018	19592
556.080	19632
556.143	19175
556.206	18987
556.268	20289
556.330	21286
556.393	19408
556.455	18774
556.518	22746
556.580	22445
556.643	17817
556.705	16899
556.767	16671
556.830	18929
556.892	21353
556.955	34446
557.017	23473
557.079	17587
557.142	18220
557.204	21395
557.266	47381
557.328	31848
557.391	15171
557.453	14740
557.515	15389
557.577	20791
557.639	19871
557.701	14595
557.764	14399
557.826	15163
557.888	15606
557.950	16485
558.012	16389
558.074	19405
558.136	40734
558.198	91274
558.260	35464
558.322	18823
558.384	20484
558.446	24386
558.508	27458
558.570	35514
558.632	62224
558.694	83824
558.756	66140
558.818	196167
558.880	467611
558.942	131838
559.003	99501
559.065	49230
559.127	25274
559.189	24956
559.251	27765
559.312	37162
559.374	85576
559.436	290971
559.498	129787
559.559	27461
559.621	25457
559.683	27917
559.744	41406
559.806	134198
559.868	188515
559.929	37286
559.991	25584
560.052	34158
560.114	87594
560.176	55581
560.237	55431
560.299	86914
560.360	22138
560.422	12987
560.483	11958
560.545	11541
560.606	11449
560.667	10230
560.729	10862
560.790	10640
560.852	10831
560.913	10889
560.974	10424
561.036	10944
561.097	10773
561.158	11401
561.220	12612
561.281	11846
561.342	13230
561.403	15835
561.465	23460
561.526	63671
561.587	72647
561.648	16948
561.709	12317
561.771	11746
561.832	10926
561.893	11259
561.954	10402
562.015	10870
562.076	11099
562.137	11723
562.198	10745
562.259	11005
562.320	11068
562.381	14009
562.442	21132
562.503	15485
562.564	11276
562.625	10467
562.686	10141
562.747	11109
562.808	10586
562.869	10385
562.930	11118
562.991	11388
563.051	10206
563.112	9767
563.173	11114
563.234	8898
563.294	10806
563.355	10590
563.416	11560
563.477	10759
563.537	10279
563.598	11090
563.659	11335
563.720	10936
563.780	11905
563.841	12401
563.901	10095
563.962	10921
564.023	10044
564.083	11097
564.144	11439
564.204	10322
564.265	11083
564.325	12172
564.386	18187
564.446	15083
564.507	9940
564.567	10362
564.628	10165
564.688	10192
564.749	10128
564.809	11483
564.869	12539
564.930	10994
564.990	11374
565.050	11655
565.111	10655
565.171	11038
565.231	10069
565.292	11424
565.352	10119
565.412	11116
565.472	11218
565.532	13458
565.593	11442
565.653	11021
565.713	11539
565.773	12116
565.833	16322
565.893	22295
565.953	12756
566.013	11812
566.074	11654
566.134	13072
566.194	17511
566.254	20172
566.314	13865
566.374	10928
566.434	11357
566.494	11746
566.554	11134
566.614	12367
566.673	12063
566.733	12811
566.793	12986
566.853	13427
566.913	13194
566.973	14057
567.033	13977
567.092	12756
567.152	14039
567.212	13538
567.272	13322
567.331	14010
567.391	14229
567.451	15214
567.511	17155
567.570	16830
567.630	13619
567.690	13641
567.749	13229
567.809	15195
567.868	17220
567.928	18128
567.988	20469
568.047	23203
568.107	27759
568.166	38484
568.226	65109
568.285	91735
568.345	68638
568.404	49256
568.464	40606
568.523	37989
568.582	38754
568.642	44229
568.701	55821
568.761	91288
568.820	154061
568.879	139031
568.939	85235
568.998	57334
569.057	42159
569.116	32690
569.176	26791
569.235	21739
569.294	19912
569.353	18057
569.413	16281
569.472	14919
569.531	14118
569.590	13624
569.649	12124
569.708	13159
569.767	13377
569.827	15117
569.886	12090
569.945	11005
570.004	12014
570.063	11374
570.122	12918
570.181	13222
570.240	11933
570.299	13349
570.358	11602
570.417	10907
570.475	11593
570.534	11890
570.593	11896
570.652	11530
570.711	11498
570.770	11081
570.829	12345
570.887	12983
570.946	15263
571.005	11471
571.064	12585
571.122	15097
571.181	12775
571.240	10330
571.299	9641
571.357	9772
571.416	10115
571.475	11270
571.533	10871
571.592	10051
571.650	10464
571.709	9592
571.768	9382
571.826	10376
571.885	9631
571.943	9053
572.002	8996
572.060	9413
572.119	8203
572.177	8889
572.236	8400
572.294	8012
572.352	9030
572.411	8834
572.469	8548
572.528	8457
572.586	9100
572.644	9341
572.703	10247
572.761	9325
572.819	7925
572.877	8304
572.936	8442
572.994	7587
573.052	8345
573.110	8686
573.169	8839
573.227	8249
573.285	8470
573.343	7888
573.401	8094
573.459	8501
573.517	7461
573.576	7819
573.634	8665
573.692	8752
573.750	7748
573.808	7855
573.866	8748
573.924	8791
573.982	8826
574.040	8557
574.098	7644
574.155	7903
574.213	8131
574.271	7172
574.329	8173
574.387	7538
574.445	6368
574.503	6828
574.560	6824
574.618	8345
574.676	6705
574.734	7017
574.792	7757
574.849	7427
574.907	6310
574.965	6833
575.022	5671
575.080	6624
575.138	7090
575.195	7677
575.253	7613
575.311	9505
575.368	7651
575.426	7957
575.483	7306
575.541	7422
575.598	7250
575.656	7535
575.713	7650
575.771	7069
575.828	6804
575.886	7123
575.943	7495
576.001	6895
576.058	6740
576.115	7822
576.173	8189
576.230	11146
576.287	12358
576.345	10426
576.402	8035
576.459	8712
576.517	7195
576.574	8339
576.631	8260
576.688	7584
576.746	7619
576.803	6827
576.860	6391
576.917	7613
576.974	6982
577.031	7831
577.089	7069
577.146	8107
577.203	7654
577.260	7907
577.317	7257
577.374	9223
577.431	7958
577.488	8000
577.545	7156
577.602	7029
577.659	6673
577.716	6398
577.773	7759
577.830	7240
577.886	7030
577.943	6727
578.000	6862
578.057	8029
578.114	7983
578.171	7558
578.227	7057
578.284	6706
578.341	8118
578.398	7417
578.454	7307
578.511	7860
578.568	8978
578.625	8111
578.681	6337
578.738	7643
578.794	7577
578.851	7469
578.908	7157
578.964	9066
579.021	8656
579.077	8991
579.134	8178
579.190	7526
579.247	7602
579.303	7265
579.360	6740
579.416	8118
579.473	7000
579.529	7383
579.586	6650
579.642	8008
579.698	7655
579.755	7948
579.811	7821
579.867	7380
579.924	5947
579.980	7401
580.036	7108
580.093	8160
580.149	7372
580.205	8087
580.261	7073
580.317	8042
580.374	8234
580.430	9604
580.486	8539
580.542	7871
580.598	8110
580.619	8204
580.654	8377
580.692	7442
580.710	6991
580.765	8346
580.767	8398
580.823	8502
580.838	8585
580.879	8826
580.911	8188
580.935	7745
580.984	8052
580.991	8104
581.047	7416
581.057	7595
581.103	8475
581.130	7959
581.159	7385
581.203	8138
581.215	8366
581.270	8244
581.276	8175
581.326	7471
581.349	7493
581.382	7574
581.422	8468
581.438	8835
581.494	7149
581.494	7151
581.550	7955
581.567	8281
581.606	8969
581.640	8302
581.661	7924
581.713	8653
581.717	8715
581.773	9090
581.786	8902
581.829	8239
581.859	8140
581.885	8108
581.932	8164
581.940	8183
581.996	9072
582.004	8929
582.052	8063
582.077	7956
582.107	7881
582.150	8091
582.163	8139
582.219	8172
582.223	8172
582.274	8285
582.296	8450
582.330	8701
582.368	8500
582.386	8471
582.441	8094
582.441	8094
582.497	7400
582.514	7667
582.552	8552
582.587	8484
582.608	8338
582.659	8736
582.663	8778
582.719	8899
582.732	8762
582.774	8335
582.805	8257
582.830	8196
582.877	8500
582.885	8524
582.941	8298
582.950	8284
582.996	8423
583.023	8361
583.052	8248
583.095	8236
583.107	8245
583.162	9279
583.168	9241
583.218	8790
583.240	8512
583.273	8241
583.313	9032
583.328	9304
583.384	8919
583.385	8916
583.439	8760
583.458	8409
583.494	7765
583.531	8314
583.549	8675
583.603	8318
583.605	8298
583.660	8710
583.676	8668
583.715	8606
583.748	9284
583.770	9718
583.820	9141
583.825	9092
583.881	9366
583.893	9180
583.936	8606
583.965	9073
583.991	9365
584.038	9020
584.046	8945
584.101	8882
584.110	8779
584.156	8414
584.183	8850
584.211	9345
584.255	9188
584.266	9191
584.321	9780
584.328	9714
584.376	8818
584.400	9087
584.431	9515
584.472	9387
584.486	9385
584.541	10067
584.545	10078
584.596	9837
584.617	9705
584.651	9871
584.689	9941
584.706	9756
584.761	10350
584.762	10347
584.816	10548
584.834	10946
584.871	11458
584.906	11044
584.926	10800
584.978	10902
584.980	10911
585.035	11157
585.051	11492
585.090	12462
585.123	12957
585.145	13175
585.195	12298
585.200	12260
585.254	13662
585.267	13930
585.309	14664
585.340	15336
585.364	15730
585.412	16027
585.419	16124
585.473	18449
585.484	18751
585.528	20612
585.556	23474
585.583	28814
585.628	41431
585.637	45554
585.692	87194
585.700	94509
585.747	121989
585.772	99992
585.801	61239
585.845	26267
585.856	21957
585.910	18103
585.917	17618
585.965	15951
585.989	15482
586.019	15247
586.061	15303
586.074	15419
586.128	15931
586.133	16027
586.183	16859
586.205	16827
586.237	16573
586.277	16580
586.292	16676
586.346	16094
586.349	16134
586.401	16435
586.421	16323
586.455	16711
586.493	17637
586.509	18168
586.564	19986
586.565	20095
586.618	25619
586.637	25558
586.672	23183
586.709	20967
586.727	20380
586.781	21063
586.781	21065
586.835	20286
586.853	20264
586.889	19766
586.925	19062
586.944	19220
586.996	20654
586.998	20682
587.052	21659
587.068	21867
587.106	22191
587.140	22141
587.161	22382
587.212	23489
587.215	23550
587.269	24556
587.284	24811
587.323	25221
587.356	25972
587.377	26668
587.427	28011
587.431	28109
587.485	29103
587.499	29436
587.539	30237
587.571	31077
587.593	32223
587.643	34512
587.648	34630
587.702	35472
587.715	35854
587.755	37661
587.786	39146
587.810	40404
587.858	42846
587.864	43249
587.917	47762
587.930	48837
587.971	52598
588.001	55256
588.025	57805
588.073	62761
588.079	63474
588.133	71126
588.145	72956
588.187	80289
588.217	85336
588.241	90846
588.288	102992
588.295	104820
588.348	120856
588.360	124624
588.402	141261
588.431	153463
588.456	165368
588.503	190504
588.510	195009
588.564	233601
588.575	242384
588.617	286781
588.646	321755
588.671	366676
588.718	460370
588.725	483392
588.778	678945
588.789	721723
588.832	976793
588.861	1153418
588.886	1278791
588.932	1443833
588.939	1436326
588.993	1311734
589.004	1308373
589.047	1300022
589.075	1233489
589.100	1076124
589.147	748778
589.154	722321
589.207	542621
589.218	509658
589.261	463786
589.290	441954
589.314	456292
589.361	495236
589.368	514485
589.421	693356
589.433	734857
589.475	999983
589.504	1180451
589.528	1253107
589.576	1320925
589.582	1301031
589.635	1145526
589.647	1094758
589.689	788208
589.718	565886
589.742	470754
589.790	303594
589.795	294113
589.849	218191
589.861	201897
589.902	171686
589.932	150867
589.955	138770
590.004	114432
590.009	112930
590.062	98249
590.075	94797
590.115	86487
590.146	80394
590.168	77055
590.218	69399
590.222	68944
590.275	63633
590.289	62116
590.328	58655
590.360	55971
590.381	54503
590.431	50957
590.435	50807
590.488	48263
590.503	47436
590.541	46272
590.574	45285
590.594	44113
590.645	41038
590.647	40967
590.700	38276
590.716	37536
590.753	36894
590.787	36250
590.806	35860
590.859	34735
590.859	34744
590.912	33831
590.930	33463
590.965	32796
591.001	32193
591.018	31744
591.071	30524
591.072	30490
591.124	30133
591.143	30031
591.177	29930
591.214	29762
591.230	29925
591.283	30510
591.285	30503
591.336	29528
591.356	29151
591.389	29030
591.427	28577
591.442	28104
591.495	26412
591.498	26277
591.547	25433
591.569	24981
591.600	24977
591.640	24918
591.653	24883
591.706	24786
591.711	24750
591.759	24957
591.782	25033
591.811	25090
591.853	25135
591.864	25158
591.917	25045
591.924	25015
591.969	24128
591.995	23608
592.022	23841
592.066	24096
592.075	24079
592.127	23900
592.137	23846
592.180	24225
592.208	24439
592.233	23959
592.279	22934
592.285	22980
592.338	23245
592.350	23289
592.390	22419
592.421	21735
592.443	21893
592.491	22173
592.495	22173
592.548	21954
592.562	21881
592.600	21438
592.633	21033
592.653	21084
592.704	21078
592.705	21204
592.775	21501
592.846	21715
592.916	22247
592.987	21955
593.058	21660
593.128	20539
593.199	20686
593.270	20339
593.341	20049
593.411	19580
593.482	19252
593.553	20741
593.623	20174
593.694	20423
593.764	20337
593.835	19878
593.906	19330
593.976	19326
594.047	20476
594.117	21426
594.188	21272
594.258	19391
594.329	19621
594.399	20250
594.470	20348
594.540	19761
594.611	20222
594.681	19931
594.751	19792
594.822	21776
594.892	21583
594.963	21899
595.033	21770
595.103	21741
595.174	22225
595.244	24976
595.314	27433
595.384	21419
595.455	22392
595.525	22566
595.595	23087
595.665	23787
595.736	23339
595.806	21944
595.876	22220
595.946	22653
596.016	21984
596.087	22133
596.157	23973
596.227	23372
596.297	24234
596.367	23959
596.437	25893
596.507	27796
596.577	29503
596.647	27219
596.717	26989
596.787	26739
596.857	27251
596.927	27773
596.997	26779
597.067	27112
597.137	28257
597.207	27700
597.277	27348
597.347	26824
597.417	26252
597.487	27533
597.557	27803
597.626	27864
597.696	27603
597.766	28481
597.836	29914
597.906	25665
597.975	25544
598.045	25167
598.115	25611
598.185	26839
598.254	30750
598.324	32197
598.394	32415
598.464	31815
598.533	29035
598.603	28726
598.672	28015
598.742	28216
598.812	28777
598.881	28432
598.951	29407
599.020	28586
599.090	30154
599.159	30793
599.229	28705
599.299	28379
599.368	29793
599.437	28343
599.507	27886
599.576	26840
599.646	26249
599.715	25636
599.785	25950
599.854	25679
599.924	26321
599.993	24452
600.062	25195
600.132	25762
600.201	26379
600.270	30624
600.340	30856
600.409	30056
600.478	30028
600.547	30646
600.617	29265
600.686	25445
600.755	23010
600.824	22794
600.894	21865
600.963	21811
601.032	21746
601.101	20630
601.170	20325
601.239	19531
601.308	20007
601.378	20027
601.447	20042
601.516	20409
601.585	21139
601.654	22498
601.723	20336
601.792	21066
601.861	21147
601.930	22646
601.999	22647
602.068	22023
602.137	22952
602.206	22246
602.275	23211
602.343	23890
602.412	24125
602.481	22224
602.550	23137
602.619	22154
602.688	23735
602.756	23158
602.825	22338
602.894	23729
602.963	23030
603.032	23643
603.100	24051
603.169	23953
603.238	24286
603.307	23330
603.375	24242
603.444	24349
603.513	24964
603.581	25505
603.650	25381
603.719	24364
603.787	24581
603.856	25473
603.924	27586
603.993	27186
604.061	26994
604.130	29516
604.198	29390
604.267	29614
604.335	29431
604.404	30141
604.472	30099
604.541	29848
604.609	31153
604.678	30886
604.746	31574
604.815	30716
604.883	31386
604.951	32982
605.020	31975
605.088	33968
605.156	32649
605.225	33511
605.293	33981
605.361	33695
605.429	34461
605.498	35634
605.566	36220
605.634	38417
605.702	38871
605.771	39485
605.839	37808
605.907	37982
605.975	36890
606.043	37130
606.111	36125
606.180	36822
606.248	35941
606.316	36096
606.384	36247
606.452	40157
606.520	41080
606.588	39743
606.656	37554
606.724	37839
606.792	35542
606.860	31843
606.928	29047
606.996	28136
607.064	28814
607.132	28565
607.200	30984
607.267	31034
607.335	32046
607.403	33512
607.471	31010
607.539	30973
607.607	31232
607.674	27509
607.742	28358
607.810	28264
607.878	27774
607.946	28453
608.013	29913
608.081	30295
608.149	30670
608.216	29706
608.284	32614
608.352	31400
608.419	31137
608.487	34163
608.555	30606
608.622	31429
608.690	32871
608.757	36071
608.825	36912
608.893	36569
608.960	35727
609.028	35090
609.095	35657
609.163	33112
609.230	30086
609.298	28163
609.365	29554
609.432	31168
609.500	33408
609.567	37392
609.635	43206
609.702	44422
609.769	42962
609.837	35721
609.904	30522
609.971	31594
610.039	38801
610.106	51403
610.173	97171
610.241	222512
610.308	191772
610.375	106797
610.442	41529
610.509	33631
610.577	33667
610.644	32686
610.711	32135
610.778	33859
610.845	34245
610.912	36331
610.980	37642
611.047	37169
611.114	36851
611.181	35239
611.248	34217
611.315	38592
611.382	36723
611.449	39285
611.516	40599
611.583	38972
611.650	38886
611.717	39916
611.784	40948
611.851	43333
611.918	47948
611.984	54774
612.051	82539
612.118	170574
612.185	425075
612.252	229309
612.319	59944
612.386	51569
612.452	47814
612.519	44225
612.586	46083
612.653	44680
612.719	45869
612.786	42634
612.853	41561
612.919	39957
612.986	42380
613.053	37836
613.120	35336
613.186	34078
613.253	36813
613.319	35960
613.386	36679
613.453	36833
613.519	38517
613.586	39483
613.652	47306
613.719	42789
613.785	40671
613.852	37073
613.918	36002
613.985	38062
614.051	39727
614.118	43023
614.184	41761
614.250	36452
614.317	37468
614.383	36363
614.449	36669
614.516	36850
614.582	37710
614.648	36631
614.715	35842
614.781	35583
614.847	35882
614.914	35961
614.980	34724
615.046	36055
615.112	36722
615.179	36751
615.245	39173
615.311	41168
615.377	54608
615.443	52130
615.509	41983
615.575	40018
615.642	39538
615.708	40778
615.774	43940
615.840	47381
615.906	54332
615.972	76385
616.038	129822
616.104	241629
616.170	547665
616.236	402994
616.302	85378
616.368	62472
616.434	47656
616.500	45282
616.565	50306
616.631	58388
616.697	49159
616.763	51557
616.829	74642
616.895	124630
616.961	109350
617.026	50609
617.092	39135
617.158	37980
617.224	37623
617.289	35008
617.355	34675
617.421	32862
617.487	34044
617.552	32736
617.618	31891
617.684	30697
617.749	33876
617.815	32016
617.880	31043
617.946	30249
618.012	32345
618.077	31747
618.143	31060
618.208	32286
618.274	33395
618.339	33048
618.405	28164
618.470	29950
618.536	29450
618.601	29193
618.667	28355
618.732	26704
618.798	27128
618.863	26332
618.928	25981
618.994	28000
619.059	28572
619.124	32744
619.190	27897
619.255	26106
619.320	26057
619.386	25494
619.451	25088
619.516	25163
619.581	25304
619.647	26418
619.712	26075
619.777	25591
619.842	26191
619.907	26024
619.972	27137
620.038	26154
620.103	25386
620.168	24531
620.233	26372
620.298	25542
620.363	25538
620.428	26571
620.493	26869
620.558	26080
620.623	27242
620.688	27509
620.753	26318
620.818	27110
620.883	28181
620.948	27627
621.013	27667
621.078	26817
621.143	25423
621.207	30374
621.272	27826
621.337	27614
621.402	26999
621.467	28542
621.532	29181
621.596	28537
621.661	26559
621.726	25785
621.791	26508
621.855	28572
621.920	27696
621.985	27355
622.049	29082
622.114	27469
622.179	28689
622.243	28519
622.308	28081
622.373	31104
622.437	28990
622.502	27775
622.566	28065
622.631	26088
622.695	28978
622.760	28160
622.824	28274
622.889	28873
622.953	30082
623.018	37911
623.082	35938
623.147	29647
623.211	28890
623.276	29344
623.340	26104
623.404	27490
623.469	26735
623.533	27628
623.597	26137
623.662	27100
623.726	25449
623.790	24130
623.854	23254
623.919	24743
623.983	24924
624.047	24867
624.111	24930
624.176	25766
624.240	26001
624.304	27036
624.368	23819
624.432	25486
624.496	25824
624.560	28482
624.625	27520
624.689	25905
624.753	27822
624.817	25863
624.881	24048
624.945	22669
625.009	22244
625.073	23648
625.137	24256
625.201	28594
625.265	27407
625.329	24767
625.393	24507
625.456	23548
625.520	24412
625.584	24287
625.648	26949
625.712	30401
625.776	41804
625.839	44148
625.903	26035
625.967	21178
626.031	27057
626.095	33446
626.158	23129
626.222	17382
626.286	18816
626.349	16954
626.413	16310
626.477	18943
626.540	17294
626.604	15353
626.668	16696
626.731	16748
626.795	15106
626.858	16852
626.922	15122
626.986	16961
627.049	14040
627.113	16644
627.176	15612
627.240	15550
627.303	14541
627.366	15197
627.430	15384
627.493	14076
627.557	14010
627.620	16746
627.684	16601
627.747	15744
627.810	13681
627.874	14758
627.937	12403
628.000	15804
628.064	13702
628.127	10363
628.190	13518
628.253	11769
628.317	11247
628.380	12976
628.443	11541
628.506	10961
628.569	11382
628.632	9965
628.696	10784
628.759	10716
628.822	9773
628.885	10166
628.948	10274
629.011	10013
629.074	10238
629.137	9229
629.200	8856
629.263	10758
629.326	8706
629.389	8910
629.452	9271
629.515	8885
629.578	9497
629.641	10796
629.704	9553
629.767	9643
629.830	9351
629.892	8915
629.955	7723
630.018	11329
630.081	9098
630.144	11769
630.207	8579
630.269	10513
630.332	7851
630.395	7715
630.458	8631
630.520	7574
630.583	9298
630.646	7533
630.708	8018
630.771	7095
630.834	9040
630.896	7834
630.959	8574
631.021	6970
631.084	8259
631.146	8271
631.209	8720
631.272	6897
631.334	8755
631.397	7963
631.459	7704
631.522	9197
631.584	8483
631.646	9614
631.709	9921
631.771	11289
631.834	9233
631.896	8644
631.958	7756
632.021	9317
632.083	7597
632.145	7910
632.208	7490
632.270	8975
632.332	6716
632.395	6771
632.457	8438
632.519	7088
632.581	8853
632.643	6097
632.706	8027
632.768	6856
632.830	8448
632.892	7217
632.954	7249
633.016	8325
633.078	6955
633.141	6561
633.203	7494
633.265	7542
633.327	8020
633.389	6799
633.451	9076
633.513	8637
633.575	9524
633.637	8297
633.698	7233
633.760	6744
633.822	7634
633.884	8625
633.946	7701
634.008	7362
634.070	7758
634.132	7766
634.193	9004
634.255	8799
634.317	9358
634.379	9736
634.441	7725
634.502	7413
634.564	7854
634.626	7842
634.687	7620
634.749	7232
634.811	7109
634.873	6180
634.934	6194
634.996	7574
635.057	5413
635.119	5583
635.181	6692
635.242	7327
635.304	5636
635.365	8629
635.427	6122
635.488	6602
635.550	5813
635.611	7242
635.673	5557
635.734	8095
635.796	7427
635.857	9462
635.918	6589
635.980	9352
636.041	8006
636.102	9055
636.164	9058
636.225	9551
636.286	5737
636.348	7848
636.409	7030
636.470	6514
636.531	6581
636.593	5719
636.654	6566
636.715	6478
636.776	6278
636.838	5697
636.899	6495
636.960	5359
637.021	5522
637.082	5447
637.143	6028
637.204	4870
637.265	4813
637.326	5750
637.387	6141
637.448	4687
637.509	5755
637.570	6430
637.631	7807
637.692	4501
637.753	5434
637.814	5484
637.875	4590
637.936	5714
637.997	5027
638.058	5986
638.119	5584
638.179	4810
638.240	4676
638.301	5356
638.362	4208
638.423	4593
638.483	7036
638.544	4389
638.605	5471
638.666	4331
638.726	5656
638.787	5753
638.848	4812
638.908	4792
638.969	5667
639.030	4517
639.090	4779
639.151	4304
639.211	6386
639.272	6571
639.332	10998
639.393	6781
639.453	3563
639.514	4792
639.574	5171
639.635	4017
639.695	5591
639.756	3204
639.816	5887
639.877	5686
639.937	9919
639.997	11294
640.058	5230
640.118	4111
640.178	6180
640.239	4243
640.299	3971
640.359	4074
640.420	4652
640.480	5118
640.540	5302
640.600	5491
640.661	5755
640.721	4590
640.781	7639
640.841	4653
640.901	5227
640.961	5445
641.021	4916
641.082	4940
641.142	7505
641.202	6066
641.262	2778
641.322	5140
641.382	3365
641.442	4557
641.502	3961
641.562	4552
641.622	3227
641.682	4889
641.742	4718
641.802	4478
641.861	4551
641.921	4818
641.981	6092
642.041	5355
642.101	5873
642.161	3253
642.221	3162
642.280	3479
642.340	4120
642.400	3010
642.460	5405
642.519	4185
642.579	3737
642.639	4088
642.698	1504
642.758	6202
642.818	4518
642.877	4308
642.937	5163
642.997	5551
643.056	6949
643.116	3340
643.175	5911
643.235	4589
643.294	3943
643.354	5151
643.414	5368
643.473	6976
643.532	7990
643.592	10657
643.651	17876
643.711	32945
643.770	65707
643.830	164170
643.889	334090
643.948	64098
644.008	12140
644.067	7638
644.126	5271
644.186	5187
644.245	4858
644.304	3128
644.363	6372
644.423	2484
644.482	4229
644.541	4333
644.600	2568
644.659	5017
644.719	5846
644.778	8136
644.837	14736
644.896	30172
644.955	66783
645.014	19950
645.073	5461
645.132	4151
645.191	4686
645.250	3970
645.309	5839
645.368	3875
645.427	6850
645.486	7168
645.545	13969
645.604	4492
645.663	3876
645.722	3525
645.781	4512
645.840	5962
645.898	6269
645.957	10295
646.016	13498
646.075	28277
646.134	56812
646.192	161667
646.251	219530
646.310	25443
646.369	7264
646.427	6493
646.486	3727
646.545	4844
646.603	3753
646.662	4126
646.721	3851
646.779	3226
646.838	2599
646.896	4489
646.955	5831
647.014	8611
647.072	15267
647.131	43271
647.189	17867
647.248	3564
647.306	3431
647.365	3381
647.423	1696
647.481	4126
647.540	1902
647.598	3450
647.657	2706
647.715	3364
647.773	2253
647.832	4269
647.890	2301
647.948	1584
648.007	2860
648.065	2110
648.123	1722
648.181	3185
648.240	3238
648.298	2051
648.356	2259
648.414	2575
648.472	2875
648.531	2388
648.589	2621
648.647	2495
648.705	1703
648.763	2218
648.821	2764
648.879	2063
648.937	3609
648.995	3119
649.053	5008
649.111	6862
649.169	11388
649.227	21108
649.285	44612
649.343	129946
649.401	53189
649.459	16692
649.516	9495
649.574	3570
649.632	6261
649.690	6092
649.748	4727
649.806	5468
649.863	12737
649.921	30047
649.979	16804
650.037	3314
650.094	1202
650.152	2439
650.210	1698
650.268	2450
650.325	2708
650.383	2162
650.440	1286
650.498	2051
650.556	2437
650.613	1533
650.671	2036
650.728	1503
650.786	1714
650.843	2230
650.901	1000
650.958	1108
651.016	2264
651.073	1544
651.131	1344
651.188	877
651.246	1575
651.303	568
651.360	2060
651.418	1200
651.475	1481
651.532	113
651.590	1740
651.647	1197
651.704	1915
651.762	1088
651.819	1608
651.876	1024
651.933	832
651.990	2043
652.048	390
652.105	705
652.162	1412
652.219	-1
652.276	1325
652.333	2005
652.390	227
652.448	1674
652.505	1334
652.562	1511
652.619	1156
652.676	1486
652.733	2476
652.790	1178
652.847	-565
652.904	1761
652.961	223
653.017	557
653.074	970
653.131	1642
653.188	429
653.245	1616
653.302	757
653.359	660
653.415	1486
653.472	844
653.529	1319
653.586	816
653.642	1607
653.699	1664
653.756	698
653.813	65
653.869	1799
653.926	605
653.983	622
654.039	1335
654.096	486
654.152	1692
654.209	230
654.266	1961
654.322	408
654.379	1584
654.435	1905
654.492	1039
654.548	1838
654.605	3234
654.661	2695
654.717	648
654.774	1382
654.830	1319
654.887	1274
654.943	788
655.000	1537
655.056	683
655.112	1720
655.168	422
655.225	10
655.281	1157
655.337	1512
655.394	1371
655.450	1684
655.506	1694
655.562	2973
655.618	2971
655.675	-733
655.731	1438
655.787	219
655.843	2300
655.899	201
655.955	1879
656.011	781
656.067	655
656.123	1383
656.179	1151
656.235	2855
656.291	422
656.347	1927
656.403	834
656.459	1222
656.515	1734
656.571	1025
656.627	1436
656.683	798
656.739	1359
656.795	1459
656.850	884
656.906	2158
656.962	1970
657.018	213
657.074	886
657.129	1756
657.185	1493
657.241	3652
657.297	2343
657.352	1281
657.408	159
657.464	2151
657.519	1044
657.575	49
657.630	470
657.686	417
657.742	216
657.797	10
657.853	517
657.908	1895
657.964	-11
658.019	416
658.075	1619
658.130	768
658.186	-96
658.241	1386
658.297	-251
658.352	811
658.407	511
658.463	127
658.518	486
658.573	1429
658.629	-58
658.684	655
658.739	1180
658.795	19
658.850	1074
658.905	436
658.960	1024
659.016	347
659.071	1673
659.126	1102
659.181	1156
659.236	3512
659.291	3335
659.346	1594
659.401	1275
659.457	1096
659.512	-464
659.567	1688
659.622	450
659.677	-13
659.732	114
659.787	1575
659.842	708
659.897	1634
659.952	1298
660.007	776
660.061	606
660.116	-105
660.171	332
660.226	710
660.281	1534
660.336	121
660.391	1388
660.445	-676
660.500	972
660.555	879
660.610	682
660.664	376
660.719	435
660.774	726
660.828	625
660.883	1348
660.938	1265
660.992	-502
661.047	704
661.101	561
661.156	384
661.211	411
661.265	271
661.320	368
661.374	1003
661.429	-79
661.483	1258
661.538	-104
661.592	387
661.647	1427
661.701	930
661.755	938
661.810	739
661.864	137
661.919	433
661.973	1121
662.027	922
662.081	906
662.136	590
662.190	1024
662.244	351
662.299	529
662.353	713
662.407	944
662.461	225
662.515	1133
662.569	67
662.624	261
662.678	569
662.732	740
662.786	-121
662.840	654
662.894	557
662.948	726
663.002	165
663.056	766
663.110	258
663.164	645
663.218	698
663.272	170
663.326	960
663.380	661
663.434	110
663.488	304
663.542	928
663.595	164
663.649	47
663.703	965
663.757	182
663.811	369
663.864	225
663.918	1076
663.972	81
664.026	404
664.079	292
664.133	1028
664.187	1082
664.240	838
664.294	83
664.348	473
664.401	59
664.455	715
664.508	318
664.562	580
664.615	309
664.669	473
664.722	648
664.776	-527
664.829	86
664.883	382
664.936	63
664.990	-167
665.043	849
665.097	289
665.150	987
665.203	-76
665.257	759
665.310	770
665.363	455
665.417	107
665.470	118
665.523	850
665.576	422
665.630	-19
665.683	982
665.736	754
665.789	589
665.842	-284
665.895	477
665.949	737
666.002	240
666.055	729
666.108	1235
666.161	508
666.214	1680
666.267	863
666.320	1907
666.373	578
666.426	79
666.479	680
666.532	448
666.585	379
666.638	415
666.691	546
666.744	1114
666.796	82
666.849	405
666.902	679
666.955	519
667.008	-185
667.060	572
667.113	277
667.166	213
667.219	687
667.271	-71
667.324	857
667.377	1030
667.430	525
667.482	784
667.535	-67
667.587	903
667.640	734
667.693	861
667.745	2451
667.798	2910
667.850	555
667.903	-56
667.955	912
668.008	506
668.060	768
668.113	314
668.165	263
668.218	524
668.270	395
668.322	651
668.375	-364
668.427	819
668.479	715
668.532	976
668.584	1553
668.636	326
668.689	528
668.741	-247
668.793	1123
668.845	433
668.898	971
668.950	573
669.002	633
669.054	10
669.106	983
669.158	1374
669.211	707
669.263	-51
669.315	1098
669.367	1005
669.419	664
669.471	1293
669.523	1651
669.575	2939
669.627	1807
669.679	491
669.731	1403
669.783	1462
669.835	1445
669.886	1725
669.938	1120
669.990	1826
670.042	1315
670.094	1933
670.146	2509
670.197	2764
670.249	5155
670.301	6044
670.353	10130
670.404	14729
670.456	22335
670.508	35851
670.560	58330
670.611	97702
670.663	171219
670.715	389844
670.766	553825
670.818	206449
670.869	43965
670.921	21124
670.972	12541
671.024	8637
671.075	7135
671.127	5538
671.178	3965
671.230	3750
671.281	3010
671.333	2790
671.384	2247
671.436	2588
671.487	2993
671.538	3009
671.590	4630
671.641	6286
671.692	9750
671.744	20526
671.795	12063
671.846	3575
671.897	1552
671.949	1237
672.000	1198
672.051	1256
672.102	1371
672.153	1251
672.204	308
672.256	76
672.307	969
672.358	576
672.409	603
672.460	636
672.511	-166
672.562	293
672.613	98
672.664	-115
672.715	511
672.766	-6
672.817	8
672.868	359
672.919	220
672.970	174
673.021	153
673.071	-135
673.122	874
673.173	877
673.224	-215
673.275	668
673.326	581
673.376	472
673.427	-73
673.478	161
673.528	824
673.579	-216
673.630	-31
673.680	1043
673.731	643
673.782	-740
673.832	-89
673.883	633
673.934	240
673.984	325
674.035	799
674.085	-189
674.136	1051
674.186	72
674.237	839
674.287	613
674.338	953
674.388	19
674.438	-455
674.489	-42
674.539	426
674.589	-125
674.640	-503
674.690	374
674.740	183
674.791	580
674.841	388
674.891	234
674.942	995
674.992	213
675.042	-415
675.092	-157
675.142	-899
675.193	-598
675.243	-215
675.293	18
675.343	-521
675.393	-545
675.443	510
675.493	303
675.543	-83
675.593	22
675.643	322
675.693	993
675.743	-458
675.793	-375
675.843	-605
675.893	-56
675.943	765
675.993	68
676.043	120
676.093	-198
676.142	-676
676.192	133
676.242	-153
676.292	-526
676.341	-143
676.391	52
676.441	-18
676.491	-63
676.540	237
676.590	605
676.640	23
676.689	-203
676.739	-384
676.789	97
676.838	-403
676.888	-248
676.937	129
676.987	-39
677.037	63
677.086	-320
677.136	-1169
677.185	-380
677.235	87
677.284	-562
677.333	-780
677.383	-937
677.432	-29
677.482	-302
677.531	21
677.580	-809
677.630	-1078
677.679	-582
677.728	29
677.778	457
677.827	142
677.876	91
677.925	-635
677.975	-353
678.024	-777
678.073	-529
678.122	-214
678.171	-80
678.220	-213
678.269	660
678.319	86
678.368	-126
678.417	-539
678.466	-113
678.515	-72
678.564	27
678.613	-293
678.662	-9
678.711	-353
678.760	-156
678.809	-477
678.857	-686
678.906	289
678.955	-189
679.004	55
679.053	444
679.102	-651
679.151	19
679.199	-404
679.248	468
679.297	-203
679.346	35
679.394	259
679.443	-660
679.492	-346
679.540	-476
679.589	-35
679.638	-869
679.686	-885
679.735	-606
679.784	-405
679.832	-370
679.881	-729
679.929	-740
679.978	-124
680.026	-569
680.075	-296
680.123	-854
680.172	-1023
680.220	-259
680.268	-837
680.317	-1336
680.365	-293
680.414	-930
680.462	-198
680.510	-384
680.559	2
680.607	-432
680.655	-340
680.703	-410
680.752	-480
680.800	-740
680.848	-647
680.896	-294
680.945	-368
680.993	-410
681.041	-307
681.089	-945
681.137	-625
681.185	13
681.233	-213
681.258	-428
681.281	-646
681.329	119
681.377	-674
681.380	-641
681.425	-304
681.473	-574
681.502	-339
681.521	-202
681.569	407
681.617	390
681.624	289
681.665	-463
681.713	-407
681.745	-451
681.761	-489
681.809	-904
681.857	-740
681.867	-632
681.904	-342
681.952	119
681.989	333
682.000	386
682.048	-41
682.096	441
682.111	204
682.143	-372
682.191	-279
682.233	562
682.239	680
682.286	522
682.334	-192
682.354	-74
682.382	34
682.430	-22
682.476	201
682.477	192
682.525	611
682.572	-765
682.598	-484
682.620	-241
682.667	-503
682.715	189
682.720	245
682.763	643
682.810	21
682.841	-60
682.857	-133
682.905	-344
682.952	1408
682.963	1302
683.000	923
683.047	348
683.085	869
683.095	984
683.142	378
683.190	1047
683.206	724
683.237	93
683.284	828
683.328	323
683.332	274
683.379	627
683.426	483
683.449	895
683.473	1303
683.521	605
683.568	453
683.571	525
683.615	1340
683.662	134
683.693	826
683.709	1191
683.757	515
683.804	1361
683.814	1274
683.851	870
683.898	967
683.936	910
683.945	906
683.992	1337
684.039	1674
684.057	1368
684.086	818
684.133	1407
684.179	1377
684.180	1364
684.227	808
684.274	1484
684.300	1471
684.321	1492
684.368	1060
684.415	2038
684.422	2026
684.462	1841
684.509	1141
684.543	1034
684.556	991
684.603	1172
684.649	1192
684.665	1206
684.696	1331
684.743	1124
684.786	1717
684.790	1742
684.837	1206
684.883	1194
684.908	1453
684.930	1705
684.977	1898
685.023	1320
685.029	1389
685.070	1848
685.117	1491
685.150	1444
685.164	1431
685.210	1758
685.257	1717
685.272	1953
685.303	2412
685.350	1837
685.393	2358
685.396	2403
685.443	2443
685.490	2129
685.514	2163
685.536	2066
685.583	2874
685.629	2671
685.636	2595
685.675	2194
685.722	2074
685.757	1938
685.768	1906
685.815	2093
685.861	2541
685.878	2512
685.908	2407
685.954	2187
686.000	2212
686.000	2211
686.047	2323
686.093	2509
686.121	2502
686.139	2402
686.185	2428
686.232	2528
686.242	2569
686.278	2698
686.324	2702
686.363	2427
686.370	2394
686.416	2430
686.463	3108
686.484	2638
686.509	2166
686.555	2570
686.601	2931
686.606	2930
686.647	2629
686.693	2375
686.727	2192
686.739	2177
686.785	2236
686.831	2591
686.848	2662
686.877	2796
686.923	2467
686.969	2682
686.969	2682
687.015	2024
687.061	2523
687.090	2484
687.107	2462
687.153	3143
687.199	2610
687.211	2555
687.245	2529
687.291	2759
687.332	3159
687.336	3188
687.382	2754
687.428	3544
687.453	3272
687.474	2976
687.520	3163
687.565	2449
687.574	2434
687.611	2623
687.657	2888
687.695	2792
687.702	2784
687.748	3762
687.794	3933
687.816	3480
687.839	2834
687.885	3167
687.931	3135
687.937	3044
687.976	2695
688.022	3140
688.058	3187
688.067	3191
688.113	3338
688.158	3073
688.179	3260
688.204	3587
688.249	3208
688.295	3238
688.300	3310
688.340	3771
688.386	3513
688.421	3552
688.431	3556
688.477	3599
688.522	3828
688.542	3843
688.567	3914
688.613	3857
688.658	3610
688.663	3610
688.703	3487
688.749	4003
688.784	3626
688.794	3520
688.839	3516
688.884	3557
688.905	3568
688.930	3665
688.975	3488
689.020	3653
689.026	3653
689.065	3670
689.110	3182
689.146	3676
689.155	3798
689.201	3247
689.246	3820
689.267	3876
689.291	4017
689.336	4046
689.381	3756
689.388	3800
689.426	3885
689.471	3806
689.509	3667
689.516	3668
689.561	3742
689.606	3773
689.630	3689
689.651	3628
689.696	3433
689.741	3820
689.750	3921
689.785	4292
689.830	3991
689.871	3674
689.875	3649
689.920	3808
689.965	3797
689.992	3807
690.010	3828
690.054	3753
690.099	3943
690.112	3959
690.144	4091
690.189	3858
690.233	3958
690.233	3965
690.278	3524
690.323	3699
690.354	3621
690.367	3657
690.412	3827
690.457	3571
690.474	3891
690.501	4304
690.546	3894
690.590	3772
690.595	3735
690.635	3710
690.680	3811
690.716	4184
690.724	4272
690.769	4132
690.813	4542
690.836	4215
690.857	3979
690.902	4537
690.946	4937
690.957	5014
690.991	5112
691.035	4654
691.077	4870
691.080	4898
691.124	4837
691.168	5181
691.198	4894
691.213	4693
691.257	4800
691.301	4626
691.318	4489
691.346	4381
691.390	4300
691.434	4136
691.439	4141
691.478	4443
691.522	4632
691.559	4571
691.567	4555
691.611	5050
691.655	4734
691.680	4762
691.699	4752
691.743	4597
691.787	4792
691.800	4658
691.831	4447
691.875	4397
691.919	4602
691.921	4582
691.964	4509
692.008	5097
692.041	5078
692.052	5041
692.096	4991
692.139	5342
692.162	5168
692.183	4941
692.227	5082
692.271	4724
692.282	4696
692.315	4883
692.359	4961
692.402	5123
692.403	5136
692.447	5133
692.490	5002
692.523	5287
692.534	5338
692.578	5059
692.622	4770
692.643	4563
692.666	4468
692.709	4889
692.753	4576
692.763	4520
692.797	4588
692.840	5091
692.884	5011
692.884	5023
692.928	5206
692.971	5412
693.004	5273
693.015	5181
693.059	5309
693.102	5106
693.124	4942
693.146	4974
693.189	5154
693.233	5178
693.245	5275
693.276	5341
693.320	5003
693.363	4648
693.365	4629
693.407	5108
693.450	5470
693.485	6080
693.493	6128
693.537	5673
693.580	5462
693.605	5371
693.624	5382
693.667	5570
693.710	5258
693.725	5267
693.753	5971
693.797	6925
693.840	7982
693.845	8061
693.883	7614
693.926	7139
693.966	6749
693.970	6700
694.013	6093
694.056	5404
694.086	4902
694.099	5034
694.142	5480
694.185	5865
694.206	5984
694.229	5871
694.272	5655
694.315	5652
694.326	5617
694.358	5898
694.401	6079
694.444	6486
694.446	6479
694.487	6387
694.530	6236
694.566	6328
694.573	6319
694.616	5812
694.659	5592
694.686	5415
694.702	5448
694.745	5300
694.787	5218
694.806	5158
694.830	5149
694.873	5148
694.916	5173
694.926	5220
694.959	5616
695.002	5682
695.044	5862
695.046	5857
695.087	5864
695.130	5786
695.166	5621
695.172	5675
695.215	6091
695.258	6433
695.286	6679
695.301	6671
695.343	6405
695.386	6403
695.406	6246
695.428	6100
695.471	6137
695.514	5809
695.526	5739
695.556	5735
695.599	5816
695.641	5601
695.646	5584
695.684	5513
695.726	5305
695.766	5242
695.769	5269
695.811	5460
695.854	5411
695.886	5455
695.896	5560
695.938	5841
695.981	6232
696.005	6382
696.023	6398
696.065	6452
696.108	6544
696.125	6513
696.150	6518
696.192	6468
696.235	6574
696.245	6543
696.277	6531
696.319	6448
696.361	6629
696.365	6615
696.404	6728
696.446	6769
696.485	6697
696.488	6710
696.530	6808
696.572	6681
696.604	6654
696.614	6588
696.656	6170
696.698	5759
696.724	5508
696.740	5687
696.783	6146
696.825	6547
696.844	6694
696.867	6658
696.909	6644
696.951	6499
696.964	6491
696.992	6642
697.034	6594
697.076	6716
697.083	6710
697.118	6648
697.160	6533
697.202	6463
697.203	6438
697.244	6414
697.286	6509
697.323	6446
697.327	6481
697.369	6609
697.411	6807
697.442	6933
697.453	6988
697.494	7042
697.536	7170
697.562	7277
697.578	7229
697.620	6889
697.661	6619
697.682	6450
697.703	6689
697.744	7129
697.786	7680
697.801	7815
697.828	7647
697.869	7318
697.911	6979
697.921	6892
697.952	6954
697.994	6990
698.035	6991
698.040	6975
698.077	6870
698.118	6636
698.160	6446
698.160	6423
698.201	6493
698.243	6499
698.279	6499
698.284	6542
698.325	6695
698.367	6935
698.399	7085
698.408	7062
698.449	6795
698.491	6585
698.518	6416
698.532	6551
698.573	6889
698.614	7261
698.638	7426
698.656	7348
698.697	7124
698.738	6920
698.757	6790
698.779	6958
698.820	7242
698.862	7532
698.877	7619
698.903	7777
698.944	7978
698.985	8193
698.996	8227
699.026	8057
699.067	7792
699.116	7453
699.235	7060
699.354	6807
699.474	6775
699.593	7609
699.713	7683
699.832	7236
699.951	6960
700.070	7141
700.190	6945
700.309	6799
700.428	7005
700.547	6365
700.667	7106
700.786	7820
700.905	7159
701.024	7641
701.143	7019
701.262	6464
701.381	6635
701.500	7404
701.619	8371
701.738	6252
701.857	6731
701.976	6142
702.095	6510
702.214	6986
702.333	7192
702.452	6348
702.571	6477
702.690	6363
702.809	5845
702.928	5948
703.047	6332
703.165	6061
703.284	6511
703.403	6248
703.522	6956
703.640	6764
703.759	7673
703.878	8188
703.997	6236
704.115	5598
704.234	5651
704.353	5782
704.471	5399
704.590	5436
704.708	5960
704.827	6218
704.946	6014
705.064	5631
705.183	5091
705.301	6336
705.420	8423
705.538	7758
705.656	6995
705.775	6961
705.893	8155
706.012	8067
706.130	6399
706.249	7432
706.367	7091
706.485	6147
706.604	6938
706.722	6392
706.840	9101
706.958	9141
707.077	6875
707.195	6316
707.313	6878
707.431	6108
707.549	6372
707.668	5446
707.786	5843
707.904	6803
708.022	5626
708.140	6192
708.258	7267
708.376	7127
708.494	6355
708.612	6409
708.730	8908
708.848	8058
708.966	7586
709.084	6891
709.202	7000
709.320	7164
709.438	7064
709.556	7536
709.674	8015
709.791	7128
709.909	6845
710.027	6930
710.145	6792
710.263	6805
710.380	6547
710.498	6292
710.616	6434
710.733	6812
710.851	6508
710.969	6780
711.086	6393
711.204	6029
711.322	6379
711.439	5882
711.557	6137
711.674	7088
711.792	6184
711.909	5643
712.027	4979
712.144	5529
712.262	6939
712.379	7061
712.497	9283
712.614	8528
712.732	7634
712.849	8021
712.966	8091
713.084	9319
713.201	8399
713.318	7802
713.436	7128
713.553	7295
713.670	7527
713.787	7854
713.905	7537
714.022	7050
714.139	7394
714.256	8216
714.373	10154
714.490	15025
714.608	34751
714.725	139796
714.842	118392
714.959	11581
715.076	7838
715.193	7166
715.310	6973
715.427	7005
715.544	7085
715.661	7428
715.778	6058
715.895	6750
716.011	6985
716.128	6825
716.245	6983
716.362	8171
716.479	7360
716.596	6142
716.713	6932
716.829	5912
716.946	6132
717.063	5844
717.180	6081
717.296	5245
717.413	5653
717.530	6815
717.646	5778
717.763	5801
717.880	5296
717.996	6564
718.113	5857
718.229	5230
718.346	5619
718.462	5072
718.579	7091
718.695	11106
718.812	7961
718.928	7737
719.045	5325
719.161	5180
719.277	5887
719.394	5191
719.510	5658
719.626	6197
719.743	7357
719.859	7456
719.975	11607
720.092	37903
720.208	73475
720.324	9575
720.440	6353
720.557	6691
720.673	9080
720.789	10459
720.905	17449
721.021	6102
721.137	4777
721.253	5324
721.369	5655
721.486	5403
721.602	6945
721.718	4892
721.834	4684
721.950	4469
722.066	4616
722.181	4523
722.297	5340
722.413	5039
722.529	4802
722.645	5679
722.761	4019
722.877	4673
722.993	4542
723.108	5191
723.224	4651
723.340	5099
723.456	5220
723.571	4039
723.687	4426
723.803	4574
723.918	4311
724.034	4791
724.150	3791
724.265	4590
724.381	7933
724.497	7839
724.612	4232
724.728	3810
724.843	3507
724.959	4076
725.074	7765
725.190	7964
725.305	4726
725.421	4188
725.536	3789
725.651	4537
725.767	3996
725.882	4058
725.997	3565
726.113	3763
726.228	4245
726.343	4049
726.459	3136
726.574	3800
726.689	3017
726.804	3052
726.920	3422
727.035	3317
727.150	3152
727.265	2882
727.380	3986
727.495	4433
727.610	3221
727.725	2712
727.841	3264
727.956	4760
728.071	4097
728.186	3126
728.301	3024
728.416	3240
728.531	3678
728.645	3644
728.760	3491
728.875	4249
728.990	3189
729.105	3418
729.220	4026
729.335	3709
729.449	3296
729.564	2937
729.679	2894
729.794	3015
729.908	3511
730.023	3468
730.138	2661
730.253	3577
730.367	2909
730.482	2930
730.596	2967
730.711	3053
730.826	3966
730.940	3476
731.055	3886
731.169	3207
731.284	3007
731.398	3136
731.513	3581
731.627	2900
731.742	4235
731.856	4295
731.970	3006
732.085	3030
732.199	4351
732.313	5728
732.428	13998
732.542	38807
732.656	19700
732.771	4149
732.885	4207
732.999	3726
733.113	3150
733.227	3165
733.342	3184
733.456	2562
733.570	2721
733.684	2930
733.798	3531
733.912	2819
734.026	2908
734.140	2862
734.254	3953
734.368	5059
734.482	4934
734.596	2770
734.710	3066
734.824	2575
734.938	2938
735.052	2197
735.166	3184
735.280	2920
735.393	3756
735.507	2823
735.621	3447
735.735	5063
735.849	3560
735.962	2785
736.076	3128
736.190	2073
736.303	3753
736.417	4313
736.531	2410
736.644	3456
736.758	2534
736.872	2694
736.985	3296
737.099	3012
737.212	1893
737.326	3130
737.439	2078
737.553	2758
737.666	3375
737.780	1883
737.893	2139
738.007	2432
738.120	2385
738.233	2796
738.347	2921
738.460	2657
738.573	2693
738.687	2812
738.800	3326
738.913	3946
739.026	2217
739.140	2722
739.253	1967
739.366	1767
739.479	2026
739.592	1785
739.705	2263
739.818	2407
739.932	2086
740.045	2252
740.158	1779
740.271	1818
740.384	2575
740.497	3292
740.610	2840
740.723	1696
740.836	2097
740.949	3219
741.062	3545
741.174	3238
741.287	2831
741.400	1574
741.513	2871
741.626	2627
741.739	2315
741.851	1903
741.964	2808
742.077	1645
742.189	1738
742.302	2584
742.415	2489
742.527	1114
742.640	1694
742.753	2359
742.865	2091
742.978	1104
743.090	2366
743.203	1408
743.316	2265
743.428	2040
743.541	1599
743.653	2162
743.766	1908
743.878	1898
743.990	2459
744.103	2543
744.215	2585
744.327	2203
744.440	2639
744.552	4773
744.664	2879
744.777	2147
744.889	1756
745.001	2661
745.113	1930
745.226	1051
745.338	2867
745.450	1407
745.562	1319
745.674	2126
745.786	2097
745.898	1643
746.010	1861
746.122	1182
746.234	2094
746.347	2070
746.459	1971
746.570	1826
746.682	1707
746.794	2895
746.906	2084
747.018	2131
747.130	1782
747.242	1815
747.354	1863
747.466	2255
747.577	2317
747.689	1738
747.801	1584
747.913	2054
748.024	1322
748.136	1430
748.248	1662
748.359	1613
748.471	2359
748.583	1628
748.694	1657
748.806	2312
748.918	1923
749.029	1291
749.141	1675
749.252	2259
749.364	1468
749.475	4581
749.587	2555
749.698	1894
749.809	2050
749.921	1356
750.032	1514
750.144	884
750.255	1273
750.366	1278
750.478	1284
750.589	1861
750.700	1428
750.811	1892
750.923	2787
751.034	4599
751.145	4282
751.256	1560
751.367	1833
751.479	1527
751.590	1595
751.701	1935
751.812	1159
751.923	1697
752.034	1500
752.145	1401
752.256	921
752.367	974
752.478	1110
752.589	2287
752.700	1373
752.811	1557
752.922	1284
753.032	1439
753.143	1832
753.254	677
753.365	2006
753.476	1702
753.586	1110
753.697	536
753.808	1324
753.919	1186
754.029	1193
754.140	1751
754.251	954
754.361	-77
754.472	879
754.582	1693
754.693	1116
754.804	1625
754.914	863
755.025	1287
755.135	783
755.246	920
755.356	663
755.466	1413
755.577	569
755.687	952
755.798	1673
755.908	921
756.018	1387
756.129	1019
756.239	1122
756.349	1393
756.460	839
756.570	1880
756.680	928
756.790	979
756.900	1378
757.011	1250
757.121	1895
757.231	957
757.341	1138
757.451	1298
757.561	1380
757.671	326
757.781	834
757.891	1315
758.001	1781
758.111	892
758.221	1774
758.331	1885
758.441	1333
758.551	2403
758.661	1809
758.771	1503
758.880	1748
758.990	1321
759.100	197
759.210	1439
759.320	788
759.429	1007
759.539	930
759.649	740
759.758	1258
759.868	2088
759.978	889
760.087	1171
760.197	1060
760.307	966
760.416	1349
760.526	-113
760.635	1607
760.745	1879
760.854	1243
760.964	1220
761.073	1748
761.182	1017
761.292	1863
761.401	1647
761.511	1420
761.620	1892
761.729	1223
761.839	307
761.948	1401
762.057	655
762.166	1363
762.276	-579
762.385	2497
762.494	718
762.603	1360
762.712	422
762.822	1388
762.931	722
763.040	1139
763.149	1425
763.258	1442
763.367	1800
763.476	1503
763.585	1151
763.694	959
763.803	1510
763.912	1813
764.021	886
764.130	1034
764.238	1168
764.347	1477
764.456	873
764.565	706
764.674	761
764.783	654
764.891	582
765.000	2851
765.109	1408
765.217	782
765.326	1539
765.435	2175
765.543	2332
765.652	2892
765.761	3020
765.869	5014
765.978	7334
766.086	14923
766.195	30280
766.303	92098
766.412	278508
766.520	166904
766.629	34240
766.737	12591
766.846	7272
766.954	5190
767.062	4811
767.171	3305
767.279	2939
767.387	2484
767.496	2389
767.604	1780
767.712	1627
767.820	1937
767.928	1779
768.037	1221
768.145	1612
768.253	2718
768.361	759
768.469	1447
768.577	1119
768.685	2434
768.793	1310
768.901	766
769.009	2829
769.117	2109
769.225	2005
769.333	3780
769.441	6535
769.549	12629
769.657	31548
769.765	116857
769.873	206389
769.981	46291
770.088	9454
770.196	5140
770.304	4576
770.412	3228
770.519	2442
770.627	2679
770.735	1725
770.842	1817
770.950	1696
771.058	2315
771.165	2324
771.273	1471
771.380	1772
771.488	2407
771.595	1588
771.703	1647
771.810	1897
771.918	1432
772.025	1169
772.133	880
772.240	1135
772.348	1537
772.455	1634
772.562	1815
772.670	546
772.777	2236
772.884	1309
772.991	1835
773.099	952
773.206	1625
773.313	1866
773.420	1454
773.528	850
773.635	971
773.742	1592
773.849	2193
773.956	1080
774.063	1911
774.170	841
774.277	1384
774.384	1391
774.491	955
774.598	1624
774.705	1532
774.812	1467
774.919	1140
775.026	772
775.133	1050
775.239	969
775.346	1769
775.453	897
775.560	740
775.667	1278
775.773	1082
775.880	1498
775.987	1509
776.093	991
776.200	1373
776.307	1296
776.413	1375
776.520	1327
776.627	952
776.733	1351
776.840	98
776.946	2379
777.053	1631
777.159	2945
777.266	1846
777.372	2519
777.478	2529
777.585	1664
777.691	837
777.798	1336
777.904	1525
778.010	2344
778.117	2167
778.223	1179
778.329	433
778.435	1192
778.542	2409
778.648	816
778.754	138
778.860	1483
778.966	374
779.072	-157
779.178	1009
779.284	820
779.391	612
779.497	-74
779.603	2523
779.708	-793
779.815	2588
779.920	3229
780.026	4174
780.132	1062
780.238	297
780.344	1004
780.450	1521
780.556	419
780.661	467
780.767	924
780.873	346
780.979	1266
781.085	502
781.190	777
781.296	316
781.402	670
781.507	1312
781.613	21
781.719	-55
781.824	540
781.930	797
782.035	1536
782.141	776
782.246	645
782.352	609
782.457	183
782.563	642
782.668	413
782.773	633
782.879	633
782.984	1845
783.090	774
783.195	1357
783.300	914
783.405	706
783.511	-126
783.616	1432
783.721	361
783.826	1753
783.932	1554
784.037	855
784.142	791
784.247	354
784.352	-178
784.457	-110
784.562	1013
784.667	451
784.772	118
784.877	1273
784.982	585
785.087	412
785.192	828
785.297	-12
785.402	732
785.507	938
785.611	1116
785.716	864
785.821	346
785.926	-34
786.031	1598
786.135	363
786.240	1365
786.345	-96
786.450	1329
786.554	20
786.659	-86
786.763	49
786.868	490
786.973	1241
787.077	-167
787.182	878
787.286	713
787.391	-138
787.495	-100
787.600	-35
787.704	-9
787.809	576
787.913	-445
788.017	746
788.122	369
788.226	622
788.330	727
788.435	65
788.539	380
788.643	838
788.747	1
788.852	917
788.956	29
789.060	882
789.164	103
789.268	-23
789.372	797
789.476	628
789.580	519
789.684	59
789.788	269
789.892	-414
789.996	354
790.100	426
790.204	221
790.308	33
790.412	342
790.516	215
790.620	-124
790.724	384
790.828	527
790.931	-97
791.035	2269
791.139	297
791.242	-680
791.346	1211
791.450	989
791.554	360
791.657	-286
791.761	863
791.864	1329
791.968	310
792.072	-366
792.175	207
792.279	500
792.382	1067
792.486	32
792.589	29
792.693	-281
792.796	-580
792.899	1128
793.003	1702
793.106	-1365
793.209	519
793.313	1174
793.416	-1334
793.519	1706
793.623	1244
793.726	1705
793.829	628
793.932	616
794.035	-590
794.138	1078
794.242	1070
794.345	444
794.448	648
794.551	759
794.654	2545
794.757	2644
794.860	497
794.963	437
795.066	-4
795.169	1314
795.272	-53
795.375	732
795.477	-1041
795.580	383
795.683	-289
795.786	242
795.889	-848
795.991	914
796.094	1074
796.197	-1161
796.300	551
796.402	381
796.505	-698
796.608	289
796.710	800
796.813	-10
796.915	-297
797.018	157
797.120	540
797.223	-1091
797.326	982
797.428	-602
797.530	608
797.633	-123
797.735	1231
797.838	661
797.940	913
798.042	-1230
798.145	495
798.247	500
798.349	-812
798.452	738
798.554	-533
798.656	-230
798.758	801
798.860	331
798.962	-253
799.065	-383
799.167	-172
799.269	792
799.371	1106
799.473	305
799.575	-91
799.677	-107
799.779	1675
799.881	-106
799.983	1017
800.085	-750
800.187	132
800.289	-284
800.390	190
800.492	-238
800.594	464
800.696	-4
800.798	-515
800.899	-199
801.001	-391
801.103	-1125
801.205	-431
801.306	103
801.408	-329
801.509	200
801.611	-93
801.713	536
801.814	-721
801.916	506
802.017	66
802.119	-598
802.220	-30
802.322	-1968
802.423	1644
802.525	-1342
802.626	-500
802.727	829
802.829	-4
802.930	-1713
803.031	1137
803.133	-496
803.234	59
803.335	-163
803.436	-252
803.538	113
803.639	-724
803.740	378
803.841	-152
803.942	586
804.043	-23
804.144	-916
804.245	28
804.346	-1468
804.447	-720
804.548	-443
804.649	1558
804.750	-445
804.851	222
804.952	-176
805.053	-102
805.154	-1744
805.255	1220
805.355	-367
805.456	-170
805.557	-1303
805.658	-690
805.758	455
805.859	-227
805.960	-895
806.061	-723
806.161	-367
806.262	-205
806.362	-383
806.463	-772
806.564	612
806.664	-262
806.765	-194
806.865	-40
806.966	-522
807.066	-685
807.166	153
807.267	39
807.367	-593
807.468	1392
807.568	-1202
807.668	816
807.769	848
807.869	-371
807.969	62
808.069	602
808.170	-372
808.270	-290
808.370	493
808.470	122
808.570	-1951
808.670	119
808.770	-86
808.870	-769
808.970	331
809.070	310
809.170	-1469
809.271	263
809.370	-500
809.470	-311
809.570	-293
809.670	165
809.770	-730
809.870	243
809.970	-505
810.070	209
810.169	57
810.269	-1518
810.369	1360
810.469	258
810.568	-782
810.668	-1364
810.768	-992
810.867	-16
810.967	-467
811.066	-432
811.166	-473
811.265	70
811.365	-247
811.464	-168
811.564	-309
811.663	202
811.763	-497
811.862	291
811.962	190
812.061	-972
812.160	-1135
812.260	453
812.359	653
812.458	1527
812.557	6486
812.657	7009
812.756	1231
812.855	-98
812.954	-513
813.053	294
813.153	-288
813.252	-746
813.351	212
813.450	119
813.549	-1110
813.648	447
813.747	-308
813.846	335
813.945	-704
814.044	116
814.143	-365
814.242	-131
814.341	-1135
814.439	-671
814.538	-388
814.637	-152
814.736	-788
814.835	566
814.933	-477
815.032	406
815.131	-583
815.229	977
815.328	257
815.427	347
815.525	97
815.624	371
815.722	-13
815.821	245
815.919	-78
816.018	-997
816.116	1364
816.215	-142
816.313	675
816.412	543
816.510	142
816.609	1874
816.707	516
816.805	591
816.904	-586
817.002	844
817.100	1368
817.198	904
817.296	1246
817.395	2212
817.493	2740
817.591	1464
817.689	3993
817.787	3978
817.885	9301
817.983	18668
818.081	41010
818.179	103170
818.277	238284
818.375	167396
818.473	41143
818.571	15971
818.669	10553
818.767	8661
818.865	9608
818.963	12337
819.061	18799
819.158	35066
819.256	79398
819.354	187132
819.452	345911
819.549	195194
819.647	55437
819.745	23302
819.842	13380
819.940	9082
820.038	6550
820.135	4953
820.233	4901
820.330	2289
820.428	1461
820.525	2588
820.623	2082
820.720	991
820.818	768
820.915	1880
821.012	1312
821.110	-642
821.207	1509
821.304	792
821.402	532
821.499	361
821.596	1922
821.693	1288
821.791	1306
821.888	1147
821.985	2443
822.082	473
822.179	1309
822.276	575
822.373	1218
822.470	813
822.567	321
822.664	-275
822.761	466
822.858	722
822.955	517
823.052	724
823.149	-142
823.246	-416
823.343	552
823.440	488
823.536	-529
823.633	-122
823.730	-705
823.827	-910
823.923	570
824.020	1421
824.117	-50
824.213	-355
824.310	439
824.407	-610
824.503	336
824.600	396
824.696	-577
824.793	-141
824.889	-298
824.986	-559
825.082	-317
825.179	516
825.275	425
825.371	-1089
825.468	-61
825.564	-1426
825.660	208
825.757	172
825.853	128
825.949	-879
826.045	-647
826.142	-208
826.238	-385
826.334	407
826.430	-507
826.526	-36
826.622	-1624
826.718	-553
826.814	170
826.910	609
827.006	-55
827.102	110
827.198	215
827.294	-914
827.390	-325
827.486	294
827.582	-1250
827.678	-819
827.774	288
827.869	-1247
827.965	1065
828.061	-663
828.157	-600
828.252	-420
828.348	-1263
828.444	520
828.539	-1574
828.635	-625
828.731	-544
828.826	-370
828.922	-399
829.017	-1449
829.113	31
829.208	-962
829.304	-1781
829.399	445
829.495	-854
829.590	-169
829.685	-877
829.781	-636
829.876	-517
829.971	189
830.066	-493
830.162	-971
830.257	-1316
830.352	-855
830.447	89
830.543	-50
830.638	-1649
830.733	568
830.828	-1085
830.923	-490
831.018	-715
831.113	-375
831.208	-1512
831.303	-437
831.398	-573
831.493	-728
831.588	-577
831.683	-1020
831.778	-261
831.873	-358
831.967	155
832.062	-1252
832.157	-1732
832.252	602
832.346	-318
832.441	448
832.536	673
832.631	2024
832.725	875
832.820	-923
832.914	-424
833.009	-1491
833.104	-312
833.198	-346
833.293	-731
833.387	-368
833.482	-821
833.576	-1044
833.670	-873
833.765	-525
833.859	-1738
833.954	179
834.048	-1044
834.142	-7
834.237	-1369
834.331	-133
834.425	-243
834.519	-84
834.613	-18
834.708	-1496
834.802	-1132
834.896	-908
834.990	-345
835.084	-368
835.178	-624
835.272	-422
835.366	-1361
835.460	-458
835.554	-590
835.648	-725
835.742	-1174
835.836	-544
835.930	-1587
836.024	114
836.117	148
836.211	-1201
836.305	-323
836.399	575
836.493	-1659
836.586	-7
836.680	-902
836.774	-1781
836.867	529
836.961	-860
837.055	-1190
837.148	-626
837.242	-1217
837.335	-635
837.429	-292
837.522	-676
837.616	-1015
837.709	740
837.803	-1023
837.896	206
837.989	-1655
838.083	-166
838.176	-121
838.269	-718
838.363	216
838.456	-623
838.549	1499
838.642	686
838.735	3108
838.829	788
838.922	-1527
839.015	-144
839.108	-1850
839.201	-655
839.294	-830
839.387	-57
839.480	-1541
839.573	-499
839.666	-47
839.759	-484
839.852	-1648
839.945	-523
840.038	-794
840.131	-963
840.223	-974
840.316	-351
840.409	-1693
840.502	-1296
840.594	-170
840.687	-1430
840.780	-738
840.873	-867
840.965	-542
841.058	-114
841.150	-287
841.243	-1370
841.336	215
841.428	-853
841.521	-1327
841.613	-885
841.706	-467
841.798	-601
841.890	-756
841.983	-1524
842.075	-1009
842.167	-1331
842.260	-1406
842.352	713
842.444	-1341
842.537	-164
842.629	946
842.721	-985
842.813	-765
842.905	-1961
842.997	-563
843.090	-400
843.182	-63
843.274	-402
843.366	1588
843.458	4070
843.550	2908
843.642	-954
843.734	-105
843.826	-742
843.918	-166
844.009	-469
844.101	-1121
844.193	-1165
844.285	-963
844.377	-792
844.469	-837
844.560	-608
844.652	-706
844.744	-238
844.835	-998
844.927	-527
845.019	-1277
845.110	-673
845.202	-527
845.293	101
845.385	-637
845.476	-895
845.568	-1209
845.659	-508
845.751	-148
845.842	-1176
845.934	-1443
846.025	-658
846.116	-1268
846.208	-641
846.299	-681
846.390	-783
846.482	-1005
846.573	-1171
846.664	-833
846.755	-603
846.846	421
846.937	-1293
847.029	-788
847.120	-1427
847.211	-681
847.302	168
847.393	-1677
847.484	-610
847.575	-1983
847.666	-633
847.757	-926
847.847	-73
847.938	-846
848.029	-1526
848.120	-1561
848.211	-704
848.302	-1318
848.392	-1089
848.483	153
848.574	-1696
848.664	-1027
848.755	-894
848.846	-459
848.936	-1390
849.027	-538
849.118	-1534
849.208	-1603
849.299	-950
849.389	-69
849.480	1063
849.570	1348
849.661	5446
849.751	7917
849.841	1728
849.932	-544
850.022	-1348
850.112	-655
850.203	-1138
850.293	-1013
850.383	-1116
850.474	-1360
850.564	-850
850.654	-853
850.744	-1071
850.834	-888
850.924	-753
851.014	-1611
851.104	-1113
851.194	-1224
851.284	100
851.374	-650
851.464	-1470
851.554	-615
851.644	-1211
851.734	-341
851.824	-788
851.914	-933
852.004	-523
852.094	-1444
852.183	-1106
852.273	-598
852.363	-1075
852.452	-831
852.542	-1343
852.632	-1544
852.721	-895
852.811	-407
852.901	-792
852.990	-779
853.080	-711
853.169	-708
853.259	-1179
853.348	-1368
853.438	-96
853.527	920
853.617	-471
853.706	778
853.795	3459
853.885	9771
853.974	21288
854.063	41835
854.152	60801
854.242	16332
854.331	1881
854.420	-934
854.509	-835
854.598	-408
854.687	-626
854.777	-1051
854.866	-296
854.955	-397
855.044	-864
855.133	-943
855.222	-706
855.311	-1868
855.400	-1008
855.488	-1174
855.577	-1059
855.666	-1429
855.755	-445
855.844	-781
855.933	-1300
856.021	-1329
856.110	-724
856.199	-2003
856.288	-1530
856.376	-1458
856.465	-1853
856.554	-768
856.642	-1390
856.731	-1439
856.819	-1148
856.908	-1142
856.996	-879
857.085	-866
857.173	-689
857.262	-1181
857.350	-287
857.438	-1101
857.527	283
857.615	-1204
857.703	-133
857.792	-1877
857.880	-1057
857.968	-1363
858.056	-935
858.145	-862
858.233	-1129
858.321	-777
858.409	-266
858.497	-1603
858.585	-1458
858.673	-665
858.761	-900
858.849	-1473
858.937	-1834
859.025	-1695
859.113	-1115
859.201	-791
859.289	-53
859.377	-1639
859.465	-32
859.552	-1230
859.640	-1586
859.728	-943
859.816	-799
859.903	-1295
859.991	-1674
860.079	-1074
860.166	-376
860.254	-535
860.342	-990
860.429	-1213
860.517	-1287
860.604	-554
860.692	-527
860.779	-1292
860.867	-1351
860.954	-724
861.042	-800
861.129	-1016
861.216	-634
861.304	-1597
861.391	-1117
861.478	-568
861.565	-687
861.653	-828
861.740	-771
861.827	-1738
861.914	-275
862.001	-1044
862.089	-1037
862.176	-588
862.263	-1358
862.350	-984
862.437	-1388
862.524	-1183
862.611	-1314
862.698	-804
862.785	-1419
862.871	-1296
862.958	-826
863.045	-1664
863.132	-764
863.219	-510
863.306	-1421
863.392	-1039
863.479	-996
863.566	-946
863.652	-1551
863.739	-1584
863.826	-115
863.912	-1266
863.999	-1095
864.086	-1092
864.172	-1314
864.259	-764
864.345	-1276
864.432	-176
864.518	-826
864.604	-1231
864.691	-1206
864.777	-13
864.863	-864
864.950	-492
865.036	-1132
865.122	41
865.209	-751
865.295	-372
865.381	-20
865.467	-178
865.553	364
865.639	-117
865.726	1845
865.812	4716
865.898	10613
865.984	14326
866.070	30420
866.156	28398
866.242	4756
866.328	451
866.414	-380
866.499	128
866.585	-498
866.671	166
866.757	-581
866.843	-633
866.928	-1027
867.014	-1156
867.100	-163
867.186	-519
867.271	-37
867.357	136
867.442	-232
867.528	-494
867.614	-847
867.699	-1013
867.785	362
867.870	-1874
867.956	-1268
868.041	538
868.127	316
868.212	-566
868.297	322
868.383	-299
868.468	-271
868.553	1491
868.639	1095
868.724	3398
868.809	1815
868.894	-780
868.979	-814
869.065	509
869.150	-947
869.235	-768
869.320	-97
869.405	-988
869.490	-769
869.575	-1778
869.660	-936
869.745	-634
869.830	-1595
869.915	-1309
870.000	-566
870.085	-669
870.169	-742
870.254	-556
870.339	-1321
870.424	-432
870.509	-638
870.593	-824
870.678	-688
870.763	-740
870.847	-870
870.932	-1163
871.016	-49
871.101	-1217
871.186	-476
871.270	-304
871.355	-667
871.439	-696
871.523	-502
871.608	-454
871.692	-1041
871.777	-400
871.861	-822
871.945	-1067
872.030	-229
872.114	-765
872.198	-1368
872.282	-769
872.367	-742
872.451	-1698
872.535	-758
872.619	-781
872.703	-38
872.787	-686
872.871	-1169
872.955	-1358
873.039	-1359
873.123	-1186
873.207	112
873.291	-1095
873.375	-1882
873.459	-860
873.543	-949
873.627	-881
873.711	-518
873.794	-597
873.878	-939
873.962	-1408
874.045	-825
874.129	-713
874.137	-752
874.213	-1147
874.245	-1174
874.296	-1222
874.352	-960
874.380	-829
874.460	-1094
874.464	-1106
874.547	-1291
874.568	-1166
874.631	-782
874.676	-1111
874.714	-1406
874.784	-1030
874.798	-949
874.881	-21
874.892	-160
874.965	-1132
874.999	-882
875.048	-556
875.107	-640
875.131	-669
875.215	-1264
875.215	-1263
875.298	-1234
875.323	-1099
875.381	-786
875.430	-537
875.465	-334
875.538	-955
875.548	-1068
875.631	-1590
875.646	-1587
875.714	-1366
875.753	-1039
875.798	-739
875.861	-685
875.881	-653
875.964	-1417
875.968	-1355
876.047	-205
876.076	2
876.130	359
876.183	-221
876.213	-543
876.291	-445
876.296	-443
876.379	-492
876.398	-430
876.462	-201
876.506	-555
876.545	-829
876.613	-769
876.628	-781
876.711	-514
876.721	-489
876.794	-210
876.828	-336
876.877	-593
876.935	-662
876.960	-580
877.043	36
877.043	40
877.125	772
877.150	363
877.208	-463
877.258	-370
877.291	-387
877.365	-509
877.374	-495
877.456	-55
877.472	71
877.539	488
877.579	332
877.622	140
877.687	-249
877.704	-343
877.787	-646
877.794	-603
877.869	77
877.901	301
877.952	390
878.008	72
878.034	53
878.115	-96
878.117	-105
878.199	-470
878.222	-508
878.282	-171
878.329	-110
878.364	-285
878.437	234
878.447	355
878.529	-214
878.544	-166
878.611	-167
878.651	-170
878.694	-62
878.758	87
878.776	85
878.858	-159
878.865	-163
878.941	-241
878.972	-220
879.023	-76
879.078	-476
879.105	-543
879.185	617
879.187	633
879.269	-88
879.292	-195
879.351	-281
879.399	-270
879.433	-262
879.506	592
879.516	689
879.598	148
879.613	159
879.680	484
879.720	490
879.762	313
879.827	-299
879.844	-412
879.926	-128
879.933	-91
880.007	303
880.040	418
880.089	642
880.147	1033
880.171	1305
880.253	2847
880.254	2855
880.335	5164
880.360	5430
880.417	7810
880.467	12175
880.499	15487
880.574	19541
880.580	18947
880.662	7082
880.680	4956
880.744	1589
880.787	451
880.825	519
880.893	785
880.907	778
880.989	316
881.000	199
881.070	-22
881.106	124
881.152	239
881.213	790
881.233	931
881.315	410
881.319	387
881.396	232
881.426	127
881.478	18
881.532	527
881.559	614
881.639	-221
881.641	-223
881.722	141
881.745	169
881.803	160
881.852	54
881.885	-37
881.958	345
881.966	403
882.047	604
882.064	534
882.129	457
882.171	852
882.210	1496
882.277	2439
882.291	2423
882.372	1702
882.383	1578
882.454	749
882.489	491
882.535	420
882.596	327
882.616	279
882.697	75
882.702	53
882.778	454
882.808	705
882.859	545
882.914	186
882.940	175
883.020	433
883.021	441
883.102	776
883.127	745
883.183	466
883.233	390
883.264	287
883.339	-86
883.345	-73
883.426	476
883.445	586
883.507	773
883.551	463
883.587	196
883.657	145
883.668	216
883.749	1082
883.763	1163
883.830	1017
883.869	794
883.910	575
883.975	436
883.991	426
884.072	256
884.081	225
884.152	27
884.187	55
884.233	463
884.292	829
884.314	832
884.394	731
884.398	721
884.475	534
884.504	455
884.555	487
884.610	526
884.636	488
884.716	511
884.716	518
884.797	651
884.821	699
884.877	783
884.927	614
884.958	520
885.033	735
885.038	726
885.118	168
885.139	37
885.199	238
885.244	579
885.279	980
885.350	1200
885.359	1096
885.439	433
885.456	266
885.520	135
885.561	81
885.600	53
885.667	215
885.680	331
885.760	855
885.773	915
885.840	899
885.878	896
885.920	922
885.984	882
886.000	851
886.080	696
886.089	663
886.160	860
886.195	1025
886.240	832
886.300	551
886.320	596
886.400	726
886.406	727
886.480	969
886.511	1043
886.560	1505
886.616	2060
886.640	1858
886.720	1105
886.722	1078
886.800	1283
886.827	1361
886.879	953
886.932	557
886.959	697
887.038	786
887.039	791
887.119	640
887.143	631
887.198	797
887.248	705
887.278	722
887.354	941
887.358	976
887.437	1514
887.459	1627
887.517	1144
887.564	830
887.596	974
887.669	1138
887.676	1102
887.755	769
887.774	616
887.835	885
887.880	1161
887.914	1031
887.985	607
887.994	655
888.073	1141
888.090	1262
888.153	775
888.195	334
888.232	724
888.300	1454
888.311	1499
888.391	1784
888.405	1840
888.470	1411
888.510	1031
888.549	1022
888.615	1108
888.628	1085
888.708	881
888.720	839
888.787	951
888.825	1004
888.866	1137
888.930	1346
888.945	1347
889.024	1311
889.035	1294
889.103	1355
889.140	1383
889.182	1133
889.245	768
889.261	799
889.340	895
889.349	902
889.419	976
889.454	1002
889.498	1276
889.559	1629
889.577	1579
889.656	1346
889.664	1318
889.735	1684
889.768	1850
889.814	1776
889.873	1665
889.978	1501
890.083	1669
890.187	799
890.292	1791
890.397	988
890.501	1769
890.606	1538
890.710	2354
890.815	2490
890.919	816
891.024	1229
891.128	1718
891.233	874
891.337	1698
891.442	2002
891.546	827
891.650	1584
891.755	1035
891.859	2637
891.963	1285
892.068	1871
892.172	1768
892.276	1880
892.380	1223
892.484	1312
892.589	760
892.693	1725
892.797	1036
892.901	2115
893.005	1636
893.109	1387
893.213	994
893.317	1307
893.421	1596
893.525	1108
893.629	1137
893.733	984
893.837	977
893.941	1138
894.045	585
894.148	1180
894.252	911
894.356	1578
894.460	1727
894.564	1613
894.667	924
894.771	1130
894.875	766
894.978	1234
895.082	62
895.186	1069
895.289	967
895.393	1509
895.496	615
895.600	1269
895.703	1391
895.807	1604
895.910	634
896.014	1148
896.117	505
896.221	1999
896.324	855
896.427	1403
896.531	361
896.634	1163
896.737	193
896.840	1466
896.944	1520
897.047	1115
897.150	917
897.253	1350
897.356	1294
897.460	1253
897.563	971
897.666	1555
897.769	790
897.872	284
897.975	634
898.078	1003
898.181	1793
898.284	587
898.387	1083
898.490	1415
898.593	449
898.695	154
898.798	338
898.901	944
899.004	1058
899.107	767
899.209	577
899.312	1254
899.415	359
899.518	1478
899.620	1237
899.723	864
899.826	2435
899.928	3783
900.031	1277
900.133	745
900.236	581
900.338	1599
900.441	729
900.543	731
900.646	292
900.748	1002
900.851	364
900.953	1251
901.055	513
901.158	1157
901.260	664
901.362	807
901.465	1045
901.567	682
901.669	1428
901.771	1237
901.873	1005
901.976	1453
902.078	403
902.180	760
902.282	873
902.384	1488
902.486	574
902.588	1270
902.690	402
902.792	1250
902.894	1281
902.996	691
903.098	951
903.200	955
903.302	395
903.404	1433
903.505	-407
903.607	1452
903.709	1270
903.811	280
903.913	1511
904.014	1630
904.116	779
904.218	1223
904.319	0
904.421	1549
904.523	522
904.624	1113
904.726	1000
904.827	-9
904.929	568
905.030	1562
905.132	759
905.233	1847
905.335	293
905.436	872
905.537	-176
905.639	950
905.740	376
905.841	909
905.943	1345
906.044	1213
906.145	809
906.247	1068
906.348	1175
906.449	820
906.550	654
906.651	1260
906.752	737
906.854	1691
906.955	1077
907.056	871
907.157	771
907.258	928
907.359	600
907.460	969
907.561	65
907.662	451
907.762	467
907.863	1237
907.964	994
908.065	1679
908.166	551
908.267	1393
908.367	516
908.468	329
908.569	800
908.670	1279
908.770	1880
908.871	1793
908.971	1039
909.072	689
909.173	1111
909.273	290
909.374	194
909.474	387
909.575	445
909.675	538
909.776	1609
909.876	565
909.977	436
910.077	2076
910.177	161
910.278	702
910.378	1376
910.478	823
910.579	579
910.679	860
910.779	783
910.879	2109
910.980	501
911.080	489
911.180	28
911.280	1343
911.380	1230
911.480	1163
911.580	573
911.680	876
911.780	1107
911.880	334
911.980	356
912.080	1456
912.180	1520
912.280	1955
912.380	866
912.480	916
912.580	464
912.679	618
912.779	307
912.879	1136
912.979	532
913.078	146
913.178	595
913.278	790
913.377	227
913.477	370
913.577	851
913.676	1543
913.776	72
913.875	656
913.975	1112
914.074	1229
914.174	958
914.273	1367
914.373	1134
914.472	375
914.572	538
914.671	1380
914.770	831
914.870	274
914.969	-3
915.068	914
915.167	36
915.267	913
915.366	629
915.465	536
915.564	933
915.663	999
915.763	439
915.862	1128
915.961	-92
916.060	421
916.159	1049
916.258	1275
916.357	920
916.456	119
916.555	609
916.654	573
916.752	535
916.851	552
916.950	842
917.049	936
917.148	165
917.247	431
917.345	358
917.444	822
917.543	1023
917.642	1262
917.740	452
917.839	1090
917.937	1217
918.036	833
918.135	825
918.233	1248
918.332	465
918.430	1489
918.529	121
918.627	1310
918.726	1250
918.824	1095
918.923	-566
919.021	293
919.119	1011
919.218	629
919.316	1189
919.414	929
919.512	932
919.611	553
919.709	730
919.807	1390
919.905	1112
920.003	1221
920.102	367
920.200	481
920.298	1345
920.396	1471
920.494	610
920.592	406
920.690	1011
920.788	975
920.886	1201
920.984	1640
921.082	174
921.180	1533
921.277	1128
921.375	1319
921.473	772
921.571	1486
921.669	1581
921.766	1078
921.864	1495
921.962	1638
922.060	569
922.157	1647
922.255	855
922.352	1127
922.450	804
922.548	1480
922.645	1733
922.743	2099
922.840	1990
922.938	2349
923.035	2511
923.133	1939
923.230	1959
923.327	3210
923.425	2644
923.522	2205
923.619	1709
923.717	1496
923.814	2596
923.911	1602
924.008	1877
924.106	2151
924.203	1521
924.300	1776
924.397	1777
924.494	2506
924.591	1979
924.688	2257
924.786	2718
924.883	2399
924.979	1974
925.077	1772
925.173	2526
925.270	2135
925.367	2186
925.464	2411
925.561	2003
925.658	2912
925.755	1861
925.852	2984
925.948	2935
926.045	2421
926.142	2005
926.239	1785
926.335	1831
926.432	2341
926.529	2238
926.625	2047
926.722	2019
926.818	2548
926.915	2212
927.011	1260
927.108	1499
927.204	1846
927.301	1975
927.397	2035
927.494	2046
927.590	1417
927.687	1398
927.783	1784
927.879	1944
927.976	1407
928.072	2213
928.168	2200
928.264	1361
928.361	1778
928.457	1796
928.553	1632
928.649	1859
928.745	1480
928.841	1598
928.937	2180
929.033	1493
929.129	1587
929.225	1461
929.321	2046
929.417	1279
929.513	1184
929.609	1668
929.705	1796
929.801	1955
929.897	970
929.993	825
930.089	1865
930.184	557
930.280	1440
930.376	2522
930.471	2145
930.567	1166
930.663	1961
930.758	959
930.854	1628
930.950	1002
931.045	1129
931.141	1519
931.236	1577
931.332	911
931.427	1515
931.523	1142
931.618	1761
931.714	678
931.809	1963
931.905	1761
932.000	994
932.095	1153
932.191	2220
932.286	1637
932.381	1391
932.476	707
932.572	1834
932.667	938
932.762	1447
932.857	1772
932.952	1612
933.047	2197
933.142	1192
933.237	1721
933.332	1433
933.427	1356
933.522	2316
933.617	1735
933.712	2368
933.807	903
933.902	1577
933.997	1684
934.092	1130
934.187	512
934.282	1781
934.376	2117
934.471	1244
934.566	1093
934.661	1443
934.755	1579
934.850	1090
934.945	1452
935.039	1242
935.134	1428
935.228	2094
935.323	1623
935.417	1500
935.512	702
935.606	1797
935.701	-60
935.795	1842
935.890	989
935.984	1926
936.079	574
936.173	2043
936.267	1117
936.362	1001
936.456	681
936.550	1900
936.644	1520
936.738	1806
936.833	1521
936.927	1135
937.021	365
937.115	1411
937.209	886
937.303	1662
937.397	697
937.491	996
937.585	1870
937.679	1760
937.773	1418
937.867	902
937.961	776
938.055	706
938.149	1508
938.243	1126
938.337	1017
938.430	837
938.524	998
938.618	1757
938.712	887
938.805	1535
938.899	1097
938.993	1811
939.086	363
939.180	1652
939.274	915
939.367	1397
939.461	1382
939.554	904
939.648	792
939.741	889
939.835	2042
939.928	1478
940.022	1088
940.115	1492
940.208	1288
940.302	1696
940.395	1585
940.488	445
940.582	1852
940.675	822
940.768	596
940.861	1687
940.954	1598
941.048	536
941.141	654
941.234	1139
941.327	1686
941.420	2500
941.513	1660
941.606	1321
941.699	1727
941.792	385
941.885	710
941.978	2072
942.071	679
942.164	318
942.257	900
942.349	910
942.442	899
942.535	987
942.628	1084
942.721	1567
942.813	-285
942.906	1519
942.999	940
943.091	34
943.184	165
943.277	155
943.369	438
943.462	1298
943.554	1039
943.647	477
943.739	2271
943.832	1863
943.924	-17
944.017	1429
944.109	98
944.201	1712
944.294	1512
944.386	977
944.478	729
944.571	1355
944.663	930
944.755	876
944.847	1300
944.940	831
945.032	725
945.124	1229
945.216	1368
945.308	653
945.400	1330
945.492	1229
945.584	670
945.676	1049
945.768	1031
945.860	1092
945.952	942
946.044	1128
946.136	839
946.228	293
946.320	627
946.412	355
946.503	379
946.595	917
946.687	-163
946.779	839
946.870	849
946.962	621
947.054	857
947.145	1133
947.237	883
947.329	1374
947.420	615
947.512	1017
947.603	209
947.695	1319
947.786	460
947.878	1254
947.969	875
948.061	659
948.152	101
948.243	1565
948.335	-53
948.426	686
948.517	344
948.609	1324
948.700	192
948.791	622
948.882	948
948.973	1152
949.065	-212
949.156	476
949.247	238
949.338	1185
949.429	-46
949.520	712
949.611	-925
949.702	738
949.793	319
949.884	321
949.975	212
950.066	783
950.157	365
950.247	288
950.338	470
950.429	515
950.520	605
950.611	697
950.701	788
950.792	-102
950.883	1068
950.973	292
951.064	912
951.155	1052
951.245	690
951.336	1041
951.427	-244
951.517	1954
951.608	950
951.698	546
951.788	-413
951.879	362
951.969	122
952.060	798
952.150	384
952.240	1236
952.331	9
952.421	1458
952.511	121
952.602	1329
952.692	113
952.782	667
952.872	517
952.962	322
953.052	224
953.143	172
953.233	346
953.323	589
953.413	410
953.503	364
953.593	233
953.683	394
953.773	-665
953.863	362
953.953	-110
954.042	743
954.132	-90
954.222	546
954.312	983
954.402	778
954.492	381
954.581	858
954.671	321
954.761	-608
954.850	1130
954.940	-371
955.030	-151
955.119	-467
955.209	608
955.298	-565
955.388	50
955.477	1092
955.567	-816
955.656	1498
955.746	-103
955.835	205
955.925	-564
956.014	960
956.103	384
956.193	1444
956.282	792
956.371	224
956.461	581
956.550	165
956.639	465
956.728	-597
956.817	852
956.906	568
956.995	719
957.085	3
957.174	157
957.263	-374
957.352	823
957.441	460
957.530	309
957.619	118
957.708	499
957.796	503
957.885	352
957.974	-69
958.063	-85
958.152	-506
958.241	98
958.329	696
958.418	607
958.507	-259
958.596	237
958.684	-96
958.773	-145
958.861	59
958.950	238
959.039	463
959.127	-125
959.216	801
959.304	-428
959.393	43
959.481	-105
959.570	435
959.658	-519
959.746	122
959.835	1528
959.923	890
960.011	458
960.100	1156
960.188	497
960.276	553
960.365	215
960.453	225
960.541	-929
960.629	467
960.717	-772
960.805	-230
960.893	-156
960.981	-286
961.069	906
961.158	31
961.245	447
961.333	182
961.421	284
961.509	877
961.597	672
961.685	101
961.773	47
961.861	-125
961.949	158
962.036	-390
962.124	795
962.212	-307
962.299	-679
962.387	-128
962.475	-496
962.562	-202
962.650	997
962.738	649
962.825	-159
962.913	88
963.000	-40
963.088	593
963.175	377
963.263	24
963.350	521
963.438	-92
963.525	-268
963.612	461
963.700	748
963.787	4123
963.874	1075
963.962	477
964.049	-94
964.136	-451
964.223	-1239
964.310	-363
964.398	29
964.485	-573
964.572	-3
964.659	1259
964.746	-357
964.833	-575
964.920	85
965.007	1116
965.094	175
965.181	-480
965.268	154
965.355	243
965.441	-196
965.528	0
965.615	186
965.702	645
965.789	-622
965.875	387
965.962	479
966.049	-460
966.136	-560
966.222	59
966.309	40
966.395	34
966.482	-982
966.569	152
966.655	-426
966.742	96
966.828	54
966.915	41
967.001	-342
967.087	-603
967.174	-72
967.260	60
967.347	-278
967.433	824
967.519	2665
967.605	333
967.692	-538
967.778	605
967.864	816
967.950	62
968.036	-409
968.123	-152
968.209	-452
968.295	-922
968.381	317
968.467	348
968.553	-1472
968.639	562
968.725	-138
968.811	397
968.897	924
968.983	-63
969.069	-985
969.154	68
969.240	-139
969.326	-24
969.412	-855
969.497	-265
969.583	-652
969.669	600
969.755	-213
969.840	24
969.926	284
970.012	-672
970.097	840
970.183	267
970.268	29
970.354	1256
970.439	-218
970.525	2113
970.610	-398
970.696	663
970.781	-572
970.866	-717
970.952	-144
971.037	-862
971.122	-568
971.208	573
971.293	-577
971.378	-664
971.463	28
971.549	-111
971.634	-342
971.719	142
971.804	2
971.889	737
971.974	-1560
972.059	-125
972.144	-209
972.229	-308
972.314	-625
972.399	46
972.484	-432
972.569	633
972.654	-669
972.739	1035
972.824	293
972.908	-50
972.993	-929
973.078	159
973.163	-347
973.247	56
973.332	-767
973.417	1594
973.501	-664
973.586	386
973.671	-503
973.755	423
973.840	88
973.924	853
974.009	362
974.093	-572
974.178	672
974.262	-165
974.346	-324
974.431	628
974.515	-1223
974.600	-673
974.684	-388
974.768	-729
974.852	1748
974.937	-698
975.021	-455
975.105	-185
975.189	-1022
975.273	157
975.358	-592
975.442	-557
975.526	-309
975.610	-595
975.694	-732
975.778	768
975.862	-731
975.946	-2168
976.030	183
976.114	189
976.198	-44
976.281	-286
976.365	584
976.449	-79
976.533	-464
976.617	-642
976.700	-733
976.784	-830
976.868	-1192
976.951	193
977.035	-1152
977.119	576
977.202	-699
977.286	429
977.369	-260
977.453	139
977.536	-1127
977.620	-321
977.703	176
977.787	-1072
977.870	19
977.953	-778
978.037	-1668
978.120	-133
978.203	-853
978.287	391
978.370	-408
978.453	-470
978.536	-768
978.620	-156
978.703	108
978.786	-402
978.869	-1228
978.952	-1854
979.035	380
979.118	241
979.201	-1520
979.284	350
979.367	-826
979.450	413
979.533	-1701
979.616	-273
979.699	-1232
979.782	-250
979.865	-848
979.948	-1278
980.030	-625
980.113	-201
980.196	-1385
980.279	-35
980.361	-1065
980.444	-396
980.526	174
980.609	-550
980.692	-678
980.774	-188
980.857	-1040
980.939	151
981.022	-1312
981.104	-876
981.187	-609
981.269	-133
981.352	-347
981.434	-1197
981.516	-1361
981.599	249
981.681	-725
981.763	348
981.846	-973
981.928	-687
982.010	-1107
982.092	-1214
982.174	28
982.256	-837
982.339	-1051
982.421	323
982.503	-448
982.585	-624
982.667	-538
982.749	-657
982.831	-744
982.913	-1424
982.995	258
983.077	-583
983.158	-89
983.240	-1880
983.322	124
983.404	-270
983.486	-836
983.568	-541
983.649	-838
983.731	-12
983.813	-515
983.894	-157
983.976	-1303
984.058	6
984.139	-127
984.221	-1419
984.302	63
984.384	-1063
984.465	-1199
984.547	-607
984.628	-1372
984.710	-604
984.791	-1269
984.872	-1155
984.954	-989
985.035	-278
985.116	-1523
985.198	-1067
985.279	-210
985.360	-1335
985.441	-1582
985.522	-742
985.604	-1868
985.685	-1683
985.766	-387
985.847	835
985.928	-1278
986.009	-68
986.090	-287
986.171	346
986.252	-1834
986.333	-752
986.414	-1151
986.495	-1101
986.576	-762
986.656	-209
986.737	-509
986.818	-651
986.899	-1358
986.980	-782
987.060	-548
987.141	-942
987.222	-189
987.302	-1190
987.383	-495
987.464	-969
987.544	697
987.625	-1869
987.705	-699
987.786	99
987.866	-1250
987.947	-308
988.027	-622
988.108	-737
988.188	-597
988.268	-217
988.349	-260
988.429	-204
988.509	-180
988.589	-389
988.670	-2715
988.750	497
988.830	-1045
988.910	-614
988.990	-719
989.070	118
989.151	-829
989.231	-1254
989.311	-513
989.391	88
989.471	-738
989.551	-550
989.631	-1867
989.711	189
989.791	-1007
989.870	-989
989.950	-355
990.030	-705
990.110	-1185
990.190	-1551
990.269	-1513
990.349	-805
990.429	71
990.509	285
990.588	-1300
990.668	-397
990.747	-962
990.827	-769
990.907	-413
990.986	-949
991.066	-1153
991.145	-395
991.225	-1108
991.304	-849
991.383	-355
991.463	-517
991.542	-675
991.622	-260
991.701	-1512
991.780	-1380
991.859	-1172
991.939	-222
992.018	-1380
992.097	-272
992.176	-882
992.256	-1244
992.335	-1379
992.414	-362
992.493	-1539
992.572	-767
992.651	-292
992.730	-783
992.809	-1216
992.888	-1144
992.967	-1919
993.046	-202
993.125	-1202
993.203	-309
993.282	-814
993.361	-627
993.440	-1091
993.519	-921
993.597	-274
993.676	-782
993.755	-914
993.834	-1014
993.912	-1456
993.991	450
994.069	-1881
994.148	-860
994.226	-817
994.305	-1002
994.384	-1400
994.462	-40
994.540	-1735
994.619	-1668
994.697	-864
994.776	-1606
994.854	-432
994.932	-1152
995.011	-1142
995.089	-947
995.167	-1082
995.245	-885
995.324	-1743
995.402	-53
995.480	-1403
995.558	-588
995.636	-1870
995.714	-878
995.792	-299
995.870	-1828
995.948	-1097
996.026	-727
996.104	-2604
996.182	-271
996.260	-1895
996.338	-894
996.416	-2322
996.494	-1699
996.572	-370
996.649	-1274
996.727	-2288
996.805	-835
996.883	-1254
996.960	-1173
997.038	-1400
997.116	-1109
997.193	-1530
997.271	-485
997.348	-717
997.426	-837
997.504	-2001
997.581	-1006
997.658	-871
997.736	-1902
997.813	-1376
997.891	-488
997.968	-1756
998.046	-8
998.123	-1731
998.200	-380
998.277	-2430
998.355	-270
998.432	-2875
998.509	-1429
998.586	-782
998.663	-257
998.741	-1283
998.818	-1679
998.895	-1545
998.972	-1129
999.049	-1200
999.126	-1407
999.203	-424
999.280	-573
999.357	-1604
999.434	-2101
999.511	-1492
999.587	-833
999.664	-2068
999.741	-842
999.818	-1157
999.895	-1754
999.971	-940
1000.048	-1035
1000.125	-1443
1000.202	-1953
1000.278	-1246
1000.355	-1054
1000.431	-1586
1000.508	-2149
1000.584	-1128
1000.661	-1420
1000.738	-1571
1000.814	-840
1000.890	-1095
1000.967	-1435
1001.043	-1239
1001.120	-2011
1001.196	-1187
1001.272	-1247
1001.349	-525
1001.425	-512
1001.501	-754
1001.577	-1094
1001.654	-1084
1001.730	-1918
1001.806	-1159
1001.882	-1847
1001.958	-1201
1002.034	-415
1002.110	-1491
1002.186	-485
1002.262	-744
1002.338	-1664
1002.414	-606
1002.490	-1164
1002.566	-1973
1002.642	-1600
1002.718	-1119
1002.794	-1058
1002.870	-1286
1002.945	-448
1003.021	-1268
1003.097	-467
1003.173	-595
1003.248	-1639
1003.324	-1546
1003.400	-1008
1003.475	-2129
1003.551	-1193
1003.626	-1239
1003.702	-1988
1003.777	-1212
1003.853	-2038
1003.928	-2383
1004.004	-1327
1004.079	-747
1004.155	-1764
1004.230	-2819
1004.305	-250
1004.381	-1597
1004.456	-829
1004.531	-1238
1004.607	-683
1004.682	-1428
1004.757	-1043
1004.832	-1693
1004.907	-1171
1004.982	-1747
1005.057	-1073
1005.133	-1844
1005.208	-1083
1005.283	-869
1005.358	-579
1005.433	-1813
1005.508	-297
1005.583	-1675
1005.657	-2147
1005.732	-1355
1005.807	-1149
1005.882	-1398
1005.957	-1735
1006.032	-1475
1006.106	-1846
1006.181	-1172
1006.256	-770
1006.331	-2199
1006.405	-2395
1006.480	-1868
1006.554	-973
1006.629	-1252
1006.704	-1316
1006.778	-795
1006.853	-706
1006.927	-2056
1007.002	-945
1007.076	-1912
1007.150	-1774
1007.225	-1990
1007.299	-1476
1007.373	-2870
1007.448	-1162
1007.522	-885
1007.596	-566
1007.671	-2084
1007.745	-380
1007.819	-2709
1007.893	-1145
1007.967	-561
1008.041	-1721
1008.115	-1302
1008.190	-1962
1008.264	-1003
1008.338	-2118
1008.412	-2430
1008.486	-1264
1008.560	-1608
1008.633	-2224
1008.707	-1168
1008.781	-1686
1008.855	-1357
1008.929	-1030
1009.003	-1660
1009.076	-1422
1009.150	-2127
1009.224	-1350
1009.298	-1312
1009.371	-1965
1009.445	-885
1009.519	-1511
1009.592	-2373
1009.666	-1242
1009.739	-1633
1009.813	-1755
1009.886	-1232
1009.960	-2790
1010.033	-742
1010.107	-1021
1010.180	-2264
1010.253	-2074
1010.327	-2178
1010.400	-1384
1010.473	-1991
1010.547	-138
1010.620	-1760
1010.693	-1153
1010.766	-1989
1010.840	-1456
1010.913	-2226
1010.986	-1586
1011.059	-929
1011.132	-1597
1011.205	-1600
1011.278	-1691
1011.351	-1866
1011.424	-1416
1011.497	-2550
1011.570	-503
1011.643	-1945
1011.716	-1463
1011.789	-1808
1011.862	-876
1011.934	-1473
1012.007	-2372
1012.080	-2051
1012.153	-1094
1012.225	-1438
1012.298	-1672
1012.371	-2313
1012.443	-1536
1012.516	-2177
1012.588	-1415
1012.661	-1623
1012.733	-2075
1012.806	-1022
1012.879	-1054
1012.951	-1351
1013.023	-1530
1013.096	-1685
1013.168	-1909
1013.241	-809
1013.313	-1473
1013.385	-1823
1013.458	-1717
1013.530	-1392
1013.602	-2666
1013.674	-1357
1013.746	-1791
1013.819	-2118
1013.891	-1927
1013.963	-2177
1014.035	-844
1014.107	-1227
1014.179	-950
1014.251	-2623
1014.323	-1426
1014.395	-1153
1014.467	-1413
1014.539	-1236
1014.611	-1534
1014.683	-1373
1014.754	-1414
1014.826	-2461
1014.898	-1376
1014.970	-2668
1015.042	-1024
1015.113	-1679
1015.185	-1855
1015.257	-2310
1015.328	-1783
1015.400	-2428
1015.471	-762
1015.543	-2420
1015.615	-1936
1015.686	-1940
1015.757	-1389
1015.829	-1499
1015.901	-2719
1015.972	-2165
1016.043	-1076
1016.115	-2088
1016.186	-1355
1016.257	-2094
1016.328	-848
1016.400	-1721
1016.471	-1959
1016.542	-2078
1016.613	-1651
1016.685	-2781
1016.756	-1695
1016.827	-1416
1016.898	-2188
1016.969	-1013
1017.040	-2014
1017.111	-1833
1017.182	-1838
1017.253	-1526
1017.324	-2169
1017.395	-2525
1017.466	-1245
1017.537	-1862
1017.608	-1209
1017.678	-1799
1017.749	-1652
1017.820	-2000
1017.891	-2296
1017.961	-1920
1018.032	-1547
1018.103	-1842
1018.173	-1084
1018.244	-2032
1018.315	-1857
1018.385	-1531
1018.456	-1353
1018.526	-2112
1018.597	-1888
1018.667	-1773
1018.738	-2071
1018.808	-2122
1018.878	-1818
1018.949	-1287
1019.019	-1871
1019.089	-1939
1019.160	-1382
1019.230	-2082
1019.300	-1460
1019.371	-2245
1019.441	-1451
1019.511	-1852
1019.581	-1249
1019.651	-1572
1019.721	-710
1019.791	-2141
1019.861	-1925
1019.931	-2147
1020.001	-2311
1020.071	-2617
1020.141	-1863
1020.211	-2382
1020.281	-1851
1020.351	-2458
1020.421	-1813
1020.491	-1568
1020.560	-1679
1020.630	-1847
1020.700	-2081
1020.770	-2243
1020.839	-1853
1020.909	-2245
1020.979	-1857
1021.048	-2044
1021.118	-1668
1021.187	-2075
1021.257	-1752
1021.326	-1872
1021.396	-2363
1021.465	-2909
1021.535	-1644
1021.604	-2076
1021.674	-2648
1021.743	-1897
1021.812	-1622
1021.882	-1761
1021.951	-1273
1022.020	-2259
1022.089	-1611
1022.159	-2302
1022.228	-1869
1022.297	-2230
1022.366	-1246
1022.435	-2554
1022.504	-1870
1022.573	-2385
1022.642	-1149
1022.711	-2404
1022.781	-1964
1022.849	-1648
1022.918	-1922
1022.987	-2147
1023.056	-1966
1023.125	-2023
1023.194	-1263
1023.263	-2697
1023.331	-1238
1023.400	-3707
1023.469	-1676
1023.538	-1831
1023.606	-1540
1023.675	-2203
1023.744	-2636
1023.812	-2485
1023.881	-1984
1023.949	-1825
1024.018	-1848
1024.086	-2253
1024.155	-2343
1024.223	-2870
1024.292	-2119
1024.360	-1311
1024.429	-2536
1024.497	-2183
1024.565	-1918
1024.634	-2287
1024.702	-1508
1024.770	-2431
1024.838	-1913
1024.907	-1790
1024.975	-2339
1025.043	-2083
1025.111	-2873
1025.179	-2069
1025.247	-2103
1025.315	-2563
1025.383	-1571
1025.451	-2255
1025.519	-2991
1025.587	-2611
1025.655	-1270
1025.723	-2706
1025.791	-1884
1025.859	-1658
1025.927	-1748
1025.995	-2130
1026.062	-1601
1026.130	-2325
1026.198	-2069
1026.266	-2331
1026.333	-2022
1026.401	-1590
1026.469	-2322
1026.536	-2100
1026.604	-1711
1026.671	-1578
1026.739	-1920
1026.806	-3076
1026.874	-1674
1026.941	-2278
1027.009	-2326
1027.076	-2500
1027.144	-1545
1027.211	-2761
1027.278	-2663
1027.345	-1180
1027.413	-1326
1027.480	-2672
1027.547	-1939
1027.614	-2721
1027.682	-2063
1027.749	-2494
1027.816	-2275
1027.883	-1941
1027.950	-1949
1028.017	-2462
1028.084	-1655
1028.151	-2088
1028.218	-1756
1028.285	-2087
1028.352	-2262
1028.419	-2352
1028.486	-2066
1028.553	-2166
1028.619	-2359
1028.686	-2139
1028.753	-2553
1028.820	-1889
1028.886	-2581
1028.953	-1689
1029.020	-2995
1029.086	-1781
1029.153	-2085
1029.220	-2635
1029.286	-2202
1029.353	-1254
1029.419	-2757
1029.486	-1515
1029.552	-1874
1029.619	-1941
1029.685	-2070
1029.751	-2092
1029.818	-184
1029.884	-2994
1029.951	-1767
1030.017	-1652
1030.083	-2107
1030.149	-1549
1030.216	-2589
1030.282	-1814
1030.348	-2080
1030.414	-1698
1030.480	-2670
1030.546	-1936
1030.612	-1420
1030.678	-2268
1030.744	-2145
1030.810	-1693
1030.876	-2390
1030.942	-2905
1031.008	-1934
1031.074	-2168
1031.140	-1889
1031.206	-2192
1031.272	-2421
1031.337	-2014
1031.403	-2349
1031.469	-2388
1031.534	-1885
1031.600	-1740
1031.666	-2511
1031.731	-2539
1031.797	-1843
1031.863	-2147
1031.928	-3546
1031.994	-2082
1032.059	-1834
1032.125	-2588
1032.190	-2003
1032.256	-2335
1032.321	-2098
1032.386	-2228
1032.452	-1579
1032.517	-1660
1032.582	-2006
1032.647	-1772
1032.713	-2135
1032.778	-2045
1032.843	-1999
1032.908	-1829
1032.974	-1639
1033.039	-2481
1033.104	-1363
1033.169	-2574
1033.234	-1305
1033.299	-1572
1033.364	-1439
1033.429	-2081
1033.494	-1285
1033.559	-2544
1033.624	-1945
1033.688	-1817
1033.753	-1614
1033.818	-2125
1033.883	-1756
1033.948	-2060
1034.013	-1404
1034.077	-2025
1034.142	-1397
1034.207	-2247
1034.271	-569
1034.336	-1518
1034.400	-842
1034.465	-1404
1034.530	-1704
1034.594	-2335
1034.658	-2596
1034.723	-2627
1034.787	-1535
1034.852	-2396
1034.916	-1485
1034.981	-2075
1035.045	-1896
1035.109	-2912
1035.173	-1578
1035.238	-2142
1035.302	-1571
1035.366	-2354
1035.430	-1439
1035.495	-3045
1035.559	-2365
1035.623	-1849
1035.687	-1998
1035.751	-2529
1035.815	-2673
1035.879	-2095
1035.943	-838
1036.007	-3033
1036.071	-1728
1036.135	-1959
1036.198	-2248
1036.262	-2404
1036.326	-1336
1036.390	-2062
1036.454	-2146
1036.517	-1375
1036.581	-1257
1036.645	-1082
1036.709	-1315
1036.772	-1090
1036.836	-2567
1036.900	-1620
1036.963	-2747
1037.026	-2144
1037.090	-2141
1037.154	-2158
1037.217	-1440
1037.280	-2647
1037.344	-2247
1037.407	-2382
1037.471	-2425
1037.534	-2449
1037.597	-2445
1037.661	-1670
1037.724	-1121
1037.787	-2394
1037.850	-2182
1037.913	-2581
1037.977	-1681
1038.040	-3084
1038.103	-1936
1038.166	-2391
1038.229	-1481
1038.292	-2125
1038.355	-1809
1038.418	-2451
1038.481	-2021
1038.544	-2381
1038.607	-1898
1038.670	-1328
1038.732	-1719
1038.795	-2460
1038.858	-2586
1038.921	-2366
1038.984	-1927
1039.046	-2733
1039.109	-2716
1039.172	-2965
1039.234	-2474
1039.297	-2484
1039.360	-2153
1039.422	-1862
1039.485	-1965
1039.547	-2780
1039.610	-1757
1039.672	-2349
1039.734	-1826
1039.797	-2144
1039.859	-1792
1039.922	-1990
1039.984	-2381
1040.046	-2289
1040.109	-2162
1040.171	-2904
1040.233	-1460
1040.295	-2715
1040.358	-2711
1040.420	-2285
1040.482	-2610
1040.544	-2658
1040.606	-1725
1040.668	-2072
1040.730	-2474
1040.792	-2424
1040.854	-2491
1040.916	-1921
1040.978	-1839
1041.040	-2148
1041.102	-1866
1041.164	-2637
1041.225	-3421
1041.287	-3332
1041.349	-2731
1041.411	-2207
1041.472	-2268
1041.534	-2933
1041.596	-2769
1041.657	-2961
1041.719	-1647
1041.781	-2703
1041.842	-1813
1041.904	-2763
1041.965	-1098
1042.027	-2006
1042.088	-2906
1042.150	-2495
1042.211	-1855
1042.272	-1887
1042.334	-2111
1042.395	-2857
1042.456	-1821
1042.518	-2468
1042.579	-1291
1042.640	-2336
1042.701	-2168
1042.763	-1956
1042.824	-2292
1042.885	-2158
1042.946	-2670
1043.007	-2553
1043.068	-3290
1043.129	-2282
1043.190	-2198
1043.251	-1796
1043.312	-1891
1043.373	-2605
1043.434	-1933
1043.495	-1849
1043.556	-2383
1043.616	-2413
1043.677	-2618
1043.738	-3126
1043.799	-2472
1043.859	-2447
1043.920	-1958
1043.981	-2099
1044.041	-3030
1044.102	-2397
1044.162	-952
1044.223	-2524
1044.284	-2026
1044.344	-1925
1044.405	-2184
1044.465	-1894
1044.525	-2091
1044.586	-2352
1044.646	-1439
1044.707	-2333
1044.767	-1905
1044.827	-2048
1044.887	-2002
1044.948	-2130
1045.008	-1381
1045.068	-2331
1045.128	-735
1045.188	-1635
1045.249	-1356
1045.309	-2293
1045.369	-1353
1045.429	-1567
1045.489	-1391
1045.549	-2008
1045.609	-1623
1045.669	-2713
1045.729	-2186
1045.789	-2014
1045.848	-2026
1045.908	-1996
1045.968	-1159
1046.028	-1740
1046.088	-1633
1046.147	-1005
1046.207	-2157
1046.267	-2139
1046.326	-1011
1046.386	-1723
1046.446	-1469
1046.505	-1426
1046.565	-1193
1046.624	-978
1046.684	-1030
1046.743	-1449
1046.803	-736
1046.862	-939
1046.922	0
