'Start Wavelength	183.907
'End Wavelength	1046.922
'Gate Delay	5.000
'Gate Width (ms)	1.050
'Laser Output Level	0.000
'X Position	0.000
'Y Position	0.000
'Z Position	0.000
'Grid Point Number	1.000
'Shot Number	100.000
183.907	-164.000
183.977	-193.000
184.047	398
184.116	428
184.186	505
184.256	83
184.325	243
184.395	-615
184.465	1338
184.534	199
184.604	-22
184.674	-156
184.743	-478
184.813	473
184.883	-75
184.952	394
185.022	1035
185.092	406
185.161	-81
185.231	111
185.301	-2
185.370	398
185.440	447
185.509	407
185.579	219
185.649	349
185.718	105
185.788	636
185.857	288
185.927	-865
185.996	868
186.066	567
186.136	-548
186.205	119
186.275	938
186.344	500
186.414	-366
186.483	137
186.553	1565
186.622	588
186.692	-6
186.761	-279
186.831	531
186.900	96
186.970	337
187.039	276
187.109	2056
187.178	871
187.248	589
187.317	1182
187.387	358
187.456	835
187.526	101
187.595	1490
187.664	394
187.734	888
187.803	666
187.873	731
187.942	1086
188.012	926
188.081	632
188.150	241
188.220	896
188.289	1181
188.358	244
188.428	817
188.497	823
188.567	1144
188.636	171
188.705	431
188.775	270
188.844	217
188.913	1052
188.983	703
189.052	768
189.121	621
189.191	710
189.260	1496
189.329	1013
189.399	1178
189.468	-185
189.537	865
189.606	1258
189.676	-288
189.745	293
189.814	870
189.883	152
189.953	356
190.022	393
190.091	1099
190.161	2523
190.230	1893
190.299	871
190.368	197
190.437	-312
190.507	704
190.576	640
190.645	478
190.714	28
190.783	247
190.853	1139
190.922	1021
190.991	906
191.060	791
191.129	35
191.198	1038
191.268	209
191.337	269
191.406	1345
191.475	720
191.544	26
191.613	738
191.682	1236
191.752	797
191.821	1061
191.890	1225
191.959	864
192.028	956
192.097	698
192.166	1197
192.235	297
192.304	868
192.373	388
192.442	672
192.511	608
192.580	563
192.650	597
192.719	915
192.788	695
192.857	1101
192.926	1216
192.995	198
193.064	646
193.133	1770
193.202	1681
193.271	1692
193.340	1284
193.409	2046
193.478	1784
193.547	1798
193.615	2948
193.684	3054
193.753	1424
193.822	1865
193.891	1778
193.960	578
194.029	547
194.098	1212
194.167	94
194.236	866
194.305	731
194.374	1055
194.443	1420
194.512	1018
194.580	1116
194.649	1617
194.718	1478
194.787	1199
194.856	249
194.925	742
194.994	1055
195.062	647
195.131	1525
195.200	1755
195.269	2073
195.338	1532
195.407	1763
195.475	815
195.544	1557
195.613	1123
195.682	859
195.751	1620
195.819	1392
195.888	1520
195.957	2393
196.026	1900
196.094	1998
196.163	1692
196.232	1897
196.301	1946
196.369	1151
196.438	1819
196.507	363
196.576	1429
196.644	390
196.713	951
196.782	643
196.850	872
196.919	1369
196.988	1083
197.056	458
197.125	1223
197.194	863
197.262	918
197.331	712
197.400	1178
197.468	600
197.537	1279
197.606	625
197.674	1516
197.743	1576
197.812	695
197.880	1890
197.949	1357
198.017	1612
198.086	1141
198.155	1278
198.223	573
198.292	2495
198.360	1459
198.429	725
198.497	597
198.566	871
198.635	2449
198.703	915
198.772	1595
198.840	2368
198.909	2238
198.977	777
199.046	1878
199.114	1742
199.183	1613
199.251	448
199.320	775
199.388	375
199.457	804
199.525	312
199.594	1218
199.662	738
199.731	1102
199.799	781
199.867	1538
199.936	885
200.004	1587
200.073	1251
200.141	887
200.210	-165
200.278	1
200.346	2020
200.415	1540
200.483	1241
200.552	1707
200.620	351
200.688	1083
200.757	1123
200.825	1262
200.893	1317
200.962	895
201.030	488
201.098	718
201.167	2329
201.235	735
201.303	412
201.372	2349
201.440	1984
201.508	1927
201.577	1864
201.645	1037
201.713	1987
201.781	1419
201.850	1946
201.918	920
201.986	1401
202.055	1310
202.123	1028
202.191	863
202.259	1227
202.327	1396
202.396	785
202.464	1499
202.532	2193
202.600	4386
202.669	3455
202.737	1292
202.805	799
202.873	1529
202.941	556
203.009	1208
203.078	1924
203.146	1844
203.214	1203
203.282	1022
203.350	2168
203.418	1566
203.487	1133
203.555	1687
203.623	887
203.691	1669
203.759	94
203.827	1241
203.895	1239
203.963	1463
204.031	872
204.099	1398
204.168	507
204.236	1924
204.304	2196
204.372	859
204.440	1719
204.508	1436
204.576	572
204.644	1107
204.712	464
204.780	995
204.848	1705
204.916	498
204.984	924
205.052	630
205.120	1008
205.188	1385
205.256	422
205.324	1057
205.392	863
205.460	2052
205.528	1192
205.596	1284
205.664	1115
205.732	1149
205.799	2871
205.867	4229
205.935	1930
206.003	1607
206.071	1234
206.139	1267
206.207	1911
206.275	1400
206.343	901
206.411	1273
206.478	1946
206.546	1602
206.614	1601
206.682	1638
206.750	1205
206.818	2210
206.885	2061
206.953	613
207.021	2126
207.089	1748
207.157	1098
207.225	1932
207.292	1532
207.360	1647
207.428	1978
207.496	1759
207.563	1994
207.631	2224
207.699	1199
207.767	1459
207.834	1297
207.902	1733
207.970	1377
208.038	1810
208.105	1103
208.173	1879
208.241	2016
208.309	2116
208.376	1224
208.444	3169
208.512	1761
208.579	950
208.647	1980
208.715	2877
208.782	1353
208.850	1978
208.918	1793
208.985	1964
209.053	1432
209.120	1679
209.188	2041
209.256	1866
209.323	1126
209.391	2285
209.459	3105
209.526	1548
209.594	1749
209.661	1561
209.729	1829
209.796	2138
209.864	2676
209.932	1502
209.999	2546
210.067	2303
210.134	2780
210.202	2167
210.269	3194
210.337	3041
210.404	1519
210.472	2432
210.539	1899
210.607	1899
210.674	2786
210.742	1985
210.809	1598
210.877	2075
210.944	2724
211.012	2215
211.079	3303
211.146	1991
211.214	1718
211.281	2526
211.349	2224
211.416	2476
211.484	3359
211.551	1840
211.618	1767
211.686	2238
211.753	1914
211.821	2058
211.888	2147
211.955	2687
212.023	1961
212.090	2089
212.157	2259
212.225	2309
212.292	3980
212.359	5364
212.427	8916
212.494	6024
212.561	3103
212.629	2986
212.696	2742
212.763	3562
212.831	2172
212.898	2371
212.965	1766
213.032	2593
213.100	2680
213.167	2074
213.234	2501
213.301	2532
213.369	1704
213.436	2862
213.503	2248
213.570	2537
213.638	3287
213.705	2673
213.772	2234
213.839	3242
213.906	4050
213.973	3451
214.041	1394
214.108	3141
214.175	2583
214.242	3468
214.309	2117
214.376	2008
214.444	2077
214.511	3508
214.578	2480
214.645	3961
214.712	3165
214.779	3383
214.846	2317
214.913	4552
214.980	3475
215.048	3742
215.115	4062
215.182	4170
215.249	2672
215.316	2792
215.383	3070
215.450	3284
215.517	3201
215.584	2574
215.651	2013
215.718	2435
215.785	3341
215.852	3030
215.919	3810
215.986	3636
216.053	2085
216.120	1693
216.187	2184
216.254	3570
216.321	2421
216.388	2918
216.455	3185
216.522	3838
216.589	3967
216.656	5194
216.722	4917
216.789	4443
216.856	3613
216.923	3601
216.990	3626
217.057	3955
217.124	4528
217.191	4391
217.258	4936
217.324	6406
217.391	6100
217.458	4650
217.525	4132
217.592	3220
217.659	2193
217.725	4250
217.792	3731
217.859	4895
217.926	2692
217.993	2782
218.059	3344
218.126	2536
218.193	2370
218.260	2459
218.327	2084
218.393	2997
218.460	2116
218.527	1475
218.594	2484
218.660	3162
218.727	5218
218.794	2045
218.860	2722
218.927	1757
218.994	1585
219.061	2629
219.127	2646
219.194	3809
219.261	2516
219.327	2423
219.394	2517
219.461	838
219.527	1716
219.594	3607
219.661	2467
219.727	1058
219.794	2687
219.860	1740
219.927	2306
219.994	3980
220.060	5274
220.127	5441
220.193	3820
220.260	3812
220.326	5463
220.393	7210
220.460	8377
220.526	6310
220.593	4734
220.659	5511
220.726	4460
220.792	7098
220.859	8357
220.925	11121
220.992	13426
221.058	11581
221.125	10058
221.191	7599
221.258	3649
221.324	3990
221.391	3241
221.457	2740
221.524	2903
221.590	3374
221.657	7815
221.723	5941
221.789	4823
221.856	5603
221.922	3556
221.989	3474
222.055	2587
222.121	1873
222.188	5357
222.254	3243
222.321	2813
222.387	1812
222.453	1893
222.520	2379
222.586	2028
222.652	2526
222.719	1923
222.785	3353
222.851	2067
222.918	2540
222.984	2682
223.050	3274
223.116	1514
223.183	3255
223.249	2006
223.315	1517
223.382	1604
223.448	2272
223.514	1469
223.580	1388
223.647	1442
223.713	2133
223.779	2039
223.845	1778
223.911	1877
223.978	1177
224.044	2129
224.110	1690
224.176	2795
224.242	1718
224.309	956
224.375	2152
224.441	1270
224.507	1680
224.573	1331
224.639	2986
224.705	929
224.772	2214
224.838	1316
224.904	3217
224.970	1967
225.036	1669
225.102	973
225.168	2121
225.234	1932
225.300	1567
225.366	2287
225.432	2181
225.499	1738
225.565	2330
225.631	2071
225.697	3054
225.763	2929
225.829	3170
225.895	3961
225.961	5561
226.027	3908
226.093	3567
226.159	5048
226.225	7978
226.291	13843
226.357	19489
226.423	13482
226.489	8780
226.554	5941
226.620	5009
226.686	6402
226.752	10381
226.818	13915
226.884	23140
226.950	22370
227.016	11138
227.082	7899
227.148	6127
227.214	6202
227.279	5094
227.345	4650
227.411	4295
227.477	4027
227.543	8605
227.609	9312
227.674	6585
227.740	4473
227.806	4088
227.872	2995
227.938	3496
228.003	5213
228.069	3302
228.135	2767
228.201	3239
228.267	2303
228.332	3961
228.398	3498
228.464	2754
228.530	1328
228.595	2546
228.661	2335
228.727	3874
228.792	4984
228.858	2768
228.924	1960
228.990	5156
229.055	2930
229.121	4425
229.187	2309
229.252	3321
229.318	2023
229.384	2862
229.449	3180
229.515	1596
229.581	428
229.646	3661
229.712	3194
229.777	5131
229.843	5400
229.909	5332
229.974	6072
230.040	5443
230.105	3492
230.171	3885
230.236	5503
230.302	6790
230.368	5369
230.433	3917
230.499	4179
230.564	6450
230.630	4132
230.695	3682
230.761	3531
230.826	1646
230.892	4510
230.957	3336
231.023	1747
231.088	3058
231.154	2621
231.219	3402
231.284	3048
231.350	4593
231.415	3006
231.481	3410
231.546	2071
231.612	2784
231.677	2303
231.742	1893
231.808	3061
231.873	1671
231.939	1244
232.004	5196
232.069	4812
232.135	2656
232.200	3022
232.265	2769
232.331	2589
232.396	2454
232.461	1390
232.527	1309
232.592	2252
232.657	1370
232.723	3507
232.788	3199
232.853	3239
232.918	2245
232.984	1447
233.049	1843
233.114	2100
233.179	3841
233.245	3756
233.310	5211
233.375	1388
233.440	2784
233.506	1426
233.571	1859
233.636	1953
233.701	2506
233.766	3314
233.832	4937
233.897	2714
233.962	2171
234.027	4737
234.092	4035
234.157	2271
234.222	3142
234.288	4034
234.353	8183
234.418	7549
234.483	6715
234.548	6080
234.613	4213
234.678	5260
234.743	3918
234.808	9876
234.873	6449
234.938	5024
235.004	4148
235.069	3172
235.134	2699
235.199	2702
235.264	3733
235.329	1941
235.394	3704
235.459	4511
235.524	3142
235.589	3661
235.654	2766
235.719	2152
235.784	3049
235.849	3006
235.913	5032
235.978	5262
236.043	6849
236.108	3022
236.173	2803
236.238	4138
236.303	3374
236.368	3135
236.433	5449
236.498	6626
236.563	6718
236.627	10315
236.692	28854
236.757	27689
236.822	13459
236.887	9487
236.952	8258
237.017	5638
237.081	8026
237.146	8361
237.211	17861
237.276	28869
237.341	41019
237.405	26682
237.470	12834
237.535	8683
237.600	6480
237.664	5824
237.729	4769
237.794	5899
237.859	12130
237.923	8649
237.988	4886
238.053	6421
238.118	6239
238.182	10050
238.247	11525
238.312	6086
238.376	5556
238.441	2866
238.506	5342
238.570	2392
238.635	4438
238.700	2866
238.764	2785
238.829	5532
238.893	6586
238.958	4763
239.023	5325
239.087	3185
239.152	3415
239.216	2248
239.281	4111
239.346	3449
239.410	3766
239.475	3226
239.539	9323
239.604	7923
239.668	4787
239.733	3782
239.797	6007
239.862	13230
239.926	12973
239.991	5729
240.055	3481
240.120	3783
240.184	3646
240.249	2819
240.313	3447
240.378	2661
240.442	6720
240.507	10232
240.571	4499
240.635	5042
240.700	7237
240.764	4707
240.829	3609
240.893	1200
240.957	4045
241.022	6218
241.086	10896
241.151	5342
241.215	2427
241.279	4916
241.344	5648
241.408	4655
241.472	4144
241.537	6059
241.601	5394
241.665	4193
241.730	3901
241.794	5084
241.858	4374
241.922	3732
241.987	4803
242.051	3157
242.115	3918
242.179	4659
242.244	3056
242.308	4604
242.372	4243
242.436	4726
242.501	4981
242.565	3808
242.629	3816
242.693	3893
242.757	3777
242.822	3955
242.886	4643
242.950	3776
243.014	3610
243.078	4198
243.142	5023
243.206	3585
243.271	4232
243.335	3960
243.399	6744
243.463	14458
243.527	37417
243.591	15029
243.655	8038
243.719	4033
243.783	6293
243.847	8409
243.911	10964
243.975	11618
244.040	9951
244.104	7109
244.168	4068
244.232	6758
244.296	9497
244.360	9606
244.424	6286
244.488	5010
244.552	5032
244.615	2582
244.679	3551
244.743	4952
244.807	5578
244.871	3835
244.935	4468
244.999	3288
245.063	3877
245.127	5197
245.191	7163
245.255	7484
245.319	5788
245.383	5170
245.446	5373
245.510	3828
245.574	4927
245.638	6078
245.702	3975
245.766	9449
245.829	7305
245.893	4546
245.957	4315
246.021	5455
246.085	5410
246.149	5569
246.212	12473
246.276	18649
246.340	11361
246.404	7473
246.467	7179
246.531	8542
246.595	7190
246.659	6646
246.722	5452
246.786	8716
246.850	7546
246.913	8661
246.977	4688
247.041	4856
247.104	6172
247.168	4753
247.232	11334
247.295	22998
247.359	14785
247.423	6647
247.486	11721
247.550	7981
247.614	6457
247.677	9120
247.741	6251
247.804	4399
247.868	5779
247.932	10612
247.995	23010
248.059	11048
248.122	5527
248.186	8051
248.249	12755
248.313	32996
248.376	37427
248.440	26643
248.503	11700
248.567	10710
248.630	12895
248.694	18485
248.757	22195
248.821	37292
248.884	29000
248.948	23149
249.011	32289
249.075	40512
249.138	41307
249.202	20127
249.265	12090
249.328	12802
249.392	10086
249.455	10604
249.519	7454
249.582	9126
249.645	13842
249.709	11088
249.772	8089
249.835	7571
249.899	7933
249.962	7218
250.025	6861
250.089	14644
250.152	23568
250.215	13214
250.279	9254
250.342	8917
250.405	8962
250.468	7471
250.532	9253
250.595	14635
250.658	35163
250.721	58030
250.785	27404
250.848	15419
250.911	11245
250.974	9099
251.038	12509
251.101	22875
251.164	13522
251.227	14622
251.290	13278
251.354	16810
251.417	46975
251.480	53274
251.543	40209
251.606	79286
251.669	70787
251.732	34538
251.795	33301
251.859	33218
251.922	56795
251.985	40890
252.048	19225
252.111	15082
252.174	13360
252.237	23459
252.300	44150
252.363	45918
252.426	71343
252.489	38087
252.552	22572
252.615	15742
252.678	16618
252.741	33015
252.804	41516
252.867	72425
252.930	54564
252.993	32690
253.056	20584
253.119	16258
253.182	13192
253.245	17664
253.308	16404
253.371	14924
253.434	14486
253.497	14074
253.559	22613
253.622	17781
253.685	21773
253.748	26051
253.811	12709
253.874	12990
253.937	12889
254.000	10836
254.062	16110
254.125	24928
254.188	24917
254.251	21822
254.314	10460
254.376	17201
254.439	21368
254.502	18921
254.565	17121
254.628	30401
254.690	21099
254.753	12977
254.816	10073
254.878	9699
254.941	16476
255.004	19156
255.067	9176
255.129	10431
255.192	7217
255.255	5380
255.317	8123
255.380	6580
255.443	3785
255.505	4142
255.568	3866
255.631	4585
255.693	6487
255.756	4847
255.819	5209
255.881	4052
255.944	4357
256.006	3598
256.069	4313
256.132	3643
256.194	6321
256.257	10339
256.319	8574
256.382	7436
256.444	7454
256.507	6016
256.569	5136
256.632	5075
256.694	8163
256.757	18156
256.819	51822
256.882	25136
256.944	11925
257.007	10481
257.069	10158
257.132	6860
257.194	6763
257.257	5400
257.319	5889
257.381	7014
257.444	14622
257.506	51573
257.569	69514
257.631	35493
257.693	20740
257.756	10714
257.818	8666
257.880	6727
257.943	7507
258.005	5364
258.067	5848
258.130	5739
258.192	6436
258.254	12276
258.317	7986
258.379	6354
258.441	12149
258.503	13058
258.566	12167
258.628	16445
258.690	6550
258.753	7204
258.815	13463
258.877	8791
258.939	5681
259.001	5624
259.064	5802
259.126	5389
259.188	7364
259.250	6244
259.312	7388
259.375	15085
259.437	12962
259.499	6299
259.561	5349
259.623	5939
259.685	6312
259.747	5873
259.809	11124
259.872	21305
259.934	27952
259.996	36075
260.058	14385
260.120	5720
260.182	5581
260.244	5130
260.306	4262
260.368	5176
260.430	5162
260.492	11087
260.554	21187
260.616	11975
260.678	17546
260.740	23848
260.802	8519
260.864	8404
260.926	6443
260.988	6636
261.050	5770
261.112	14737
261.174	32046
261.236	19768
261.298	8452
261.359	10570
261.421	15025
261.483	6713
261.545	6401
261.607	3954
261.669	5035
261.731	6620
261.793	17275
261.854	10692
261.916	7252
261.978	7226
262.040	8704
262.102	5320
262.164	7403
262.225	6667
262.287	5630
262.349	12518
262.411	11059
262.472	5681
262.534	5415
262.596	13155
262.658	6056
262.719	4433
262.781	6394
262.843	12108
262.904	7874
262.966	5764
263.028	7071
263.090	21390
263.151	61968
263.213	27754
263.275	20019
263.336	9434
263.398	6413
263.459	3667
263.521	5032
263.583	10754
263.644	9155
263.706	5192
263.767	3395
263.829	4482
263.891	3014
263.952	2707
264.014	3384
264.075	7419
264.137	22072
264.198	10937
264.260	4188
264.321	5379
264.383	10596
264.444	29865
264.506	10985
264.567	7062
264.629	11416
264.690	25575
264.752	12018
264.813	6621
264.875	4877
264.936	5656
264.998	5487
265.059	3593
265.120	4022
265.182	7400
265.243	27837
265.305	34465
265.366	9379
265.427	6420
265.489	5428
265.550	3542
265.611	5522
265.673	4948
265.734	5698
265.795	3232
265.857	2713
265.918	3813
265.979	9494
266.040	41157
266.102	43835
266.163	14210
266.224	13365
266.286	7261
266.347	4545
266.408	4995
266.469	5469
266.530	4404
266.592	4513
266.653	8092
266.714	15748
266.775	5566
266.836	5242
266.898	3818
266.959	8429
267.020	7421
267.081	5677
267.142	3565
267.203	4160
267.264	3900
267.326	5803
267.387	3599
267.448	3749
267.509	4041
267.570	4147
267.631	3187
267.692	3100
267.753	3169
267.814	3337
267.875	6838
267.936	16761
267.997	11848
268.058	10519
268.119	5664
268.180	5499
268.241	4339
268.302	4426
268.363	3236
268.424	4666
268.485	5009
268.546	3490
268.607	3384
268.668	3381
268.729	2626
268.790	3588
268.851	4349
268.912	11553
268.972	14995
269.033	9002
269.094	4081
269.155	3851
269.216	2937
269.277	4259
269.338	2632
269.398	4580
269.459	4544
269.520	7764
269.581	9415
269.642	12573
269.702	7498
269.763	5900
269.824	4776
269.885	5751
269.945	10443
270.006	4835
270.067	3393
270.128	3211
270.188	2823
270.249	3816
270.310	3490
270.370	4002
270.431	3281
270.492	3029
270.553	3914
270.613	9443
270.674	17176
270.734	9804
270.795	5244
270.856	6871
270.916	7044
270.977	4312
271.038	4857
271.098	6030
271.159	9332
271.219	9486
271.280	4348
271.340	4106
271.401	4359
271.462	9319
271.522	6965
271.583	5136
271.643	5102
271.704	4700
271.764	5798
271.825	13000
271.885	37847
271.946	52469
272.006	21146
272.066	24045
272.127	40176
272.187	16516
272.248	9789
272.308	9343
272.369	24347
272.429	16877
272.489	13673
272.550	16412
272.610	14775
272.671	12585
272.731	9020
272.791	14348
272.852	10246
272.912	8320
272.972	6288
273.033	4388
273.093	7527
273.153	10713
273.214	6616
273.274	7626
273.334	21047
273.394	40773
273.455	21014
273.515	16587
273.575	35429
273.635	17566
273.696	17728
273.756	35949
273.816	18887
273.876	10802
273.936	13705
273.997	26307
274.057	9401
274.117	8080
274.177	11626
274.237	42969
274.297	42917
274.358	25241
274.418	28234
274.478	26104
274.538	11499
274.598	7388
274.658	16615
274.718	25578
274.778	12517
274.838	6991
274.898	11185
274.958	31819
275.018	33478
275.078	26347
275.138	11912
275.198	7083
275.258	5111
275.318	6735
275.378	12754
275.438	16588
275.498	9664
275.558	13635
275.618	31428
275.678	26398
275.738	19016
275.798	17744
275.858	10381
275.918	5899
275.978	7576
276.038	7360
276.098	5250
276.157	10225
276.217	29862
276.277	15179
276.337	11408
276.397	6609
276.457	8512
276.517	6178
276.576	5141
276.636	4562
276.696	8520
276.756	17162
276.815	15002
276.875	7246
276.935	7553
276.995	8313
277.055	3874
277.114	5327
277.174	7326
277.234	22720
277.293	11645
277.353	7514
277.413	5210
277.472	6142
277.532	6787
277.592	6302
277.651	18022
277.711	36196
277.771	14078
277.830	39681
277.890	38069
277.950	22229
278.009	57581
278.069	26852
278.128	23473
278.188	39051
278.248	18376
278.307	37214
278.367	27035
278.426	9279
278.486	6956
278.545	5073
278.605	5517
278.664	5189
278.724	5727
278.783	12418
278.843	35544
278.902	12857
278.962	8551
279.021	9492
279.081	9059
279.140	8984
279.199	8834
279.259	9080
279.318	8437
279.378	11340
279.437	18801
279.496	54495
279.556	126083
279.615	114270
279.675	35667
279.734	21672
279.793	29427
279.853	44689
279.912	20789
279.971	11548
280.031	10521
280.090	16758
280.149	33008
280.208	25743
280.268	85980
280.327	100775
280.386	28323
280.445	22854
280.505	24183
280.564	12118
280.623	10694
280.682	13315
280.742	21470
280.801	8631
280.860	6496
280.919	6678
280.978	6493
281.037	5690
281.097	4244
281.156	5457
281.215	4772
281.274	6246
281.333	22283
281.392	20434
281.451	6081
281.510	5165
281.569	4795
281.628	4184
281.688	4005
281.747	4711
281.806	5819
281.865	4232
281.924	4095
281.983	5061
282.042	3205
282.101	3618
282.160	4228
282.219	3233
282.278	4439
282.337	14399
282.396	12427
282.454	5909
282.513	6763
282.572	24101
282.631	16877
282.690	5799
282.749	5400
282.808	6933
282.867	6422
282.926	7412
282.985	4101
283.043	4293
283.102	4030
283.161	5334
283.220	11047
283.279	25379
283.338	9446
283.396	5836
283.455	5792
283.514	7191
283.573	11032
283.631	8560
283.690	5717
283.749	5911
283.808	11855
283.866	15585
283.925	6783
283.984	6467
284.043	8618
284.101	9815
284.160	7086
284.219	9867
284.277	9893
284.336	11768
284.395	32777
284.453	30812
284.512	13285
284.570	17952
284.629	17053
284.688	14770
284.746	15978
284.805	20048
284.863	24081
284.922	32241
284.981	38433
285.039	54642
285.098	84478
285.156	150207
285.215	161993
285.273	159333
285.332	168250
285.390	111057
285.449	70956
285.507	49414
285.566	37127
285.624	28117
285.683	22511
285.741	18922
285.799	15556
285.858	14368
285.916	13268
285.975	10748
286.033	8681
286.091	8692
286.150	7300
286.208	8062
286.267	8304
286.325	8394
286.383	13072
286.442	11701
286.500	6942
286.558	5614
286.616	5368
286.675	8693
286.733	7854
286.791	6905
286.850	7391
286.908	9788
286.966	16348
287.024	8318
287.083	5392
287.141	4812
287.199	5943
287.257	8345
287.315	6594
287.374	6567
287.432	16739
287.490	12398
287.548	6727
287.606	6033
287.664	5877
287.723	7446
287.781	11221
287.839	6759
287.897	6648
287.955	9216
288.013	11481
288.071	23164
288.129	72153
288.187	183417
288.245	105172
288.303	36654
288.361	21435
288.419	16637
288.477	12176
288.535	9134
288.593	7613
288.651	6981
288.709	4377
288.767	5097
288.825	6011
288.883	4529
288.941	4128
288.999	4464
289.057	5249
289.115	4227
289.173	4275
289.231	5162
289.289	4517
289.346	4681
289.404	5892
289.462	8641
289.520	11505
289.578	5810
289.636	3575
289.694	3636
289.751	3965
289.809	3442
289.867	3905
289.925	5794
289.983	7090
290.040	3759
290.098	3219
290.156	5181
290.214	6532
290.271	4856
290.329	2945
290.387	3610
290.444	3296
290.502	2978
290.560	3595
290.617	3733
290.675	3919
290.733	3907
290.790	4355
290.848	4153
290.906	4317
290.963	4962
291.021	4156
291.078	4284
291.136	4812
291.194	13296
291.251	34741
291.309	11749
291.366	4852
291.424	5024
291.481	5404
291.539	4844
291.596	3801
291.654	3873
291.711	3149
291.769	4322
291.826	9832
291.884	6950
291.941	3934
291.999	5351
292.056	4975
292.114	5921
292.171	4449
292.228	5320
292.286	6276
292.343	10604
292.401	13207
292.458	8945
292.515	5874
292.573	7864
292.630	6807
292.687	6472
292.745	5738
292.802	7523
292.859	19724
292.917	29806
292.974	19612
293.031	7012
293.089	5732
293.146	4982
293.203	4083
293.260	4518
293.318	5898
293.375	11136
293.432	6663
293.489	5254
293.546	4814
293.604	7340
293.661	15340
293.718	41926
293.775	28567
293.832	13956
293.889	10483
293.947	9527
294.004	7155
294.061	8533
294.118	14459
294.175	31423
294.232	43500
294.289	19777
294.346	10527
294.403	9761
294.460	7152
294.517	6049
294.574	5863
294.631	6098
294.688	7032
294.745	14793
294.802	45759
294.859	61432
294.916	26575
294.973	14513
295.030	12210
295.087	10983
295.144	8106
295.201	7299
295.258	6280
295.315	8407
295.372	16799
295.429	33641
295.486	18248
295.542	12721
295.599	24441
295.656	48164
295.713	32164
295.770	36025
295.827	16599
295.883	9509
295.940	8786
295.997	14155
296.054	13438
296.111	8301
296.167	5989
296.224	4879
296.281	5277
296.338	4873
296.394	4810
296.451	6714
296.508	14690
296.564	33222
296.621	25469
296.678	36708
296.734	59248
296.791	26979
296.848	13993
296.904	15285
296.961	29324
297.018	38823
297.074	33344
297.131	14470
297.187	9908
297.244	13605
297.301	31044
297.357	61348
297.414	26609
297.470	11324
297.527	8321
297.583	7423
297.640	8630
297.696	7164
297.753	6690
297.809	5155
297.866	3864
297.922	4949
297.979	3925
298.035	5389
298.092	9394
298.148	21124
298.204	24452
298.261	14451
298.317	20076
298.374	48431
298.430	32114
298.486	14620
298.543	10343
298.599	9995
298.656	11317
298.712	17707
298.768	38536
298.824	28879
298.881	10953
298.937	7790
298.993	7146
299.050	9828
299.106	8829
299.162	7964
299.218	7817
299.275	6922
299.331	7874
299.387	13018
299.443	36902
299.500	49540
299.556	23691
299.612	12104
299.668	10944
299.724	14735
299.780	17613
299.837	10444
299.893	12482
299.949	34503
300.005	49818
300.061	37363
300.117	60593
300.173	34377
300.229	16992
300.285	19082
300.341	22996
300.397	13231
300.453	7964
300.510	7084
300.566	8193
300.622	10394
300.678	25313
300.734	47393
300.790	38924
300.845	43479
300.901	30269
300.957	41433
301.013	35426
301.069	14693
301.125	9808
301.181	11567
301.237	9169
301.293	6656
301.349	5865
301.405	5744
301.461	5950
301.516	7568
301.572	7448
301.628	15474
301.684	14277
301.740	15371
301.796	26471
301.851	20277
301.907	30398
301.963	33913
302.019	41889
302.074	97751
302.130	110089
302.186	55282
302.242	24720
302.297	16139
302.353	15638
302.409	25708
302.464	25439
302.520	20567
302.576	41525
302.631	52700
302.687	33473
302.743	15608
302.798	8719
302.854	8575
302.910	8494
302.965	10208
303.021	18702
303.076	17673
303.132	20410
303.187	26205
303.243	15271
303.299	8834
303.354	6743
303.410	7088
303.465	6174
303.521	6503
303.576	6373
303.632	8463
303.687	13197
303.743	33162
303.798	34618
303.853	15490
303.909	9353
303.964	8274
304.020	12938
304.075	21367
304.130	18741
304.186	31006
304.241	33118
304.297	27426
304.352	14903
304.358	14456
304.407	10831
304.449	9498
304.463	9056
304.518	10377
304.539	10007
304.573	9399
304.629	9790
304.630	9842
304.684	12680
304.720	21809
304.739	26357
304.794	42291
304.811	36833
304.850	23732
304.902	12152
304.905	11415
304.960	9135
304.992	8179
305.015	7487
305.071	9368
305.083	9215
305.126	8604
305.173	6203
305.181	5822
305.236	5851
305.264	6166
305.292	6473
305.347	8207
305.354	8301
305.402	8969
305.445	9482
305.457	9616
305.512	10498
305.535	11056
305.567	11820
305.622	12397
305.626	12634
305.678	18554
305.716	31691
305.733	36265
305.788	45528
305.807	40004
305.843	30565
305.897	33662
305.898	33665
305.953	38339
305.988	26895
306.008	20676
306.063	15025
306.078	13720
306.118	10535
306.168	7227
306.173	6929
306.228	6297
306.259	6299
306.283	6445
306.338	5688
306.349	5801
306.393	6244
306.440	6986
306.448	7125
306.503	8108
306.530	8353
306.558	10410
306.613	22387
306.620	24290
306.668	35017
306.711	40812
306.723	40946
306.778	34052
306.801	26780
306.833	18518
306.888	11065
306.892	10681
306.943	7482
306.982	7043
306.997	6892
307.052	6217
307.072	6023
307.107	6535
307.162	9492
307.163	9546
307.217	15304
307.253	18296
307.272	18769
307.327	20130
307.343	18727
307.381	15625
307.434	12806
307.436	13064
307.491	24192
307.524	35821
307.546	38714
307.600	38491
307.614	34354
307.655	21829
307.704	12442
307.710	12072
307.765	13022
307.795	16281
307.819	19775
307.874	31626
307.885	32032
307.929	26138
307.975	17850
307.984	17530
308.038	20972
308.065	25188
308.093	39995
308.148	80058
308.156	88893
308.202	133327
308.246	167232
308.257	165625
308.312	100067
308.336	74208
308.366	56861
308.421	38162
308.426	36443
308.475	24205
308.517	17852
308.530	16520
308.585	13839
308.607	13075
308.639	13244
308.694	14891
308.697	15072
308.748	26109
308.787	38630
308.803	38515
308.857	30710
308.877	25721
308.912	21084
308.967	18657
308.967	18677
309.021	25341
309.058	31281
309.076	38122
309.130	64899
309.148	75415
309.185	121042
309.238	195125
309.239	195629
309.293	214791
309.328	205715
309.348	183135
309.402	99553
309.418	78001
309.457	55998
309.508	36486
309.511	35960
309.566	34532
309.598	35602
309.620	41974
309.674	62175
309.688	67793
309.729	65414
309.778	54292
309.783	52978
309.837	36408
309.868	28375
309.892	32039
309.946	44600
309.959	48974
310.001	61299
310.049	72042
310.055	69870
310.109	42716
310.139	27079
310.163	21653
310.218	13968
310.229	12729
310.272	10305
310.319	8487
310.326	8349
310.381	7795
310.409	7691
310.435	7679
310.489	7297
310.499	7353
310.543	7539
310.589	7603
310.598	7621
310.652	7865
310.679	7979
310.706	7454
310.760	6203
310.769	5985
310.814	5079
310.859	4458
310.868	4459
310.923	4389
310.948	4628
310.977	5677
311.031	7375
311.038	7627
311.085	6805
311.128	5919
311.139	5988
311.193	6296
311.218	6414
311.247	6017
311.301	5307
311.308	5246
311.356	5469
311.398	5554
311.410	5470
311.464	5156
311.488	4990
311.518	5186
311.572	5548
311.578	5607
311.626	7654
311.668	9495
311.680	9437
311.734	8975
311.758	8799
311.788	8542
311.842	8058
311.847	8014
311.896	11646
311.937	14927
311.950	14633
312.004	13256
312.027	12602
312.058	10140
312.112	5803
312.117	5386
312.165	5716
312.207	6031
312.297	10284
312.386	7363
312.476	7168
312.566	14704
312.656	6979
312.745	4502
312.835	6249
312.925	7420
313.015	5995
313.104	6763
313.194	4686
313.284	5639
313.374	8132
313.463	7368
313.553	5307
313.643	4221
313.732	4257
313.822	3919
313.912	5901
314.001	6999
314.091	8474
314.180	11200
314.270	9392
314.360	10546
314.449	8393
314.539	5174
314.628	5862
314.718	7246
314.808	9151
314.897	4871
314.987	6143
315.076	6974
315.166	10554
315.255	9078
315.345	9173
315.434	8920
315.524	8838
315.613	9229
315.703	12143
315.792	14822
315.881	40254
315.971	15986
316.060	17341
316.150	27429
316.239	27437
316.328	10322
316.418	5805
316.507	6058
316.597	8672
316.686	7643
316.775	12403
316.865	28241
316.954	7203
317.043	5011
317.133	5485
317.222	5113
317.311	5735
317.400	4002
317.490	8492
317.579	9560
317.668	7199
317.757	10252
317.847	22019
317.936	69769
318.025	31539
318.114	19037
318.203	13411
318.293	16717
318.382	33216
318.471	25005
318.560	33052
318.649	63844
318.738	14113
318.828	10579
318.917	10768
319.006	12714
319.095	32038
319.184	78316
319.273	42116
319.362	21387
319.451	7983
319.540	7697
319.629	18105
319.718	29222
319.807	14669
319.896	25510
319.985	91069
320.074	32276
320.163	11778
320.252	18282
320.341	15973
320.430	14416
320.519	17339
320.608	9676
320.697	8360
320.786	9355
320.875	11774
320.964	13605
321.053	20891
321.142	29262
321.230	31196
321.319	24055
321.408	56701
321.497	24091
321.586	23116
321.675	28241
321.764	26438
321.852	17977
321.941	32581
322.030	20951
322.119	24264
322.207	55647
322.296	42883
322.385	22842
322.474	24587
322.562	65315
322.651	35672
322.740	26158
322.829	35336
322.917	38485
323.006	21248
323.095	17344
323.183	14169
323.272	20504
323.361	33661
323.449	93765
323.538	32541
323.626	69876
323.715	42323
323.804	19333
323.892	66730
323.981	35395
324.069	13155
324.158	36660
324.246	33874
324.335	13304
324.424	19480
324.512	8244
324.601	11444
324.689	18837
324.778	33497
324.866	27335
324.954	8574
325.043	8402
325.131	17940
325.220	31044
325.308	34983
325.397	25080
325.485	14811
325.574	5849
325.662	5230
325.750	6546
325.839	6270
325.927	5160
326.015	7818
326.104	12586
326.192	17033
326.280	6299
326.369	6818
326.457	9054
326.545	16032
326.634	7259
326.722	4923
326.810	5335
326.898	5225
326.987	5979
327.075	15429
327.163	16704
327.251	9455
327.340	11910
327.428	16677
327.516	5324
327.604	5644
327.692	6261
327.781	7239
327.869	13522
327.957	9270
328.045	7136
328.133	4431
328.221	7281
328.309	5682
328.397	5193
328.485	7673
328.574	9821
328.662	33293
328.750	18913
328.838	8950
328.926	5554
329.014	5016
329.102	8043
329.190	23686
329.278	13759
329.366	4581
329.454	4173
329.542	3864
329.630	3470
329.718	4733
329.806	6232
329.893	7053
329.981	6967
330.069	9377
330.157	27361
330.245	74806
330.333	37936
330.421	9364
330.509	11827
330.597	40204
330.684	25710
330.772	11357
330.860	16323
330.948	22907
331.036	8685
331.123	4890
331.211	4983
331.299	7840
331.387	18395
331.475	31985
331.562	9641
331.650	4864
331.738	6204
331.825	10503
331.913	4736
332.001	4463
332.089	7692
332.176	16079
332.264	36965
332.352	27807
332.439	9789
332.527	6680
332.614	5786
332.702	8772
332.790	6081
332.877	17623
332.965	37008
333.052	10517
333.140	10758
333.228	24913
333.315	7357
333.403	7384
333.490	22957
333.578	20005
333.665	29847
333.753	13606
333.840	5526
333.928	8309
334.015	23847
334.103	31815
334.190	93584
334.278	25281
334.365	13644
334.452	11123
334.540	7039
334.627	9879
334.715	14401
334.802	25527
334.889	115344
334.977	106714
335.064	19203
335.151	10357
335.239	9394
335.326	13476
335.413	48140
335.501	61474
335.588	10119
335.675	7279
335.762	10823
335.850	19660
335.937	14053
336.024	33843
336.111	129397
336.199	58762
336.286	14617
336.373	7455
336.460	5270
336.547	5483
336.635	8148
336.722	7030
336.809	7041
336.896	10723
336.983	33204
337.070	76231
337.157	96028
337.245	75879
337.332	50953
337.419	8478
337.506	5821
337.593	9297
337.680	26909
337.767	80315
337.854	22832
337.941	27340
338.028	31217
338.115	11473
338.202	13486
338.289	22740
338.376	77470
338.463	25184
338.550	46161
338.637	46674
338.724	17294
338.811	27249
338.898	6318
338.984	5502
339.071	8031
339.158	8737
339.245	22334
339.332	13382
339.419	19714
339.506	17924
339.593	4361
339.679	5678
339.766	4091
339.853	7691
339.940	14734
340.027	5653
340.113	5512
340.200	8581
340.287	6353
340.374	8392
340.460	12983
340.547	6116
340.634	11392
340.720	38620
340.807	19692
340.894	4996
340.980	5872
341.067	4587
341.154	6232
341.240	9159
341.327	18593
341.414	7436
341.500	7371
341.587	6274
341.674	4503
341.760	13476
341.847	14314
341.933	5818
342.020	2009
342.106	2749
342.193	5798
342.279	9850
342.366	7056
342.452	13561
342.539	7778
342.625	17229
342.712	39852
342.798	16674
342.885	6604
342.971	3135
343.058	2382
343.144	3071
343.230	3454
343.317	4342
343.403	3438
343.490	2541
343.576	3169
343.662	4211
343.749	5520
343.835	7167
343.921	12355
344.008	59083
344.094	123440
344.180	28075
344.267	13513
344.353	41017
344.439	44656
344.525	20243
344.612	7465
344.698	8188
344.784	4423
344.870	3779
344.957	4154
345.043	8013
345.129	5475
345.215	12166
345.301	7057
345.387	4981
345.474	2819
345.560	4007
345.646	5861
345.732	5436
345.818	6156
345.904	5309
345.990	5549
346.076	6564
346.162	13122
346.249	6871
346.335	3685
346.421	5764
346.507	16384
346.593	53536
346.679	12850
346.765	6084
346.851	4566
346.937	4876
347.023	4244
347.108	5434
347.194	4706
347.280	4414
347.366	6555
347.452	19018
347.538	63928
347.624	50107
347.710	43041
347.796	9020
347.882	5001
347.967	5376
348.053	7983
348.139	5118
348.225	3815
348.311	3894
348.397	3273
348.482	6487
348.568	6680
348.654	3512
348.740	7026
348.825	6546
348.911	9606
348.997	29830
349.083	57562
349.168	10896
349.254	5587
349.340	6196
349.425	3568
349.511	6822
349.597	7981
349.682	15540
349.768	41992
349.854	19083
349.939	6389
350.025	3955
350.110	3303
350.196	3797
350.282	2449
350.367	4092
350.453	8420
350.538	9111
350.624	7339
350.709	7546
350.795	2292
350.880	3804
350.966	6122
351.051	9076
351.137	6925
351.222	4278
351.308	14360
351.393	39529
351.479	10185
351.564	5122
351.649	3750
351.735	4108
351.820	3077
351.906	4375
351.991	6480
352.076	25764
352.162	35766
352.247	8093
352.332	5139
352.418	12174
352.503	14787
352.588	57530
352.673	44589
352.759	10207
352.844	5642
352.929	6382
353.014	8537
353.100	6796
353.185	10690
353.270	15122
353.355	14245
353.441	5284
353.526	6081
353.611	14473
353.696	15767
353.781	9753
353.866	3854
353.952	5381
354.037	12703
354.122	31171
354.207	27297
354.292	9098
354.377	4930
354.462	4129
354.547	6099
354.632	7052
354.717	10706
354.802	12807
354.887	5146
354.972	4150
355.057	3040
355.142	2267
355.227	4605
355.312	9702
355.397	19951
355.482	46890
355.567	21037
355.652	17010
355.737	17395
355.822	48160
355.907	36120
355.991	7237
356.076	3872
356.161	5345
356.246	3723
356.331	5010
356.416	10885
356.501	71240
356.585	68977
356.670	12412
356.755	8652
356.840	13364
356.924	54199
357.009	169549
357.094	63385
357.179	17410
357.263	10710
357.348	12527
357.433	11349
357.517	10653
357.602	7619
357.687	6437
357.771	9666
357.856	21764
357.941	15012
358.025	39673
358.110	153972
358.195	69912
358.279	13176
358.364	10971
358.448	37005
358.533	95359
358.617	68022
358.702	65909
358.787	24807
358.871	15351
358.956	11999
359.040	4515
359.125	2587
359.209	4438
359.294	10501
359.378	16063
359.462	11590
359.547	8208
359.631	5957
359.716	3339
359.800	5039
359.885	9753
359.969	5290
360.053	5570
360.138	5215
360.222	8253
360.306	14133
360.391	10405
360.475	16041
360.559	34368
360.644	36672
360.728	25711
360.812	40772
360.896	102220
360.981	49798
361.065	28727
361.149	8714
361.233	8656
361.318	6478
361.402	7517
361.486	6624
361.570	5337
361.654	6323
361.739	18622
361.823	69831
361.907	99399
361.991	19770
362.075	14157
362.159	28219
362.243	22570
362.327	23314
362.411	31237
362.495	16159
362.580	8270
362.664	5840
362.748	5552
362.832	7279
362.916	13873
363.000	49052
363.084	118362
363.168	125807
363.252	32633
363.336	13782
363.420	19525
363.503	67968
363.587	73666
363.671	14328
363.755	10864
363.839	15684
363.923	8190
364.007	16306
364.091	19452
364.175	28887
364.258	106328
364.342	81531
364.426	107310
364.510	56161
364.594	25427
364.677	26261
364.761	91247
364.845	60088
364.929	25737
365.013	21558
365.096	17435
365.180	20296
365.264	28960
365.347	101041
365.431	44002
365.515	13497
365.598	6992
365.682	6288
365.766	14350
365.849	17770
365.933	9130
366.017	11973
366.100	9900
366.184	3919
366.267	5635
366.351	4445
366.435	4272
366.518	2759
366.602	3888
366.685	4665
366.769	5884
366.852	13143
366.936	21017
367.019	10949
367.103	10476
367.186	20368
367.270	5408
367.353	2723
367.436	4951
367.520	3508
367.603	6505
367.687	8478
367.770	17210
367.853	10895
367.937	31004
368.020	47915
368.104	11862
368.187	13729
368.270	19095
368.353	17550
368.437	23659
368.520	57179
368.603	32075
368.687	39127
368.770	65852
368.853	17053
368.936	19785
369.020	20737
369.103	7559
369.186	4965
369.269	5735
369.352	12812
369.436	18540
369.519	11053
369.602	5588
369.685	6894
369.768	6798
369.851	5789
369.934	4693
370.018	6209
370.101	15182
370.184	12238
370.267	10322
370.350	16600
370.433	23779
370.516	52010
370.599	62277
370.682	22028
370.765	40492
370.848	46055
370.931	79392
371.014	32664
371.097	7442
371.180	4867
371.263	4591
371.346	2972
371.429	5130
371.511	4204
371.594	10439
371.677	17715
371.760	21449
371.843	15089
371.926	60033
372.009	125625
372.091	43527
372.174	32130
372.257	69771
372.340	27292
372.423	30085
372.505	34649
372.588	14622
372.671	27292
372.754	78492
372.836	37876
372.919	35929
373.002	68515
373.085	19611
373.167	15270
373.250	37033
373.332	70797
373.415	90215
373.498	173625
373.580	66479
373.663	91160
373.746	112176
373.828	28630
373.911	15220
373.993	16591
374.076	65782
374.159	57869
374.241	25751
374.324	69432
374.406	43058
374.489	51967
374.571	142135
374.654	57580
374.736	31211
374.819	89027
374.901	126679
374.983	122509
375.066	23686
375.148	11958
375.231	49969
375.313	96032
375.395	37070
375.478	9301
375.560	7785
375.643	9749
375.725	29816
375.807	114719
375.890	96464
375.972	49683
376.054	27704
376.136	46032
376.219	18957
376.301	34738
376.383	96067
376.465	35320
376.548	27148
376.630	30794
376.712	85989
376.794	36800
376.877	6009
376.959	3599
377.041	6750
377.123	16670
377.205	20054
377.287	4334
377.369	3943
377.452	3959
377.534	3961
377.616	4352
377.698	4361
377.780	2317
377.862	4853
377.944	4922
378.026	3196
378.108	3574
378.190	3271
378.272	4001
378.354	3102
378.436	3159
378.518	9177
378.600	33822
378.682	25111
378.764	49476
378.846	36170
378.928	11853
379.010	17265
379.091	9052
379.173	4729
379.255	3483
379.337	7569
379.419	24171
379.501	66960
379.583	25494
379.664	7779
379.746	18425
379.828	49655
379.910	64987
379.991	53993
380.073	9975
380.155	7612
380.237	5642
380.318	4548
380.400	4830
380.482	12408
380.564	18261
380.645	18124
380.727	16746
380.809	9751
380.890	6634
380.972	4430
381.053	5100
381.135	7179
381.217	17370
381.298	52447
381.380	24893
381.461	21394
381.543	87335
381.624	100149
381.706	18794
381.787	13578
381.869	13064
381.951	37859
382.032	131197
382.113	83893
382.195	22062
382.276	16780
382.358	31289
382.439	77168
382.521	83482
382.602	124758
382.684	60724
382.765	118394
382.846	141803
382.928	217191
383.009	115376
383.090	82373
383.172	288450
383.253	401696
383.334	140052
383.416	127870
383.497	65056
383.578	38455
383.659	72803
383.741	245689
383.822	551927
383.903	280833
383.984	105331
384.066	155677
384.147	93432
384.228	23222
384.309	18424
384.390	14179
384.471	10416
384.553	12282
384.634	17181
384.715	16985
384.796	9128
384.877	11520
384.958	44647
385.039	54026
385.120	19583
385.201	10818
385.282	13902
385.363	15851
385.444	12767
385.525	20299
385.606	60722
385.687	48910
385.768	16534
385.849	20314
385.930	66081
386.011	104373
386.092	28821
386.173	9803
386.254	8516
386.335	9898
386.416	9964
386.496	31591
386.577	50174
386.658	20465
386.739	12862
386.820	13794
386.901	11545
386.981	9701
387.062	6618
387.143	13180
387.224	48443
387.304	46223
387.385	18677
387.466	14289
387.547	17435
387.627	11654
387.708	20107
387.789	82313
387.869	91599
387.950	25598
388.031	6481
388.111	6887
388.192	22863
388.273	33459
388.353	17568
388.434	9243
388.514	16171
388.595	67382
388.676	88614
388.756	47015
388.837	47618
388.917	28277
388.998	6314
389.078	7303
389.159	6283
389.239	5034
389.320	10762
389.400	8825
389.480	20730
389.561	50694
389.641	23773
389.722	10547
389.802	17006
389.883	21910
389.963	56847
390.043	37590
390.124	15029
390.204	19600
390.284	57376
390.365	35412
390.445	48209
390.525	96166
390.605	73166
390.686	27677
390.766	10281
390.846	6625
390.927	3720
391.007	5832
391.087	7107
391.167	6816
391.247	5530
391.328	12880
391.408	19698
391.488	14103
391.568	3930
391.648	7957
391.728	11776
391.808	11994
391.888	11857
391.969	29093
392.049	44782
392.129	22345
392.209	23939
392.289	55554
392.369	31764
392.449	35612
392.529	21191
392.609	16097
392.689	19775
392.769	55253
392.849	45640
392.929	41128
393.009	87310
393.089	64939
393.169	63642
393.248	183073
393.328	550152
393.408	561251
393.488	184759
393.568	60800
393.648	30450
393.728	18733
393.807	13370
393.887	13186
393.967	11260
394.047	12370
394.127	14589
394.206	20181
394.286	62377
394.366	259469
394.446	264535
394.525	61422
394.605	18461
394.685	18965
394.764	44433
394.844	76935
394.924	51204
395.003	14899
395.083	10389
395.163	9287
395.242	7944
395.322	8986
395.402	4995
395.481	10330
395.561	30870
395.640	84046
395.720	63921
395.799	86420
395.879	60397
395.958	29599
396.038	90401
396.117	338344
396.197	353832
396.276	115385
396.356	44458
396.435	37826
396.515	25127
396.594	29980
396.673	55837
396.753	186116
396.832	505378
396.912	379771
396.991	103859
397.070	32247
397.150	18018
397.229	13702
397.308	20542
397.388	34989
397.467	16073
397.546	7654
397.625	4277
397.705	9232
397.784	9451
397.863	6287
397.942	3901
398.022	6108
398.101	25814
398.180	76116
398.259	39188
398.338	10688
398.417	5947
398.497	5555
398.576	5934
398.655	2884
398.734	4475
398.813	5277
398.892	23325
398.971	78235
399.050	35425
399.129	4455
399.208	3749
399.287	4270
399.366	2346
399.445	3853
399.524	3767
399.603	2550
399.682	8177
399.761	24441
399.840	80441
399.919	58495
399.998	8952
400.077	2768
400.156	2105
400.235	6043
400.313	3476
400.392	6355
400.471	27002
400.550	43077
400.629	10451
400.708	6530
400.786	6646
400.865	21684
400.944	22732
401.023	10377
401.102	1685
401.180	1478
401.259	3315
401.338	5350
401.416	5620
401.495	5474
401.574	5261
401.652	4318
401.731	6631
401.810	5429
401.888	2908
401.967	2007
402.046	2676
402.124	6222
402.203	8397
402.281	5301
402.360	7004
402.438	26388
402.517	16945
402.596	6107
402.674	5790
402.753	3659
402.831	2677
402.910	5266
402.988	19728
403.066	62421
403.145	33886
403.223	21295
403.302	50385
403.380	37318
403.459	37487
403.537	14868
403.615	5416
403.694	2118
403.772	2237
403.850	2524
403.929	1296
404.007	2321
404.085	7720
404.164	7893
404.242	2668
404.320	4309
404.398	9390
404.477	23016
404.555	104800
404.633	85180
404.711	13099
404.789	5266
404.868	3244
404.946	3049
405.024	1610
405.102	1562
405.180	1856
405.258	1039
405.336	2376
405.415	2813
405.493	8951
405.571	7916
405.649	2070
405.727	1908
405.805	6258
405.883	5843
405.961	5663
406.039	8285
406.117	2877
406.195	5906
406.273	25035
406.351	96008
406.429	55575
406.507	11358
406.585	4096
406.663	3444
406.740	5676
406.818	4488
406.896	2217
406.974	4017
407.052	8292
407.130	57733
407.208	75836
407.285	15016
407.363	2607
407.441	3491
407.519	2898
407.596	3839
407.674	9647
407.752	28487
407.830	31632
407.907	15195
407.985	5362
408.063	3217
408.141	1909
408.218	7601
408.296	5458
408.373	4037
408.451	4704
408.529	4152
408.606	2043
408.684	1643
408.762	796
408.839	570
408.917	1247
408.994	1998
409.072	1468
409.149	2169
409.227	5578
409.304	7048
409.382	5240
409.459	5993
409.537	9733
409.614	8304
409.692	4413
409.769	5767
409.846	9488
409.924	14223
410.001	8293
410.079	5952
410.156	4269
410.233	3716
410.311	2240
410.388	2707
410.465	3762
410.543	4509
410.620	2588
410.697	4510
410.775	4226
410.852	1528
410.929	4866
411.006	7176
411.083	4143
411.161	10061
411.238	11823
411.315	6346
411.392	1722
411.469	5820
411.547	5434
411.624	2650
411.701	2958
411.778	4294
411.855	8482
411.932	4315
412.009	2196
412.086	2298
412.163	3566
412.240	4109
412.317	5467
412.394	5168
412.471	1761
412.548	1558
412.625	1468
412.702	4338
412.779	8813
412.856	5977
412.933	2121
413.010	1507
413.087	4163
413.164	25961
413.241	34714
413.318	8598
413.395	5716
413.471	8338
413.548	4238
413.625	2507
413.702	2474
413.779	3310
413.855	1009
413.932	911
414.009	353
414.086	1732
414.162	2030
414.239	5233
414.316	24906
414.393	53315
414.469	16509
414.546	2161
414.623	1349
414.699	1640
414.776	3062
414.853	2010
414.929	2205
415.006	2485
415.082	3743
415.159	2948
415.236	1346
415.312	3173
415.389	5486
415.465	7072
415.542	3322
415.618	2031
415.695	5141
415.771	3739
415.848	2903
415.924	3132
416.000	1982
416.077	2231
416.153	-448
416.230	115
416.306	640
416.383	1061
416.459	949
416.535	809
416.612	447
416.688	943
416.764	1755
416.841	1093
416.917	1437
416.993	2462
417.069	2986
417.146	3834
417.222	4829
417.298	3795
417.374	1419
417.451	2965
417.527	2826
417.603	4325
417.679	2707
417.755	2044
417.831	602
417.908	1113
417.984	419
418.060	1221
418.136	6562
418.212	9619
418.288	2284
418.364	1962
418.440	1444
418.516	4706
418.592	8436
418.668	13921
418.744	17797
418.820	12181
418.896	2833
418.972	1441
419.048	2197
419.124	9050
419.200	4881
419.276	1450
419.352	514
419.428	1364
419.504	2197
419.579	3648
419.655	2307
419.731	2773
419.807	11851
419.883	20026
419.959	12503
420.034	4544
420.110	7977
420.186	33834
420.262	24290
420.337	5107
420.413	3317
420.489	1917
420.565	1984
420.640	2534
420.716	2404
420.792	829
420.867	2470
420.943	2203
421.019	6200
421.094	4185
421.170	2625
421.245	1588
421.321	2523
421.397	2106
421.472	5735
421.548	15559
421.623	11644
421.699	5089
421.774	5019
421.850	4851
421.925	9592
422.001	9154
422.076	7185
422.152	8937
422.227	14549
422.302	18187
422.378	25409
422.453	49635
422.529	111376
422.604	258921
422.679	335743
422.755	264745
422.830	119088
422.905	49898
422.981	27250
423.056	17841
423.131	13121
423.207	10222
423.282	9642
423.357	15236
423.432	9430
423.508	10191
423.583	19373
423.658	13879
423.733	6258
423.808	7003
423.883	7505
423.959	6964
424.034	5686
424.109	4802
424.184	2187
424.259	2270
424.334	2328
424.409	1683
424.484	1863
424.559	2953
424.634	1659
424.709	4329
424.784	4595
424.859	3248
424.934	5831
425.009	25573
425.084	39712
425.159	14617
425.234	2771
425.309	1379
425.384	3547
425.459	6432
425.534	3178
425.609	2712
425.683	1685
425.758	1899
425.833	2891
425.908	3910
425.983	14684
426.058	42128
426.132	16685
426.207	4285
426.282	8066
426.357	6600
426.431	2198
426.506	2657
426.581	2378
426.655	2350
426.730	2014
426.805	1970
426.879	2668
426.954	2909
427.029	7736
427.103	37135
427.178	84037
427.253	34833
427.327	4507
427.402	6969
427.476	14293
427.551	5373
427.625	3987
427.700	3919
427.774	1493
427.849	4219
427.923	1144
427.998	1945
428.072	2643
428.147	9255
428.221	35396
428.296	92626
428.370	44015
428.444	7824
428.519	10130
428.593	21117
428.667	17322
428.742	21855
428.816	19470
428.890	66845
428.965	90978
429.039	30304
429.113	23680
429.188	8354
429.262	1750
429.336	7072
429.410	20602
429.485	12912
429.559	17041
429.633	13836
429.707	3764
429.781	14455
429.855	77155
429.930	105037
430.004	58930
430.078	89466
430.152	73710
430.226	111216
430.300	103056
430.374	17555
430.448	7581
430.522	27749
430.596	78403
430.670	46870
430.744	99783
430.818	130504
430.892	24820
430.966	5662
431.040	3090
431.114	1538
431.188	1709
431.262	2914
431.336	2404
431.410	9528
431.484	26071
431.557	14465
431.631	2637
431.705	2565
431.779	17199
431.853	78892
431.927	52106
432.000	6811
432.074	2797
432.148	4383
432.222	2712
432.295	1593
432.369	782
432.443	4893
432.516	34840
432.590	82201
432.664	30088
432.737	4266
432.811	861
432.885	1128
432.958	198
433.032	661
433.106	-357
433.179	-435
433.253	139
433.326	-292
433.400	186
433.473	1253
433.547	-53
433.620	1986
433.694	3819
433.767	4975
433.841	887
433.914	310
433.988	-807
434.061	1667
434.134	773
434.208	923
434.281	-109
434.355	-236
434.428	686
434.501	250
434.575	684
434.648	1568
434.721	133
434.795	685
434.868	196
434.941	359
435.014	-65
435.088	1134
435.161	1565
435.234	4464
435.307	5772
435.381	2892
435.454	3359
435.527	5219
435.600	4144
435.673	3598
435.746	1479
435.819	1356
435.892	1172
435.966	645
436.039	1081
436.112	1871
436.185	-324
436.258	-166
436.331	-297
436.404	689
436.477	-164
436.550	-296
436.623	478
436.696	-146
436.769	1062
436.842	1201
436.915	1084
436.987	3087
437.060	1085
437.133	301
437.206	-632
437.279	2099
437.352	6
437.425	290
437.498	1230
437.570	5286
437.643	4789
437.716	761
437.789	729
437.861	4459
437.934	13572
438.007	5825
438.080	916
438.152	2095
438.225	5099
438.298	41950
438.370	109344
438.443	44515
438.516	12800
438.588	2885
438.661	-298
438.734	1545
438.806	1801
438.879	2786
438.951	2723
439.024	6372
439.096	1743
439.169	1226
439.241	387
439.314	1491
439.386	3035
439.459	5250
439.531	8485
439.604	3476
439.676	415
439.749	653
439.821	-156
439.893	284
439.966	607
440.038	2124
440.110	1242
440.183	641
440.255	525
440.327	3111
440.400	20740
440.472	76498
440.544	46626
440.617	6887
440.689	5983
440.761	7611
440.833	10775
440.905	6396
440.978	1509
441.050	-535
441.122	764
441.194	-141
441.266	63
441.338	1244
441.411	4178
441.483	25913
441.555	37618
441.627	8364
441.699	6300
441.771	6302
441.843	1687
441.915	299
441.987	513
442.059	1311
442.131	2487
442.203	4507
442.275	5635
442.347	5741
442.419	8268
442.491	43697
442.563	105184
442.635	46574
442.706	28126
442.778	19390
442.850	3598
442.922	1440
442.994	3169
443.066	5836
443.137	3922
443.209	2674
443.281	6111
443.353	14178
443.425	54987
443.496	180465
443.568	172933
443.640	63968
443.711	13010
443.783	4860
443.855	2906
443.926	1838
443.998	2535
444.070	4094
444.141	3609
444.213	6012
444.285	6735
444.356	5894
444.428	5160
444.499	1944
444.571	1455
444.642	1618
444.714	1874
444.785	5575
444.857	7837
444.928	19080
445.000	10851
445.071	13236
445.143	14815
445.214	9231
445.285	16201
445.357	44595
445.428	123384
445.500	254416
445.571	172903
445.642	91620
445.714	39705
445.785	33641
445.856	9683
445.928	7669
445.999	6404
446.070	5169
446.141	4343
446.213	6306
446.284	3424
446.355	5068
446.426	1961
446.497	2814
446.569	5464
446.640	8631
446.711	5143
446.782	2294
446.853	3917
446.924	4364
446.995	1903
447.066	3233
447.138	6814
447.209	3616
447.280	-281
447.351	464
447.422	459
447.493	2400
447.564	3113
447.635	4422
447.706	1036
447.777	242
447.847	223
447.918	491
447.989	3085
448.060	4778
448.131	12926
448.202	10826
448.273	6361
448.344	2338
448.414	836
448.485	1141
448.556	1281
448.627	982
448.698	362
448.768	239
448.839	1528
448.910	6346
448.981	5103
449.051	2201
449.122	551
449.193	363
449.263	210
449.334	1249
449.405	2335
449.475	6727
449.546	5039
449.616	7325
449.687	5827
449.758	2405
449.828	921
449.899	994
449.969	834
450.040	1004
450.110	2051
450.181	2788
450.251	771
450.322	1550
450.392	1144
450.463	966
450.533	962
450.604	1613
450.674	1059
450.744	1572
450.815	757
450.885	1454
450.955	1632
451.026	943
451.096	1664
451.166	3012
451.237	7720
451.307	21570
451.377	7408
451.447	1141
451.518	719
451.588	723
451.658	1289
451.728	4130
451.799	21267
451.869	24441
451.939	4496
452.009	955
452.079	426
452.149	2225
452.219	5503
452.289	25254
452.360	18006
452.430	3851
452.500	2066
452.570	4310
452.640	6470
452.710	21514
452.780	29391
452.850	17962
452.920	14290
452.990	4931
453.060	2651
453.129	4755
453.199	6896
453.269	25181
453.339	52499
453.409	79866
453.479	82708
453.549	121730
453.619	132413
453.688	53203
453.758	8498
453.828	3144
453.898	1885
453.968	2014
454.037	1648
454.087	1819
454.107	1867
454.168	755
454.177	564
454.247	923
454.249	918
454.316	191
454.330	895
454.386	3428
454.411	6807
454.456	11869
454.492	15029
454.525	17836
454.574	9448
454.595	5852
454.655	2411
454.665	1899
454.734	2818
454.736	3011
454.804	7560
454.817	10892
454.873	22705
454.898	24196
454.943	26393
454.979	17035
455.013	8953
455.060	5197
455.082	4041
455.141	6208
455.152	6307
455.221	18158
455.222	18472
455.291	30819
455.303	28269
455.360	16651
455.384	16502
455.430	15027
455.465	15055
455.499	14868
455.546	20353
455.569	22171
455.627	14619
455.638	13494
455.707	3432
455.708	3454
455.777	2497
455.789	2498
455.846	2362
455.869	2166
455.916	1826
455.950	2117
455.985	2192
456.031	2293
456.054	2327
456.112	1804
456.124	1729
456.193	2993
456.193	2969
456.262	3108
456.274	3442
456.332	4754
456.355	4956
456.401	4731
456.436	3894
456.470	3198
456.516	2371
456.540	1996
456.597	1638
456.609	1531
456.678	1127
456.678	1104
456.747	1916
456.759	1897
456.817	1807
456.840	2042
456.886	2381
456.920	2170
456.955	1977
457.001	2596
457.024	3075
457.082	3874
457.093	3934
457.162	6036
457.163	6074
457.232	7173
457.243	6838
457.301	4694
457.324	3779
457.370	2689
457.405	3012
457.439	3193
457.485	2851
457.508	2794
457.566	3695
457.577	3901
457.646	4887
457.647	4929
457.715	8662
457.727	9438
457.784	14621
457.808	18533
457.853	23109
457.889	26274
457.922	25377
457.969	17367
457.991	17843
458.050	22484
458.060	23225
458.129	38830
458.130	39248
458.198	36915
458.211	33340
458.267	18674
458.292	13042
458.336	8994
458.372	8709
458.405	11822
458.453	17678
458.474	22377
458.533	39567
458.543	40871
458.611	63038
458.614	63393
458.680	38712
458.694	30517
458.749	14357
458.775	10536
458.818	7050
458.855	6223
458.887	5683
458.936	5081
458.955	4897
459.016	5026
459.024	5084
459.093	5224
459.097	5226
459.162	5047
459.177	5312
459.230	6269
459.257	6699
459.299	6877
459.338	6831
459.368	7012
459.418	7376
459.437	6957
459.499	5848
459.505	5839
459.574	4606
459.579	4641
459.643	5029
459.659	4859
459.711	4795
459.740	5191
459.780	5533
459.820	5732
459.849	5873
459.900	6523
459.917	6670
459.981	7045
459.986	6971
460.054	5315
460.061	5162
460.123	5890
460.141	6422
460.191	7794
460.222	8419
460.260	9089
460.302	10523
460.328	9997
460.382	7422
460.397	7312
460.462	7014
460.465	7129
460.534	10753
460.543	11279
460.602	28799
460.623	35303
460.671	52811
460.703	68046
460.739	60539
460.783	46906
460.808	38445
460.864	10283
460.876	8710
460.944	6865
460.945	6831
461.013	6677
461.024	6599
461.081	6432
461.104	6723
461.150	6938
461.184	6768
461.218	6688
461.264	6193
461.286	6179
461.345	6588
461.355	6614
461.423	7256
461.425	7257
461.491	7245
461.505	7428
461.559	13720
461.585	16458
461.628	25871
461.665	35569
461.696	39316
461.745	48658
461.764	43126
461.825	15226
461.832	14660
461.901	8268
461.905	8219
461.969	7652
461.985	7270
462.037	7013
462.065	7282
462.105	8526
462.145	9665
462.173	13240
462.225	20191
462.241	22344
462.305	32257
462.310	31373
462.378	18046
462.385	15862
462.446	9735
462.465	8631
462.514	8333
462.545	8556
462.582	8223
462.625	7966
462.650	7913
462.705	7078
462.718	7315
462.785	9349
462.786	9415
462.854	13103
462.865	13749
462.922	17022
462.945	18486
462.990	14067
463.025	9524
463.058	8735
463.104	7797
463.126	7363
463.184	7039
463.194	7219
463.262	7997
463.264	8039
463.330	9089
463.344	9196
463.398	9248
463.424	9445
463.466	9616
463.504	9670
463.533	9811
463.583	9862
463.601	10067
463.663	10711
463.669	10990
463.737	14349
463.743	14676
463.805	23179
463.823	25639
463.873	37504
463.903	45000
463.940	47592
463.982	51656
464.008	42172
464.062	18018
464.076	16624
464.142	9169
464.144	9100
464.211	8411
464.221	8385
464.279	9325
464.301	9681
464.347	10851
464.381	11740
464.414	12675
464.461	13797
464.482	14228
464.540	15884
464.550	15394
464.617	11094
464.620	10931
464.685	12190
464.699	12479
464.753	15199
464.779	16551
464.820	18152
464.859	19655
464.888	18907
464.938	17476
464.956	17805
465.018	18948
465.023	18670
465.091	14665
465.098	14193
465.158	14362
465.177	14487
465.226	14976
465.257	15208
465.293	15443
465.336	15802
465.361	16896
465.416	19098
465.428	20486
465.495	28134
465.496	28291
465.563	45779
465.575	48855
465.631	59339
465.654	63991
465.698	40988
465.734	20497
465.765	18017
465.813	14351
465.833	14078
465.893	14045
465.900	14027
465.968	13637
465.972	13597
466.035	13531
466.052	13453
466.102	14037
466.131	14378
466.170	14709
466.210	14913
466.237	15306
466.290	16111
466.304	16278
466.369	16762
466.372	16821
466.439	17721
466.449	17803
466.506	19736
466.528	20459
466.573	27224
466.607	32195
466.641	47709
466.687	69229
466.708	75717
466.766	93661
466.775	86707
466.842	32919
466.845	30297
466.909	22689
466.925	20957
466.977	20567
467.004	20405
467.044	20895
467.083	21317
467.111	22919
467.163	25812
467.178	26263
467.242	27889
467.245	27824
467.312	25327
467.321	24948
467.379	25237
467.400	25263
467.446	26706
467.480	27656
467.559	24770
467.638	21656
467.717	22302
467.796	24345
467.875	25099
467.955	24282
468.034	36545
468.113	79021
468.192	113656
468.271	33132
468.350	22583
468.429	26242
468.508	26375
468.588	22688
468.667	20704
468.746	23585
468.825	20471
468.904	18911
468.983	22823
469.062	32292
469.141	40331
469.220	18406
469.299	17985
469.378	20960
469.456	23559
469.535	21547
469.614	20592
469.693	21810
469.772	27903
469.851	37026
469.930	26761
470.009	19105
470.088	20205
470.166	22430
470.245	29532
470.324	34485
470.403	25509
470.482	20866
470.560	18696
470.639	20727
470.718	22765
470.797	19833
470.875	23147
470.954	30545
471.033	33954
471.111	17091
471.190	16678
471.269	14658
471.347	16015
471.426	17643
471.505	21005
471.583	21094
471.662	19518
471.740	16658
471.819	17788
471.898	17655
471.976	17862
472.055	16630
472.133	19644
472.212	25500
472.290	26758
472.369	17914
472.447	17020
472.526	15695
472.604	16811
472.683	17670
472.761	18088
472.839	16794
472.918	16762
472.996	16950
473.075	19521
473.153	19417
473.231	16430
473.310	19787
473.388	18716
473.466	18623
473.545	19415
473.623	24421
473.701	23877
473.780	17518
473.858	16782
473.936	19910
474.014	17029
474.093	19632
474.171	27545
474.249	36609
474.327	25470
474.405	14634
474.484	15426
474.562	15573
474.640	16857
474.718	17136
474.796	16776
474.874	15743
474.952	14153
475.030	14530
475.108	16242
475.187	18771
475.265	18605
475.343	24775
475.421	28131
475.499	17989
475.577	17724
475.655	21891
475.733	42376
475.811	73188
475.889	64332
475.966	45352
476.044	17721
476.122	20757
476.200	24718
476.278	21015
476.356	16390
476.434	17568
476.512	20356
476.590	24282
476.667	22098
476.745	15174
476.823	16560
476.901	17614
476.979	16952
477.056	16557
477.134	17313
477.212	18066
477.290	16476
477.367	15766
477.445	15888
477.523	14372
477.601	16000
477.678	15024
477.756	19094
477.834	20247
477.911	16201
477.989	15448
478.066	16010
478.144	18162
478.222	20076
478.299	27890
478.377	26679
478.454	14942
478.532	14451
478.609	14960
478.687	16301
478.764	13983
478.842	14578
478.919	15838
478.997	16382
479.074	14061
479.152	17439
479.229	21790
479.307	14339
479.384	12922
479.461	13627
479.539	14221
479.616	18236
479.694	15020
479.771	15554
479.848	16729
479.926	23487
480.003	25148
480.080	13656
480.157	14580
480.235	13478
480.312	13779
480.389	16196
480.467	27246
480.544	32219
480.621	17867
480.698	17102
480.775	19219
480.853	19280
480.930	14982
481.007	16557
481.084	18613
481.161	20804
481.238	18792
481.315	14521
481.392	14885
481.470	14814
481.547	15713
481.624	15040
481.701	15092
481.778	16522
481.855	18725
481.932	25603
482.009	42523
482.086	30161
482.163	16954
482.240	22043
482.317	34415
482.393	26451
482.470	16096
482.547	16322
482.624	14470
482.701	15649
482.778	16161
482.855	13589
482.932	13579
483.009	13009
483.085	16041
483.162	18521
483.239	18948
483.316	14662
483.393	15494
483.469	14136
483.546	16807
483.623	18104
483.699	14453
483.776	15893
483.853	18533
483.930	24411
484.006	62880
484.083	104338
484.160	52541
484.236	67316
484.313	52519
484.389	40384
484.466	36129
484.543	34844
484.619	36504
484.696	38993
484.772	39324
484.849	41983
484.925	33843
485.002	32900
485.078	35047
485.155	36241
485.231	31699
485.308	31623
485.384	32593
485.461	40041
485.537	64785
485.614	75933
485.690	32911
485.766	30624
485.843	32114
485.919	42031
485.995	43547
486.072	29224
486.148	27991
486.224	27816
486.301	29940
486.377	34737
486.453	34656
486.530	33306
486.606	41678
486.682	46315
486.758	56248
486.835	67067
486.911	51851
486.987	81659
487.063	82664
487.139	94997
487.215	67272
487.292	37315
487.368	34508
487.444	37488
487.520	44891
487.596	44651
487.672	62975
487.748	154093
487.824	224912
487.900	80172
487.976	39064
488.052	36577
488.128	42850
488.204	36449
488.280	31895
488.356	37536
488.432	72842
488.508	111512
488.584	40920
488.660	28210
488.736	29411
488.812	30649
488.888	36187
488.964	45380
489.039	88867
489.115	133941
489.191	78374
489.267	30330
489.343	28425
489.418	23837
489.494	24247
489.570	22504
489.646	26229
489.722	24918
489.797	25720
489.873	40286
489.949	83622
490.024	71247
490.100	24841
490.176	23858
490.251	28786
490.327	35741
490.403	23557
490.478	22384
490.554	19539
490.629	20852
490.705	19654
490.781	23021
490.856	22114
490.932	26048
491.007	24604
491.083	25528
491.158	23649
491.234	30114
491.309	64248
491.385	66146
491.460	23868
491.536	25208
491.611	22928
491.686	25692
491.762	31053
491.837	60001
491.913	97369
491.988	132787
492.063	161195
492.139	51977
492.214	34174
492.289	18988
492.365	18278
492.440	22155
492.515	23376
492.590	22225
492.666	17713
492.741	26385
492.816	38695
492.891	22825
492.967	17514
493.042	16200
493.117	17864
493.192	18581
493.267	25518
493.342	58117
493.418	70669
493.493	21752
493.568	15589
493.643	16497
493.718	21400
493.793	32499
493.868	35667
493.943	22504
494.018	18287
494.093	17006
494.168	16892
494.243	16582
494.318	14378
494.393	15502
494.468	15376
494.543	15059
494.618	18529
494.693	16358
494.768	16099
494.842	17698
494.917	14976
494.992	16056
495.067	15296
495.142	15103
495.217	16244
495.292	17029
495.366	19548
495.441	24547
495.516	29264
495.591	39057
495.665	119332
495.740	275078
495.815	107824
495.890	26374
495.964	21062
496.039	23289
496.114	21408
496.188	23840
496.263	23657
496.338	21031
496.412	24456
496.487	26652
496.561	26374
496.636	28156
496.710	22400
496.785	25016
496.860	29032
496.934	22272
497.009	23425
497.083	22850
497.158	22261
497.232	27890
497.307	33881
497.381	29569
497.455	33523
497.530	42389
497.604	30462
497.679	32696
497.753	52290
497.827	64997
497.902	58668
497.976	62872
498.050	129102
498.125	475064
498.199	467557
498.273	85295
498.348	62376
498.422	51051
498.496	47072
498.570	44409
498.645	34221
498.719	34271
498.793	41741
498.867	59808
498.941	73849
499.016	197017
499.090	523089
499.164	181121
499.238	29309
499.312	24852
499.386	31211
499.460	28602
499.534	27422
499.609	33795
499.683	48933
499.757	44797
499.831	88587
499.905	354766
499.979	326202
500.053	58171
500.127	55453
500.201	38860
500.275	27328
500.349	27356
500.422	31102
500.496	42724
500.570	81104
500.644	203481
500.718	372677
500.792	84881
500.866	27932
500.940	34530
501.013	29774
501.087	29194
501.161	47928
501.235	59901
501.309	122723
501.382	346390
501.456	293034
501.530	69652
501.603	118939
501.677	46531
501.751	21081
501.825	26867
501.898	49215
501.972	142868
502.046	87244
502.119	28401
502.193	62646
502.266	155704
502.340	72955
502.413	67696
502.487	133289
502.561	75822
502.634	26349
502.708	20317
502.781	17594
502.855	16170
502.928	15003
503.002	14905
503.075	15141
503.149	17206
503.222	17971
503.295	19958
503.369	25529
503.442	31757
503.516	101516
503.589	263794
503.662	167595
503.736	55179
503.809	121716
503.882	100253
503.956	146038
504.029	132723
504.102	94153
504.175	121444
504.249	45761
504.322	27561
504.395	23864
504.468	16872
504.542	17464
504.615	13574
504.688	13643
504.761	13646
504.834	17206
504.907	20760
504.980	31157
505.053	19235
505.127	21946
505.200	26362
505.273	24292
505.346	15812
505.419	12548
505.492	13675
505.565	11233
505.638	11076
505.711	11632
505.784	11385
505.857	11538
505.930	13491
506.003	11806
506.076	14926
506.149	19371
506.221	23331
506.294	22187
506.367	53733
506.440	187042
506.513	95060
506.586	24765
506.659	15680
506.731	12914
506.804	15982
506.877	20533
506.950	16565
507.022	12804
507.095	16470
507.168	20743
507.241	13717
507.313	10915
507.386	12907
507.459	17452
507.531	12476
507.604	10755
507.677	11981
507.749	9766
507.822	15024
507.894	27527
507.967	32587
508.040	19297
508.112	16862
508.185	16150
508.257	15823
508.330	23440
508.402	15322
508.475	15863
508.547	16028
508.620	16552
508.692	27020
508.765	17398
508.837	12838
508.909	13261
508.982	13153
509.054	15403
509.127	12860
509.199	12560
509.271	11260
509.344	11394
509.416	13406
509.488	13226
509.560	13712
509.633	13197
509.705	15984
509.777	15193
509.849	20907
509.922	15186
509.994	12293
510.066	14040
510.138	13803
510.210	28072
510.283	23468
510.355	20488
510.427	18055
510.499	16737
510.571	16832
510.643	16943
510.715	27086
510.787	22303
510.859	19196
510.931	20490
511.003	27393
511.076	23932
511.148	16071
511.219	16523
511.291	26017
511.363	29857
511.435	15533
511.507	12386
511.579	14319
511.651	14707
511.723	13698
511.795	13969
511.867	13359
511.939	18187
512.010	37112
512.082	29623
512.154	14681
512.226	14532
512.298	22790
512.369	31249
512.441	24242
512.513	23316
512.585	18053
512.656	20774
512.728	20854
512.800	15926
512.871	16652
512.943	17244
513.015	13417
513.086	16457
513.158	18461
513.230	17556
513.301	24245
513.373	27338
513.444	16747
513.516	15703
513.588	16226
513.659	16954
513.731	20071
513.802	18512
513.874	36316
513.945	57518
514.016	22397
514.088	16108
514.159	16545
514.231	23326
514.302	29063
514.374	22781
514.445	21515
514.516	42994
514.588	32106
514.659	20925
514.730	38996
514.802	28717
514.873	21899
514.944	22379
515.016	20280
515.087	21884
515.158	29547
515.229	39451
515.301	23569
515.372	28306
515.443	18391
515.514	16413
515.585	14720
515.656	16230
515.728	14238
515.799	13751
515.870	16598
515.941	16610
516.012	16316
516.083	22441
516.154	23096
516.225	29392
516.296	28689
516.367	25737
516.438	29393
516.509	36281
516.580	49236
516.651	141979
516.722	499285
516.793	208925
516.864	53852
516.935	51045
517.006	56489
517.077	71504
517.148	150099
517.219	519079
517.289	762334
517.360	256427
517.431	84947
517.502	30350
517.573	27284
517.643	24915
517.714	28969
517.785	29862
517.856	30551
517.926	37765
517.997	41990
518.068	52590
518.138	67490
518.209	92908
518.280	325681
518.350	1137399
518.421	416210
518.492	63716
518.562	41159
518.633	40372
518.703	38017
518.774	61764
518.845	140981
518.915	134254
518.986	50611
519.056	39624
519.127	57164
519.197	85098
519.268	200636
519.338	126642
519.408	35175
519.479	37798
519.549	27559
519.620	22007
519.690	17044
519.760	18142
519.831	18900
519.901	18963
519.971	16263
520.042	17411
520.112	21447
520.182	21670
520.253	23254
520.323	18241
520.393	20136
520.463	25863
520.534	19092
520.604	32371
520.674	22825
520.744	23295
520.814	36653
520.885	36478
520.955	62866
521.025	233122
521.095	87760
521.165	20588
521.235	18083
521.305	15899
521.375	15478
521.445	17081
521.515	20642
521.585	25211
521.655	22071
521.725	20757
521.795	19680
521.865	13724
521.935	25385
522.005	21867
522.075	14416
522.145	17525
522.215	18273
522.285	25911
522.355	33733
522.424	65455
522.494	54530
522.564	27731
522.634	47987
522.704	134478
522.774	50180
522.843	17811
522.913	16303
522.983	20268
523.053	16306
523.122	16987
523.192	22451
523.262	71905
523.331	63694
523.401	17667
523.471	13347
523.540	14457
523.610	11159
523.680	11346
523.749	13565
523.819	17315
523.888	15999
523.958	12640
524.027	13412
524.097	15596
524.166	14099
524.236	15212
524.305	16152
524.375	13006
524.444	12800
524.514	15578
524.583	14132
524.653	17220
524.722	20100
524.791	13939
524.861	15006
524.930	12738
524.999	14277
525.069	19727
525.138	17565
525.207	20633
525.277	15237
525.346	15936
525.415	14160
525.484	15189
525.554	18108
525.623	18697
525.692	17690
525.761	19108
525.830	20627
525.900	23619
525.969	34933
526.038	50706
526.107	93647
526.176	270370
526.245	215827
526.314	76517
526.383	143055
526.452	185430
526.522	309003
526.591	305449
526.660	95096
526.729	51474
526.797	53099
526.867	97417
526.935	400450
527.004	680336
527.073	351563
527.142	43325
527.211	22508
527.280	21902
527.349	20775
527.418	12845
527.487	14014
527.555	11137
527.624	12681
527.693	10061
527.762	12562
527.831	10592
527.899	12180
527.968	12149
528.037	12421
528.106	14764
528.174	25317
528.243	20785
528.312	29325
528.380	36319
528.449	14131
528.518	11943
528.586	8461
528.655	10951
528.723	10841
528.792	10315
528.861	10977
528.929	10395
528.998	10977
529.066	10430
529.135	10859
529.203	10431
529.272	11072
529.340	12763
529.409	12790
529.477	10731
529.545	14808
529.614	17798
529.682	16443
529.751	20070
529.819	20682
529.887	15304
529.956	12329
530.024	13582
530.092	11337
530.161	14004
530.229	21181
530.297	13200
530.365	12873
530.434	11616
530.502	10909
530.570	10997
530.638	10705
530.707	12762
530.775	14027
530.843	11028
530.911	11438
530.979	11759
531.047	11096
531.115	12560
531.183	11901
531.252	12062
531.320	12315
531.388	12029
531.456	12274
531.524	10472
531.592	13058
531.660	15429
531.728	11428
531.796	11035
531.864	11914
531.932	13293
532.000	12558
532.067	13756
532.135	15584
532.203	16251
532.271	15929
532.339	24987
532.407	57655
532.475	35204
532.542	21733
532.610	22206
532.678	27937
532.746	102972
532.814	246388
532.881	62024
532.949	17977
533.017	14143
533.084	13074
533.152	12775
533.220	13265
533.287	14553
533.355	12374
533.423	13583
533.490	12882
533.558	13868
533.625	13740
533.693	14435
533.761	13904
533.828	14339
533.896	13011
533.963	23319
534.031	27599
534.098	38537
534.166	20296
534.233	13629
534.300	15429
534.368	15169
534.435	13780
534.503	15133
534.570	16847
534.637	16254
534.705	18353
534.772	20023
534.840	30508
534.907	122944
534.974	149876
535.041	25374
535.109	19138
535.176	13425
535.243	13365
535.310	13693
535.378	13295
535.445	11661
535.512	12391
535.579	13574
535.646	10886
535.714	13230
535.781	15793
535.848	15069
535.915	15912
535.982	14354
536.049	14125
536.116	15946
536.183	13161
536.250	14752
536.317	14639
536.384	15963
536.451	21392
536.518	21646
536.585	16377
536.652	21989
536.719	27514
536.786	22067
536.853	19201
536.920	26980
536.987	37235
537.053	35669
537.120	132288
537.187	104773
537.254	18190
537.321	15153
537.388	15465
537.454	12789
537.521	13893
537.588	13166
537.654	15586
537.721	17215
537.788	16398
537.855	14222
537.921	14587
537.988	14571
538.055	15515
538.121	14037
538.188	15239
538.254	20628
538.321	37025
538.388	23276
538.454	15871
538.521	14482
538.587	12999
538.654	13420
538.720	12776
538.787	15129
538.853	15709
538.920	17475
538.986	18121
539.053	16587
539.119	16586
539.185	15120
539.252	18521
539.318	25104
539.385	21039
539.451	18915
539.517	19182
539.583	20292
539.650	43207
539.716	101095
539.782	30391
539.849	16323
539.915	16252
539.981	16841
540.047	18528
540.114	16783
540.180	18429
540.246	16800
540.312	22530
540.378	36645
540.444	37633
540.510	43374
540.576	110180
540.643	35255
540.709	15297
540.775	15722
540.841	15352
540.907	19938
540.973	27863
541.039	23603
541.105	24379
541.171	17895
541.237	16040
541.303	16610
541.369	19292
541.435	20816
541.500	33012
541.566	20755
541.632	14233
541.698	14118
541.764	14452
541.830	14100
541.896	13798
541.961	15742
542.027	14030
542.093	15988
542.159	17096
542.224	16678
542.290	23342
542.356	32277
542.421	37276
542.487	20611
542.553	16746
542.618	19070
542.684	16814
542.750	17727
542.815	20372
542.881	29664
542.947	98433
543.012	67117
543.078	17216
543.143	16584
543.209	17456
543.274	15835
543.340	19461
543.405	41274
543.471	58843
543.536	18634
543.602	16667
543.667	15412
543.732	15337
543.798	14639
543.863	16105
543.928	13761
543.994	14280
544.059	15164
544.124	14542
544.190	14973
544.255	15917
544.320	15934
544.386	16623
544.451	21563
544.516	23531
544.581	23593
544.646	64090
544.712	92459
544.777	23384
544.842	20484
544.907	21449
544.972	18561
545.037	18906
545.102	21381
545.168	20506
545.233	21396
545.298	22186
545.363	24464
545.428	25754
545.493	40403
545.558	80696
545.623	35149
545.688	21802
545.753	20326
545.818	20391
545.883	21204
545.947	20356
546.012	22918
546.077	23368
546.142	22748
546.207	21826
546.272	26982
546.337	26915
546.401	23827
546.466	22831
546.531	23272
546.596	24666
546.661	25168
546.725	25214
546.790	23216
546.855	25189
546.919	25849
546.984	28971
547.049	30929
547.113	35516
547.178	35048
547.243	39511
547.307	44084
547.372	50529
547.436	51239
547.501	47701
547.565	50380
547.630	51205
547.695	49006
547.759	52496
547.823	49093
547.888	45930
547.952	46355
548.017	47892
548.081	52257
548.146	59501
548.210	54622
548.274	52202
548.339	49847
548.403	46656
548.468	45140
548.532	44458
548.596	45217
548.660	46173
548.725	49870
548.789	56872
548.853	56688
548.917	51710
548.982	58321
549.046	55279
549.110	42609
549.174	41195
549.238	48070
549.303	49427
549.367	52271
549.431	49882
549.495	47833
549.559	47849
549.623	54408
549.687	61074
549.751	68298
549.815	69233
549.879	68418
549.943	63590
550.007	68985
550.071	69404
550.135	68314
550.199	60674
550.263	59667
550.327	58179
550.391	66807
550.455	64624
550.519	64757
550.582	68365
550.646	84129
550.710	85341
550.774	75886
550.838	76033
550.901	79174
550.965	83037
551.029	85802
551.093	95010
551.156	105657
551.220	142004
551.284	157542
551.347	107437
551.411	131756
551.475	134185
551.538	84604
551.602	75938
551.666	73819
551.729	68160
551.793	66899
551.856	66492
551.920	64470
551.983	65345
552.047	64797
552.110	64479
552.174	64627
552.237	67299
552.301	63241
552.364	60042
552.428	60185
552.491	60779
552.554	63158
552.618	62267
552.681	64914
552.745	64445
552.808	78560
552.871	91532
552.934	70871
552.998	63987
553.061	63192
553.124	60137
553.187	59223
553.251	62648
553.314	63192
553.377	62053
553.440	68257
553.503	90794
553.567	101222
553.630	65513
553.693	66066
553.756	65132
553.819	63000
553.882	62181
553.945	60914
554.008	60093
554.071	61939
554.134	63060
554.197	59091
554.260	58563
554.323	60932
554.386	60658
554.449	62584
554.512	61497
554.575	58446
554.638	60383
554.701	59209
554.764	57951
554.827	56783
554.889	54601
554.952	52045
555.015	50839
555.078	52792
555.141	53019
555.203	50933
555.266	51148
555.329	52428
555.391	50038
555.454	49962
555.517	49595
555.580	47134
555.642	44025
555.705	43436
555.768	43376
555.830	43091
555.893	42432
555.955	40426
556.018	40334
556.080	41220
556.143	41196
556.206	41334
556.268	41141
556.330	41596
556.393	38797
556.455	39359
556.518	46053
556.580	46414
556.643	35267
556.705	35019
556.767	34632
556.830	35274
556.892	37124
556.955	44050
557.017	36432
557.079	32765
557.142	33141
557.204	34962
557.266	49975
557.328	42348
557.391	30572
557.453	29090
557.515	29473
557.577	32762
557.639	33636
557.701	30522
557.764	29956
557.826	30520
557.888	32424
557.950	33459
558.012	34047
558.074	42166
558.136	85101
558.198	191947
558.260	72292
558.322	37240
558.384	38053
558.446	41495
558.508	47052
558.570	56660
558.632	75033
558.694	97953
558.756	111733
558.818	332637
558.880	760934
558.942	239368
559.003	206347
559.065	101021
559.127	49987
559.189	48538
559.251	52067
559.312	68603
559.374	162070
559.436	526934
559.498	242055
559.559	55200
559.621	48501
559.683	53405
559.744	85261
559.806	262143
559.868	367159
559.929	76753
559.991	52379
560.052	71979
560.114	190080
560.176	116760
560.237	110940
560.299	171241
560.360	44771
560.422	26847
560.483	25980
560.545	24039
560.606	22309
560.667	21954
560.729	22163
560.790	20517
560.852	21511
560.913	21456
560.974	20958
561.036	20558
561.097	21914
561.158	21250
561.220	21593
561.281	21104
561.342	21611
561.403	24518
561.465	27566
561.526	52453
561.587	62138
561.648	24123
561.709	21214
561.771	21725
561.832	20894
561.893	20338
561.954	19339
562.015	20250
562.076	19909
562.137	20426
562.198	20654
562.259	21375
562.320	20830
562.381	21955
562.442	27347
562.503	24452
562.564	19662
562.625	20358
562.686	19854
562.747	20981
562.808	20517
562.869	21800
562.930	24965
562.991	23323
563.051	22212
563.112	20489
563.173	21032
563.234	19964
563.294	20073
563.355	18870
563.416	19894
563.477	20001
563.537	20321
563.598	20206
563.659	20861
563.720	20091
563.780	20929
563.841	22090
563.901	20108
563.962	20823
564.023	20639
564.083	20679
564.144	21922
564.204	20122
564.265	20551
564.325	23276
564.386	39123
564.446	34362
564.507	19276
564.567	19620
564.628	19669
564.688	19658
564.749	19491
564.809	23240
564.869	25106
564.930	19958
564.990	18879
565.050	19078
565.111	19584
565.171	18285
565.231	18662
565.292	19428
565.352	17534
565.412	19263
565.472	19804
565.532	21217
565.593	18197
565.653	19136
565.713	19824
565.773	20965
565.833	23399
565.893	25953
565.953	20320
566.013	20212
566.074	21332
566.134	25633
566.194	37507
566.254	36861
566.314	26396
566.374	20908
566.434	20945
566.494	21012
566.554	20387
566.614	21004
566.673	21126
566.733	22327
566.793	22333
566.853	23063
566.913	23081
566.973	23564
567.033	24636
567.092	24440
567.152	23504
567.212	24267
567.272	23964
567.331	25681
567.391	25062
567.451	26577
567.511	33286
567.570	33245
567.630	24152
567.690	23439
567.749	23695
567.809	24418
567.868	28778
567.928	28985
567.988	32631
568.047	34680
568.107	40256
568.166	51681
568.226	79321
568.285	108875
568.345	86964
568.404	66867
568.464	56077
568.523	52537
568.582	54511
568.642	60371
568.701	72432
568.761	110259
568.820	176242
568.879	160765
568.939	115398
568.998	82197
569.057	60397
569.116	49466
569.176	40820
569.235	35426
569.294	31752
569.353	29462
569.413	28488
569.472	26368
569.531	24712
569.590	22135
569.649	22716
569.708	21382
569.767	22011
569.827	24111
569.886	22209
569.945	20174
570.004	20852
570.063	20494
570.122	20698
570.181	21725
570.240	22590
570.299	24491
570.358	23141
570.417	19808
570.475	18896
570.534	21053
570.593	19685
570.652	20044
570.711	19849
570.770	19450
570.829	20775
570.887	20153
570.946	20967
571.005	17826
571.064	19591
571.122	19907
571.181	20456
571.240	18523
571.299	17728
571.357	18925
571.416	20157
571.475	21753
571.533	21819
571.592	18981
571.650	19193
571.709	18514
571.768	19036
571.826	18314
571.885	17864
571.943	17414
572.002	17393
572.060	19375
572.119	16624
572.177	16470
572.236	16206
572.294	15771
572.352	16575
572.411	17318
572.469	16389
572.528	15810
572.586	15728
572.644	18209
572.703	21405
572.761	17327
572.819	16675
572.877	15770
572.936	14671
572.994	15073
573.052	14892
573.110	17011
573.169	16501
573.227	14584
573.285	15688
573.343	14925
573.401	15401
573.459	15573
573.517	15504
573.576	14917
573.634	16032
573.692	16012
573.750	15099
573.808	15157
573.866	15979
573.924	20080
573.982	19534
574.040	16341
574.098	15259
574.155	15067
574.213	14857
574.271	13608
574.329	14669
574.387	14596
574.445	13799
574.503	13926
574.560	12940
574.618	13186
574.676	13582
574.734	14031
574.792	13792
574.849	13738
574.907	13526
574.965	12646
575.022	12751
575.080	12905
575.138	12834
575.195	14137
575.253	13486
575.311	13902
575.368	13730
575.426	13003
575.483	13329
575.541	13091
575.598	13627
575.656	14167
575.713	13998
575.771	13921
575.828	13449
575.886	12889
575.943	14113
576.001	13435
576.058	13475
576.115	15004
576.173	17180
576.230	18546
576.287	19098
576.345	16409
576.402	14831
576.459	14774
576.517	14876
576.574	16910
576.631	16638
576.688	15139
576.746	14204
576.803	15357
576.860	14099
576.917	14106
576.974	14296
577.031	14024
577.089	14195
577.146	15245
577.203	13847
577.260	13908
577.317	15633
577.374	16391
577.431	16290
577.488	14753
577.545	13153
577.602	14321
577.659	13942
577.716	13800
577.773	15032
577.830	14123
577.886	14189
577.943	13447
578.000	13177
578.057	13951
578.114	15009
578.171	14290
578.227	13962
578.284	13977
578.341	14506
578.398	14293
578.454	14268
578.511	17397
578.568	17725
578.625	15652
578.681	13079
578.738	13310
578.794	14277
578.851	14069
578.908	14132
578.964	15041
579.021	15744
579.077	15009
579.134	14364
579.190	13653
579.247	14077
579.303	13310
579.360	13527
579.416	13981
579.473	13120
579.529	13316
579.586	13185
579.642	13655
579.698	13946
579.755	14425
579.811	13983
579.867	14266
579.924	13177
579.980	13141
580.036	13572
580.093	14506
580.149	15977
580.205	15690
580.261	15274
580.317	14787
580.374	16404
580.430	17443
580.486	17507
580.542	15106
580.598	15813
580.619	15789
580.654	15764
580.692	15199
580.710	14943
580.765	15112
580.767	15135
580.823	14885
580.838	15022
580.879	15434
580.911	15052
580.935	14797
580.984	14902
580.991	14933
581.047	14715
581.057	14771
581.103	15087
581.130	15072
581.159	15078
581.203	15736
581.215	15929
581.270	16007
581.276	15902
581.326	14985
581.349	15100
581.382	15303
581.422	15216
581.438	15207
581.494	15985
581.494	15969
581.550	15351
581.567	15546
581.606	15982
581.640	15456
581.661	15159
581.713	16846
581.717	16989
581.773	15488
581.786	15367
581.829	15057
581.859	15869
581.885	16581
581.932	15788
581.940	15645
581.996	16187
582.004	16238
582.052	16500
582.077	16118
582.107	15713
582.150	15858
582.163	15898
582.219	15238
582.223	15294
582.274	16192
582.296	16321
582.330	16430
582.368	16650
582.386	16803
582.441	15419
582.441	15420
582.497	15619
582.514	15682
582.552	16187
582.587	16195
582.608	16048
582.659	16165
582.663	16185
582.719	15458
582.732	15536
582.774	15843
582.805	16137
582.830	16378
582.877	16319
582.885	16305
582.941	16275
582.950	16174
582.996	15773
583.023	16666
583.052	17754
583.095	17241
583.107	17030
583.162	17756
583.168	17697
583.218	17136
583.240	16835
583.273	16448
583.313	16637
583.328	16803
583.384	17185
583.385	17179
583.439	16297
583.458	15975
583.494	15671
583.531	15441
583.549	15389
583.603	17320
583.605	17365
583.660	16758
583.676	16183
583.715	15181
583.748	17168
583.770	18388
583.820	17403
583.825	17277
583.881	16540
583.893	16533
583.936	16958
583.965	16993
583.991	16763
584.038	16529
584.046	16528
584.101	16715
584.110	16740
584.156	16925
584.183	16962
584.211	16886
584.255	16757
584.266	16736
584.321	16804
584.328	16826
584.376	17373
584.400	17776
584.431	18007
584.472	17557
584.486	17441
584.541	18073
584.545	18080
584.596	18174
584.617	18048
584.651	18232
584.689	19120
584.706	19230
584.761	18910
584.762	18910
584.816	19392
584.834	19683
584.871	20142
584.906	20079
584.926	19914
584.978	20380
584.980	20426
585.035	21917
585.051	22449
585.090	23730
585.123	24148
585.145	24305
585.195	24945
585.200	25061
585.254	26682
585.267	27308
585.309	29235
585.340	30540
585.364	31844
585.412	34099
585.419	34375
585.473	37898
585.484	38863
585.528	45311
585.556	52226
585.583	66492
585.628	100391
585.637	112858
585.692	226128
585.700	244903
585.747	307313
585.772	261077
585.801	164133
585.845	63858
585.856	52449
585.910	35960
585.917	34326
585.965	30688
585.989	29158
586.019	27887
586.061	27953
586.074	28136
586.128	27732
586.133	27795
586.183	28837
586.205	29015
586.237	29075
586.277	29341
586.292	29349
586.346	29424
586.349	29408
586.401	29334
586.421	29696
586.455	30845
586.493	32231
586.509	34149
586.564	41687
586.565	42019
586.618	60006
586.637	61100
586.672	51690
586.709	40544
586.727	37473
586.781	34903
586.781	34905
586.835	32964
586.853	32284
586.889	31681
586.925	31752
586.944	31890
586.996	32290
586.998	32329
587.052	33924
587.068	34207
587.106	34457
587.140	34627
587.161	34744
587.212	35571
587.215	35678
587.269	37610
587.284	38017
587.323	38204
587.356	38915
587.377	39649
587.427	41391
587.431	41510
587.485	42723
587.499	42958
587.539	44262
587.571	45503
587.593	46308
587.643	48638
587.648	48922
587.702	52087
587.715	52769
587.755	54682
587.786	56140
587.810	57337
587.858	60040
587.864	60486
587.917	65231
587.930	66484
587.971	71846
588.001	75842
588.025	78484
588.073	83434
588.079	84267
588.133	92507
588.145	94492
588.187	102853
588.217	109518
588.241	115793
588.288	129351
588.295	131379
588.348	148968
588.360	153087
588.402	172036
588.431	186795
588.456	200458
588.503	228280
588.510	233272
588.564	279168
588.575	289652
588.617	341376
588.646	382356
588.671	433554
588.718	541538
588.725	567001
588.778	787662
588.789	837175
588.832	1107525
588.861	1295614
588.886	1400942
588.932	1508463
588.939	1496026
588.993	1328175
589.004	1324698
589.047	1403361
589.075	1378664
589.100	1212200
589.147	863615
589.154	832202
589.207	625572
589.218	588852
589.261	536373
589.290	511550
589.314	527264
589.361	573752
589.368	594157
589.421	787187
589.433	834004
589.475	1102056
589.504	1283446
589.528	1335132
589.576	1343750
589.582	1328747
589.635	1238152
589.647	1197748
589.689	882371
589.718	656034
589.742	547343
589.790	360360
589.795	349848
589.849	268024
589.861	251083
589.902	218633
589.932	195387
589.955	178301
590.004	143711
590.009	141713
590.062	123075
590.075	118747
590.115	109517
590.146	102854
590.168	98774
590.218	89857
590.222	89439
590.275	84493
590.289	83114
590.328	79093
590.360	75891
590.381	73952
590.431	69634
590.435	69505
590.488	66640
590.503	66001
590.541	64483
590.574	62862
590.594	61809
590.645	59157
590.647	59102
590.700	56632
590.716	55914
590.753	54983
590.787	54077
590.806	53448
590.859	51651
590.859	51670
590.912	50552
590.930	50289
590.965	49989
591.001	49570
591.018	49544
591.071	49277
591.072	49232
591.124	47874
591.143	47316
591.177	47243
591.214	47122
591.230	47414
591.283	48339
591.285	48326
591.336	47699
591.356	47367
591.389	47380
591.427	47183
591.442	46388
591.495	43333
591.498	43064
591.547	43006
591.569	42987
591.600	42286
591.640	41194
591.653	41606
591.706	43255
591.711	43385
591.759	44515
591.782	45097
591.811	46131
591.853	47364
591.864	46742
591.917	43260
591.924	42707
591.969	42441
591.995	42290
592.022	42838
592.066	43615
592.075	44125
592.127	46964
592.137	47462
592.180	49798
592.208	51047
592.233	48324
592.279	42961
592.285	42908
592.338	42154
592.350	41928
592.390	41747
592.421	41535
592.443	41604
592.491	41611
592.495	41701
592.548	42283
592.562	42397
592.600	41591
592.633	40805
592.653	40701
592.704	40092
592.705	40332
592.775	40878
592.846	41722
592.916	42745
592.987	43769
593.058	41334
593.128	40838
593.199	39649
593.270	40700
593.341	38557
593.411	41052
593.482	41004
593.553	40319
593.623	40552
593.694	41207
593.764	43767
593.835	41757
593.906	41329
593.976	40860
594.047	43960
594.117	48804
594.188	49066
594.258	42836
594.329	42212
594.399	43179
594.470	43782
594.540	44289
594.611	44398
594.681	43125
594.751	43800
594.822	47504
594.892	47381
594.963	47801
595.033	48786
595.103	50012
595.174	51572
595.244	66223
595.314	73268
595.384	51789
595.455	50750
595.525	52451
595.595	55401
595.665	53339
595.736	53118
595.806	52842
595.876	53570
595.946	53823
596.016	53428
596.087	55245
596.157	56765
596.227	55001
596.297	58185
596.367	61428
596.437	66884
596.507	75607
596.577	82132
596.647	66833
596.717	66341
596.787	66881
596.857	66958
596.927	66607
596.997	66271
597.067	67641
597.137	69122
597.207	69739
597.277	69087
597.347	68137
597.417	64891
597.487	66177
597.557	68390
597.626	69291
597.696	72088
597.766	76707
597.836	83284
597.906	67871
597.975	62189
598.045	61852
598.115	64630
598.185	67725
598.254	74974
598.324	79999
598.394	81821
598.464	79300
598.533	76792
598.603	73515
598.672	72405
598.742	72446
598.812	73624
598.881	75177
598.951	72798
599.020	74704
599.090	76447
599.159	77950
599.229	75327
599.299	72413
599.368	75311
599.437	73461
599.507	69442
599.576	68208
599.646	67707
599.715	66844
599.785	66072
599.854	67319
599.924	68430
599.993	66258
600.062	65817
600.132	67492
600.201	71345
600.270	79920
600.340	83273
600.409	80902
600.478	79712
600.547	82336
600.617	77184
600.686	63810
600.755	59485
600.824	59560
600.894	57105
600.963	56434
601.032	55055
601.101	54943
601.170	52988
601.239	53672
601.308	54978
601.378	53170
601.447	53178
601.516	52358
601.585	55406
601.654	57054
601.723	55471
601.792	56533
601.861	56937
601.930	60999
601.999	63346
602.068	60527
602.137	62610
602.206	62400
602.275	62513
602.343	67126
602.412	64835
602.481	62179
602.550	60987
602.619	64612
602.688	63670
602.756	64273
602.825	64149
602.894	64842
602.963	66370
603.032	67032
603.100	66704
603.169	67372
603.238	67823
603.307	67139
603.375	66981
603.444	69374
603.513	68873
603.581	70236
603.650	71221
603.719	67704
603.787	68666
603.856	72066
603.924	72777
603.993	75478
604.061	76969
604.130	79075
604.198	80717
604.267	82788
604.335	83455
604.404	82632
604.472	85125
604.541	85849
604.609	85344
604.678	87418
604.746	87787
604.815	90915
604.883	90919
604.951	90191
605.020	90486
605.088	92451
605.156	94413
605.225	94187
605.293	94208
605.361	93583
605.429	96337
605.498	97966
605.566	100555
605.634	104312
605.702	106631
605.771	109713
605.839	110902
605.907	107427
605.975	103837
606.043	101736
606.111	101684
606.180	102571
606.248	100914
606.316	100683
606.384	102501
606.452	105204
606.520	109383
606.588	104876
606.656	102606
606.724	100823
606.792	94789
606.860	86170
606.928	77780
606.996	76230
607.064	74652
607.132	76639
607.200	82637
607.267	84134
607.335	84936
607.403	86962
607.471	83708
607.539	81854
607.607	82223
607.674	73260
607.742	74702
607.810	74041
607.878	74548
607.946	74764
608.013	78174
608.081	80181
608.149	80774
608.216	82212
608.284	84569
608.352	85188
608.419	84339
608.487	92519
608.555	83288
608.622	82087
608.690	88659
608.757	96256
608.825	98545
608.893	96095
608.960	95264
609.028	94598
609.095	99889
609.163	88478
609.230	80456
609.298	74714
609.365	75302
609.432	80588
609.500	88023
609.567	99599
609.635	112980
609.702	120352
609.769	114798
609.837	92746
609.904	79657
609.971	80950
610.039	93162
610.106	124008
610.173	241140
610.241	540970
610.308	300320
610.375	121176
610.442	87442
610.509	81481
610.577	81038
610.644	81684
610.711	84378
610.778	86227
610.845	88724
610.912	94838
610.980	98819
611.047	98377
611.114	97008
611.181	93505
611.248	92957
611.315	99114
611.382	99841
611.449	103114
611.516	106110
611.583	103067
611.650	103572
611.717	106418
611.784	109588
611.851	115190
611.918	124384
611.984	146193
612.051	216614
612.118	447730
612.185	1054733
612.252	602567
612.319	168788
612.386	140962
612.452	126196
612.519	123579
612.586	129388
612.653	122180
612.719	123918
612.786	116172
612.853	109564
612.919	105305
612.986	109472
613.053	102614
613.120	94620
613.186	91624
613.253	94677
613.319	94140
613.386	94420
613.453	96973
613.519	101220
613.586	104538
613.652	114564
613.719	106621
613.785	103098
613.852	96565
613.918	93941
613.985	97991
614.051	103198
614.118	105658
614.184	101667
614.250	96224
614.317	97234
614.383	94637
614.449	96218
614.516	97126
614.582	99901
614.648	96428
614.715	95503
614.781	93506
614.847	94612
614.914	94720
614.980	92868
615.046	92962
615.112	94577
615.179	93837
615.245	96694
615.311	100885
615.377	114198
615.443	115843
615.509	103931
615.575	104203
615.642	102750
615.708	106126
615.774	111306
615.840	119968
615.906	135198
615.972	175608
616.038	289168
616.104	566440
616.170	1252665
616.236	961665
616.302	244700
616.368	181251
616.434	134138
616.500	124738
616.565	138383
616.631	167911
616.697	136974
616.763	144860
616.829	220295
616.895	379221
616.961	341926
617.026	148999
617.092	107247
617.158	102827
617.224	100239
617.289	93358
617.355	89626
617.421	88760
617.487	89794
617.552	84414
617.618	82499
617.684	81951
617.749	85212
617.815	80808
617.880	79187
617.946	78980
618.012	80696
618.077	81321
618.143	77360
618.208	79699
618.274	85396
618.339	86163
618.405	72738
618.470	73514
618.536	74084
618.601	75861
618.667	69572
618.732	65525
618.798	65159
618.863	64295
618.928	63190
618.994	67064
619.059	69397
619.124	78879
619.190	67526
619.255	64717
619.320	65096
619.386	63768
619.451	62270
619.516	61082
619.581	63052
619.647	65005
619.712	62731
619.777	62329
619.842	63411
619.907	63970
619.972	64513
620.038	65727
620.103	63846
620.168	62349
620.233	63204
620.298	63191
620.363	63633
620.428	64921
620.493	65304
620.558	65865
620.623	67412
620.688	67258
620.753	65305
620.818	67214
620.883	67849
620.948	67066
621.013	66858
621.078	65755
621.143	67273
621.207	70783
621.272	69260
621.337	69179
621.402	70206
621.467	76376
621.532	76716
621.596	70726
621.661	66831
621.726	65109
621.791	66472
621.855	68549
621.920	67421
621.985	69152
622.049	74287
622.114	71680
622.179	71080
622.243	72318
622.308	72995
622.373	76205
622.437	74130
622.502	70970
622.566	69511
622.631	68857
622.695	71587
622.760	71038
622.824	70565
622.889	71070
622.953	73483
623.018	88976
623.082	87119
623.147	74395
623.211	71436
623.276	71892
623.340	67954
623.404	67196
623.469	66704
623.533	67621
623.597	66000
623.662	66081
623.726	61195
623.790	58907
623.854	58686
623.919	59467
623.983	60286
624.047	60447
624.111	60709
624.176	62389
624.240	65350
624.304	67411
624.368	62001
624.432	61571
624.496	63669
624.560	67676
624.625	71308
624.689	65377
624.753	66693
624.817	65862
624.881	62120
624.945	58381
625.009	56596
625.073	59401
625.137	61430
625.201	69727
625.265	67257
625.329	59836
625.393	60731
625.456	60535
625.520	62354
625.584	66405
625.648	73217
625.712	95068
625.776	156800
625.839	163185
625.903	78118
625.967	58061
626.031	81855
626.095	108498
626.158	62813
626.222	47342
626.286	45727
626.349	43582
626.413	41236
626.477	44997
626.540	42837
626.604	41289
626.668	42858
626.731	41210
626.795	43314
626.858	42606
626.922	40478
626.986	40046
627.049	38896
627.113	41700
627.176	40905
627.240	40164
627.303	38232
627.366	39877
627.430	39342
627.493	39852
627.557	39516
627.620	39959
627.684	41105
627.747	41765
627.810	37014
627.874	35430
627.937	34369
628.000	36719
628.064	36925
628.127	31137
628.190	31831
628.253	32190
628.317	31438
628.380	30384
628.443	30080
628.506	30002
628.569	28871
628.632	26732
628.696	27798
628.759	28028
628.822	26076
628.885	26206
628.948	26143
629.011	26243
629.074	26505
629.137	25385
629.200	25307
629.263	27615
629.326	23370
629.389	23465
629.452	25335
629.515	25602
629.578	24710
629.641	25969
629.704	26121
629.767	26041
629.830	23780
629.892	23288
629.955	22359
630.018	25432
630.081	25386
630.144	29429
630.207	24868
630.269	25842
630.332	25855
630.395	24053
630.458	23259
630.520	20680
630.583	22646
630.646	22760
630.708	21603
630.771	22006
630.834	23750
630.896	21648
630.959	22085
631.021	21586
631.084	22677
631.146	24549
631.209	26399
631.272	22227
631.334	21950
631.397	21896
631.459	21706
631.522	23750
631.584	23964
631.646	25192
631.709	25694
631.771	30071
631.834	26311
631.896	24123
631.958	20305
632.021	22741
632.083	20651
632.145	22754
632.208	20082
632.270	22787
632.332	20399
632.395	20202
632.457	21857
632.519	20728
632.581	22709
632.643	20678
632.706	20863
632.768	19143
632.830	20991
632.892	19728
632.954	19500
633.016	21150
633.078	20426
633.141	19695
633.203	20299
633.265	20167
633.327	19360
633.389	19712
633.451	21852
633.513	24861
633.575	25343
633.637	24408
633.698	22183
633.760	20776
633.822	21422
633.884	22447
633.946	21811
634.008	21853
634.070	23259
634.132	23156
634.193	23981
634.255	26877
634.317	26961
634.379	27707
634.441	23668
634.502	23021
634.564	21587
634.626	20341
634.687	19253
634.749	19351
634.811	19109
634.873	17775
634.934	19215
634.996	19728
635.057	18534
635.119	18653
635.181	18946
635.242	19988
635.304	17243
635.365	21189
635.427	18566
635.488	18663
635.550	17936
635.611	20402
635.673	17165
635.734	21500
635.796	21093
635.857	24184
635.918	21998
635.980	25657
636.041	25962
636.102	28546
636.164	27254
636.225	28322
636.286	23324
636.348	22187
636.409	19657
636.470	19438
636.531	19678
636.593	20580
636.654	19194
636.715	17603
636.776	16422
636.838	16128
636.899	17531
636.960	17242
637.021	15908
637.082	15298
637.143	16231
637.204	15433
637.265	14556
637.326	15278
637.387	16760
637.448	15162
637.509	15821
637.570	15998
637.631	15966
637.692	14859
637.753	12797
637.814	14880
637.875	14791
637.936	15599
637.997	14610
638.058	15815
638.119	15984
638.179	14878
638.240	14096
638.301	14160
638.362	13882
638.423	14965
638.483	16283
638.544	12457
638.605	13930
638.666	12483
638.726	14913
638.787	14270
638.848	13271
638.908	13328
638.969	14130
639.030	13132
639.090	12505
639.151	12958
639.211	14916
639.272	17844
639.332	24928
639.393	17602
639.453	13775
639.514	15538
639.574	13097
639.635	12814
639.695	13170
639.756	12399
639.816	13571
639.877	15903
639.937	23295
639.997	26806
640.058	13086
640.118	12162
640.178	13414
640.239	11441
640.299	12188
640.359	11409
640.420	13733
640.480	14728
640.540	15970
640.600	15047
640.661	14484
640.721	13224
640.781	16859
640.841	12798
640.901	12239
640.961	12981
641.021	14798
641.082	14762
641.142	19049
641.202	14525
641.262	10998
641.322	11741
641.382	10595
641.442	12179
641.502	11790
641.562	13215
641.622	11974
641.682	12933
641.742	13730
641.802	12714
641.861	13087
641.921	13318
641.981	13914
642.041	13966
642.101	15744
642.161	11692
642.221	11027
642.280	11386
642.340	10990
642.400	10763
642.460	11948
642.519	11883
642.579	11596
642.639	12500
642.698	10024
642.758	14025
642.818	11303
642.877	11226
642.937	12117
642.997	14849
643.056	17321
643.116	11844
643.175	13786
643.235	11102
643.294	12372
643.354	12751
643.414	14714
643.473	17194
643.532	18987
643.592	25642
643.651	41622
643.711	73736
643.770	149644
643.830	371277
643.889	705869
643.948	149166
644.008	30753
644.067	21089
644.126	16441
644.186	15402
644.245	12984
644.304	10248
644.363	13373
644.423	10549
644.482	11885
644.541	11867
644.600	11250
644.659	16173
644.719	18508
644.778	27346
644.837	46402
644.896	96216
644.955	206208
645.014	60231
645.073	17412
645.132	14309
645.191	13661
645.250	11386
645.309	13852
645.368	13794
645.427	17503
645.486	26949
645.545	41913
645.604	13841
645.663	12147
645.722	12045
645.781	12235
645.840	14066
645.898	17673
645.957	25186
646.016	37951
646.075	72036
646.134	142397
646.192	390376
646.251	501808
646.310	69677
646.369	22694
646.427	19621
646.486	14594
646.545	12036
646.603	12013
646.662	11921
646.721	10929
646.779	10439
646.838	10641
646.896	15284
646.955	17664
647.014	27962
647.072	51620
647.131	134405
647.189	55902
647.248	12783
647.306	10965
647.365	10979
647.423	8385
647.481	10415
647.540	8096
647.598	8702
647.657	7934
647.715	8779
647.773	7315
647.832	8800
647.890	7940
647.948	8417
648.007	8787
648.065	6648
648.123	8206
648.181	8741
648.240	8025
648.298	7183
648.356	8378
648.414	7781
648.472	8944
648.531	9521
648.589	7798
648.647	6839
648.705	8356
648.763	7948
648.821	7855
648.879	8853
648.937	9145
648.995	11055
649.053	13367
649.111	20256
649.169	33299
649.227	60618
649.285	125793
649.343	346738
649.401	139915
649.459	37884
649.516	21547
649.574	11891
649.632	15253
649.690	15596
649.748	16139
649.806	20165
649.863	37179
649.921	95969
649.979	54625
650.037	11254
650.094	6614
650.152	8009
650.210	7377
650.268	7104
650.325	7694
650.383	6637
650.440	6470
650.498	7089
650.556	7313
650.613	6839
650.671	6495
650.728	6939
650.786	7989
650.843	8694
650.901	5243
650.958	6601
651.016	5934
651.073	6712
651.131	5239
651.188	5578
651.246	6388
651.303	5393
651.360	5959
651.418	5924
651.475	6905
651.532	4460
651.590	5785
651.647	5996
651.704	5872
651.762	5787
651.819	5876
651.876	5677
651.933	4974
651.990	6226
652.048	3908
652.105	4739
652.162	5706
652.219	4982
652.276	5902
652.333	5077
652.390	4276
652.448	6330
652.505	4956
652.562	5756
652.619	5275
652.676	5430
652.733	6064
652.790	4257
652.847	3539
652.904	4485
652.961	3814
653.017	5246
653.074	5558
653.131	4875
653.188	4077
653.245	4732
653.302	5223
653.359	5083
653.415	5756
653.472	3954
653.529	5535
653.586	4711
653.642	5120
653.699	5066
653.756	4025
653.813	4362
653.869	5043
653.926	4414
653.983	5342
654.039	4860
654.096	4343
654.152	5823
654.209	2913
654.266	5663
654.322	4363
654.379	5959
654.435	6443
654.492	6514
654.548	9694
654.605	13628
654.661	7228
654.717	5219
654.774	4840
654.830	5018
654.887	5232
654.943	4985
655.000	5882
655.056	4790
655.112	4237
655.168	4089
655.225	5140
655.281	6317
655.337	7567
655.394	12103
655.450	8741
655.506	8528
655.562	12116
655.618	9354
655.675	4226
655.731	4875
655.787	3951
655.843	6279
655.899	3680
655.955	4857
656.011	5638
656.067	3361
656.123	5289
656.179	4573
656.235	5985
656.291	3628
656.347	5594
656.403	4863
656.459	4988
656.515	5772
656.571	6046
656.627	5763
656.683	5092
656.739	4939
656.795	5427
656.850	5345
656.906	6230
656.962	5359
657.018	4239
657.074	5741
657.129	5713
657.185	8580
657.241	14027
657.297	8521
657.352	4828
657.408	4179
657.464	6660
657.519	5079
657.575	3695
657.630	4594
657.686	5056
657.742	3804
657.797	4161
657.853	4307
657.908	5720
657.964	4573
658.019	4474
658.075	4835
658.130	4659
658.186	3732
658.241	4246
658.297	3425
658.352	3968
658.407	4261
658.463	3678
658.518	4262
658.573	4876
658.629	4162
658.684	4273
658.739	4965
658.795	3126
658.850	4202
658.905	3383
658.960	3591
659.016	3675
659.071	4835
659.126	4550
659.181	5010
659.236	8923
659.291	8359
659.346	4422
659.401	3690
659.457	4433
659.512	4040
659.567	5486
659.622	4529
659.677	3591
659.732	3630
659.787	4213
659.842	5192
659.897	7035
659.952	5113
660.007	4326
660.061	3971
660.116	3380
660.171	4287
660.226	3863
660.281	5246
660.336	2889
660.391	4553
660.445	3672
660.500	4267
660.555	4578
660.610	4145
660.664	4376
660.719	3870
660.774	4436
660.828	3636
660.883	4131
660.938	4422
660.992	3140
661.047	4335
661.101	3171
661.156	4360
661.211	2974
661.265	4334
661.320	4147
661.374	3755
661.429	3194
661.483	4524
661.538	3524
661.592	3848
661.647	4180
661.701	3974
661.755	4979
661.810	4091
661.864	3867
661.919	3516
661.973	5111
662.027	4614
662.081	3225
662.136	3984
662.190	5248
662.244	4862
662.299	4859
662.353	4498
662.407	3727
662.461	4807
662.515	4335
662.569	4073
662.624	4658
662.678	4135
662.732	3937
662.786	4248
662.840	4344
662.894	4700
662.948	3895
663.002	3173
663.056	3577
663.110	3247
663.164	4152
663.218	3707
663.272	4853
663.326	4255
663.380	4272
663.434	4683
663.488	4397
663.542	4646
663.595	4921
663.649	3968
663.703	4111
663.757	3894
663.811	3167
663.864	3738
663.918	3976
663.972	3010
664.026	3831
664.079	3589
664.133	4823
664.187	4035
664.240	3599
664.294	4320
664.348	4097
664.401	4150
664.455	3340
664.508	4081
664.562	4065
664.615	4492
664.669	2922
664.722	3910
664.776	3158
664.829	3619
664.883	4429
664.936	4075
664.990	3447
665.043	4357
665.097	4584
665.150	6637
665.203	4235
665.257	4833
665.310	4537
665.363	4470
665.417	5130
665.470	4871
665.523	3926
665.576	4563
665.630	3540
665.683	4908
665.736	5195
665.789	3668
665.842	3733
665.895	4305
665.949	4146
666.002	4731
666.055	4769
666.108	5355
666.161	4164
666.214	5266
666.267	5151
666.320	5910
666.373	5308
666.426	5131
666.479	4048
666.532	5407
666.585	4795
666.638	5676
666.691	4942
666.744	6219
666.796	4837
666.849	5304
666.902	4704
666.955	4172
667.008	3861
667.060	3888
667.113	2890
667.166	3912
667.219	4786
667.271	4851
667.324	3897
667.377	4097
667.430	4764
667.482	3778
667.535	4046
667.587	5446
667.640	4626
667.693	5771
667.745	8982
667.798	9270
667.850	5019
667.903	5444
667.955	4499
668.008	4458
668.060	4719
668.113	4861
668.165	4923
668.218	5066
668.270	5862
668.322	4525
668.375	3660
668.427	4929
668.479	3995
668.532	4773
668.584	4895
668.636	3853
668.689	5133
668.741	4918
668.793	4236
668.845	4689
668.898	5232
668.950	5044
669.002	4846
669.054	4776
669.106	3501
669.158	5151
669.211	4461
669.263	4340
669.315	5493
669.367	5175
669.419	4395
669.471	5408
669.523	5720
669.575	6451
669.627	5174
669.679	4791
669.731	4440
669.783	5298
669.835	5800
669.886	4229
669.938	5039
669.990	5276
670.042	4488
670.094	5368
670.146	4093
670.197	6352
670.249	6585
670.301	6581
670.353	8713
670.404	10435
670.456	14726
670.508	23680
670.560	38653
670.611	66387
670.663	116563
670.715	292992
670.766	413618
670.818	101945
670.869	19397
670.921	12540
670.972	9995
671.024	7823
671.075	7201
671.127	6302
671.178	5217
671.230	6255
671.281	5589
671.333	5938
671.384	5791
671.436	6740
671.487	8409
671.538	9684
671.590	14371
671.641	20511
671.692	35588
671.744	62485
671.795	37401
671.846	13947
671.897	8539
671.949	7268
672.000	6759
672.051	5780
672.102	6182
672.153	4582
672.204	5109
672.256	5815
672.307	4748
672.358	5708
672.409	5451
672.460	5129
672.511	4562
672.562	4781
672.613	4333
672.664	4515
672.715	4525
672.766	4288
672.817	4180
672.868	4444
672.919	4304
672.970	4849
673.021	4376
673.071	3641
673.122	3198
673.173	3703
673.224	3944
673.275	4703
673.326	3805
673.376	4275
673.427	3870
673.478	3871
673.528	4154
673.579	3419
673.630	4634
673.680	4564
673.731	3428
673.782	3481
673.832	4266
673.883	4327
673.934	4009
673.984	3221
674.035	3260
674.085	4029
674.136	4668
674.186	4859
674.237	5463
674.287	7287
674.338	5787
674.388	4077
674.438	4540
674.489	4309
674.539	4465
674.589	4276
674.640	4087
674.690	4735
674.740	5471
674.791	5304
674.841	5073
674.891	4291
674.942	3622
674.992	4183
675.042	4032
675.092	3535
675.142	3239
675.193	2996
675.243	3343
675.293	4005
675.343	3094
675.393	4195
675.443	3750
675.493	3454
675.543	2621
675.593	4172
675.643	3846
675.693	3828
675.743	3846
675.793	4918
675.843	3551
675.893	4249
675.943	3346
675.993	3558
676.043	3584
676.093	3944
676.142	3375
676.192	3451
676.242	2914
676.292	3586
676.341	2996
676.391	4492
676.441	2666
676.491	3374
676.540	3067
676.590	3556
676.640	3552
676.689	3696
676.739	2734
676.789	3595
676.838	3456
676.888	3786
676.937	3731
676.987	3049
677.037	3460
677.086	2147
677.136	2917
677.185	2950
677.235	2523
677.284	2409
677.333	3058
677.383	2747
677.432	2517
677.482	3206
677.531	2922
677.580	2640
677.630	2443
677.679	2374
677.728	3966
677.778	3067
677.827	2614
677.876	3095
677.925	3278
677.975	3310
678.024	3350
678.073	3571
678.122	3698
678.171	2646
678.220	3408
678.269	4502
678.319	3892
678.368	3474
678.417	3304
678.466	3468
678.515	4092
678.564	3788
678.613	2973
678.662	3213
678.711	2909
678.760	3238
678.809	2342
678.857	3590
678.906	3502
678.955	4065
679.004	3769
679.053	3256
679.102	2991
679.151	3831
679.199	2282
679.248	2308
679.297	3153
679.346	3236
679.394	2232
679.443	2446
679.492	2776
679.540	3552
679.589	3120
679.638	3276
679.686	2591
679.735	2437
679.784	3439
679.832	3151
679.881	2891
679.929	2825
679.978	2560
680.026	2755
680.075	3125
680.123	2234
680.172	2466
680.220	1732
680.268	3004
680.317	2309
680.365	3028
680.414	2882
680.462	2668
680.510	3107
680.559	2040
680.607	2144
680.655	2648
680.703	2690
680.752	2287
680.800	2237
680.848	2237
680.896	2046
680.945	2042
680.993	2336
681.041	1993
681.089	1968
681.137	1752
681.185	1842
681.233	2065
681.258	2483
681.281	2846
681.329	2111
681.377	1941
681.380	2015
681.425	2747
681.473	3511
681.502	3340
681.521	3156
681.569	3657
681.617	2298
681.624	2366
681.665	2553
681.713	3027
681.745	3025
681.761	2972
681.809	2720
681.857	3534
681.867	3534
681.904	3406
681.952	3913
681.989	3676
682.000	3560
682.048	3655
682.096	3103
682.111	3359
682.143	3795
682.191	3551
682.233	4051
682.239	4091
682.286	3951
682.334	3092
682.354	3150
682.382	3182
682.430	3682
682.476	4413
682.477	4399
682.525	3922
682.572	3520
682.598	3690
682.620	3786
682.667	3503
682.715	4205
682.720	4173
682.763	3586
682.810	4706
682.841	4795
682.857	4785
682.905	4369
682.952	4264
682.963	4405
683.000	4778
683.047	4549
683.085	5319
683.095	5483
683.142	4760
683.190	4762
683.206	4967
683.237	5335
683.284	4842
683.328	5153
683.332	5152
683.379	4881
683.426	5156
683.449	5228
683.473	5281
683.521	5449
683.568	5339
683.571	5355
683.615	5117
683.662	5416
683.693	5487
683.709	5526
683.757	5305
683.804	6190
683.814	6046
683.851	5484
683.898	6037
683.936	5724
683.945	5619
683.992	5852
684.039	6424
684.057	6380
684.086	6264
684.133	6336
684.179	6438
684.180	6415
684.227	6824
684.274	7025
684.300	6941
684.321	6865
684.368	6522
684.415	6717
684.422	6709
684.462	6452
684.509	6749
684.543	6474
684.556	6375
684.603	6692
684.649	6418
684.665	6449
684.696	6551
684.743	7302
684.786	7204
684.790	7185
684.837	7153
684.883	8103
684.908	8174
684.930	8113
684.977	8335
685.023	7370
685.029	7414
685.070	7537
685.117	7134
685.150	7260
685.164	7374
685.210	8277
685.257	8613
685.272	8721
685.303	8720
685.350	8109
685.393	8771
685.396	8826
685.443	8991
685.490	9217
685.514	9064
685.536	8818
685.583	9756
685.629	9004
685.636	9015
685.675	8843
685.722	8398
685.757	8074
685.768	8044
685.815	9079
685.861	9269
685.878	9215
685.908	9092
685.954	9417
686.000	9628
686.000	9628
686.047	10006
686.093	11599
686.121	11967
686.139	11725
686.185	10357
686.232	9264
686.242	9171
686.278	9171
686.324	9264
686.363	9100
686.370	9095
686.416	8973
686.463	9323
686.484	9371
686.509	9347
686.555	9067
686.601	9080
686.606	9055
686.647	8796
686.693	9106
686.727	8608
686.739	8482
686.785	8979
686.831	9053
686.848	9359
686.877	9817
686.923	9205
686.969	9276
686.969	9275
687.015	9446
687.061	9646
687.090	9983
687.107	10121
687.153	9852
687.199	9152
687.211	9276
687.245	9788
687.291	9909
687.332	10596
687.336	10647
687.382	11141
687.428	10960
687.453	10533
687.474	10063
687.520	10683
687.565	9907
687.574	9787
687.611	9626
687.657	10395
687.695	10327
687.702	10344
687.748	11224
687.794	11437
687.816	11482
687.839	11086
687.885	10239
687.931	9260
687.937	9241
687.976	9870
688.022	9963
688.058	10585
688.067	10717
688.113	10447
688.158	10353
688.179	10439
688.204	10545
688.249	10998
688.295	10993
688.300	11075
688.340	11688
688.386	11370
688.421	11286
688.431	11263
688.477	11438
688.522	11246
688.542	11402
688.567	11530
688.613	11143
688.658	11002
688.663	10954
688.703	10857
688.749	11537
688.784	11573
688.794	11530
688.839	11436
688.884	11360
688.905	11168
688.930	11032
688.975	11140
689.020	10984
689.026	10929
689.065	10747
689.110	10941
689.146	11093
689.155	11114
689.201	10597
689.246	11116
689.267	11038
689.291	11062
689.336	11219
689.381	11427
689.388	11405
689.426	11352
689.471	11458
689.509	11651
689.516	11650
689.561	11327
689.606	10920
689.630	10894
689.651	11087
689.696	11034
689.741	11541
689.750	11567
689.785	11593
689.830	11769
689.871	11436
689.875	11398
689.920	11385
689.965	10861
689.992	10937
690.010	11158
690.054	11269
690.099	11379
690.112	11535
690.144	11825
690.189	11392
690.233	11087
690.233	11101
690.278	10944
690.323	11079
690.354	11198
690.367	11369
690.412	11443
690.457	11927
690.474	12028
690.501	11826
690.546	11211
690.590	10730
690.595	10682
690.635	10942
690.680	11283
690.716	11083
690.724	11026
690.769	11277
690.813	11748
690.836	11522
690.857	11586
690.902	12493
690.946	12830
690.957	12880
690.991	13042
691.035	13516
691.077	14117
691.080	14169
691.124	14291
691.168	14815
691.198	14907
691.213	14754
691.257	14232
691.301	14034
691.318	13928
691.346	13652
691.390	12426
691.434	11770
691.439	11684
691.478	11813
691.522	12436
691.559	12215
691.567	12272
691.611	12924
691.655	13198
691.680	13494
691.699	13507
691.743	13533
691.787	13538
691.800	13527
691.831	13733
691.875	14062
691.919	13798
691.921	13774
691.964	13796
692.008	14228
692.041	14129
692.052	14145
692.096	14167
692.139	14285
692.162	14280
692.183	14158
692.227	14285
692.271	14117
692.282	14053
692.315	14096
692.359	13944
692.402	13914
692.403	13939
692.447	13618
692.490	13445
692.523	13496
692.534	13697
692.578	13900
692.622	14246
692.643	14351
692.666	14245
692.709	13726
692.753	13749
692.763	13673
692.797	13780
692.840	13993
692.884	13949
692.884	13977
692.928	14113
692.971	14153
693.004	14353
693.015	14405
693.059	13754
693.102	13974
693.124	13779
693.146	13758
693.189	13765
693.233	14210
693.245	14149
693.276	14208
693.320	14554
693.363	14847
693.365	14824
693.407	14961
693.450	14914
693.485	14835
693.493	14926
693.537	15541
693.580	16143
693.605	16570
693.624	16639
693.667	16366
693.710	16022
693.725	15959
693.753	17104
693.797	18786
693.840	20298
693.845	20475
693.883	19708
693.926	18318
693.966	17440
693.970	17408
694.013	16127
694.056	15443
694.086	14868
694.099	15004
694.142	15113
694.185	15345
694.206	15377
694.229	15580
694.272	16036
694.315	16505
694.326	16540
694.358	16608
694.401	16956
694.444	17055
694.446	17020
694.487	16771
694.530	16633
694.566	16327
694.573	16236
694.616	15503
694.659	14826
694.686	14208
694.702	14031
694.745	13663
694.787	13189
694.806	13011
694.830	13374
694.873	13939
694.916	14498
694.926	14569
694.959	14390
695.002	14182
695.044	13952
695.046	13915
695.087	14456
695.130	14861
695.166	15145
695.172	15177
695.215	15114
695.258	15023
695.286	15047
695.301	15068
695.343	14812
695.386	14645
695.406	14552
695.428	14735
695.471	14869
695.514	15258
695.526	15244
695.556	15214
695.599	15553
695.641	15485
695.646	15459
695.684	15671
695.726	15742
695.766	15862
695.769	15873
695.811	15448
695.854	14940
695.886	14625
695.896	14723
695.938	14891
695.981	14957
696.005	15023
696.023	15189
696.065	15490
696.108	15964
696.125	16034
696.150	15999
696.192	16014
696.235	15844
696.245	15809
696.277	15816
696.319	15510
696.361	15529
696.365	15474
696.404	15411
696.446	15399
696.485	15112
696.488	15167
696.530	15668
696.572	15934
696.604	16338
696.614	16306
696.656	15752
696.698	15324
696.724	14915
696.740	15003
696.783	15274
696.825	15481
696.844	15544
696.867	15656
696.909	15738
696.951	15929
696.964	15902
696.992	15686
697.034	15394
697.076	15177
697.083	15094
697.118	15521
697.160	15968
697.202	16268
697.203	16235
697.244	15856
697.286	15506
697.323	14983
697.327	15042
697.369	15304
697.411	15480
697.442	15726
697.453	15890
697.494	16227
697.536	16601
697.562	16802
697.578	16893
697.620	17011
697.661	17100
697.682	17091
697.703	17380
697.744	17929
697.786	18513
697.801	18633
697.828	18626
697.869	18508
697.911	18473
697.921	18434
697.952	18135
697.994	17555
698.035	17043
698.040	16925
698.077	16575
698.118	16168
698.160	15820
698.160	15775
698.201	16176
698.243	16567
698.279	16904
698.284	16949
698.325	16971
698.367	16885
698.399	16808
698.408	16806
698.449	16553
698.491	16346
698.518	16182
698.532	16327
698.573	16591
698.614	16852
698.638	16967
698.656	17058
698.697	17164
698.738	17258
698.757	17263
698.779	17432
698.820	17647
698.862	17877
698.877	17909
698.903	18081
698.944	18291
698.985	18495
698.996	18504
699.026	18207
699.067	17725
699.116	17106
699.235	17069
699.354	16856
699.474	17287
699.593	20944
699.713	18522
699.832	17821
699.951	17863
700.070	16677
700.190	16454
700.309	16841
700.428	17587
700.547	17541
700.667	17107
700.786	18780
700.905	16228
701.024	16902
701.143	16239
701.262	16080
701.381	16102
701.500	16810
701.619	17613
701.738	16225
701.857	15063
701.976	15247
702.095	14800
702.214	16867
702.333	15625
702.452	15906
702.571	15230
702.690	16147
702.809	14868
702.928	13952
703.047	14869
703.165	13727
703.284	14375
703.403	14547
703.522	16728
703.640	15765
703.759	19384
703.878	23784
703.997	15055
704.115	13707
704.234	13766
704.353	14195
704.471	13230
704.590	13284
704.708	13014
704.827	12356
704.946	13635
705.064	14570
705.183	14146
705.301	16288
705.420	23485
705.538	20178
705.656	17141
705.775	16081
705.893	19478
706.012	20894
706.130	16974
706.249	18474
706.367	18670
706.485	19088
706.604	18243
706.722	18961
706.840	22083
706.958	21706
707.077	17648
707.195	17208
707.313	16490
707.431	15670
707.549	15900
707.668	16652
707.786	15949
707.904	15755
708.022	15932
708.140	15296
708.258	14512
708.376	16988
708.494	15785
708.612	17677
708.730	25098
708.848	23138
708.966	20657
709.084	19924
709.202	18406
709.320	20015
709.438	19514
709.556	19707
709.674	20032
709.791	20155
709.909	18611
710.027	18452
710.145	18563
710.263	19014
710.380	19204
710.498	17719
710.616	17941
710.733	18825
710.851	18960
710.969	19686
711.086	17686
711.204	17555
711.322	18011
711.439	17543
711.557	18309
711.674	17806
711.792	18837
711.909	17204
712.027	17123
712.144	16009
712.262	17094
712.379	20083
712.497	26727
712.614	26248
712.732	21901
712.849	21011
712.966	23855
713.084	27410
713.201	23152
713.318	22369
713.436	21458
713.553	21927
713.670	22176
713.787	25683
713.905	23976
714.022	21837
714.139	22099
714.256	25213
714.373	29951
714.490	44903
714.608	109474
714.725	434398
714.842	369039
714.959	36624
715.076	24317
715.193	21638
715.310	20647
715.427	18568
715.544	18138
715.661	18967
715.778	18510
715.895	20320
716.011	20027
716.128	18611
716.245	19918
716.362	19599
716.479	20806
716.596	17353
716.713	17907
716.829	17725
716.946	17037
717.063	16170
717.180	15190
717.296	16477
717.413	16477
717.530	16932
717.646	15430
717.763	15761
717.880	15030
717.996	14895
718.113	16335
718.229	15236
718.346	14421
718.462	16030
718.579	19327
718.695	30247
718.812	23735
718.928	21342
719.045	16074
719.161	13603
719.277	14855
719.394	14875
719.510	14589
719.626	14853
719.743	19716
719.859	22694
719.975	37194
720.092	132156
720.208	257594
720.324	31982
720.440	17055
720.557	18777
720.673	25317
720.789	34714
720.905	68685
721.021	23177
721.137	14584
721.253	14534
721.369	14658
721.486	16509
721.602	22056
721.718	13848
721.834	12396
721.950	12773
722.066	11913
722.181	12762
722.297	14044
722.413	12253
722.529	11784
722.645	12070
722.761	12029
722.877	11552
722.993	12538
723.108	13663
723.224	12094
723.340	11825
723.456	11267
723.571	11226
723.687	11559
723.803	11119
723.918	11110
724.034	11175
724.150	10673
724.265	14210
724.381	26728
724.497	30415
724.612	10888
724.728	11520
724.843	10418
724.959	13338
725.074	25103
725.190	27208
725.305	11059
725.421	10890
725.536	8545
725.651	9236
725.767	9745
725.882	9983
725.997	8883
726.113	10502
726.228	10151
726.343	10196
726.459	7985
726.574	9766
726.689	9057
726.804	9448
726.920	9230
727.035	9016
727.150	9651
727.265	9530
727.380	9688
727.495	9468
727.610	9328
727.725	8608
727.841	8730
727.956	10547
728.071	11186
728.186	8371
728.301	7882
728.416	9896
728.531	8604
728.645	7107
728.760	8803
728.875	9965
728.990	9404
729.105	9641
729.220	8172
729.335	9185
729.449	7677
729.564	7517
729.679	7806
729.794	8080
729.908	8689
730.023	8531
730.138	5991
730.253	8346
730.367	7275
730.482	7481
730.596	8009
730.711	7639
730.826	8076
730.940	8302
731.055	8102
731.169	7937
731.284	7090
731.398	7507
731.513	9510
731.627	8982
731.742	10326
731.856	11213
731.970	8293
732.085	10195
732.199	13074
732.313	21545
732.428	52401
732.542	149721
732.656	76184
732.771	16247
732.885	10849
732.999	10736
733.113	10658
733.227	8740
733.342	8898
733.456	8143
733.570	7834
733.684	8881
733.798	8821
733.912	7515
734.026	7482
734.140	8006
734.254	8744
734.368	16037
734.482	18110
734.596	7917
734.710	7322
734.824	8364
734.938	7629
735.052	7795
735.166	9262
735.280	8196
735.393	7849
735.507	7256
735.621	10352
735.735	18983
735.849	8793
735.962	8455
736.076	7761
736.190	7905
736.303	11057
736.417	13301
736.531	7540
736.644	8079
736.758	6044
736.872	6785
736.985	6471
737.099	6275
737.212	6604
737.326	7068
737.439	6525
737.553	5841
737.666	7051
737.780	6099
737.893	6545
738.007	6772
738.120	6517
738.233	6516
738.347	5744
738.460	6721
738.573	7151
738.687	6616
738.800	7133
738.913	8934
739.026	6754
739.140	6360
739.253	6152
739.366	6427
739.479	6219
739.592	5875
739.705	5856
739.818	6505
739.932	5419
740.045	6631
740.158	5626
740.271	6882
740.384	5499
740.497	5683
740.610	6729
740.723	6089
740.836	6273
740.949	6580
741.062	9324
741.174	7790
741.287	6385
741.400	6071
741.513	5495
741.626	6591
741.739	5981
741.851	5191
741.964	5836
742.077	5471
742.189	6186
742.302	7088
742.415	6027
742.527	6223
742.640	5692
742.753	6629
742.865	4399
742.978	5259
743.090	5142
743.203	5610
743.316	5243
743.428	5199
743.541	5266
743.653	4531
743.766	4396
743.878	5275
743.990	7322
744.103	7078
744.215	5459
744.327	6146
744.440	7404
744.552	9890
744.664	5226
744.777	5036
744.889	4763
745.001	4555
745.113	4115
745.226	4952
745.338	4919
745.450	5247
745.562	4368
745.674	5031
745.786	4681
745.898	4745
746.010	4687
746.122	4582
746.234	4860
746.347	5177
746.459	5026
746.570	4354
746.682	4153
746.794	5480
746.906	4921
747.018	5211
747.130	4787
747.242	4810
747.354	4302
747.466	5825
747.577	4468
747.689	4027
747.801	4085
747.913	3724
748.024	4431
748.136	3708
748.248	3773
748.359	4063
748.471	4791
748.583	4173
748.694	4048
748.806	4878
748.918	6307
749.029	5580
749.141	4131
749.252	5180
749.364	5496
749.475	11916
749.587	7300
749.698	4431
749.809	4200
749.921	3478
750.032	3917
750.144	4573
750.255	3497
750.366	3916
750.478	3673
750.589	4049
750.700	4138
750.811	5730
750.923	6204
751.034	12374
751.145	11548
751.256	3941
751.367	4317
751.479	4100
751.590	3430
751.701	3147
751.812	3481
751.923	3817
752.034	3847
752.145	4139
752.256	3965
752.367	3318
752.478	3063
752.589	4111
752.700	3392
752.811	3631
752.922	3011
753.032	4342
753.143	4705
753.254	3207
753.365	4144
753.476	4086
753.586	3109
753.697	3047
753.808	3124
753.919	3562
754.029	3920
754.140	3552
754.251	3924
754.361	3447
754.472	3409
754.582	2608
754.693	3353
754.804	3265
754.914	3919
755.025	2896
755.135	3663
755.246	3594
755.356	2747
755.466	3718
755.577	3631
755.687	3430
755.798	3675
755.908	3075
756.018	2685
756.129	3673
756.239	2815
756.349	3671
756.460	3340
756.570	3486
756.680	3463
756.790	3643
756.900	4338
757.011	3632
757.121	3871
757.231	3368
757.341	3618
757.451	2343
757.561	2421
757.671	3083
757.781	2228
757.891	4525
758.001	3702
758.111	3653
758.221	4190
758.331	4982
758.441	4488
758.551	7004
758.661	5125
758.771	4596
758.880	3832
758.990	4069
759.100	3365
759.210	3725
759.320	3245
759.429	3849
759.539	2643
759.649	3570
759.758	4213
759.868	3944
759.978	3690
760.087	4467
760.197	4716
760.307	5430
760.416	4024
760.526	3771
760.635	3422
760.745	4318
760.854	4782
760.964	5238
761.073	5280
761.182	4564
761.292	4753
761.401	4552
761.511	4080
761.620	4433
761.729	2903
761.839	3584
761.948	4163
762.057	4353
762.166	3711
762.276	2621
762.385	3367
762.494	3912
762.603	3395
762.712	3600
762.822	3992
762.931	3257
763.040	3657
763.149	4128
763.258	3396
763.367	4222
763.476	4117
763.585	3374
763.694	4540
763.803	4418
763.912	4627
764.021	3642
764.130	3836
764.238	4396
764.347	3867
764.456	3886
764.565	4028
764.674	4610
764.783	3859
764.891	3651
765.000	4511
765.109	4583
765.217	5247
765.326	5836
765.435	7322
765.543	7462
765.652	6682
765.761	8879
765.869	11888
765.978	17626
766.086	31137
766.195	61343
766.303	164784
766.412	440008
766.520	319193
766.629	79849
766.737	30660
766.846	18322
766.954	13039
767.062	11399
767.171	8524
767.279	7865
767.387	6464
767.496	6424
767.604	5701
767.712	5625
767.820	5254
767.928	5671
768.037	4095
768.145	5755
768.253	5549
768.361	4886
768.469	4981
768.577	4861
768.685	5303
768.793	5303
768.901	4537
769.009	6133
769.117	5081
769.225	7109
769.333	9487
769.441	13891
769.549	24921
769.657	58488
769.765	194838
769.873	347750
769.981	102193
770.088	25223
770.196	12927
770.304	10256
770.412	8393
770.519	7903
770.627	5197
770.735	5309
770.842	5095
770.950	5332
771.058	4406
771.165	5340
771.273	5157
771.380	5568
771.488	5887
771.595	5094
771.703	5115
771.810	4640
771.918	4233
772.025	5607
772.133	5766
772.240	4547
772.348	5772
772.455	5271
772.562	6088
772.670	4819
772.777	5105
772.884	3994
772.991	4672
773.099	5006
773.206	3675
773.313	4785
773.420	4716
773.528	4625
773.635	3954
773.742	4986
773.849	4544
773.956	4975
774.063	3908
774.170	4701
774.277	4412
774.384	3780
774.491	3979
774.598	4778
774.705	4978
774.812	6495
774.919	4498
775.026	5379
775.133	4639
775.239	4482
775.346	4572
775.453	3983
775.560	4456
775.667	4261
775.773	3775
775.880	4490
775.987	4484
776.093	4374
776.200	4104
776.307	3783
776.413	4177
776.520	4155
776.627	4378
776.733	4076
776.840	2901
776.946	5734
777.053	3817
777.159	5038
777.266	3433
777.372	5005
777.478	4713
777.585	5216
777.691	4546
777.798	4858
777.904	4643
778.010	6407
778.117	5941
778.223	4294
778.329	4106
778.435	4099
778.542	4273
778.648	3931
778.754	3058
778.860	4047
778.966	3266
779.072	3643
779.178	3833
779.284	2742
779.391	3230
779.497	2969
779.603	4860
779.708	3254
779.815	5356
779.920	8749
780.026	11056
780.132	4623
780.238	2412
780.344	4151
780.450	5042
780.556	3073
780.661	3542
780.767	3526
780.873	2596
780.979	3567
781.085	3448
781.190	3102
781.296	2848
781.402	3197
781.507	2691
781.613	2958
781.719	2908
781.824	2904
781.930	2753
782.035	2956
782.141	2814
782.246	2795
782.352	2809
782.457	3537
782.563	3764
782.668	3209
782.773	2976
782.879	3385
782.984	3892
783.090	4618
783.195	5404
783.300	4689
783.405	3101
783.511	3424
783.616	3716
783.721	3349
783.826	2816
783.932	3408
784.037	3082
784.142	3703
784.247	3254
784.352	3038
784.457	2929
784.562	2450
784.667	2638
784.772	3157
784.877	3480
784.982	3154
785.087	3362
785.192	3291
785.297	3260
785.402	2802
785.507	1470
785.611	3569
785.716	2528
785.821	3746
785.926	2188
786.031	3262
786.135	2423
786.240	3376
786.345	1840
786.450	3081
786.554	2821
786.659	1782
786.763	1397
786.868	3286
786.973	3339
787.077	1588
787.182	2297
787.286	3394
787.391	3242
787.495	2473
787.600	1915
787.704	1948
787.809	3280
787.913	2363
788.017	2583
788.122	2780
788.226	2486
788.330	1760
788.435	2232
788.539	3078
788.643	2351
788.747	2292
788.852	2092
788.956	2552
789.060	3801
789.164	2255
789.268	990
789.372	2947
789.476	1512
789.580	2015
789.684	1491
789.788	3570
789.892	1878
789.996	2600
790.100	2062
790.204	3102
790.308	2756
790.412	1674
790.516	2100
790.620	2535
790.724	2761
790.828	2054
790.931	1712
791.035	3598
791.139	2585
791.242	1309
791.346	2566
791.450	1979
791.554	1211
791.657	746
791.761	3316
791.864	2437
791.968	2319
792.072	3276
792.175	2310
792.279	1289
792.382	2099
792.486	2266
792.589	1293
792.693	2684
792.796	1509
792.899	2247
793.003	2644
793.106	1204
793.209	1624
793.313	3895
793.416	998
793.519	3485
793.623	4883
793.726	6096
793.829	2137
793.932	2160
794.035	1222
794.138	3478
794.242	2898
794.345	3750
794.448	3128
794.551	5212
794.654	6656
794.757	6876
794.860	3497
794.963	3455
795.066	1794
795.169	2974
795.272	1435
795.375	1791
795.477	1642
795.580	1629
795.683	1587
795.786	2811
795.889	123
795.991	2710
796.094	2735
796.197	1079
796.300	2955
796.402	1635
796.505	1573
796.608	1878
796.710	2191
796.813	1458
796.915	1067
797.018	1904
797.120	2092
797.223	613
797.326	2645
797.428	1459
797.530	2109
797.633	1987
797.735	3529
797.838	4824
797.940	3631
798.042	1159
798.145	1409
798.247	2325
798.349	723
798.452	2448
798.554	502
798.656	1384
798.758	3263
798.860	1707
798.962	1849
799.065	1217
799.167	410
799.269	2849
799.371	2521
799.473	3278
799.575	1948
799.677	2947
799.779	4289
799.881	3834
799.983	3243
800.085	1521
800.187	2055
800.289	1222
800.390	2234
800.492	1932
800.594	2921
800.696	1061
800.798	1698
800.899	1697
801.001	254
801.103	1823
801.205	1554
801.306	2012
801.408	1202
801.509	834
801.611	2233
801.713	1538
801.814	1072
801.916	2156
802.017	1596
802.119	1090
802.220	2537
802.322	376
802.423	4430
802.525	1383
802.626	1910
802.727	1953
802.829	2068
802.930	27
803.031	2821
803.133	1984
803.234	1036
803.335	1847
803.436	278
803.538	1682
803.639	1092
803.740	1954
803.841	478
803.942	2200
804.043	1131
804.144	947
804.245	1373
804.346	990
804.447	732
804.548	2812
804.649	3513
804.750	816
804.851	1161
804.952	1581
805.053	1536
805.154	345
805.255	2123
805.355	2110
805.456	256
805.557	596
805.658	285
805.758	1756
805.859	44
805.960	1196
806.061	369
806.161	1578
806.262	1568
806.362	1165
806.463	708
806.564	1939
806.664	1686
806.765	2613
806.865	2290
806.966	1194
807.066	706
807.166	1852
807.267	1351
807.367	1772
807.468	1385
807.568	572
807.668	1878
807.769	1741
807.869	52
807.969	1716
808.069	1121
808.170	1107
808.270	256
808.370	2066
808.470	1679
808.570	294
808.670	1155
808.770	1339
808.870	598
808.970	2067
809.070	1222
809.170	402
809.271	1430
809.370	730
809.470	2364
809.570	952
809.670	176
809.770	875
809.870	1203
809.970	1140
810.070	1055
810.169	1258
810.269	-141
810.369	2083
810.469	907
810.568	269
810.668	1211
810.768	538
810.867	562
810.967	346
811.066	555
811.166	290
811.265	1892
811.365	732
811.464	300
811.564	1056
811.663	765
811.763	-364
811.862	1277
811.962	2441
812.061	658
812.160	426
812.260	1791
812.359	839
812.458	1120
812.557	3888
812.657	4052
812.756	2528
812.855	1037
812.954	105
813.053	1954
813.153	1133
813.252	1222
813.351	1446
813.450	1139
813.549	1127
813.648	1731
813.747	742
813.846	1480
813.945	1024
814.044	2108
814.143	870
814.242	1639
814.341	483
814.439	1831
814.538	1755
814.637	497
814.736	1145
814.835	1598
814.933	566
815.032	1662
815.131	1267
815.229	1811
815.328	2318
815.427	1148
815.525	3058
815.624	2261
815.722	1095
815.821	1992
815.919	1959
816.018	1336
816.116	2419
816.215	1801
816.313	2344
816.412	3268
816.510	3111
816.609	3932
816.707	3274
816.805	3247
816.904	3164
817.002	3732
817.100	4757
817.198	4498
817.296	3685
817.395	4700
817.493	5734
817.591	6132
817.689	8665
817.787	10404
817.885	16913
817.983	30459
818.081	62774
818.179	150234
818.277	347727
818.375	268521
818.473	76018
818.571	30522
818.669	20882
818.767	17923
818.865	19986
818.963	21661
819.061	32984
819.158	55821
819.256	117726
819.354	267023
819.452	502843
819.549	313970
819.647	100492
819.745	42476
819.842	26845
819.940	17763
820.038	13573
820.135	10781
820.233	8992
820.330	6316
820.428	5166
820.525	6624
820.623	6472
820.720	3968
820.818	4067
820.915	4062
821.012	3794
821.110	2212
821.207	3239
821.304	2752
821.402	2291
821.499	4032
821.596	2756
821.693	2909
821.791	4657
821.888	4172
821.985	6853
822.082	4382
822.179	3955
822.276	1693
822.373	2447
822.470	1908
822.567	2677
822.664	1543
822.761	2784
822.858	1265
822.955	2131
823.052	1757
823.149	2708
823.246	1816
823.343	1395
823.440	2287
823.536	1739
823.633	952
823.730	1754
823.827	1549
823.923	2453
824.020	2465
824.117	1306
824.213	1568
824.310	2823
824.407	1615
824.503	1419
824.600	1280
824.696	712
824.793	2071
824.889	1066
824.986	1641
825.082	576
825.179	1632
825.275	2625
825.371	756
825.468	1700
825.564	950
825.660	2565
825.757	924
825.853	2323
825.949	-67
826.045	1031
826.142	634
826.238	1649
826.334	1476
826.430	656
826.526	1626
826.622	937
826.718	1568
826.814	601
826.910	1845
827.006	1024
827.102	-40
827.198	2203
827.294	665
827.390	1244
827.486	1581
827.582	218
827.678	816
827.774	2193
827.869	-555
827.965	2445
828.061	361
828.157	1519
828.252	720
828.348	388
828.444	1514
828.539	1088
828.635	1172
828.731	1633
828.826	801
828.922	2527
829.017	715
829.113	1212
829.208	1778
829.304	1118
829.399	2088
829.495	954
829.590	579
829.685	299
829.781	1033
829.876	1142
829.971	396
830.066	473
830.162	587
830.257	386
830.352	290
830.447	2199
830.543	1744
830.638	680
830.733	1901
830.828	1143
830.923	1324
831.018	879
831.113	671
831.208	1019
831.303	856
831.398	1427
831.493	215
831.588	1454
831.683	-58
831.778	1427
831.873	462
831.967	987
832.062	46
832.157	304
832.252	1538
832.346	802
832.441	1584
832.536	2916
832.631	6101
832.725	4096
832.820	913
832.914	1081
833.009	1419
833.104	1578
833.198	2335
833.293	793
833.387	1624
833.482	1516
833.576	1069
833.670	1194
833.765	962
833.859	1122
833.954	915
834.048	13
834.142	398
834.237	718
834.331	628
834.425	1102
834.519	375
834.613	2032
834.708	-90
834.802	1186
834.896	874
834.990	600
835.084	372
835.178	795
835.272	997
835.366	516
835.460	1005
835.554	-97
835.648	477
835.742	430
835.836	981
835.930	-389
836.024	1126
836.117	799
836.211	957
836.305	2843
836.399	3566
836.493	514
836.586	1084
836.680	180
836.774	277
836.867	1727
836.961	133
837.055	240
837.148	731
837.242	1335
837.335	1090
837.429	456
837.522	1369
837.616	1224
837.709	3424
837.803	1631
837.896	1043
837.989	778
838.083	2127
838.176	4938
838.269	3331
838.363	1721
838.456	1302
838.549	2259
838.642	2810
838.735	7064
838.829	3230
838.922	-145
839.015	540
839.108	135
839.201	881
839.294	996
839.387	1297
839.480	-323
839.573	2203
839.666	2670
839.759	489
839.852	414
839.945	1136
840.038	682
840.131	365
840.223	957
840.316	822
840.409	-22
840.502	-419
840.594	1040
840.687	1020
840.780	1892
840.873	178
840.965	1943
841.058	2249
841.150	4615
841.243	2013
841.336	1220
841.428	141
841.521	932
841.613	-324
841.706	1515
841.798	1169
841.890	469
841.983	131
842.075	1469
842.167	1320
842.260	73
842.352	2251
842.444	2937
842.537	4801
842.629	7274
842.721	1395
842.813	833
842.905	67
842.997	863
843.090	662
843.182	1985
843.274	3959
843.366	11923
843.458	22037
843.550	11865
843.642	1867
843.734	862
843.826	1692
843.918	1305
844.009	935
844.101	1252
844.193	458
844.285	1412
844.377	153
844.469	277
844.560	-357
844.652	593
844.744	921
844.835	376
844.927	828
845.019	1082
845.110	610
845.202	626
845.293	-633
845.385	85
845.476	583
845.568	1026
845.659	-367
845.751	1279
845.842	360
845.934	56
846.025	12
846.116	768
846.208	36
846.299	619
846.390	762
846.482	229
846.573	1108
846.664	2138
846.755	2271
846.846	2721
846.937	-676
847.029	571
847.120	-13
847.211	628
847.302	1758
847.393	-69
847.484	920
847.575	249
847.666	-205
847.757	124
847.847	751
847.938	681
848.029	494
848.120	14
848.211	111
848.302	-101
848.392	105
848.483	43
848.574	-116
848.664	-696
848.755	-69
848.846	593
848.936	101
849.027	866
849.118	323
849.208	-270
849.299	1236
849.389	2866
849.480	5089
849.570	11531
849.661	22271
849.751	37170
849.841	10451
849.932	1770
850.022	491
850.112	335
850.203	175
850.293	49
850.383	58
850.474	648
850.564	390
850.654	369
850.744	-129
850.834	-87
850.924	-252
851.014	755
851.104	513
851.194	-143
851.284	873
851.374	2021
851.464	260
851.554	1787
851.644	554
851.734	1737
851.824	897
851.914	1079
852.004	454
852.094	-170
852.183	356
852.273	462
852.363	216
852.452	287
852.542	980
852.632	69
852.721	498
852.811	717
852.901	414
852.990	682
853.080	1697
853.169	259
853.259	237
853.348	1794
853.438	2488
853.527	2220
853.617	3082
853.706	7403
853.795	13587
853.885	33951
853.974	62112
854.063	116453
854.152	174296
854.242	59114
854.331	9341
854.420	4177
854.509	2203
854.598	2431
854.687	1972
854.777	1781
854.866	120
854.955	1358
855.044	711
855.133	495
855.222	624
855.311	633
855.400	812
855.488	35
855.577	343
855.666	79
855.755	330
855.844	533
855.933	252
856.021	624
856.110	270
856.199	404
856.288	351
856.376	449
856.465	274
856.554	736
856.642	-152
856.731	756
856.819	454
856.908	360
856.996	-83
857.085	825
857.173	85
857.262	458
857.350	482
857.438	977
857.527	-77
857.615	547
857.703	922
857.792	-90
857.880	-446
857.968	-170
858.056	138
858.145	646
858.233	-372
858.321	-271
858.409	553
858.497	193
858.585	-60
858.673	1122
858.761	363
858.849	752
858.937	524
859.025	-203
859.113	470
859.201	-269
859.289	688
859.377	-654
859.465	400
859.552	801
859.640	314
859.728	613
859.816	62
859.903	-220
859.991	469
860.079	1000
860.166	377
860.254	-271
860.342	354
860.429	215
860.517	-838
860.604	867
860.692	199
860.779	456
860.867	107
860.954	214
861.042	445
861.129	63
861.216	-258
861.304	1416
861.391	-76
861.478	279
861.565	219
861.653	941
861.740	-574
861.827	746
861.914	975
862.001	1242
862.089	530
862.176	92
862.263	295
862.350	472
862.437	-230
862.524	613
862.611	469
862.698	276
862.785	-9
862.871	657
862.958	-144
863.045	680
863.132	505
863.219	-149
863.306	-486
863.392	-201
863.479	-2
863.566	99
863.652	216
863.739	449
863.826	-81
863.912	606
863.999	-17
864.086	57
864.172	396
864.259	-28
864.345	-227
864.432	50
864.518	522
864.604	-196
864.691	-221
864.777	718
864.863	1671
864.950	2493
865.036	1541
865.122	2191
865.209	2211
865.295	2318
865.381	1884
865.467	1789
865.553	2948
865.639	4215
865.726	7847
865.812	16178
865.898	32369
865.984	48198
866.070	91509
866.156	94451
866.242	22401
866.328	5878
866.414	2953
866.499	2327
866.585	2252
866.671	1244
866.757	1798
866.843	2480
866.928	1186
867.014	986
867.100	1587
867.186	2085
867.271	1650
867.357	2852
867.442	2519
867.528	1447
867.614	629
867.699	1702
867.785	2003
867.870	1095
867.956	814
868.041	2380
868.127	1906
868.212	1889
868.297	893
868.383	1284
868.468	2319
868.553	4013
868.639	4370
868.724	8552
868.809	6917
868.894	1286
868.979	388
869.065	2013
869.150	617
869.235	595
869.320	-241
869.405	965
869.490	1122
869.575	345
869.660	941
869.745	1394
869.830	543
869.915	183
870.000	602
870.085	825
870.169	478
870.254	1696
870.339	-89
870.424	282
870.509	1303
870.593	1381
870.678	401
870.763	864
870.847	805
870.932	592
871.016	1056
871.101	225
871.186	529
871.270	1546
871.355	326
871.439	1214
871.523	-3
871.608	726
871.692	653
871.777	810
871.861	795
871.945	492
872.030	1668
872.114	154
872.198	-367
872.282	50
872.367	468
872.451	396
872.535	310
872.619	-97
872.703	461
872.787	1179
872.871	725
872.955	-192
873.039	-448
873.123	1498
873.207	404
873.291	761
873.375	142
873.459	290
873.543	-182
873.627	307
873.711	184
873.794	701
873.878	349
873.962	481
874.045	580
874.129	398
874.137	329
874.213	-366
874.245	-111
874.296	301
874.352	435
874.380	501
874.460	770
874.464	780
874.547	-489
874.568	-112
874.631	1010
874.676	450
874.714	-6
874.784	1064
874.798	1268
874.881	1476
874.892	1407
874.965	991
874.999	863
875.048	659
875.107	255
875.131	88
875.215	512
875.215	512
875.298	170
875.323	273
875.381	539
875.430	634
875.465	696
875.538	702
875.548	697
875.631	932
875.646	719
875.714	-272
875.753	-68
875.798	209
875.861	515
875.881	566
875.964	777
875.968	765
876.047	770
876.076	662
876.130	358
876.183	475
876.213	589
876.291	1468
876.296	1516
876.379	425
876.398	431
876.462	500
876.506	534
876.545	575
876.613	107
876.628	35
876.711	737
876.721	788
876.794	944
876.828	527
876.877	56
876.935	690
876.960	901
877.043	628
877.043	626
877.125	378
877.150	690
877.208	1303
877.258	790
877.291	416
877.365	576
877.374	599
877.456	1392
877.472	1281
877.539	1032
877.579	1167
877.622	1101
877.687	541
877.704	450
877.787	1433
877.794	1426
877.869	1113
877.901	959
877.952	928
878.008	959
878.034	889
878.115	471
878.117	470
878.199	1059
878.222	1092
878.282	1059
878.329	997
878.364	914
878.437	829
878.447	814
878.529	79
878.544	309
878.611	1463
878.651	1130
878.694	830
878.758	716
878.776	684
878.858	556
878.865	624
878.941	1179
878.972	1199
879.023	1451
879.078	1342
879.105	1246
879.185	870
879.187	867
879.269	969
879.292	1115
879.351	1239
879.399	858
879.433	767
879.506	1426
879.516	1494
879.598	1247
879.613	1144
879.680	545
879.720	657
879.762	919
879.827	617
879.844	536
879.926	1071
879.933	1076
880.007	1093
880.040	1053
880.089	1270
880.147	1994
880.171	2186
880.253	3796
880.254	3801
880.335	4761
880.360	5244
880.417	6600
880.467	9577
880.499	12166
880.574	14604
880.580	14349
880.662	4721
880.680	3734
880.744	1996
880.787	1107
880.825	643
880.893	373
880.907	455
880.989	562
881.000	726
881.070	1296
881.106	1143
881.152	991
881.213	949
881.233	912
881.315	763
881.319	740
881.396	1012
881.426	1112
881.478	815
881.532	904
881.559	1203
881.639	1705
881.641	1692
881.722	706
881.745	554
881.803	1175
881.852	1421
881.885	1167
881.958	603
881.966	632
882.047	2062
882.064	2056
882.129	1681
882.171	1528
882.210	1850
882.277	3319
882.291	3381
882.372	2212
882.383	2060
882.454	1812
882.489	1883
882.535	1341
882.596	733
882.616	926
882.697	1608
882.702	1632
882.778	1230
882.808	1210
882.859	1403
882.914	1321
882.940	1069
883.020	343
883.021	352
883.102	1184
883.127	1541
883.183	1588
883.233	1314
883.264	1250
883.339	1214
883.345	1194
883.426	865
883.445	836
883.507	1162
883.551	1315
883.587	1282
883.657	1298
883.668	1407
883.749	1532
883.763	1664
883.830	1406
883.869	1031
883.910	1009
883.975	1386
883.991	1409
884.072	1197
884.081	1156
884.152	1358
884.187	1522
884.233	1307
884.292	1210
884.314	1363
884.394	1105
884.398	1113
884.475	962
884.504	978
884.555	1007
884.610	699
884.636	621
884.716	696
884.716	707
884.797	1965
884.821	2157
884.877	1350
884.927	683
884.958	914
885.033	1637
885.038	1606
885.118	865
885.139	742
885.199	1354
885.244	1695
885.279	1485
885.350	987
885.359	1083
885.439	1965
885.456	2117
885.520	1424
885.561	984
885.600	1147
885.667	1553
885.680	1645
885.760	2088
885.773	2130
885.840	1661
885.878	1402
885.920	1193
885.984	927
886.000	1022
886.080	1462
886.089	1495
886.160	1449
886.195	1480
886.240	1783
886.300	2080
886.320	1932
886.400	1512
886.406	1457
886.480	1960
886.511	2241
886.560	2149
886.616	1886
886.640	1972
886.720	2679
886.722	2676
886.800	1811
886.827	1640
886.879	1821
886.932	1838
886.959	1889
887.038	1979
887.039	1988
887.119	2135
887.143	2186
887.198	1825
887.248	1500
887.278	1731
887.354	2198
887.358	2193
887.437	1853
887.459	1837
887.517	2286
887.564	2562
887.596	2388
887.669	1743
887.676	1745
887.755	2016
887.774	1995
887.835	1614
887.880	1516
887.914	1954
887.985	2641
887.994	2564
888.073	1789
888.090	1651
888.153	2357
888.195	2740
888.232	2390
888.300	1728
888.311	1750
888.391	1877
888.405	1899
888.470	1920
888.510	1880
888.549	1981
888.615	2240
888.628	2218
888.708	1961
888.720	1913
888.787	2280
888.825	2478
888.866	1937
888.930	1095
888.945	1346
889.024	2661
889.035	2824
889.103	2351
889.140	2103
889.182	2232
889.245	2409
889.261	2355
889.340	2058
889.349	2019
889.419	2180
889.454	2241
889.498	2101
889.559	1919
889.577	1964
889.656	2135
889.664	2148
889.735	1938
889.768	1829
889.814	2098
889.873	2446
889.978	1622
890.083	1905
890.187	737
890.292	2333
890.397	1551
890.501	2629
890.606	487
890.710	1740
890.815	2567
890.919	2019
891.024	968
891.128	1905
891.233	1223
891.337	1874
891.442	1929
891.546	2468
891.650	1444
891.755	1945
891.859	2851
891.963	2079
892.068	1804
892.172	1639
892.276	690
892.380	2529
892.484	1878
892.589	2626
892.693	1587
892.797	2217
892.901	1861
893.005	2112
893.109	1773
893.213	2587
893.317	1839
893.421	1965
893.525	-121
893.629	1745
893.733	1497
893.837	2104
893.941	1197
894.045	2553
894.148	1062
894.252	1960
894.356	2066
894.460	1989
894.564	1420
894.667	2040
894.771	936
894.875	2109
894.978	983
895.082	1188
895.186	2294
895.289	2468
895.393	2075
895.496	2829
895.600	1852
895.703	1943
895.807	1403
895.910	2371
896.014	757
896.117	2034
896.221	1799
896.324	3227
896.427	1739
896.531	1948
896.634	1962
896.737	1398
896.840	1601
896.944	2031
897.047	1478
897.150	1378
897.253	744
897.356	1543
897.460	1592
897.563	1434
897.666	1524
897.769	1952
897.872	1063
897.975	2021
898.078	2101
898.181	1582
898.284	849
898.387	2238
898.490	643
898.593	1729
898.695	1502
898.798	2208
898.901	1370
899.004	2612
899.107	1184
899.209	1700
899.312	1597
899.415	1520
899.518	1532
899.620	1928
899.723	1313
899.826	2391
899.928	3406
900.031	2389
900.133	1020
900.236	1590
900.338	1460
900.441	1152
900.543	2013
900.646	2018
900.748	1798
900.851	2109
900.953	1099
901.055	1868
901.158	1670
901.260	1741
901.362	1005
901.465	725
901.567	998
901.669	2059
901.771	1715
901.873	1274
901.976	760
902.078	2060
902.180	1657
902.282	1145
902.384	720
902.486	2887
902.588	1488
902.690	2137
902.792	1442
902.894	2361
902.996	1985
903.098	907
903.200	600
903.302	1999
903.404	1368
903.505	1477
903.607	1164
903.709	2212
903.811	1636
903.913	2027
904.014	757
904.116	1631
904.218	678
904.319	1688
904.421	1776
904.523	1686
904.624	329
904.726	1741
904.827	1018
904.929	1642
905.030	966
905.132	2230
905.233	825
905.335	894
905.436	1340
905.537	977
905.639	1296
905.740	1228
905.841	1620
905.943	1137
906.044	1912
906.145	1656
906.247	568
906.348	2272
906.449	1484
906.550	1650
906.651	1474
906.752	961
906.854	-192
906.955	518
907.056	1109
907.157	2186
907.258	1078
907.359	1671
907.460	1128
907.561	1367
907.662	603
907.762	1781
907.863	905
907.964	1697
908.065	1744
908.166	1620
908.267	1791
908.367	1859
908.468	1392
908.569	2259
908.670	635
908.770	2493
908.871	1557
908.971	2414
909.072	2407
909.173	917
909.273	429
909.374	1843
909.474	1001
909.575	1185
909.675	995
909.776	2032
909.876	641
909.977	1618
910.077	689
910.177	2013
910.278	2234
910.378	1210
910.478	1117
910.579	1382
910.679	1051
910.779	1795
910.879	1239
910.980	770
911.080	443
911.180	1638
911.280	1293
911.380	1401
911.480	1020
911.580	1765
911.680	1081
911.780	1667
911.880	975
911.980	1850
912.080	607
912.180	1522
912.280	1210
912.380	971
912.480	385
912.580	1702
912.679	1425
912.779	2135
912.879	968
912.979	1427
913.078	1270
913.178	1908
913.278	779
913.377	1336
913.477	1034
913.577	1155
913.676	1679
913.776	1595
913.875	775
913.975	1996
914.074	563
914.174	1118
914.273	113
914.373	2528
914.472	925
914.572	897
914.671	204
914.770	1477
914.870	925
914.969	1665
915.068	519
915.167	1461
915.267	818
915.366	1377
915.465	1359
915.564	2039
915.663	1007
915.763	1503
915.862	666
915.961	1382
916.060	397
916.159	1378
916.258	763
916.357	2080
916.456	1904
916.555	1962
916.654	862
916.752	2215
916.851	1097
916.950	1123
917.049	155
917.148	1004
917.247	1749
917.345	1397
917.444	-290
917.543	967
917.642	529
917.740	1686
917.839	1041
917.937	2003
918.036	1056
918.135	348
918.233	1411
918.332	677
918.430	816
918.529	1170
918.627	959
918.726	1668
918.824	1167
918.923	1750
919.021	928
919.119	816
919.218	831
919.316	1166
919.414	1043
919.512	1671
919.611	977
919.709	1043
919.807	1567
919.905	1391
920.003	803
920.102	1013
920.200	1429
920.298	2296
920.396	579
920.494	1858
920.592	505
920.690	2070
920.788	1025
920.886	1511
920.984	1828
921.082	1992
921.180	1601
921.277	1498
921.375	1540
921.473	2031
921.571	1744
921.669	1629
921.766	2352
921.864	2013
921.962	1843
922.060	2029
922.157	1169
922.255	2101
922.352	2099
922.450	2992
922.548	1439
922.645	1878
922.743	3760
922.840	4374
922.938	4582
923.035	4981
923.133	4003
923.230	4834
923.327	5429
923.425	5089
923.522	4607
923.619	4415
923.717	3395
923.814	4492
923.911	3800
924.008	4532
924.106	3797
924.203	3828
924.300	4075
924.397	3815
924.494	3003
924.591	3542
924.688	3857
924.786	3862
924.883	3801
924.979	4474
925.077	4331
925.173	4578
925.270	3144
925.367	3935
925.464	3765
925.561	4381
925.658	3600
925.755	5005
925.852	4309
925.948	4148
926.045	4174
926.142	3676
926.239	4068
926.335	3653
926.432	3244
926.529	3805
926.625	4104
926.722	3662
926.818	3221
926.915	4486
927.011	3300
927.108	3248
927.204	2764
927.301	3528
927.397	2939
927.494	4785
927.590	3380
927.687	3434
927.783	3466
927.879	4317
927.976	2839
928.072	3511
928.168	4220
928.264	3646
928.361	2729
928.457	3926
928.553	2485
928.649	3114
928.745	3532
928.841	3401
928.937	2917
929.033	4291
929.129	2389
929.225	3682
929.321	2643
929.417	2837
929.513	3340
929.609	3284
929.705	2925
929.801	3480
929.897	2280
929.993	2436
930.089	2312
930.184	2560
930.280	3040
930.376	5298
930.471	2415
930.567	2235
930.663	2978
930.758	2264
930.854	2715
930.950	4113
931.045	3062
931.141	2740
931.236	3987
931.332	3794
931.427	2141
931.523	3949
931.618	3273
931.714	1322
931.809	2541
931.905	4079
932.000	2431
932.095	2948
932.191	3753
932.286	4233
932.381	2207
932.476	3043
932.572	2512
932.667	2682
932.762	2827
932.857	2978
932.952	2909
933.047	3486
933.142	1959
933.237	3198
933.332	3035
933.427	3237
933.522	2244
933.617	2183
933.712	2610
933.807	3268
933.902	2329
933.997	3767
934.092	1682
934.187	2182
934.282	2601
934.376	2899
934.471	2394
934.566	1731
934.661	1870
934.755	3270
934.850	2891
934.945	3383
935.039	1262
935.134	2918
935.228	1738
935.323	3134
935.417	2502
935.512	2115
935.606	1299
935.701	2671
935.795	2996
935.890	3369
935.984	2357
936.079	1816
936.173	2485
936.267	3054
936.362	1829
936.456	3186
936.550	2451
936.644	2475
936.738	2308
936.833	2651
936.927	1951
937.021	1962
937.115	2231
937.209	2282
937.303	2522
937.397	2697
937.491	1793
937.585	2602
937.679	2344
937.773	2588
937.867	2064
937.961	1977
938.055	1883
938.149	3591
938.243	1251
938.337	2102
938.430	1004
938.524	3390
938.618	1642
938.712	1717
938.805	1563
938.899	2661
938.993	3043
939.086	2253
939.180	1215
939.274	1822
939.367	2451
939.461	2551
939.554	1760
939.648	2223
939.741	1480
939.835	2016
939.928	2573
940.022	2938
940.115	1360
940.208	2384
940.302	2253
940.395	3752
940.488	1990
940.582	2208
940.675	817
940.768	2202
940.861	1812
940.954	3150
941.048	819
941.141	1777
941.234	1119
941.327	2436
941.420	2787
941.513	2887
941.606	2251
941.699	2181
941.792	1078
941.885	2403
941.978	2365
942.071	2115
942.164	119
942.257	1492
942.349	1516
942.442	2519
942.535	665
942.628	1784
942.721	1776
942.813	1571
942.906	2347
942.999	2938
943.091	962
943.184	1992
943.277	1324
943.369	2076
943.462	1179
943.554	2305
943.647	1608
943.739	2267
943.832	2660
943.924	887
944.017	923
944.109	490
944.201	1545
944.294	2032
944.386	804
944.478	2241
944.571	1162
944.663	1305
944.755	1292
944.847	1571
944.940	1250
945.032	2241
945.124	1594
945.216	2264
945.308	1189
945.400	1957
945.492	1680
945.584	2260
945.676	2007
945.768	2025
945.860	1330
945.952	2022
946.044	1577
946.136	1675
946.228	1549
946.320	1096
946.412	937
946.503	2205
946.595	2397
946.687	2372
946.779	318
946.870	1116
946.962	736
947.054	1770
947.145	1226
947.237	1635
947.329	1521
947.420	1966
947.512	729
947.603	1102
947.695	-107
947.786	1054
947.878	417
947.969	1814
948.061	1249
948.152	1472
948.243	1182
948.335	872
948.426	1525
948.517	1815
948.609	1438
948.700	944
948.791	502
948.882	1982
948.973	917
949.065	741
949.156	729
949.247	1348
949.338	494
949.429	1451
949.520	1161
949.611	290
949.702	1422
949.793	1680
949.884	664
949.975	1412
950.066	-564
950.157	1158
950.247	619
950.338	684
950.429	1168
950.520	1524
950.611	1541
950.701	1342
950.792	1796
950.883	1375
950.973	572
951.064	1806
951.155	1398
951.245	1202
951.336	626
951.427	1353
951.517	1550
951.608	1285
951.698	390
951.788	1176
951.879	229
951.969	1169
952.060	607
952.150	1401
952.240	672
952.331	317
952.421	2259
952.511	254
952.602	1080
952.692	995
952.782	521
952.872	491
952.962	1083
953.052	425
953.143	148
953.233	1585
953.323	799
953.413	948
953.503	863
953.593	650
953.683	82
953.773	407
953.863	289
953.953	716
954.042	1092
954.132	813
954.222	1738
954.312	2135
954.402	549
954.492	2203
954.581	2436
954.671	1543
954.761	152
954.850	928
954.940	205
955.030	967
955.119	352
955.209	1053
955.298	-453
955.388	1863
955.477	1291
955.567	132
955.656	-171
955.746	1925
955.835	360
955.925	397
956.014	698
956.103	1171
956.193	1081
956.282	1548
956.371	125
956.461	760
956.550	-90
956.639	699
956.728	876
956.817	1131
956.906	487
956.995	1836
957.085	263
957.174	997
957.263	-163
957.352	1252
957.441	543
957.530	496
957.619	-439
957.708	881
957.796	627
957.885	429
957.974	396
958.063	1080
958.152	-431
958.241	759
958.329	273
958.418	530
958.507	-693
958.596	1405
958.684	-81
958.773	650
958.861	-133
958.950	1295
959.039	947
959.127	911
959.216	346
959.304	590
959.393	561
959.481	438
959.570	-502
959.658	1027
959.746	-400
959.835	1521
959.923	2334
960.011	1194
960.100	1201
960.188	1536
960.276	274
960.365	1352
960.453	515
960.541	559
960.629	-314
960.717	280
960.805	-343
960.893	585
960.981	618
961.069	2059
961.158	46
961.245	1662
961.333	661
961.421	-241
961.509	1133
961.597	793
961.685	91
961.773	1104
961.861	202
961.949	1843
962.036	-535
962.124	809
962.212	-125
962.299	860
962.387	-116
962.475	1074
962.562	643
962.650	1536
962.738	855
962.825	782
962.913	543
963.000	569
963.088	724
963.175	1267
963.263	943
963.350	-64
963.438	476
963.525	1723
963.612	2155
963.700	4756
963.787	13128
963.874	5861
963.962	1150
964.049	416
964.136	-5
964.223	594
964.310	70
964.398	866
964.485	-308
964.572	1349
964.659	1998
964.746	2144
964.833	556
964.920	711
965.007	277
965.094	1707
965.181	33
965.268	367
965.355	704
965.441	537
965.528	-692
965.615	1799
965.702	160
965.789	449
965.875	-847
965.962	885
966.049	-587
966.136	697
966.222	-469
966.309	598
966.395	-249
966.482	400
966.569	-75
966.655	215
966.742	-108
966.828	1230
966.915	-414
967.001	520
967.087	-41
967.174	147
967.260	1320
967.347	1697
967.433	4164
967.519	9712
967.605	3246
967.692	-144
967.778	1297
967.864	150
967.950	75
968.036	1043
968.123	-33
968.209	1170
968.295	-777
968.381	1368
968.467	374
968.553	-277
968.639	225
968.725	124
968.811	1506
968.897	1771
968.983	434
969.069	512
969.154	425
969.240	1557
969.326	366
969.412	-77
969.497	404
969.583	145
969.669	390
969.755	409
969.840	70
969.926	1461
970.012	-114
970.097	1868
970.183	1169
970.268	616
970.354	1427
970.439	1881
970.525	6510
970.610	1461
970.696	692
970.781	237
970.866	-383
970.952	739
971.037	-563
971.122	1080
971.208	413
971.293	179
971.378	-568
971.463	522
971.549	176
971.634	224
971.719	798
971.804	1698
971.889	1186
971.974	1065
972.059	185
972.144	421
972.229	242
972.314	-289
972.399	-115
972.484	-281
972.569	598
972.654	460
972.739	2929
972.824	3404
972.908	23
972.993	-354
973.078	-29
973.163	91
973.247	323
973.332	-930
973.417	-20
973.501	-255
973.586	-231
973.671	1267
973.755	-261
973.840	1280
973.924	296
974.009	1004
974.093	792
974.178	1955
974.262	1909
974.346	2048
974.431	288
974.515	90
974.600	-25
974.684	1127
974.768	-196
974.852	1322
974.937	-560
975.021	1191
975.105	-178
975.189	-162
975.273	-172
975.358	413
975.442	-1698
975.526	486
975.610	-849
975.694	-360
975.778	150
975.862	606
975.946	-1535
976.030	1368
976.114	-742
976.198	193
976.281	-528
976.365	-234
976.449	-434
976.533	650
976.617	-539
976.700	340
976.784	72
976.868	30
976.951	627
977.035	1089
977.119	-434
977.202	426
977.286	-319
977.369	363
977.453	1185
977.536	855
977.620	-411
977.703	1500
977.787	-122
977.870	797
977.953	-43
978.037	-885
978.120	273
978.203	255
978.287	2588
978.370	1987
978.453	-92
978.536	1021
978.620	1141
978.703	2648
978.786	234
978.869	410
978.952	-1255
979.035	862
979.118	657
979.201	162
979.284	-254
979.367	-57
979.450	291
979.533	-44
979.616	-10
979.699	-49
979.782	300
979.865	684
979.948	-33
980.030	-631
980.113	-706
980.196	-487
980.279	568
980.361	-202
980.444	-621
980.526	317
980.609	460
980.692	930
980.774	744
980.857	-383
980.939	636
981.022	412
981.104	427
981.187	-93
981.269	60
981.352	355
981.434	-924
981.516	265
981.599	947
981.681	-141
981.763	-27
981.846	1170
981.928	129
982.010	-481
982.092	-1312
982.174	1045
982.256	-337
982.339	192
982.421	-243
982.503	190
982.585	-1548
982.667	610
982.749	391
982.831	-395
982.913	-753
982.995	418
983.077	-817
983.158	1205
983.240	-816
983.322	624
983.404	47
983.486	332
983.568	517
983.649	396
983.731	587
983.813	-123
983.894	541
983.976	37
984.058	-99
984.139	1099
984.221	-683
984.302	1462
984.384	-235
984.465	134
984.547	14
984.628	-402
984.710	606
984.791	1062
984.872	-1007
984.954	475
985.035	335
985.116	240
985.198	-359
985.279	1219
985.360	-150
985.441	128
985.522	114
985.604	265
985.685	-1466
985.766	629
985.847	591
985.928	-569
986.009	-247
986.090	476
986.171	321
986.252	-146
986.333	-857
986.414	-568
986.495	437
986.576	203
986.656	248
986.737	-28
986.818	-238
986.899	-206
986.980	-257
987.060	1191
987.141	-729
987.222	390
987.302	742
987.383	708
987.464	173
987.544	1192
987.625	563
987.705	926
987.786	23
987.866	954
987.947	39
988.027	122
988.108	-164
988.188	796
988.268	-460
988.349	335
988.429	-465
988.509	714
988.589	-832
988.670	-679
988.750	988
988.830	218
988.910	112
988.990	-50
989.070	-610
989.151	676
989.231	110
989.311	803
989.391	806
989.471	420
989.551	-716
989.631	374
989.711	242
989.791	152
989.870	-339
989.950	896
990.030	-1059
990.110	24
990.190	-530
990.269	473
990.349	-242
990.429	415
990.509	165
990.588	457
990.668	122
990.747	455
990.827	-105
990.907	507
990.986	-605
991.066	778
991.145	-931
991.225	679
991.304	-180
991.383	-395
991.463	-1195
991.542	697
991.622	-424
991.701	27
991.780	-492
991.859	526
991.939	-481
992.018	279
992.097	-407
992.176	-426
992.256	229
992.335	-576
992.414	946
992.493	291
992.572	-631
992.651	736
992.730	-617
992.809	334
992.888	-887
992.967	281
993.046	-703
993.125	119
993.203	-1435
993.282	374
993.361	-1086
993.440	-77
993.519	-608
993.597	-245
993.676	-589
993.755	746
993.834	-1118
993.912	-490
993.991	271
994.069	-94
994.148	-343
994.226	547
994.305	-698
994.384	-407
994.462	973
994.540	-6
994.619	-210
994.697	495
994.776	-904
994.854	1177
994.932	-1255
995.011	98
995.089	-896
995.167	105
995.245	-681
995.324	-836
995.402	527
995.480	-15
995.558	-820
995.636	-1304
995.714	-1836
995.792	819
995.870	-814
995.948	-1153
996.026	-267
996.104	-529
996.182	305
996.260	-15
996.338	-414
996.416	-129
996.494	-1261
996.572	830
996.649	-165
996.727	-815
996.805	246
996.883	-341
996.960	-776
997.038	87
997.116	-507
997.193	-259
997.271	-307
997.348	-144
997.426	-180
997.504	-310
997.581	-215
997.658	808
997.736	-1901
997.813	-24
997.891	-387
997.968	-397
998.046	-580
998.123	-117
998.200	219
998.277	-743
998.355	-995
998.432	-1535
998.509	-1071
998.586	417
998.663	-658
998.741	-698
998.818	-1757
998.895	-840
998.972	-651
999.049	-1188
999.126	-1904
999.203	526
999.280	-664
999.357	-775
999.434	-568
999.511	-1150
999.587	-664
999.664	-857
999.741	-1085
999.818	251
999.895	-1139
999.971	-904
1000.048	-1165
1000.125	645
1000.202	-1409
1000.278	-401
1000.355	-240
1000.431	234
1000.508	-1913
1000.584	-259
1000.661	-806
1000.738	-1088
1000.814	-1225
1000.890	-354
1000.967	-1071
1001.043	-460
1001.120	-1597
1001.196	-335
1001.272	-1828
1001.349	-318
1001.425	102
1001.501	-278
1001.577	-1573
1001.654	-290
1001.730	-1047
1001.806	-49
1001.882	-2328
1001.958	13
1002.034	-944
1002.110	-26
1002.186	-1307
1002.262	-606
1002.338	-1829
1002.414	-866
1002.490	-695
1002.566	-429
1002.642	-1786
1002.718	490
1002.794	-1218
1002.870	-317
1002.945	-593
1003.021	-738
1003.097	-1728
1003.173	-377
1003.248	-1410
1003.324	-1395
1003.400	-1290
1003.475	-1073
1003.551	-1191
1003.626	-565
1003.702	-1886
1003.777	-327
1003.853	-1215
1003.928	-1169
1004.004	-1530
1004.079	-290
1004.155	-1438
1004.230	-1245
1004.305	-339
1004.381	-1062
1004.456	-1420
1004.531	-232
1004.607	-776
1004.682	-889
1004.757	-668
1004.832	-487
1004.907	-2023
1004.982	-870
1005.057	-1210
1005.133	-1144
1005.208	-1185
1005.283	-1122
1005.358	-814
1005.433	-1099
1005.508	-1539
1005.583	-934
1005.657	-902
1005.732	-978
1005.807	-1408
1005.882	-710
1005.957	-1864
1006.032	-213
1006.106	-1386
1006.181	-960
1006.256	-669
1006.331	-2140
1006.405	-1663
1006.480	-342
1006.554	-1787
1006.629	-1255
1006.704	-1856
1006.778	-902
1006.853	-1022
1006.927	-1703
1007.002	-1543
1007.076	-1493
1007.150	-1762
1007.225	-1093
1007.299	-1212
1007.373	-1914
1007.448	-1729
1007.522	3
1007.596	-683
1007.671	-1460
1007.745	-1507
1007.819	-681
1007.893	-1619
1007.967	-939
1008.041	-2256
1008.115	-90
1008.190	-2384
1008.264	275
1008.338	-2359
1008.412	-1244
1008.486	-1584
1008.560	-1632
1008.633	-1892
1008.707	-1084
1008.781	-1758
1008.855	-1007
1008.929	-1188
1009.003	-2157
1009.076	-1453
1009.150	-1192
1009.224	-2060
1009.298	-648
1009.371	-1979
1009.445	-1183
1009.519	-1720
1009.592	-1867
1009.666	-794
1009.739	-1274
1009.813	-2530
1009.886	-90
1009.960	-2418
1010.033	-345
1010.107	6
1010.180	-1218
1010.253	-2119
1010.327	-1621
1010.400	-1541
1010.473	-1504
1010.547	-1065
1010.620	-1166
1010.693	-769
1010.766	-1579
1010.840	-1392
1010.913	-1368
1010.986	-2404
1011.059	-1416
1011.132	-1927
1011.205	-1013
1011.278	-1848
1011.351	-2013
1011.424	-1756
1011.497	-1705
1011.570	-1701
1011.643	-1442
1011.716	-1943
1011.789	-781
1011.862	-1537
1011.934	-346
1012.007	-2974
1012.080	-638
1012.153	-1913
1012.225	-448
1012.298	-1698
1012.371	-417
1012.443	-1397
1012.516	-1476
1012.588	-1090
1012.661	-875
1012.733	-2578
1012.806	-734
1012.879	-1477
1012.951	-1689
1013.023	-1850
1013.096	-964
1013.168	-1765
1013.241	95
1013.313	-1359
1013.385	-1403
1013.458	-1442
1013.530	-620
1013.602	-1612
1013.674	-842
1013.746	-2960
1013.819	-1515
1013.891	-701
1013.963	-2215
1014.035	-1474
1014.107	-651
1014.179	-1222
1014.251	-1291
1014.323	-1179
1014.395	-1277
1014.467	-1469
1014.539	-320
1014.611	-1933
1014.683	-472
1014.754	-1665
1014.826	-1104
1014.898	-1732
1014.970	-2113
1015.042	-1306
1015.113	-1178
1015.185	-1852
1015.257	-1727
1015.328	-1075
1015.400	-1136
1015.471	-1834
1015.543	-2164
1015.615	-1426
1015.686	-827
1015.757	-1764
1015.829	-1036
1015.901	-2089
1015.972	-1308
1016.043	-2257
1016.115	-814
1016.186	-1689
1016.257	-1396
1016.328	-1844
1016.400	-766
1016.471	-2785
1016.542	-441
1016.613	-1269
1016.685	-1705
1016.756	-828
1016.827	-1048
1016.898	-2120
1016.969	-1099
1017.040	-2108
1017.111	-1538
1017.182	-2495
1017.253	-1090
1017.324	-2875
1017.395	-1261
1017.466	-2089
1017.537	-1161
1017.608	-2248
1017.678	-820
1017.749	-1590
1017.820	-986
1017.891	-2535
1017.961	-1514
1018.032	-1402
1018.103	-900
1018.173	-1752
1018.244	-1443
1018.315	-2362
1018.385	-982
1018.456	-2452
1018.526	-1204
1018.597	-1959
1018.667	-1851
1018.738	-1513
1018.808	-1399
1018.878	-2154
1018.949	-1309
1019.019	-936
1019.089	-939
1019.160	-2116
1019.230	-1798
1019.300	-1714
1019.371	-2063
1019.441	-1702
1019.511	-1635
1019.581	-1387
1019.651	-1758
1019.721	-1569
1019.791	-666
1019.861	-1927
1019.931	-1247
1020.001	-1730
1020.071	-351
1020.141	-1518
1020.211	-1186
1020.281	-2776
1020.351	-1431
1020.421	-1658
1020.491	-1361
1020.560	-1952
1020.630	-796
1020.700	-1150
1020.770	-1675
1020.839	-2064
1020.909	-1814
1020.979	-2035
1021.048	-982
1021.118	-2399
1021.187	-743
1021.257	-1467
1021.326	-736
1021.396	-2146
1021.465	-1099
1021.535	-907
1021.604	-1357
1021.674	-2014
1021.743	-1271
1021.812	-1720
1021.882	-1380
1021.951	-2229
1022.020	-1590
1022.089	-1684
1022.159	-1069
1022.228	-1678
1022.297	-1556
1022.366	-1683
1022.435	-1323
1022.504	-1955
1022.573	-1845
1022.642	-1544
1022.711	-1503
1022.781	-1576
1022.849	-1678
1022.918	-1004
1022.987	-1389
1023.056	-2118
1023.125	-1902
1023.194	-1962
1023.263	-1291
1023.331	-1380
1023.400	-1087
1023.469	-1851
1023.538	-1831
1023.606	-2183
1023.675	-871
1023.744	-1961
1023.812	-1633
1023.881	-1999
1023.949	-976
1024.018	-2808
1024.086	-1441
1024.155	-1822
1024.223	-2439
1024.292	-1898
1024.360	-1769
1024.429	-2144
1024.497	-1158
1024.565	-2133
1024.634	-1839
1024.702	-1700
1024.770	-1264
1024.838	-2197
1024.907	-1676
1024.975	-1637
1025.043	-1400
1025.111	-2241
1025.179	-1165
1025.247	-2041
1025.315	-1535
1025.383	-2049
1025.451	-1112
1025.519	-1610
1025.587	-2339
1025.655	-1137
1025.723	-736
1025.791	-2098
1025.859	-2104
1025.927	-1362
1025.995	-1549
1026.062	-1867
1026.130	-1236
1026.198	-2495
1026.266	-1114
1026.333	-1251
1026.401	-305
1026.469	-2140
1026.536	-752
1026.604	-2540
1026.671	-2123
1026.739	-2110
1026.806	-1675
1026.874	-1683
1026.941	-1710
1027.009	-2180
1027.076	-1205
1027.144	-1466
1027.211	-1433
1027.278	-2224
1027.345	-1852
1027.413	-1585
1027.480	-2604
1027.547	-1902
1027.614	-2503
1027.682	-1797
1027.749	-1436
1027.816	-2016
1027.883	-1169
1027.950	-1713
1028.017	-1712
1028.084	-1192
1028.151	-1738
1028.218	-2165
1028.285	-2094
1028.352	-1941
1028.419	-2059
1028.486	-2100
1028.553	-1753
1028.619	-2419
1028.686	-714
1028.753	-1982
1028.820	-1575
1028.886	-2313
1028.953	-1439
1029.020	-1223
1029.086	-2047
1029.153	-2968
1029.220	-1949
1029.286	-1558
1029.353	-1353
1029.419	-1782
1029.486	-1337
1029.552	-1854
1029.619	-1450
1029.685	-2718
1029.751	-1293
1029.818	-874
1029.884	-1953
1029.951	-1775
1030.017	-1545
1030.083	-1067
1030.149	-1167
1030.216	-2480
1030.282	-1451
1030.348	-1276
1030.414	-2014
1030.480	-1799
1030.546	-2221
1030.612	-2202
1030.678	-1793
1030.744	-2382
1030.810	-718
1030.876	-2836
1030.942	-1740
1031.008	-2378
1031.074	-1451
1031.140	-1710
1031.206	-968
1031.272	-2933
1031.337	-1712
1031.403	-817
1031.469	-1510
1031.534	-2119
1031.600	-1887
1031.666	-1968
1031.731	-2369
1031.797	-2480
1031.863	-1503
1031.928	-2617
1031.994	-2248
1032.059	-1929
1032.125	-1117
1032.190	-1978
1032.256	-1049
1032.321	-2542
1032.386	-821
1032.452	-1679
1032.517	-1506
1032.582	-2189
1032.647	-2029
1032.713	-3241
1032.778	-1593
1032.843	-1904
1032.908	-1754
1032.974	-1596
1033.039	-1359
1033.104	-2821
1033.169	-2093
1033.234	-1886
1033.299	-1088
1033.364	-1749
1033.429	-2013
1033.494	-2335
1033.559	-1675
1033.624	-1561
1033.688	-1229
1033.753	-2872
1033.818	-1796
1033.883	-2845
1033.948	-1123
1034.013	-1369
1034.077	-1189
1034.142	-1318
1034.207	-1371
1034.271	-468
1034.336	304
1034.400	-294
1034.465	-702
1034.530	-1784
1034.594	-1670
1034.658	-2900
1034.723	-2106
1034.787	-2803
1034.852	-1914
1034.916	-2628
1034.981	-2353
1035.045	-2305
1035.109	-2101
1035.173	-1400
1035.238	-2162
1035.302	-1669
1035.366	-844
1035.430	-1856
1035.495	-1807
1035.559	-1860
1035.623	-1375
1035.687	-2976
1035.751	-1847
1035.815	-2626
1035.879	-1275
1035.943	-1855
1036.007	-2513
1036.071	-2477
1036.135	-1993
1036.198	-1998
1036.262	-1991
1036.326	-2277
1036.390	-1679
1036.454	-1828
1036.517	-1302
1036.581	-1582
1036.645	-1238
1036.709	-1439
1036.772	-1355
1036.836	-2507
1036.900	-1501
1036.963	-2505
1037.026	-1838
1037.090	-2548
1037.154	-1572
1037.217	-2018
1037.280	-1664
1037.344	-2043
1037.407	-1322
1037.471	-2965
1037.534	-2647
1037.597	-2330
1037.661	-2313
1037.724	-2217
1037.787	-2554
1037.850	-2826
1037.913	-2006
1037.977	-1056
1038.040	-2479
1038.103	-2500
1038.166	-1918
1038.229	-2470
1038.292	-1657
1038.355	-2253
1038.418	-1874
1038.481	-3270
1038.544	-2364
1038.607	-2375
1038.670	-1691
1038.732	-2174
1038.795	-2749
1038.858	-1946
1038.921	-1403
1038.984	-1565
1039.046	-2223
1039.109	-2027
1039.172	-1051
1039.234	-2462
1039.297	-1934
1039.360	-2959
1039.422	-1986
1039.485	-2261
1039.547	-2599
1039.610	-2392
1039.672	-2232
1039.734	-2832
1039.797	-2103
1039.859	-2400
1039.922	-2094
1039.984	-1842
1040.046	-2228
1040.109	-2227
1040.171	-1941
1040.233	-2110
1040.295	-2354
1040.358	-2151
1040.420	-1774
1040.482	-2149
1040.544	-2299
1040.606	-3100
1040.668	-1588
1040.730	-2449
1040.792	-2483
1040.854	-2958
1040.916	-1881
1040.978	-1907
1041.040	-712
1041.102	-2044
1041.164	-1936
1041.225	-3021
1041.287	-1545
1041.349	-2096
1041.411	-1545
1041.472	-1756
1041.534	-1680
1041.596	-3125
1041.657	-1498
1041.719	-2607
1041.781	-2267
1041.842	-3034
1041.904	-2423
1041.965	-2429
1042.027	-1938
1042.088	-2491
1042.150	-1916
1042.211	-2243
1042.272	-1919
1042.334	-2353
1042.395	-1699
1042.456	-2724
1042.518	-2438
1042.579	-1624
1042.640	-2016
1042.701	-1993
1042.763	-1267
1042.824	-2636
1042.885	-1779
1042.946	-2771
1043.007	-1857
1043.068	-2342
1043.129	-2273
1043.190	-2947
1043.251	-1215
1043.312	-2535
1043.373	-1707
1043.434	-2289
1043.495	-2240
1043.556	-2056
1043.616	-2393
1043.677	-3040
1043.738	-2221
1043.799	-1980
1043.859	-604
1043.920	-2632
1043.981	-1849
1044.041	-3410
1044.102	-1508
1044.162	-2561
1044.223	-1855
1044.284	-3009
1044.344	-1902
1044.405	-2064
1044.465	-2613
1044.525	-2199
1044.586	-1698
1044.646	-2997
1044.707	-681
1044.767	-1831
1044.827	-2152
1044.887	-2428
1044.948	-1461
1045.008	-2651
1045.068	-1608
1045.128	-2040
1045.188	-1523
1045.249	-2062
1045.309	-1746
1045.369	-1687
1045.429	-1653
1045.489	-2573
1045.549	-2262
1045.609	-1898
1045.669	-2386
1045.729	-2652
1045.789	-2359
1045.848	-1370
1045.908	-1677
1045.968	-1731
1046.028	-1549
1046.088	-1500
1046.147	-1428
1046.207	-1922
1046.267	-1845
1046.326	-2006
1046.386	-1329
1046.446	-1294
1046.505	-1599
1046.565	-1291
1046.624	-1049
1046.684	-1287
1046.743	-860
1046.803	-570
1046.862	-382
1046.922	0
