'Start Wavelength	183.907
'End Wavelength	1046.922
'Gate Delay	5.000
'Gate Width (ms)	1.050
'Laser Output Level	0.000
'X Position	0.000
'Y Position	0.000
'Z Position	0.000
'Grid Point Number	1.000
'Shot Number	100.000
183.907	525.000
183.977	40.000
184.047	248
184.116	541
184.186	207
184.256	333
184.325	103
184.395	-718
184.465	1343
184.534	1356
184.604	-422
184.674	-69
184.743	-246
184.813	972
184.883	404
184.952	1691
185.022	-8
185.092	447
185.161	-154
185.231	777
185.301	205
185.370	965
185.440	-314
185.509	276
185.579	595
185.649	565
185.718	1487
185.788	-196
185.857	572
185.927	-366
185.996	642
186.066	666
186.136	-262
186.205	347
186.275	-122
186.344	257
186.414	529
186.483	164
186.553	1528
186.622	3318
186.692	323
186.761	396
186.831	-134
186.900	102
186.970	307
187.039	1692
187.109	1486
187.178	1346
187.248	847
187.317	518
187.387	383
187.456	1494
187.526	1640
187.595	1835
187.664	100
187.734	928
187.803	1214
187.873	1120
187.942	1326
188.012	1455
188.081	877
188.150	994
188.220	2083
188.289	3121
188.358	2116
188.428	932
188.497	35
188.567	1029
188.636	654
188.705	1004
188.775	511
188.844	349
188.913	1543
188.983	1570
189.052	740
189.121	463
189.191	1468
189.260	1651
189.329	2773
189.399	1763
189.468	1264
189.537	1566
189.606	1025
189.676	1135
189.745	1384
189.814	1811
189.883	1392
189.953	942
190.022	1932
190.091	6444
190.161	9708
190.230	3862
190.299	1446
190.368	1744
190.437	941
190.507	884
190.576	885
190.645	945
190.714	1152
190.783	930
190.853	1782
190.922	1108
190.991	1537
191.060	1874
191.129	1414
191.198	1424
191.268	1076
191.337	975
191.406	1817
191.475	811
191.544	615
191.613	1369
191.682	838
191.752	469
191.821	1044
191.890	1177
191.959	465
192.028	1213
192.097	1113
192.166	1353
192.235	-174
192.304	1838
192.373	553
192.442	1393
192.511	1353
192.580	927
192.650	676
192.719	1156
192.788	2018
192.857	1770
192.926	853
192.995	1008
193.064	3174
193.133	3545
193.202	3319
193.271	4625
193.340	2863
193.409	2906
193.478	3594
193.547	4396
193.615	6768
193.684	6435
193.753	4493
193.822	3650
193.891	1568
193.960	2378
194.029	2321
194.098	2107
194.167	899
194.236	2178
194.305	823
194.374	1733
194.443	1501
194.512	2271
194.580	1878
194.649	2507
194.718	3395
194.787	2306
194.856	1036
194.925	2080
194.994	2615
195.062	2516
195.131	2252
195.200	3104
195.269	3709
195.338	2203
195.407	1807
195.475	1912
195.544	3207
195.613	3174
195.682	1759
195.751	2928
195.819	3132
195.888	3109
195.957	3171
196.026	3757
196.094	3751
196.163	3113
196.232	3850
196.301	3323
196.369	2193
196.438	3040
196.507	1799
196.576	1545
196.644	1338
196.713	1520
196.782	1837
196.850	2044
196.919	1977
196.988	2522
197.056	1828
197.125	1572
197.194	2219
197.262	1464
197.331	1446
197.400	1971
197.468	1665
197.537	2090
197.606	2370
197.674	3749
197.743	10267
197.812	4809
197.880	8246
197.949	6391
198.017	7694
198.086	6169
198.155	2888
198.223	3528
198.292	10404
198.360	5935
198.429	2651
198.497	2816
198.566	5614
198.635	12152
198.703	3989
198.772	3611
198.840	10858
198.909	14229
198.977	4469
199.046	3491
199.114	3303
199.183	3053
199.251	2085
199.320	2312
199.388	1597
199.457	3667
199.525	2041
199.594	1552
199.662	2113
199.731	1983
199.799	2303
199.867	2990
199.936	2303
200.004	2547
200.073	2975
200.141	3262
200.210	1639
200.278	2318
200.346	2296
200.415	3469
200.483	3200
200.552	2226
200.620	1908
200.688	2999
200.757	2564
200.825	1558
200.893	2096
200.962	1839
201.030	1703
201.098	2512
201.167	3556
201.235	2535
201.303	2581
201.372	3754
201.440	2796
201.508	4723
201.577	3685
201.645	3632
201.713	2482
201.781	2134
201.850	5160
201.918	3945
201.986	2140
202.055	3153
202.123	2291
202.191	3386
202.259	2926
202.327	2445
202.396	2369
202.464	3284
202.532	5217
202.600	18121
202.669	11931
202.737	4157
202.805	2561
202.873	2389
202.941	2641
203.009	1671
203.078	2105
203.146	2683
203.214	2075
203.282	2402
203.350	2610
203.418	3046
203.487	2432
203.555	2378
203.623	2382
203.691	3417
203.759	2067
203.827	2607
203.895	2451
203.963	3083
204.031	2068
204.099	2855
204.168	2201
204.236	3347
204.304	3478
204.372	3215
204.440	2866
204.508	2733
204.576	2456
204.644	2725
204.712	2122
204.780	2656
204.848	2907
204.916	2480
204.984	1736
205.052	3067
205.120	2256
205.188	2916
205.256	2189
205.324	2854
205.392	1592
205.460	3347
205.528	3667
205.596	2831
205.664	2546
205.732	3606
205.799	11153
205.867	21767
205.935	5623
206.003	3852
206.071	2653
206.139	4766
206.207	3727
206.275	3815
206.343	3072
206.411	3677
206.478	2736
206.546	3281
206.614	3514
206.682	2835
206.750	2938
206.818	4823
206.885	4874
206.953	2647
207.021	3725
207.089	3992
207.157	1763
207.225	3584
207.292	2922
207.360	4096
207.428	3149
207.496	2996
207.563	2570
207.631	3408
207.699	3315
207.767	3677
207.834	2304
207.902	4143
207.970	3285
208.038	3272
208.105	3499
208.173	2862
208.241	5191
208.309	5312
208.376	4177
208.444	9884
208.512	5882
208.579	3215
208.647	4814
208.715	5490
208.782	3494
208.850	3360
208.918	3379
208.985	3523
209.053	3872
209.120	3420
209.188	2687
209.256	3052
209.323	2492
209.391	6335
209.459	5388
209.526	3773
209.594	3348
209.661	3440
209.729	3511
209.796	4404
209.864	4287
209.932	2450
209.999	4898
210.067	5463
210.134	4716
210.202	4945
210.269	6981
210.337	6475
210.404	5007
210.472	4466
210.539	3868
210.607	5236
210.674	6268
210.742	4121
210.809	3670
210.877	5637
210.944	6770
211.012	4046
211.079	7233
211.146	5091
211.214	4644
211.281	7929
211.349	7789
211.416	4926
211.484	5944
211.551	4537
211.618	5440
211.686	4900
211.753	3040
211.821	4668
211.888	3516
211.955	4710
212.023	4311
212.090	4994
212.157	5044
212.225	5684
212.292	10972
212.359	21852
212.427	66615
212.494	30515
212.561	11038
212.629	7408
212.696	6244
212.763	6483
212.831	4812
212.898	5645
212.965	3971
213.032	5579
213.100	5034
213.167	6505
213.234	6945
213.301	5557
213.369	4838
213.436	5443
213.503	5351
213.570	5955
213.638	6690
213.705	4268
213.772	4438
213.839	6257
213.906	7449
213.973	5932
214.041	5184
214.108	5340
214.175	4901
214.242	4634
214.309	4244
214.376	5298
214.444	5192
214.511	6568
214.578	5093
214.645	5521
214.712	5858
214.779	6448
214.846	4903
214.913	6639
214.980	6396
215.048	8202
215.115	8549
215.182	7762
215.249	6629
215.316	5746
215.383	5525
215.450	5711
215.517	4753
215.584	4658
215.651	4541
215.718	4931
215.785	6870
215.852	7320
215.919	7330
215.986	6871
216.053	4739
216.120	4762
216.187	6410
216.254	6558
216.321	5130
216.388	6354
216.455	6586
216.522	5612
216.589	8310
216.656	14627
216.722	16037
216.789	9016
216.856	9141
216.923	8535
216.990	7045
217.057	7220
217.124	9722
217.191	8317
217.258	10318
217.324	11972
217.391	13337
217.458	10224
217.525	7493
217.592	7433
217.659	6063
217.725	8724
217.792	12320
217.859	13611
217.926	5458
217.993	5021
218.059	4824
218.126	4326
218.193	4205
218.260	4611
218.327	3884
218.393	4597
218.460	3737
218.527	3582
218.594	5335
218.660	13535
218.727	14606
218.794	6869
218.860	4404
218.927	3605
218.994	4629
219.061	5169
219.127	7233
219.194	13434
219.261	6689
219.327	4103
219.394	4628
219.461	3868
219.527	4001
219.594	8971
219.661	7718
219.727	3268
219.794	5034
219.860	4019
219.927	5696
219.994	7937
220.060	16206
220.127	10295
220.193	6800
220.260	6297
220.326	7943
220.393	13876
220.460	20076
220.526	14598
220.593	9258
220.659	10080
220.726	9702
220.792	29681
220.859	24528
220.925	23936
220.992	35860
221.058	37736
221.125	42314
221.191	33064
221.258	12803
221.324	8942
221.391	8028
221.457	6128
221.524	6327
221.590	9798
221.657	35421
221.723	28044
221.789	23086
221.856	21839
221.922	11315
221.989	7730
222.055	7346
222.121	5181
222.188	7294
222.254	5910
222.321	4070
222.387	3935
222.453	4207
222.520	3277
222.586	3474
222.652	3847
222.719	3599
222.785	4379
222.851	3936
222.918	3832
222.984	3077
223.050	4203
223.116	3679
223.183	4660
223.249	3058
223.315	3137
223.382	3499
223.448	4181
223.514	2357
223.580	2891
223.647	3448
223.713	2935
223.779	2681
223.845	3002
223.911	3879
223.978	3566
224.044	4201
224.110	3605
224.176	4162
224.242	3224
224.309	2881
224.375	3650
224.441	2550
224.507	2504
224.573	2831
224.639	3686
224.705	3029
224.772	3589
224.838	3397
224.904	6272
224.970	5380
225.036	4997
225.102	5283
225.168	5573
225.234	4328
225.300	6803
225.366	5642
225.432	4342
225.499	3839
225.565	6321
225.631	5176
225.697	5342
225.763	5742
225.829	7127
225.895	6124
225.961	13288
226.027	12165
226.093	9475
226.159	9777
226.225	13183
226.291	29085
226.357	54790
226.423	28595
226.489	16703
226.554	11663
226.620	10256
226.686	12351
226.752	21535
226.818	27607
226.884	70221
226.950	66560
227.016	24250
227.082	15106
227.148	11534
227.214	12477
227.279	9438
227.345	6906
227.411	7751
227.477	7848
227.543	13838
227.609	16947
227.674	9895
227.740	6988
227.806	7450
227.872	5954
227.938	7297
228.003	13177
228.069	7424
228.135	4130
228.201	5297
228.267	4499
228.332	7325
228.398	10637
228.464	7816
228.530	3905
228.595	4987
228.661	4039
228.727	11019
228.792	8914
228.858	5359
228.924	4968
228.990	9201
229.055	6890
229.121	9906
229.187	6260
229.252	7400
229.318	4983
229.384	5762
229.449	9193
229.515	3573
229.581	2785
229.646	6537
229.712	7031
229.777	17604
229.843	20908
229.909	13004
229.974	11318
230.040	11161
230.105	6841
230.171	8789
230.236	10219
230.302	17117
230.368	15065
230.433	7288
230.499	7149
230.564	6809
230.630	4559
230.695	5677
230.761	5025
230.826	3779
230.892	11551
230.957	7007
231.023	5051
231.088	6515
231.154	6326
231.219	5704
231.284	10097
231.350	12332
231.415	5358
231.481	5160
231.546	3743
231.612	4324
231.677	3650
231.742	4601
231.808	5986
231.873	5040
231.939	3064
232.004	12331
232.069	13489
232.135	7365
232.200	6230
232.265	6011
232.331	4186
232.396	4387
232.461	3426
232.527	5081
232.592	4651
232.657	6198
232.723	21292
232.788	19429
232.853	7346
232.918	5804
232.984	5331
233.049	5909
233.114	20732
233.179	20481
233.245	26408
233.310	41873
233.375	10583
233.440	7212
233.506	6073
233.571	5492
233.636	6045
233.701	7645
233.766	21339
233.832	35026
233.897	11317
233.962	11138
234.027	11638
234.092	9943
234.157	8717
234.222	9521
234.288	17192
234.353	73745
234.418	73054
234.483	34798
234.548	19760
234.613	13193
234.678	12691
234.743	16658
234.808	77182
234.873	54105
234.938	16586
235.004	11564
235.069	11355
235.134	11401
235.199	9677
235.264	8408
235.329	6758
235.394	9436
235.459	16694
235.524	17629
235.589	10397
235.654	7578
235.719	6979
235.784	8665
235.849	12889
235.913	43523
235.978	48299
236.043	61734
236.108	19785
236.173	18267
236.238	19999
236.303	10615
236.368	11390
236.433	21395
236.498	51056
236.563	23074
236.627	28467
236.692	94260
236.757	81567
236.822	39328
236.887	40356
236.952	23624
237.017	19585
237.081	22431
237.146	21700
237.211	39979
237.276	90139
237.341	185325
237.405	102474
237.470	39400
237.535	37778
237.600	20613
237.664	15241
237.729	12857
237.794	16265
237.859	27673
237.923	35609
237.988	21301
238.053	32054
238.118	39751
238.182	86181
238.247	89926
238.312	48386
238.376	31376
238.441	25505
238.506	20696
238.570	10040
238.635	11135
238.700	10006
238.764	11376
238.829	39263
238.893	61762
238.958	19955
239.023	16904
239.087	11287
239.152	15176
239.216	10034
239.281	9633
239.346	8490
239.410	9883
239.475	16217
239.539	86555
239.604	83680
239.668	20621
239.733	12637
239.797	14384
239.862	29317
239.926	75957
239.991	33442
240.055	15485
240.120	11252
240.184	10973
240.249	12298
240.313	11163
240.378	13333
240.442	53270
240.507	98019
240.571	30072
240.635	42780
240.700	63845
240.764	19896
240.829	13066
240.893	8946
240.957	12936
241.022	48327
241.086	102997
241.151	52648
241.215	17003
241.279	22524
241.344	58527
241.408	22670
241.472	12335
241.537	12313
241.601	10302
241.665	8931
241.730	9306
241.794	12768
241.858	8839
241.922	9764
241.987	9156
242.051	7974
242.115	7159
242.179	8260
242.244	8305
242.308	10149
242.372	13261
242.436	21219
242.501	13236
242.565	9596
242.629	8207
242.693	9273
242.757	8508
242.822	10689
242.886	11998
242.950	12708
243.014	17905
243.078	13992
243.142	13806
243.206	13472
243.271	17971
243.335	14042
243.399	18637
243.463	61499
243.527	186780
243.591	63472
243.655	24692
243.719	16154
243.783	16364
243.847	23316
243.911	35054
243.975	45203
244.040	31871
244.104	15449
244.168	12389
244.232	18276
244.296	27804
244.360	25712
244.424	22823
244.488	23418
244.552	20095
244.615	14461
244.679	13122
244.743	15704
244.807	17280
244.871	11038
244.935	9759
244.999	9377
245.063	11030
245.127	12292
245.191	18225
245.255	19426
245.319	17671
245.383	16607
245.446	14194
245.510	11093
245.574	12463
245.638	13445
245.702	13360
245.766	33313
245.829	22270
245.893	23386
245.957	14368
246.021	13662
246.085	17503
246.149	24175
246.212	44832
246.276	66848
246.340	32474
246.404	23871
246.467	21961
246.531	38823
246.595	23879
246.659	23560
246.722	21548
246.786	22834
246.850	22987
246.913	32002
246.977	17537
247.041	17687
247.104	22022
247.168	16384
247.232	40380
247.295	88834
247.359	47572
247.423	21400
247.486	39082
247.550	25323
247.614	19081
247.677	24737
247.741	18174
247.804	14919
247.868	21930
247.932	35261
247.995	84053
248.059	36511
248.122	18408
248.186	22515
248.249	40408
248.313	125448
248.376	137558
248.440	90932
248.503	36161
248.567	26709
248.630	39476
248.694	51826
248.757	58015
248.821	138256
248.884	79769
248.948	75615
249.011	111706
249.075	163143
249.138	146244
249.202	56436
249.265	40094
249.328	81565
249.392	46515
249.455	27661
249.519	22214
249.582	26626
249.645	41480
249.709	32460
249.772	24054
249.835	25202
249.899	40154
249.962	26049
250.025	21231
250.089	50063
250.152	73129
250.215	37772
250.279	30386
250.342	31350
250.405	30733
250.468	24514
250.532	30282
250.595	46828
250.658	153298
250.721	282795
250.785	95038
250.848	50623
250.911	32942
250.974	29743
251.038	39222
251.101	86550
251.164	55379
251.227	50782
251.290	42591
251.354	54457
251.417	216220
251.480	237983
251.543	134789
251.606	411957
251.669	322352
251.732	113007
251.795	114682
251.859	117362
251.922	265149
251.985	160215
252.048	57587
252.111	46741
252.174	45893
252.237	70621
252.300	164882
252.363	165355
252.426	356306
252.489	158634
252.552	96453
252.615	69536
252.678	64618
252.741	123004
252.804	153297
252.867	352194
252.930	222827
252.993	128205
253.056	70464
253.119	54300
253.182	41728
253.245	62912
253.308	53761
253.371	66107
253.434	59844
253.497	51624
253.559	85007
253.622	63394
253.685	84954
253.748	83850
253.811	43988
253.874	70310
253.937	72057
254.000	37600
254.062	57671
254.125	93365
254.188	73442
254.251	72158
254.314	40512
254.376	66114
254.439	70389
254.502	60211
254.565	60752
254.628	101908
254.690	68224
254.753	40619
254.816	33637
254.878	42851
254.941	71631
255.004	78260
255.067	39033
255.129	35117
255.192	21257
255.255	17860
255.317	22690
255.380	17080
255.443	13662
255.505	15024
255.568	16645
255.631	15185
255.693	16572
255.756	14216
255.819	14766
255.881	12415
255.944	12923
256.006	14885
256.069	17384
256.132	14599
256.194	23450
256.257	94983
256.319	72703
256.382	67691
256.444	24869
256.507	17724
256.569	14310
256.632	18681
256.694	40454
256.757	52547
256.819	138099
256.882	62422
256.944	28166
257.007	24279
257.069	30665
257.132	22183
257.194	16278
257.257	15005
257.319	17280
257.381	18477
257.444	44778
257.506	159502
257.569	193676
257.631	141909
257.693	70283
257.756	36935
257.818	46621
257.880	23357
257.943	18716
258.005	15634
258.067	15583
258.130	14925
258.192	20695
258.254	58642
258.317	38900
258.379	19694
258.441	46590
258.503	52667
258.566	88106
258.628	135896
258.690	32788
258.753	23747
258.815	41464
258.877	25136
258.939	16328
259.001	14191
259.064	15334
259.126	26835
259.188	49015
259.250	24550
259.312	32670
259.375	82355
259.437	55263
259.499	19499
259.561	16440
259.623	17407
259.685	17492
259.747	22431
259.809	80727
259.872	181347
259.934	223261
259.996	193272
260.058	47750
260.120	26723
260.182	21077
260.244	17714
260.306	15530
260.368	15695
260.430	15523
260.492	23951
260.554	61141
260.616	67926
260.678	100202
260.740	183566
260.802	47800
260.864	29073
260.926	24700
260.988	22732
261.050	22642
261.112	37697
261.174	134599
261.236	145265
261.298	39427
261.359	75275
261.421	127926
261.483	33118
261.545	23364
261.607	16418
261.669	20006
261.731	47306
261.793	125694
261.854	45249
261.916	26457
261.978	19673
262.040	25304
262.102	24073
262.164	51515
262.225	44071
262.287	20271
262.349	40000
262.411	36172
262.472	21825
262.534	52300
262.596	136403
262.658	40221
262.719	22610
262.781	32704
262.843	123109
262.904	55738
262.966	32896
263.028	42159
263.090	159610
263.151	409741
263.213	126817
263.275	53926
263.336	31573
263.398	22644
263.459	18662
263.521	18855
263.583	36343
263.644	28023
263.706	14991
263.767	13036
263.829	12326
263.891	10219
263.952	9635
264.014	9877
264.075	11960
264.137	22122
264.198	19054
264.260	10139
264.321	9352
264.383	22693
264.444	40992
264.506	15016
264.567	11840
264.629	14933
264.690	25194
264.752	15472
264.813	12114
264.875	10577
264.936	10589
264.998	9272
265.059	8966
265.120	10994
265.182	15387
265.243	59427
265.305	65595
265.366	19000
265.427	12623
265.489	11514
265.550	7783
265.611	13208
265.673	12556
265.734	8602
265.795	8581
265.857	10017
265.918	10843
265.979	21234
266.040	101792
266.102	94667
266.163	27765
266.224	23760
266.286	15717
266.347	12189
266.408	14007
266.469	22606
266.530	17111
266.592	11772
266.653	25845
266.714	45750
266.775	16582
266.836	11612
266.898	10557
266.959	14678
267.020	12110
267.081	11364
267.142	9719
267.203	10536
267.264	10403
267.326	13608
267.387	10319
267.448	10073
267.509	9711
267.570	10457
267.631	8400
267.692	8579
267.753	9761
267.814	9004
267.875	19608
267.936	47888
267.997	19691
268.058	16048
268.119	12270
268.180	12390
268.241	11149
268.302	9471
268.363	8922
268.424	11264
268.485	15227
268.546	10747
268.607	6975
268.668	7232
268.729	7285
268.790	9777
268.851	10287
268.912	26623
268.972	37239
269.033	19263
269.094	10798
269.155	8411
269.216	8689
269.277	17068
269.338	12585
269.398	8609
269.459	11532
269.520	16352
269.581	21613
269.642	26468
269.702	18580
269.763	12394
269.824	11500
269.885	15534
269.945	23697
270.006	11884
270.067	9234
270.128	9469
270.188	9353
270.249	9705
270.310	8880
270.370	10127
270.431	16109
270.492	10729
270.553	10968
270.613	24667
270.674	47824
270.734	25249
270.795	14816
270.856	19784
270.916	19916
270.977	12797
271.038	14622
271.098	16496
271.159	23900
271.219	30929
271.280	14899
271.340	11657
271.401	19544
271.462	74229
271.522	35695
271.583	17142
271.643	19675
271.704	16315
271.764	18100
271.825	35354
271.885	106143
271.946	165093
272.006	55141
272.066	66234
272.127	128469
272.187	42021
272.248	25907
272.308	26432
272.369	86758
272.429	57687
272.489	41203
272.550	44010
272.610	37627
272.671	36098
272.731	42653
272.791	91117
272.852	38156
272.912	29725
272.972	19344
273.033	19753
273.093	39716
273.153	30982
273.214	21344
273.274	26286
273.334	60249
273.394	136318
273.455	61220
273.515	52737
273.575	114023
273.635	58420
273.696	84585
273.756	154125
273.816	67997
273.876	45297
273.936	106902
273.997	218370
274.057	56347
274.117	36391
274.177	43928
274.237	145805
274.297	161955
274.358	163768
274.418	115061
274.478	85867
274.538	42431
274.598	46111
274.658	178659
274.718	249335
274.778	93940
274.838	48087
274.898	100907
274.958	339307
275.018	193602
275.078	106149
275.138	49929
275.198	31335
275.258	25677
275.318	36602
275.378	56674
275.438	49130
275.498	41124
275.558	121205
275.618	257428
275.678	118373
275.738	61064
275.798	46363
275.858	27647
275.918	19349
275.978	21636
276.038	22391
276.098	19185
276.157	34031
276.217	91506
276.277	48022
276.337	32111
276.397	22687
276.457	25346
276.517	20544
276.576	17366
276.636	16854
276.696	27683
276.756	64486
276.815	57914
276.875	28146
276.935	33104
276.995	28640
277.055	18541
277.114	18522
277.174	24926
277.234	70364
277.293	39561
277.353	24497
277.413	20076
277.472	22560
277.532	25633
277.592	30934
277.651	91022
277.711	196350
277.771	71814
277.830	185948
277.890	179783
277.950	122879
278.009	337461
278.069	146503
278.128	124450
278.188	199864
278.248	89352
278.307	200559
278.367	146099
278.426	54939
278.486	35444
278.545	30828
278.605	28159
278.664	26470
278.724	30160
278.783	57930
278.843	150416
278.902	60941
278.962	41622
279.021	53790
279.081	137542
279.140	145219
279.199	64161
279.259	58610
279.318	63999
279.378	90285
279.437	156747
279.496	427710
279.556	1177907
279.615	1133572
279.675	399415
279.734	219076
279.793	301541
279.853	412614
279.912	151266
279.971	92887
280.031	79558
280.090	105806
280.149	178834
280.208	228978
280.268	800216
280.327	957569
280.386	302839
280.445	160782
280.505	131491
280.564	76887
280.623	60862
280.682	65311
280.742	87411
280.801	42710
280.860	33822
280.919	29400
280.978	29511
281.037	30278
281.097	27899
281.156	28062
281.215	26866
281.274	30473
281.333	88956
281.392	84651
281.451	27647
281.510	22713
281.569	22516
281.628	22112
281.688	20553
281.747	22663
281.806	22092
281.865	18369
281.924	16852
281.983	19087
282.042	14330
282.101	13747
282.160	15125
282.219	16904
282.278	19133
282.337	48029
282.396	42769
282.454	21646
282.513	22950
282.572	69243
282.631	51834
282.690	21320
282.749	18256
282.808	22376
282.867	21811
282.926	23072
282.985	16782
283.043	15728
283.102	16504
283.161	24995
283.220	42443
283.279	90262
283.338	36685
283.396	23222
283.455	21940
283.514	23265
283.573	33672
283.631	29639
283.690	21083
283.749	21086
283.808	34213
283.866	45961
283.925	23786
283.984	23147
284.043	28229
284.101	34513
284.160	24783
284.219	30417
284.277	29556
284.336	40078
284.395	101118
284.453	103884
284.512	45771
284.570	52131
284.629	53626
284.688	51904
284.746	60080
284.805	69433
284.863	87712
284.922	107792
284.981	125552
285.039	169891
285.098	282044
285.156	562309
285.215	949380
285.273	934905
285.332	652296
285.390	377624
285.449	240344
285.507	167917
285.566	126221
285.624	99130
285.683	77913
285.741	63305
285.799	54221
285.858	50856
285.916	43336
285.975	36046
286.033	31341
286.091	28992
286.150	26756
286.208	26699
286.267	28839
286.325	28074
286.383	37496
286.442	33340
286.500	22095
286.558	20816
286.616	19773
286.675	24003
286.733	24407
286.791	23112
286.850	24751
286.908	29605
286.966	45960
287.024	26639
287.083	18855
287.141	17672
287.199	18079
287.257	27360
287.315	23197
287.374	24851
287.432	43740
287.490	36403
287.548	24069
287.606	20763
287.664	18591
287.723	25266
287.781	32925
287.839	22325
287.897	24391
287.955	31423
288.013	47891
288.071	103670
288.129	324352
288.187	942015
288.245	494402
288.303	157329
288.361	86160
288.419	66903
288.477	49592
288.535	37622
288.593	29365
288.651	23987
288.709	20844
288.767	19093
288.825	18514
288.883	15806
288.941	15084
288.999	15406
289.057	13942
289.115	14087
289.173	14633
289.231	16211
289.289	16674
289.346	15814
289.404	17263
289.462	26505
289.520	31084
289.578	18008
289.636	10457
289.694	10352
289.751	11463
289.809	11249
289.867	11742
289.925	14418
289.983	19018
290.040	12655
290.098	10747
290.156	14487
290.214	18305
290.271	14231
290.329	9778
290.387	8312
290.444	9133
290.502	8282
290.560	8683
290.617	9600
290.675	11706
290.733	11740
290.790	13944
290.848	10806
290.906	12670
290.963	14315
291.021	13011
291.078	12411
291.136	13568
291.194	28406
291.251	72755
291.309	30300
291.366	13109
291.424	11944
291.481	13764
291.539	16729
291.596	19509
291.654	10952
291.711	10528
291.769	14263
291.826	30749
291.884	24866
291.941	13146
291.999	12520
292.056	16062
292.114	17485
292.171	12544
292.228	14364
292.286	18121
292.343	31740
292.401	40153
292.458	29144
292.515	19800
292.573	21867
292.630	22121
292.687	28434
292.745	21060
292.802	22435
292.859	53145
292.917	111983
292.974	73383
293.031	26813
293.089	18067
293.146	15345
293.203	14001
293.260	14000
293.318	21248
293.375	22234
293.432	14682
293.489	14467
293.546	16828
293.604	31955
293.661	97111
293.718	193400
293.775	97756
293.832	48427
293.889	43223
293.947	49129
294.004	34603
294.061	28171
294.118	41979
294.175	78650
294.232	77976
294.289	43601
294.346	24676
294.403	23885
294.460	28112
294.517	22358
294.574	18501
294.631	16578
294.688	21754
294.745	47510
294.802	152360
294.859	152888
294.916	77792
294.973	58627
295.030	38121
295.087	33011
295.144	22861
295.201	19826
295.258	19144
295.315	25877
295.372	63998
295.429	138554
295.486	66913
295.542	32547
295.599	41768
295.656	73706
295.713	66163
295.770	113867
295.827	55250
295.883	26249
295.940	25384
295.997	38190
296.054	43570
296.111	24217
296.167	15950
296.224	13772
296.281	12769
296.338	12892
296.394	15020
296.451	21984
296.508	50807
296.564	102089
296.621	71542
296.678	120555
296.734	202376
296.791	85186
296.848	42116
296.904	41992
296.961	80852
297.018	134968
297.074	116136
297.131	47943
297.187	34795
297.244	48057
297.301	125059
297.357	259012
297.414	111612
297.470	41459
297.527	27152
297.583	22789
297.640	25414
297.696	21434
297.753	16403
297.809	13362
297.866	12444
297.922	14545
297.979	14985
298.035	18303
298.092	29159
298.148	72471
298.204	86548
298.261	48887
298.317	58418
298.374	161066
298.430	121549
298.486	69038
298.543	56914
298.599	42722
298.656	38667
298.712	55445
298.768	125306
298.824	111892
298.881	42753
298.937	25403
298.993	20848
299.050	26953
299.106	26242
299.162	21523
299.218	22633
299.275	19402
299.331	24198
299.387	43609
299.443	132443
299.500	172219
299.556	73863
299.612	36023
299.668	31030
299.724	32357
299.780	37038
299.837	30022
299.893	41101
299.949	113610
300.005	164386
300.061	122924
300.117	202736
300.173	125218
300.229	57642
300.285	62921
300.341	72175
300.397	43750
300.453	27956
300.510	23685
300.566	25043
300.622	30061
300.678	59297
300.734	121952
300.790	128672
300.845	163085
300.901	107181
300.957	121931
301.013	114545
301.069	52395
301.125	33176
301.181	37625
301.237	30522
301.293	22032
301.349	18752
301.405	17621
301.461	17374
301.516	21362
301.572	23779
301.628	40981
301.684	45051
301.740	52855
301.796	90883
301.851	69756
301.907	96984
301.963	117746
302.019	156285
302.074	401167
302.130	452537
302.186	225928
302.242	92440
302.297	57659
302.353	52277
302.409	88881
302.464	92697
302.520	76115
302.576	147961
302.631	194672
302.687	117922
302.743	54643
302.798	31764
302.854	25080
302.910	25007
302.965	31701
303.021	53282
303.076	58652
303.132	64091
303.187	79816
303.243	48857
303.299	26180
303.354	20155
303.410	17506
303.465	17585
303.521	18151
303.576	19725
303.632	27164
303.687	44062
303.743	128035
303.798	134670
303.853	60086
303.909	30735
303.964	26575
304.020	34606
304.075	60263
304.130	54966
304.186	86500
304.241	96696
304.297	79372
304.352	47148
304.358	45119
304.407	28689
304.449	26123
304.463	25278
304.518	27168
304.539	26842
304.573	26373
304.629	28491
304.630	28773
304.684	42780
304.720	76302
304.739	92883
304.794	166455
304.811	145206
304.850	95109
304.902	45718
304.905	42517
304.960	27937
304.992	27243
305.015	26790
305.071	26257
305.083	25592
305.126	23105
305.173	18156
305.181	17380
305.236	14349
305.264	15988
305.292	17573
305.347	21511
305.354	21764
305.402	23510
305.445	24572
305.457	24828
305.512	31002
305.535	32428
305.567	34775
305.622	36100
305.626	37022
305.678	57768
305.716	110202
305.733	129201
305.788	178103
305.807	155405
305.843	116311
305.897	126293
305.898	126266
305.953	144652
305.988	100635
306.008	76640
306.063	41818
306.078	38002
306.118	29294
306.168	23257
306.173	22707
306.228	18979
306.259	18106
306.283	17533
306.338	16082
306.349	16241
306.393	16847
306.440	19796
306.448	20419
306.503	22262
306.530	23694
306.558	27582
306.613	51973
306.620	56347
306.668	85053
306.711	117383
306.723	122343
306.778	113745
306.801	89272
306.833	60715
306.888	31338
306.892	30419
306.943	21191
306.982	18248
306.997	17385
307.052	17421
307.072	17512
307.107	18568
307.162	23207
307.163	23308
307.217	32131
307.253	37922
307.272	39276
307.327	43662
307.343	40845
307.381	36601
307.434	36540
307.436	37085
307.491	59963
307.524	87773
307.546	96731
307.600	107980
307.614	96981
307.655	65242
307.704	37406
307.710	35575
307.765	36067
307.795	42557
307.819	46897
307.874	71999
307.885	71781
307.929	61805
307.975	46098
307.984	45629
308.038	59103
308.065	74161
308.093	120851
308.148	244181
308.156	275835
308.202	404479
308.246	504744
308.257	511063
308.312	308622
308.336	230018
308.366	168025
308.421	111412
308.426	106753
308.475	69523
308.517	51786
308.530	47564
308.585	40605
308.607	39328
308.639	40064
308.694	46200
308.697	46738
308.748	64984
308.787	91756
308.803	93411
308.857	78098
308.877	67107
308.912	57352
308.967	55283
308.967	55504
309.021	78687
309.058	102028
309.076	123204
309.130	209524
309.148	243734
309.185	400258
309.238	666134
309.239	666654
309.293	742742
309.328	669972
309.348	601392
309.402	320515
309.418	254468
309.457	178787
309.508	122902
309.511	121018
309.566	125724
309.598	138275
309.620	160376
309.674	239016
309.688	262011
309.729	253365
309.778	198047
309.783	193441
309.837	134596
309.868	107590
309.892	109023
309.946	127815
309.959	138220
310.001	156652
310.049	171829
310.055	167706
310.109	110236
310.139	73897
310.163	57984
310.218	37218
310.229	34729
310.272	28029
310.319	23274
310.326	22487
310.381	19029
310.409	18090
310.435	17573
310.489	15992
310.499	15948
310.543	15720
310.589	16016
310.598	15720
310.652	14509
310.679	13524
310.706	12242
310.760	10080
310.769	9824
310.814	9082
310.859	8733
310.868	8715
310.923	8854
310.948	9183
310.977	10453
311.031	13032
311.038	13475
311.085	12552
311.128	10880
311.139	10616
311.193	9934
311.218	9601
311.247	9038
311.301	8189
311.308	8122
311.356	8037
311.398	8179
311.410	7953
311.464	6952
311.488	6572
311.518	7254
311.572	8641
311.578	8855
311.626	11092
311.668	13281
311.680	13175
311.734	12444
311.758	12156
311.788	12163
311.842	12389
311.847	12457
311.896	14501
311.937	16464
311.950	16008
312.004	14224
312.027	13425
312.058	11677
312.112	8719
312.117	8478
312.165	7809
312.207	7360
312.297	9592
312.386	6931
312.476	12695
312.566	22534
312.656	9859
312.745	5942
312.835	7886
312.925	8126
313.015	8948
313.104	7444
313.194	8392
313.284	7850
313.374	11216
313.463	9861
313.553	7301
313.643	6378
313.732	5917
313.822	4864
313.912	7733
314.001	8690
314.091	9498
314.180	10056
314.270	12242
314.360	15416
314.449	12242
314.539	6525
314.628	7345
314.718	9448
314.808	11247
314.897	7338
314.987	7953
315.076	13551
315.166	15981
315.255	12793
315.345	15525
315.434	15404
315.524	15236
315.613	21311
315.703	30895
315.792	75886
315.881	278384
315.971	82162
316.060	37625
316.150	41610
316.239	38483
316.328	13239
316.418	9317
316.507	9200
316.597	13430
316.686	12313
316.775	26385
316.865	37360
316.954	9640
317.043	8327
317.133	9178
317.222	7883
317.311	10677
317.400	9928
317.490	18322
317.579	21635
317.668	24290
317.757	46039
317.847	145014
317.936	478142
318.025	135918
318.114	86131
318.203	38662
318.293	25989
318.382	32626
318.471	28696
318.560	40366
318.649	49549
318.738	15308
318.828	17235
318.917	16680
319.006	24377
319.095	54031
319.184	78594
319.273	54303
319.362	31937
319.451	14938
319.540	14863
319.629	39107
319.718	45614
319.807	20676
319.896	48663
319.985	97690
320.074	35212
320.163	15075
320.252	24274
320.341	16178
320.430	12951
320.519	24542
320.608	12028
320.697	10135
320.786	11572
320.875	19040
320.964	25594
321.053	40703
321.142	57933
321.230	51825
321.319	50407
321.408	84069
321.497	32059
321.586	38405
321.675	42717
321.764	34728
321.852	26483
321.941	52495
322.030	31239
322.119	43751
322.207	95679
322.296	52421
322.385	27465
322.474	46261
322.562	116047
322.651	47655
322.740	52543
322.829	63877
322.917	55126
323.006	33746
323.095	27824
323.183	24174
323.272	38821
323.361	84631
323.449	177037
323.538	64383
323.626	132321
323.715	60856
323.804	42017
323.892	114577
323.981	50518
324.069	22799
324.158	66773
324.246	43741
324.335	21937
324.424	30627
324.512	10725
324.601	15251
324.689	25425
324.778	37471
324.866	39178
324.954	11956
325.043	14914
325.131	31025
325.220	45058
325.308	46742
325.397	37720
325.485	19217
325.574	8833
325.662	8282
325.750	9375
325.839	7315
325.927	8507
326.015	12705
326.104	24243
326.192	25838
326.280	7539
326.369	9523
326.457	16189
326.545	27125
326.634	9717
326.722	6981
326.810	6680
326.898	6718
326.987	11040
327.075	27820
327.163	25475
327.251	11075
327.340	12858
327.428	12720
327.516	7418
327.604	10365
327.692	9857
327.781	13793
327.869	19726
327.957	13651
328.045	11783
328.133	7882
328.221	11175
328.309	8617
328.397	7658
328.485	11037
328.574	22883
328.662	62595
328.750	30988
328.838	12610
328.926	7508
329.014	6891
329.102	12446
329.190	25566
329.278	14465
329.366	4788
329.454	4802
329.542	5358
329.630	4812
329.718	6528
329.806	8970
329.893	7037
329.981	5195
330.069	9615
330.157	33239
330.245	58881
330.333	23599
330.421	10447
330.509	25169
330.597	76698
330.684	37082
330.772	13378
330.860	14542
330.948	13808
331.036	7047
331.123	4909
331.211	5507
331.299	8009
331.387	18295
331.475	22924
331.562	8465
331.650	6321
331.738	9709
331.825	10926
331.913	5446
332.001	6306
332.089	11337
332.176	23709
332.264	60155
332.352	32935
332.439	10413
332.527	7968
332.614	8742
332.702	11884
332.790	11505
332.877	36551
332.965	52954
333.052	21636
333.140	33518
333.228	59513
333.315	14809
333.403	14384
333.490	36567
333.578	42757
333.665	82838
333.753	29608
333.840	10422
333.928	15762
334.015	36206
334.103	65706
334.190	119804
334.278	26523
334.365	15323
334.452	11444
334.540	8978
334.627	13084
334.715	20102
334.802	63294
334.889	254929
334.977	176202
335.064	23964
335.151	11892
335.239	10098
335.326	18255
335.413	66931
335.501	48411
335.588	10737
335.675	8758
335.762	10786
335.850	14453
335.937	19439
336.024	74771
336.111	208163
336.199	65972
336.286	14044
336.373	7861
336.460	6088
336.547	8366
336.635	10659
336.722	9569
336.809	8602
336.896	18357
336.983	45737
337.070	91930
337.157	106259
337.245	143924
337.332	72996
337.419	11448
337.506	6739
337.593	9984
337.680	34380
337.767	47591
337.854	21960
337.941	29330
338.028	40751
338.115	13254
338.202	16158
338.289	54669
338.376	126399
338.463	32705
338.550	44821
338.637	26952
338.724	29477
338.811	31335
338.898	7857
338.984	6947
339.071	7399
339.158	16708
339.245	33991
339.332	19772
339.419	30730
339.506	19751
339.593	4649
339.679	7051
339.766	6061
339.853	13213
339.940	23651
340.027	7975
340.113	9443
340.200	13247
340.287	8316
340.374	14998
340.460	20913
340.547	11230
340.634	26975
340.720	79833
340.807	32894
340.894	8245
340.980	8483
341.067	7214
341.154	10069
341.240	21154
341.327	31927
341.414	12665
341.500	12598
341.587	7892
341.674	10125
341.760	26637
341.847	25201
341.933	8661
342.020	4081
342.106	6251
342.193	11458
342.279	17958
342.366	16563
342.452	23641
342.539	14684
342.625	42371
342.712	76029
342.798	30171
342.885	10203
342.971	4751
343.058	4907
343.144	6780
343.230	6480
343.317	7465
343.403	6037
343.490	4462
343.576	4993
343.662	7716
343.749	10296
343.835	15985
343.921	40161
344.008	227695
344.094	332048
344.180	65140
344.267	36903
344.353	110476
344.439	79287
344.525	33841
344.612	13623
344.698	12644
344.784	8413
344.870	7479
344.957	9335
345.043	13908
345.129	12520
345.215	22279
345.301	12086
345.387	7835
345.474	4983
345.560	6628
345.646	8295
345.732	7311
345.818	10068
345.904	9828
345.990	11780
346.076	15108
346.162	18023
346.249	8883
346.335	5820
346.421	11831
346.507	63052
346.593	129816
346.679	22945
346.765	7747
346.851	9078
346.937	8402
347.023	6226
347.108	10375
347.194	8123
347.280	9088
347.366	15607
347.452	65305
347.538	176825
347.624	116229
347.710	69797
347.796	12338
347.882	7232
347.967	7803
348.053	6834
348.139	7072
348.225	7033
348.311	8499
348.397	7130
348.482	11201
348.568	10673
348.654	6226
348.740	8725
348.825	9396
348.911	25210
348.997	107246
349.083	133678
349.168	19117
349.254	9931
349.340	8719
349.425	6880
349.511	13111
349.597	14287
349.682	38026
349.768	90312
349.854	29561
349.939	7255
350.025	6753
350.110	4609
350.196	6518
350.282	4393
350.367	7517
350.453	16913
350.538	14549
350.624	11149
350.709	8640
350.795	5721
350.880	8040
350.966	10369
351.051	15912
351.137	10500
351.222	11906
351.308	39222
351.393	67831
351.479	15625
351.564	7393
351.649	7712
351.735	6111
351.820	5090
351.906	7412
351.991	15721
352.076	62700
352.162	60343
352.247	14211
352.332	12338
352.418	23705
352.503	36275
352.588	117498
352.673	69697
352.759	19934
352.844	9542
352.929	14418
353.014	15207
353.100	11384
353.185	19769
353.270	33172
353.355	24566
353.441	9632
353.526	12652
353.611	31151
353.696	27180
353.781	17013
353.866	7559
353.952	11745
354.037	31718
354.122	60701
354.207	50501
354.292	16693
354.377	7777
354.462	8019
354.547	12385
354.632	10696
354.717	14609
354.802	18556
354.887	7620
354.972	6087
355.057	5058
355.142	5508
355.227	11133
355.312	20978
355.397	49823
355.482	96092
355.567	39133
355.652	35620
355.737	44731
355.822	123012
355.907	67802
355.991	12879
356.076	8267
356.161	7202
356.246	6945
356.331	11851
356.416	47617
356.501	233558
356.585	162101
356.670	23982
356.755	17649
356.840	37525
356.924	194383
357.009	471159
357.094	129541
357.179	35163
357.263	22768
357.348	22912
357.433	19910
357.517	20040
357.602	15604
357.687	13864
357.771	18441
357.856	40055
357.941	35628
358.025	153481
358.110	451183
358.195	151685
358.279	26086
358.364	27502
358.448	100193
358.533	202098
358.617	136612
358.702	130873
358.787	43450
358.871	30053
358.956	20755
359.040	9347
359.125	7764
359.209	9670
359.294	20964
359.378	31001
359.462	22095
359.547	13569
359.631	8754
359.716	7482
359.800	8169
359.885	11901
359.969	7961
360.053	8480
360.138	8576
360.222	16640
360.306	28807
360.391	20331
360.475	38949
360.559	72643
360.644	82463
360.728	57152
360.812	151885
360.896	281104
360.981	94980
361.065	40732
361.149	14632
361.233	14110
361.318	13572
361.402	17328
361.486	12136
361.570	11378
361.654	18655
361.739	59688
361.823	242070
361.907	255418
361.991	40664
362.075	33182
362.159	58270
362.243	36110
362.327	33606
362.411	35063
362.495	19079
362.580	11564
362.664	7925
362.748	8516
362.832	11535
362.916	20044
363.000	79025
363.084	266567
363.168	302735
363.252	59417
363.336	24035
363.420	41351
363.503	96756
363.587	64549
363.671	17921
363.755	19552
363.839	25039
363.923	14485
364.007	32619
364.091	31843
364.175	54789
364.258	126544
364.342	83802
364.426	107853
364.510	53145
364.594	33084
364.677	79830
364.761	282770
364.845	139390
364.929	53015
365.013	38600
365.096	38433
365.180	38863
365.264	61757
365.347	118024
365.431	33525
365.515	13885
365.598	11679
365.682	10065
365.766	14123
365.849	11184
365.933	12933
366.017	13519
366.100	7186
366.184	6402
366.267	9065
366.351	7894
366.435	7305
366.518	4554
366.602	7008
366.685	9103
366.769	11330
366.852	17189
366.936	27602
367.019	16161
367.103	12070
367.186	12870
367.270	6407
367.353	6021
367.436	8378
367.520	7625
367.603	12865
367.687	21618
367.770	34105
367.853	24317
367.937	85729
368.020	94512
368.104	23917
368.187	29237
368.270	34692
368.353	29970
368.437	55169
368.520	93289
368.603	55277
368.687	102550
368.770	128846
368.853	30728
368.936	31322
369.020	20845
369.103	11037
369.186	6448
369.269	10067
369.352	27325
369.436	29703
369.519	17831
369.602	8249
369.685	12187
369.768	12926
369.851	8804
369.934	8027
370.018	14147
370.101	30287
370.184	19990
370.267	14823
370.350	27152
370.433	51896
370.516	161240
370.599	188790
370.682	73854
370.765	84447
370.848	115096
370.931	179060
371.014	46429
371.097	14087
371.180	10675
371.263	7920
371.346	6155
371.429	8561
371.511	11027
371.594	21232
371.677	25866
371.760	21741
371.843	40322
371.926	203444
372.009	312576
372.091	83589
372.174	96022
372.257	170647
372.340	52096
372.423	39853
372.505	30703
372.588	23092
372.671	84967
372.754	189391
372.836	72829
372.919	51772
373.002	56626
373.085	26364
373.167	37385
373.250	99705
373.332	180844
373.415	299044
373.498	473836
373.580	171133
373.663	362681
373.746	338409
373.828	64082
373.911	27668
373.993	36201
374.076	79518
374.159	52038
374.241	64942
374.324	157689
374.406	91581
374.489	203053
374.571	390547
374.654	122016
374.736	107352
374.819	280504
374.901	393290
374.983	312478
375.066	47010
375.148	26443
375.231	79768
375.313	89074
375.395	31692
375.478	11778
375.560	11914
375.643	23532
375.725	118550
375.807	358177
375.890	209829
375.972	79495
376.054	57134
376.136	74558
376.219	37532
376.301	135900
376.383	271603
376.465	84148
376.548	66220
376.630	103898
376.712	230817
376.794	75123
376.877	12767
376.959	8426
377.041	11805
377.123	15745
377.205	11900
377.287	5915
377.369	8269
377.452	8821
377.534	8095
377.616	8482
377.698	8840
377.780	6694
377.862	10110
377.944	9070
378.026	6074
378.108	6759
378.190	6536
378.272	7023
378.354	4805
378.436	6230
378.518	16802
378.600	35906
378.682	46348
378.764	113192
378.846	62859
378.928	22759
379.010	28595
379.091	14501
379.173	9617
379.255	9006
379.337	19385
379.419	73280
379.501	145244
379.583	42974
379.664	19151
379.746	49901
379.828	112841
379.910	143066
379.991	99479
380.073	18376
380.155	15715
380.237	11371
380.318	8792
380.400	11020
380.482	30999
380.564	38317
380.645	38090
380.727	30674
380.809	17992
380.890	14219
380.972	11357
381.053	12448
381.135	16927
381.217	52026
381.298	103105
381.380	44350
381.461	73040
381.543	282672
381.624	241396
381.706	40922
381.787	23943
381.869	33874
381.951	157438
382.032	415757
382.113	188251
382.195	41676
382.276	37993
382.358	103214
382.439	220353
382.521	274444
382.602	359390
382.684	180194
382.765	344120
382.846	456609
382.928	709821
383.009	324036
383.090	338472
383.172	1135870
383.253	1267979
383.334	405686
383.416	360475
383.497	160491
383.578	115868
383.659	273137
383.741	1043123
383.822	1941241
383.903	797722
383.984	319465
384.066	397223
384.147	197372
384.228	51740
384.309	43594
384.390	30241
384.471	24994
384.553	27313
384.634	35556
384.715	32004
384.796	21065
384.877	38170
384.958	115504
385.039	102676
385.120	35025
385.201	22174
385.282	22447
385.363	23587
385.444	25987
385.525	63153
385.606	175660
385.687	107750
385.768	28223
385.849	53191
385.930	213689
386.011	262992
386.092	54570
386.173	17658
386.254	14111
386.335	15822
386.416	22012
386.496	75965
386.577	87237
386.658	28461
386.739	18843
386.820	15512
386.901	12552
386.981	13491
387.062	13192
387.143	38971
387.224	112158
387.304	75025
387.385	27488
387.466	16808
387.547	17235
387.627	17434
387.708	62184
387.789	214094
387.869	197648
387.950	43172
388.031	10486
388.111	10891
388.192	21627
388.273	26299
388.353	17174
388.434	17684
388.514	61851
388.595	219420
388.676	208360
388.756	92149
388.837	96075
388.917	45134
388.998	11034
389.078	12488
389.159	11694
389.239	12391
389.320	20317
389.400	19069
389.480	53969
389.561	104808
389.641	39429
389.722	20937
389.802	31917
389.883	63834
389.963	134752
390.043	62382
390.124	20888
390.204	50744
390.284	120019
390.365	64161
390.445	86627
390.525	218555
390.605	162960
390.686	47077
390.766	18406
390.846	11260
390.927	9561
391.007	10436
391.087	11704
391.167	12818
391.247	11173
391.328	20948
391.408	21691
391.488	13419
391.568	9564
391.648	18084
391.728	22056
391.808	23138
391.888	30227
391.969	72075
392.049	83650
392.129	33954
392.209	64892
392.289	123295
392.369	51738
392.449	34781
392.529	26180
392.609	31319
392.689	58213
392.769	141737
392.849	92609
392.929	90648
393.009	181462
393.089	136765
393.169	184584
393.248	703543
393.328	2073809
393.408	1777636
393.488	443932
393.568	130393
393.648	65548
393.728	42894
393.807	31639
393.887	27464
393.967	24608
394.047	26702
394.127	29533
394.206	52734
394.286	235092
394.366	779854
394.446	574917
394.525	99972
394.605	31413
394.685	31726
394.764	56488
394.844	78907
394.924	42905
395.003	22918
395.083	19931
395.163	17777
395.242	17130
395.322	17763
395.402	13131
395.481	20913
395.561	53281
395.640	95401
395.720	81089
395.799	101126
395.879	58112
395.958	66677
396.038	322643
396.117	1010552
396.197	780938
396.276	165421
396.356	60788
396.435	48430
396.515	45877
396.594	72865
396.673	169474
396.753	730699
396.832	1779811
396.912	1046953
396.991	222483
397.070	68961
397.150	37931
397.229	28414
397.308	35405
397.388	41753
397.467	21413
397.546	14610
397.625	13064
397.705	19047
397.784	18318
397.863	11493
397.942	9042
398.022	12789
398.101	42209
398.180	71077
398.259	25515
398.338	13250
398.417	12065
398.497	9411
398.576	9731
398.655	7542
398.734	6907
398.813	10691
398.892	43919
398.971	81438
399.050	25279
399.129	6029
399.208	5754
399.287	6400
399.366	3996
399.445	6313
399.524	6095
399.603	8052
399.682	19290
399.761	55562
399.840	103995
399.919	45746
399.998	7973
400.077	4730
400.156	4265
400.235	8221
400.313	5882
400.392	16340
400.471	67527
400.550	76331
400.629	18392
400.708	10088
400.786	9091
400.865	19039
400.944	16345
401.023	10594
401.102	3582
401.180	4936
401.259	5598
401.338	7465
401.416	11348
401.495	8010
401.574	6510
401.652	6459
401.731	9582
401.810	7672
401.888	4354
401.967	4363
402.046	5829
402.124	10716
402.203	11151
402.281	7528
402.360	12077
402.438	22504
402.517	10727
402.596	5908
402.674	4908
402.753	4494
402.831	4548
402.910	11048
402.988	50523
403.066	111278
403.145	46007
403.223	45279
403.302	86312
403.380	60656
403.459	54593
403.537	18857
403.615	8096
403.694	3776
403.772	3670
403.850	4311
403.929	3557
404.007	6104
404.085	14152
404.164	12972
404.242	5792
404.320	7958
404.398	18551
404.477	99062
404.555	341405
404.633	201397
404.711	24392
404.789	8807
404.868	7444
404.946	5041
405.024	3607
405.102	4414
405.180	4109
405.258	4328
405.336	5047
405.415	5838
405.493	12702
405.571	10844
405.649	4500
405.727	6007
405.805	9310
405.883	9310
405.961	7909
406.039	7167
406.117	5026
406.195	19911
406.273	106458
406.351	264623
406.429	102657
406.507	15405
406.585	6290
406.663	9108
406.740	12121
406.818	9641
406.896	4775
406.974	8072
407.052	39076
407.130	178384
407.208	169233
407.285	27028
407.363	6977
407.441	6880
407.519	5119
407.596	8697
407.674	16867
407.752	24532
407.830	21545
407.907	12231
407.985	5932
408.063	4926
408.141	3265
408.218	8132
408.296	6594
408.373	8104
408.451	9095
408.529	8552
408.606	3456
408.684	3350
408.762	2232
408.839	2194
408.917	2044
408.994	3003
409.072	2186
409.149	3842
409.227	7756
409.304	8721
409.382	6388
409.459	8348
409.537	11691
409.614	8831
409.692	6101
409.769	9124
409.846	14433
409.924	14769
410.001	8001
410.079	6746
410.156	5722
410.233	6183
410.311	4457
410.388	4892
410.465	4795
410.543	4429
410.620	4027
410.697	7782
410.775	8421
410.852	3789
410.929	8286
411.006	10132
411.083	6597
411.161	10407
411.238	9841
411.315	5494
411.392	4160
411.469	7836
411.547	5543
411.624	2673
411.701	2934
411.778	10762
411.855	19782
411.932	9021
412.009	4062
412.086	4823
412.163	5453
412.240	6315
412.317	6846
412.394	4472
412.471	3397
412.548	4229
412.625	3513
412.702	7850
412.779	11019
412.856	6326
412.933	2092
413.010	4004
413.087	14894
413.164	62732
413.241	59222
413.318	14002
413.395	10909
413.471	15386
413.548	6022
413.625	5532
413.702	6969
413.779	3594
413.855	1913
413.932	1992
414.009	1904
414.086	3168
414.162	4225
414.239	14438
414.316	68872
414.393	108164
414.469	27521
414.546	4050
414.623	2103
414.699	4604
414.776	5375
414.853	3885
414.929	4239
415.006	4027
415.082	4490
415.159	4061
415.236	3669
415.312	6262
415.389	14608
415.465	17149
415.542	7730
415.618	6674
415.695	11209
415.771	7672
415.848	5818
415.924	5171
416.000	2895
416.077	4052
416.153	636
416.230	1755
416.306	2576
416.383	4076
416.459	2328
416.535	2135
416.612	2946
416.688	4747
416.764	5090
416.841	4959
416.917	3653
416.993	4067
417.069	6528
417.146	9207
417.222	9493
417.298	6319
417.374	3251
417.451	4925
417.527	8263
417.603	9061
417.679	5750
417.755	5243
417.831	1990
417.908	2667
417.984	2589
418.060	4597
418.136	17156
418.212	18058
418.288	5277
418.364	4782
418.440	5624
418.516	8906
418.592	10565
418.668	26132
418.744	36500
418.820	22207
418.896	5673
418.972	3056
419.048	5843
419.124	18041
419.200	9787
419.276	3361
419.352	2506
419.428	3543
419.504	5652
419.579	8314
419.655	5075
419.731	9192
419.807	30724
419.883	47774
419.959	25517
420.034	8353
420.110	26347
420.186	79874
420.262	41626
420.337	8693
420.413	7733
420.489	4245
420.565	4146
420.640	3309
420.716	4139
420.792	3087
420.867	4564
420.943	4033
421.019	11416
421.094	6837
421.170	2818
421.245	2879
421.321	3907
421.397	3881
421.472	7549
421.548	13456
421.623	10598
421.699	8838
421.774	7850
421.850	9336
421.925	16260
422.001	13043
422.076	8908
422.152	12056
422.227	18534
422.302	19981
422.378	29593
422.453	59238
422.529	167246
422.604	497481
422.679	690644
422.755	346070
422.830	106274
422.905	42316
422.981	24571
423.056	16902
423.131	12819
423.207	10760
423.282	14002
423.357	25462
423.432	15273
423.508	20653
423.583	40123
423.658	22952
423.733	8515
423.808	11429
423.883	13672
423.959	11044
424.034	8612
424.109	6731
424.184	3878
424.259	3931
424.334	2987
424.409	3381
424.484	4294
424.559	5037
424.634	6182
424.709	11873
424.784	10406
424.859	7598
424.934	17651
425.009	62638
425.084	79306
425.159	21622
425.234	4752
425.309	3182
425.384	10137
425.459	13365
425.534	6257
425.609	2784
425.683	1676
425.758	3650
425.833	4133
425.908	9732
425.983	45697
426.058	88284
426.132	28284
426.207	6211
426.282	8424
426.357	4852
426.431	2800
426.506	3871
426.581	3745
426.655	4191
426.730	4125
426.805	3736
426.879	5181
426.954	5799
427.029	22068
427.103	120890
427.178	216646
427.253	68500
427.327	9644
427.402	9862
427.476	17244
427.551	8307
427.625	5212
427.700	3994
427.774	2189
427.849	4601
427.923	2713
427.998	3597
428.072	4492
428.147	17000
428.221	74630
428.296	147354
428.370	52635
428.444	10236
428.519	11213
428.593	16609
428.667	13371
428.742	18408
428.816	28026
428.890	102591
428.965	114303
429.039	35991
429.113	18157
429.188	6714
429.262	4887
429.336	18221
429.410	39817
429.485	21918
429.559	16278
429.633	8937
429.707	6566
429.781	27852
429.855	110942
429.930	129995
430.004	71500
430.078	81421
430.152	93228
430.226	231377
430.300	162752
430.374	25262
430.448	13598
430.522	43583
430.596	78316
430.670	70954
430.744	244833
430.818	258864
430.892	46865
430.966	9505
431.040	5260
431.114	2874
431.188	2388
431.262	3621
431.336	4703
431.410	14243
431.484	27064
431.557	16634
431.631	3611
431.705	7644
431.779	44174
431.853	135744
431.927	65718
432.000	9809
432.074	5190
432.148	5720
432.222	3277
432.295	2623
432.369	3917
432.443	19555
432.516	119330
432.590	214629
432.664	59011
432.737	8494
432.811	2600
432.885	1928
432.958	1604
433.032	2080
433.106	820
433.179	2152
433.253	1441
433.326	2181
433.400	737
433.473	1696
433.547	443
433.620	3544
433.694	9599
433.767	9619
433.841	2251
433.914	1902
433.988	1362
434.061	1913
434.134	1916
434.208	1143
434.281	69
434.355	1689
434.428	2454
434.501	2198
434.575	1563
434.648	1855
434.721	1067
434.795	2289
434.868	902
434.941	1922
435.014	2098
435.088	4574
435.161	9081
435.234	17154
435.307	14882
435.381	7779
435.454	6514
435.527	7904
435.600	6778
435.673	4787
435.746	3225
435.819	3526
435.892	2289
435.966	2696
436.039	2190
436.112	2304
436.185	519
436.258	1338
436.331	672
436.404	1473
436.477	-402
436.550	1148
436.623	1456
436.696	2295
436.769	2860
436.842	3263
436.915	3853
436.987	5429
437.060	2895
437.133	1569
437.206	1032
437.279	1828
437.352	1784
437.425	2597
437.498	3373
437.570	10030
437.643	8545
437.716	2592
437.789	2556
437.861	8487
437.934	15567
438.007	7323
438.080	3915
438.152	6821
438.225	24696
438.298	173600
438.370	323023
438.443	104210
438.516	19645
438.588	5914
438.661	2343
438.734	3601
438.806	5166
438.879	5390
438.951	6254
439.024	8510
439.096	3924
439.169	2533
439.241	1687
439.314	2488
439.386	4247
439.459	9489
439.531	11470
439.604	4582
439.676	2529
439.749	1253
439.821	934
439.893	2184
439.966	3073
440.038	5119
440.110	4382
440.183	4188
440.255	3206
440.327	10231
440.400	68175
440.472	210012
440.544	107014
440.617	15357
440.689	8167
440.761	12890
440.833	15970
440.905	9599
440.978	2499
441.050	2163
441.122	2899
441.194	2382
441.266	2401
441.338	3214
441.411	13299
441.483	71924
441.555	79861
441.627	18134
441.699	7927
441.771	6452
441.843	2272
441.915	1864
441.987	1954
442.059	3133
442.131	4512
442.203	7609
442.275	8800
442.347	9481
442.419	15290
442.491	77385
442.563	142050
442.635	59776
442.706	33085
442.778	21908
442.850	6559
442.922	4354
442.994	5476
443.066	9058
443.137	7282
443.209	6072
443.281	9614
443.353	26202
443.425	107593
443.496	298448
443.568	250391
443.640	88610
443.711	20029
443.783	8970
443.855	5082
443.926	4422
443.998	4270
444.070	4920
444.141	5916
444.213	11503
444.285	14787
444.356	12957
444.428	7606
444.499	3554
444.571	1889
444.642	3456
444.714	5311
444.785	11099
444.857	11677
444.928	16563
445.000	10902
445.071	14355
445.143	14838
445.214	13858
445.285	22228
445.357	63654
445.428	242269
445.500	436366
445.571	257305
445.642	128313
445.714	51323
445.785	30568
445.856	15248
445.928	17288
445.999	11948
446.070	8522
446.141	9679
446.213	12799
446.284	6918
446.355	5213
446.426	3926
446.497	5481
446.569	8408
446.640	14485
446.711	13658
446.782	6335
446.853	8272
446.924	8623
446.995	5838
447.066	5747
447.138	6044
447.209	4269
447.280	2114
447.351	2312
447.422	1494
447.493	4352
447.564	7969
447.635	13105
447.706	6178
447.777	2974
447.847	793
447.918	3079
447.989	4112
448.060	9490
448.131	17272
448.202	16884
448.273	12058
448.344	5748
448.414	4374
448.485	4030
448.556	2346
448.627	2470
448.698	2138
448.768	1376
448.839	3016
448.910	6491
448.981	6482
449.051	4403
449.122	2320
449.193	1520
449.263	1603
449.334	2378
449.405	6721
449.475	16440
449.546	11187
449.616	8904
449.687	5708
449.758	3591
449.828	2697
449.899	2865
449.969	1979
450.040	3191
450.110	5385
450.181	5333
450.251	2309
450.322	2179
450.392	2843
450.463	1944
450.533	1869
450.604	2646
450.674	1972
450.744	2215
450.815	2191
450.885	2807
450.955	2168
451.026	2214
451.096	2068
451.166	4234
451.237	9771
451.307	15587
451.377	6984
451.447	2350
451.518	2599
451.588	1979
451.658	3171
451.728	6611
451.799	20579
451.869	18101
451.939	5673
452.009	2190
452.079	1887
452.149	3446
452.219	8511
452.289	22625
452.360	14654
452.430	4800
452.500	5466
452.570	8248
452.640	11660
452.710	27861
452.780	30974
452.850	35778
452.920	33881
452.990	12780
453.060	6603
453.129	9830
453.199	12138
453.269	42263
453.339	65566
453.409	88919
453.479	94357
453.549	124750
453.619	113775
453.688	46524
453.758	9392
453.828	4529
453.898	3809
453.968	2870
454.037	2906
454.087	2976
454.107	2931
454.168	2347
454.177	2177
454.247	2736
454.249	2790
454.316	2416
454.330	3337
454.386	6296
454.411	9719
454.456	13385
454.492	15072
454.525	16362
454.574	9806
454.595	7147
454.655	5048
454.665	4826
454.734	8276
454.736	8768
454.804	17073
454.817	20850
454.873	29856
454.898	30368
454.943	29150
454.979	21268
455.013	15379
455.060	10359
455.082	9639
455.141	14472
455.152	14514
455.221	28874
455.222	29460
455.291	30115
455.303	28066
455.360	20956
455.384	19840
455.430	18621
455.465	21717
455.499	23027
455.546	28886
455.569	28570
455.627	18939
455.638	17781
455.707	7409
455.708	7479
455.777	5919
455.789	5946
455.846	5834
455.869	5856
455.916	5840
455.950	5978
455.985	5836
456.031	6730
456.054	6904
456.112	6405
456.124	6405
456.193	6294
456.193	6215
456.262	8688
456.274	9293
456.332	10954
456.355	11869
456.401	11549
456.436	10020
456.470	8802
456.516	7018
456.540	6284
456.597	6488
456.609	6438
456.678	6446
456.678	6386
456.747	5892
456.759	5757
456.817	5290
456.840	5888
456.886	6794
456.920	7002
456.955	7718
457.001	9174
457.024	10871
457.082	15184
457.093	15448
457.162	21001
457.163	21153
457.232	19318
457.243	18217
457.301	11679
457.324	9411
457.370	8131
457.405	8654
457.439	9279
457.485	9896
457.508	10183
457.566	12099
457.577	12774
457.646	16492
457.647	16642
457.715	32596
457.727	35764
457.784	56513
457.808	68757
457.853	80364
457.889	87124
457.922	76850
457.969	56306
457.991	64174
458.050	89891
458.060	94633
458.129	144502
458.130	146047
458.198	111059
458.211	100734
458.267	57877
458.292	39430
458.336	32781
458.372	32394
458.405	47427
458.453	71711
458.474	92477
458.533	161726
458.543	166386
458.611	219395
458.614	221122
458.680	112661
458.694	86425
458.749	47141
458.775	32560
458.818	23432
458.855	19278
458.887	17593
458.936	16650
458.955	16505
459.016	15761
459.024	15757
459.093	17955
459.097	18052
459.162	21114
459.177	22169
459.230	26247
459.257	28494
459.299	26922
459.338	25002
459.368	25583
459.418	26670
459.437	24774
459.499	19108
459.505	19090
459.574	17737
459.579	17784
459.643	16575
459.659	16297
459.711	18677
459.740	20390
459.780	22252
459.820	23762
459.849	23907
459.900	24432
459.917	24392
459.981	24104
459.986	24085
460.054	25010
460.061	25120
460.123	29651
460.141	31198
460.191	40761
460.222	46955
460.260	51761
460.302	58102
460.328	51018
460.382	33915
460.397	32693
460.462	27110
460.465	27092
460.534	28294
460.543	28628
460.602	46975
460.623	53552
460.671	73935
460.703	89821
460.739	77917
460.783	60102
460.808	49398
460.864	21643
460.876	20973
460.944	20180
460.945	20184
461.013	23142
461.024	23689
461.081	27470
461.104	29554
461.150	27454
461.184	24760
461.218	22981
461.264	20728
461.286	21118
461.345	22289
461.355	21963
461.423	20093
461.425	20052
461.491	21801
461.505	22273
461.559	41847
461.585	50985
461.628	79084
461.665	105624
461.696	113534
461.745	126984
461.764	106750
461.825	34690
461.832	34297
461.901	30147
461.905	30152
461.969	25991
461.985	24790
462.037	21509
462.065	19717
462.105	23382
462.145	27384
462.173	38353
462.225	59156
462.241	65135
462.305	90501
462.310	87715
462.378	42757
462.385	37340
462.446	30480
462.465	28908
462.514	27954
462.545	27511
462.582	25962
462.625	24236
462.650	23335
462.705	21072
462.718	21699
462.785	25366
462.786	25567
462.854	36518
462.865	38402
462.922	46264
462.945	49420
462.990	35968
463.025	24781
463.058	22958
463.104	20417
463.126	20880
463.184	22515
463.194	23066
463.262	26753
463.264	26889
463.330	26885
463.344	26737
463.398	27439
463.424	27742
463.466	28114
463.504	28551
463.533	29230
463.583	30089
463.601	31695
463.663	36982
463.669	38346
463.737	54745
463.743	56134
463.805	73416
463.823	78558
463.873	109192
463.903	127781
463.940	131325
463.982	135688
464.008	106905
464.062	43093
464.076	40232
464.142	25516
464.144	25534
464.211	26973
464.221	27255
464.279	30695
464.301	31908
464.347	34885
464.381	37234
464.414	39476
464.461	42381
464.482	43862
464.540	47837
464.550	47272
464.617	42278
464.620	42057
464.685	49133
464.699	50650
464.753	53211
464.779	54474
464.820	52341
464.859	49734
464.888	49311
464.938	48562
464.956	48910
465.018	50042
465.023	49381
465.091	39590
465.098	38521
465.158	39070
465.177	39235
465.226	40498
465.257	41156
465.293	46317
465.336	52214
465.361	58411
465.416	72217
465.428	74936
465.495	89389
465.496	89747
465.563	122125
465.575	127675
465.631	150618
465.654	160102
465.698	99977
465.734	49354
465.765	45832
465.813	40143
465.833	39679
465.893	39156
465.900	39445
465.968	41200
465.972	41252
466.035	42728
466.052	42995
466.102	45006
466.131	46074
466.170	46727
466.210	47182
466.237	48194
466.290	49995
466.304	50794
466.369	53676
466.372	53932
466.439	58563
466.449	59095
466.506	65258
466.528	67486
466.573	90723
466.607	107874
466.641	151074
466.687	210753
466.708	229976
466.766	282021
466.775	262942
466.842	114760
466.845	107495
466.909	81516
466.925	75172
466.977	70167
467.004	67393
467.044	67902
467.083	68160
467.111	71532
467.163	77424
467.178	79606
467.242	87867
467.245	87799
467.312	82423
467.321	81533
467.379	76945
467.400	75027
467.446	79316
467.480	82121
467.559	71440
467.638	64124
467.717	69382
467.796	86550
467.875	103429
467.955	80348
468.034	104067
468.113	211625
468.192	299025
468.271	90376
468.350	74147
468.429	81851
468.508	84216
468.588	69225
468.667	63959
468.746	68804
468.825	63513
468.904	52890
468.983	66927
469.062	99585
469.141	116560
469.220	53756
469.299	50574
469.378	56248
469.456	63252
469.535	59163
469.614	58502
469.693	63297
469.772	81818
469.851	108815
469.930	83304
470.009	73374
470.088	86859
470.166	129235
470.245	231019
470.324	315219
470.403	206025
470.482	117421
470.560	86819
470.639	90558
470.718	103088
470.797	72919
470.875	79847
470.954	107388
471.033	106714
471.111	48043
471.190	44837
471.269	41882
471.347	44551
471.426	48080
471.505	52050
471.583	52040
471.662	50510
471.740	45715
471.819	46581
471.898	44742
471.976	43096
472.055	45177
472.133	49971
472.212	63057
472.290	65537
472.369	44728
472.447	42092
472.526	39709
472.604	46676
472.683	57773
472.761	68282
472.839	57507
472.918	51182
472.996	48577
473.075	56559
473.153	52742
473.231	47493
473.310	61562
473.388	58569
473.466	53478
473.545	69514
473.623	110969
473.701	109808
473.780	50877
473.858	50874
473.936	57048
474.014	48917
474.093	58912
474.171	79830
474.249	105677
474.327	67629
474.405	45814
474.484	47480
474.562	52786
474.640	49830
474.718	52080
474.796	52289
474.874	47587
474.952	44821
475.030	45934
475.108	50784
475.187	58856
475.265	71795
475.343	119963
475.421	133693
475.499	52946
475.577	50684
475.655	64185
475.733	127137
475.811	211987
475.889	186537
475.966	118271
476.044	53208
476.122	85063
476.200	119368
476.278	80704
476.356	42851
476.434	48389
476.512	72324
476.590	111072
476.667	81242
476.745	43702
476.823	47656
476.901	41826
476.979	41782
477.056	40664
477.134	44784
477.212	50426
477.290	46590
477.367	36457
477.445	35434
477.523	36856
477.601	39821
477.678	39133
477.756	46960
477.834	52047
477.911	39014
477.989	38837
478.066	39773
478.144	48454
478.222	77767
478.299	150674
478.377	122566
478.454	39015
478.532	37309
478.609	48981
478.687	52645
478.764	37831
478.842	48933
478.919	60919
478.997	51307
479.074	35738
479.152	44729
479.229	56019
479.307	36839
479.384	30848
479.461	31395
479.539	35751
479.616	45590
479.694	38590
479.771	42699
479.848	46893
479.926	64271
480.003	66106
480.080	39691
480.157	33651
480.235	36852
480.312	38434
480.389	40547
480.467	67649
480.544	82045
480.621	42973
480.698	42403
480.775	50894
480.853	46509
480.930	36941
481.007	37356
481.084	42176
481.161	43511
481.238	41179
481.315	33519
481.392	34044
481.470	35615
481.547	37130
481.624	35070
481.701	34232
481.778	38657
481.855	43151
481.932	66165
482.009	111148
482.086	77445
482.163	50808
482.240	98194
482.317	199749
482.393	131735
482.470	43170
482.547	42945
482.624	40157
482.701	43641
482.778	41310
482.855	34075
482.932	32636
483.009	34164
483.085	43232
483.162	52089
483.239	51370
483.316	42011
483.393	41192
483.469	40142
483.546	47158
483.623	49284
483.699	38422
483.776	42681
483.853	52124
483.930	72157
484.006	167701
484.083	268900
484.160	118255
484.236	154889
484.313	123753
484.389	97756
484.466	86070
484.543	84469
484.619	91306
484.696	93255
484.772	95592
484.849	99072
484.925	77517
485.002	78504
485.078	85962
485.155	88013
485.231	74046
485.308	73309
485.384	77379
485.461	99888
485.537	176677
485.614	198096
485.690	82047
485.766	77415
485.843	97693
485.919	185621
485.995	191342
486.072	72776
486.148	68704
486.224	69519
486.301	75433
486.377	91670
486.453	94106
486.530	83307
486.606	101805
486.682	115085
486.758	152017
486.835	178145
486.911	149351
486.987	262288
487.063	397335
487.139	600299
487.215	362749
487.292	121172
487.368	93114
487.444	113071
487.520	145052
487.596	146393
487.672	227720
487.748	637122
487.824	937680
487.900	309486
487.976	129080
488.052	116409
488.128	139532
488.204	110483
488.280	83474
488.356	99860
488.432	208703
488.508	311177
488.584	118121
488.660	93224
488.736	92085
488.812	110251
488.888	141322
488.964	222714
489.039	604856
489.115	938799
489.191	465097
489.267	93444
489.343	75568
489.418	63257
489.494	60728
489.570	58427
489.646	64267
489.722	63928
489.797	67887
489.873	106712
489.949	225898
490.024	175791
490.100	66227
490.176	67914
490.251	110946
490.327	165756
490.403	73885
490.478	56845
490.554	51063
490.629	54136
490.705	55008
490.781	63398
490.856	62942
490.932	84215
491.007	91426
491.083	75635
491.158	63685
491.234	85084
491.309	174123
491.385	169491
491.460	70615
491.536	76308
491.611	79553
491.686	98517
491.762	155314
491.837	391321
491.913	620570
491.988	897534
492.063	1116492
492.139	201710
492.214	96688
492.289	57336
492.365	62066
492.440	75702
492.515	70031
492.590	62056
492.666	51599
492.741	78664
492.816	106227
492.891	58423
492.967	49535
493.042	47147
493.117	46414
493.192	47922
493.267	64593
493.342	112241
493.418	113023
493.493	51809
493.568	43724
493.643	48909
493.718	66928
493.793	121299
493.868	159923
493.943	97351
494.018	57055
494.093	46595
494.168	47772
494.243	44923
494.318	39916
494.393	40446
494.468	42306
494.543	49165
494.618	67486
494.693	51365
494.768	47162
494.842	48646
494.917	43505
494.992	52996
495.067	47840
495.142	49409
495.217	58700
495.292	62843
495.366	79496
495.441	102144
495.516	129099
495.591	210536
495.665	863225
495.740	2039243
495.815	666208
495.890	94983
495.964	62998
496.039	63101
496.114	55386
496.188	60870
496.263	61197
496.338	55212
496.412	63428
496.487	78251
496.561	104895
496.636	105931
496.710	67749
496.785	78941
496.860	83453
496.934	70190
497.009	77156
497.083	73233
497.158	80595
497.232	94655
497.307	115170
497.381	91809
497.455	105589
497.530	129023
497.604	99614
497.679	110022
497.753	165040
497.827	216457
497.902	208715
497.976	225509
498.050	463271
498.125	1652811
498.199	1496686
498.273	347922
498.348	286423
498.422	225227
498.496	221963
498.570	195158
498.645	130878
498.719	123331
498.793	139806
498.867	197170
498.941	235380
499.016	651783
499.090	1665565
499.164	472966
499.238	87572
499.312	83984
499.386	117138
499.460	92852
499.534	83352
499.609	101594
499.683	134935
499.757	122755
499.831	279330
499.905	1094856
499.979	878805
500.053	157526
500.127	194546
500.201	184608
500.275	95166
500.349	84855
500.422	100425
500.496	179707
500.570	414508
500.644	707514
500.718	1068364
500.792	200467
500.866	71514
500.940	85556
501.013	73531
501.087	88415
501.161	188659
501.235	208605
501.309	330534
501.382	934494
501.456	726167
501.530	196656
501.603	283599
501.677	99587
501.751	57731
501.825	71396
501.898	127123
501.972	360078
502.046	190444
502.119	78538
502.193	186042
502.266	396860
502.340	156524
502.413	168356
502.487	312919
502.561	179587
502.634	68099
502.708	75528
502.781	66788
502.855	46817
502.928	36230
503.002	38216
503.075	37993
503.149	41313
503.222	42636
503.295	49143
503.369	60250
503.442	83040
503.516	272591
503.589	672948
503.662	388053
503.736	136048
503.809	318353
503.882	244359
503.956	377347
504.029	346207
504.102	386450
504.175	470514
504.249	162162
504.322	87880
504.395	68992
504.468	49087
504.542	43297
504.615	35507
504.688	36459
504.761	40410
504.834	54111
504.907	90419
504.980	160328
505.053	61581
505.127	96395
505.200	80597
505.273	59964
505.346	38512
505.419	32548
505.492	29281
505.565	24216
505.638	25577
505.711	27030
505.784	26334
505.857	26264
505.930	29087
506.003	29319
506.076	34514
506.149	46018
506.221	57410
506.294	51961
506.367	143120
506.440	480645
506.513	223825
506.586	64549
506.659	40635
506.731	39001
506.804	60764
506.877	101278
506.950	47910
507.022	32496
507.095	46552
507.168	57145
507.241	44072
507.313	36182
507.386	53629
507.459	84848
507.531	47748
507.604	35752
507.677	32503
507.749	29508
507.822	53248
507.894	112376
507.967	101403
508.040	48622
508.112	41981
508.185	40234
508.257	48205
508.330	85715
508.402	40582
508.475	36766
508.547	40218
508.620	39445
508.692	64051
508.765	37798
508.837	29915
508.909	29661
508.982	34379
509.054	47279
509.127	37577
509.199	28932
509.271	27538
509.344	27685
509.416	28949
509.488	30034
509.560	34608
509.633	44451
509.705	55918
509.777	49294
509.849	91754
509.922	49455
509.994	29055
510.066	29760
510.138	32958
510.210	56858
510.283	53364
510.355	46027
510.427	42313
510.499	40675
510.571	40810
510.643	46639
510.715	106565
510.787	86854
510.859	45968
510.931	58941
511.003	98222
511.076	72659
511.148	35916
511.219	36391
511.291	61711
511.363	65759
511.435	33576
511.507	31814
511.579	33614
511.651	34039
511.723	32474
511.795	33856
511.867	34031
511.939	44362
512.010	97820
512.082	68184
512.154	44758
512.226	41533
512.298	64121
512.369	99257
512.441	73552
512.513	87957
512.585	61137
512.656	57236
512.728	71012
512.800	44840
512.871	45089
512.943	43692
513.015	42152
513.086	49924
513.158	60474
513.230	65698
513.301	121213
513.373	132907
513.444	62923
513.516	46691
513.588	49769
513.659	63830
513.731	89689
513.802	76902
513.874	201016
513.945	377854
514.016	90292
514.088	50269
514.159	64959
514.231	90313
514.302	97294
514.374	56302
514.445	56548
514.516	106705
514.588	73353
514.659	57634
514.730	102901
514.802	89509
514.873	80796
514.944	70878
515.016	67202
515.087	83863
515.158	88149
515.229	98814
515.301	76897
515.372	97154
515.443	68995
515.514	55230
515.585	48749
515.656	49562
515.728	48176
515.799	48766
515.870	57590
515.941	60966
516.012	63406
516.083	82646
516.154	108566
516.225	163323
516.296	159629
516.367	158861
516.438	201433
516.509	266460
516.580	397306
516.651	1368980
516.722	4470580
516.793	1593245
516.864	360459
516.935	327092
517.006	392464
517.077	540548
517.148	1284178
517.219	4566595
517.289	5334231
517.360	1271144
517.431	320077
517.502	153987
517.573	130081
517.643	117939
517.714	128195
517.785	143220
517.856	168990
517.926	221158
517.997	287733
518.068	396378
518.138	531848
518.209	854296
518.280	3165597
518.350	5946370
518.421	3596774
518.492	649541
518.562	250082
518.633	196076
518.703	179329
518.774	261189
518.845	549972
518.915	474987
518.986	190190
519.056	162687
519.127	300184
519.197	403339
519.268	615579
519.338	270254
519.408	107750
519.479	183740
519.549	115120
519.620	67923
519.690	49813
519.760	49552
519.831	60190
519.901	57465
519.971	42469
520.042	45999
520.112	56477
520.182	80783
520.253	93537
520.323	49090
520.393	69627
520.463	94937
520.534	71632
520.604	131676
520.674	61704
520.744	73566
520.814	175673
520.885	143913
520.955	157400
521.025	554956
521.095	159003
521.165	45084
521.235	44160
521.305	40345
521.375	39696
521.445	53761
521.515	93176
521.585	106966
521.655	94647
521.725	73431
521.795	52679
521.865	35316
521.935	55077
522.005	47379
522.075	37119
522.145	41464
522.215	51056
522.285	67163
522.355	93430
522.424	170540
522.494	144357
522.564	99298
522.634	276225
522.704	847587
522.774	228795
522.843	60865
522.913	61881
522.983	94372
523.053	62626
523.122	61327
523.192	113681
523.262	501074
523.331	397404
523.401	61382
523.471	40349
523.540	45135
523.610	31880
523.680	28316
523.749	29558
523.819	39505
523.888	37909
523.958	28681
524.027	31977
524.097	33899
524.166	35040
524.236	53665
524.305	38108
524.375	31927
524.444	28347
524.514	31322
524.583	33588
524.653	42493
524.722	45878
524.791	31769
524.861	32488
524.930	31278
524.999	42238
525.069	65100
525.138	39931
525.207	45302
525.277	35008
525.346	40630
525.415	34894
525.484	39734
525.554	48553
525.623	45243
525.692	45126
525.761	52981
525.830	61176
525.900	77972
525.969	114705
526.038	180247
526.107	379710
526.176	1049669
526.245	765535
526.314	302790
526.383	583158
526.452	702035
526.522	1280616
526.591	1134781
526.660	490024
526.729	237811
526.797	242471
526.867	520038
526.935	2230193
527.004	3094421
527.073	1340818
527.142	155450
527.211	78835
527.280	85933
527.349	84156
527.418	39691
527.487	39549
527.555	34038
527.624	30851
527.693	28507
527.762	32275
527.831	29805
527.899	30964
527.968	31831
528.037	34505
528.106	53298
528.174	122400
528.243	70916
528.312	128273
528.380	173971
528.449	42045
528.518	26893
528.586	21315
528.655	22400
528.723	20395
528.792	23470
528.861	28859
528.929	21469
528.998	21123
529.066	19255
529.135	19445
529.203	19599
529.272	20478
529.340	21451
529.409	24778
529.477	23293
529.545	31445
529.614	31911
529.682	38052
529.751	41434
529.819	43152
529.887	30436
529.956	24526
530.024	26021
530.092	22837
530.161	40468
530.229	92085
530.297	34554
530.365	22704
530.434	19813
530.502	18740
530.570	19383
530.638	18895
530.707	28869
530.775	27416
530.843	19899
530.911	19868
530.979	18388
531.047	19011
531.115	20740
531.183	20096
531.252	20164
531.320	21512
531.388	19809
531.456	21355
531.524	19586
531.592	22902
531.660	26441
531.728	22935
531.796	22340
531.864	23387
531.932	25033
532.000	27287
532.067	31028
532.135	36849
532.203	44644
532.271	50520
532.339	112851
532.407	371670
532.475	167481
532.542	76005
532.610	79409
532.678	120275
532.746	595280
532.814	1319997
532.881	249610
532.949	50044
533.017	35951
533.084	27674
533.152	25629
533.220	30500
533.287	41267
533.355	24639
533.423	22787
533.490	22308
533.558	24274
533.625	27551
533.693	29888
533.761	28843
533.828	31629
533.896	37777
533.963	100106
534.031	119029
534.098	182796
534.166	55203
534.233	27362
534.300	30579
534.368	31164
534.435	30241
534.503	33031
534.570	39995
534.637	40346
534.705	46690
534.772	54700
534.840	104133
534.907	488714
534.974	505782
535.041	63848
535.109	44199
535.176	27017
535.243	26592
535.310	34423
535.378	28730
535.445	23886
535.512	22943
535.579	24246
535.646	23394
535.714	24958
535.781	30204
535.848	27728
535.915	27604
535.982	26623
536.049	27990
536.116	30772
536.183	30992
536.250	34260
536.317	37844
536.384	52687
536.451	94081
536.518	93202
536.585	58990
536.652	78840
536.719	134225
536.786	97983
536.853	72458
536.920	113895
536.987	190553
537.053	181265
537.120	738631
537.187	471984
537.254	51815
537.321	38815
537.388	36273
537.454	27946
537.521	27759
537.588	26305
537.654	33424
537.721	38163
537.788	36829
537.855	30934
537.921	35066
537.988	35263
538.055	35508
538.121	36984
538.188	47768
538.254	95808
538.321	215739
538.388	98117
538.454	40023
538.521	33218
538.587	28617
538.654	29434
538.720	28731
538.787	28141
538.853	34244
538.920	47504
538.986	46105
539.053	36279
539.119	42183
539.185	41593
539.252	58105
539.318	110981
539.385	58314
539.451	50937
539.517	49613
539.583	62941
539.650	199084
539.716	487663
539.782	91996
539.849	45568
539.915	41834
539.981	50742
540.047	67683
540.114	52798
540.180	52806
540.246	57177
540.312	94903
540.378	209626
540.444	177999
540.510	211322
540.576	571982
540.643	117665
540.709	43291
540.775	39001
540.841	37610
540.907	52185
540.973	77067
541.039	94062
541.105	100400
541.171	46293
541.237	41900
541.303	42939
541.369	55758
541.435	92941
541.500	174686
541.566	88927
541.632	40059
541.698	32305
541.764	31714
541.830	30835
541.896	31115
541.961	34014
542.027	40227
542.093	39255
542.159	43588
542.224	51614
542.290	85108
542.356	175919
542.421	183149
542.487	64641
542.553	44870
542.618	45833
542.684	44065
542.750	46496
542.815	57364
542.881	117392
542.947	518358
543.012	271686
543.078	44299
543.143	38380
543.209	42486
543.274	44747
543.340	57885
543.405	189613
543.471	261569
543.536	43335
543.602	33131
543.667	30892
543.732	29570
543.798	27422
543.863	29276
543.928	27920
543.994	26492
544.059	29009
544.124	30201
544.190	32061
544.255	36564
544.320	39334
544.386	48463
544.451	75717
544.516	88610
544.581	87571
544.646	322165
544.712	408031
544.777	57284
544.842	41302
544.907	39429
544.972	34149
545.037	36541
545.102	37148
545.168	40886
545.233	42372
545.298	48881
545.363	57843
545.428	74075
545.493	172694
545.558	393220
545.623	99986
545.688	42826
545.753	37788
545.818	35799
545.883	37466
545.947	36785
546.012	40959
546.077	42545
546.142	43068
546.207	49684
546.272	79504
546.337	78337
546.401	50810
546.466	44684
546.531	39942
546.596	48028
546.661	50988
546.725	43484
546.790	41282
546.855	44244
546.919	43658
546.984	50272
547.049	56216
547.113	63429
547.178	60051
547.243	70080
547.307	78081
547.372	98208
547.436	94409
547.501	80968
547.565	91512
547.630	116284
547.695	104666
547.759	95688
547.823	84305
547.888	77147
547.952	77174
548.017	83443
548.081	96783
548.146	111203
548.210	93759
548.274	88495
548.339	84595
548.403	79335
548.468	75493
548.532	75468
548.596	76300
548.660	78135
548.725	90253
548.789	106520
548.853	98924
548.917	87092
548.982	101297
549.046	90998
549.110	69147
549.174	70635
549.238	77920
549.303	83538
549.367	88071
549.431	83605
549.495	78981
549.559	79488
549.623	92465
549.687	112423
549.751	148559
549.815	117785
549.879	109461
549.943	105234
550.007	111498
550.071	115283
550.135	137066
550.199	106043
550.263	95830
550.327	99032
550.391	113614
550.455	105701
550.519	108476
550.582	123039
550.646	173669
550.710	162152
550.774	127315
550.838	129034
550.901	133894
550.965	142944
551.029	154435
551.093	170179
551.156	207580
551.220	310961
551.284	330545
551.347	205332
551.411	253732
551.475	224141
551.538	136103
551.602	122690
551.666	116676
551.729	105705
551.793	106092
551.856	103358
551.920	101187
551.983	101632
552.047	100761
552.110	101867
552.174	101425
552.237	106806
552.301	98947
552.364	98512
552.428	98890
552.491	106586
552.554	114173
552.618	117409
552.681	129783
552.745	161293
552.808	311888
552.871	429199
552.934	214018
552.998	132577
553.061	114134
553.124	100921
553.187	97319
553.251	97843
553.314	96791
553.377	94175
553.440	102418
553.503	118287
553.567	120868
553.630	97396
553.693	96925
553.756	97294
553.819	92389
553.882	89680
553.945	89758
554.008	88410
554.071	89898
554.134	90159
554.197	85772
554.260	85289
554.323	92134
554.386	92838
554.449	92282
554.512	88042
554.575	87135
554.638	88528
554.701	86951
554.764	83065
554.827	80272
554.889	76657
554.952	72206
555.015	73513
555.078	73695
555.141	75209
555.203	74258
555.266	74462
555.329	76521
555.391	74054
555.454	81511
555.517	78396
555.580	69169
555.642	65348
555.705	65304
555.768	68427
555.830	65746
555.893	60577
555.955	62570
556.018	62461
556.080	61182
556.143	62497
556.206	62269
556.268	65823
556.330	69420
556.393	66188
556.455	63525
556.518	87312
556.580	82092
556.643	58592
556.705	58545
556.767	58137
556.830	60128
556.892	78510
556.955	136508
557.017	80660
557.079	58723
557.142	59497
557.204	81753
557.266	188008
557.328	122092
557.391	52366
557.453	49492
557.515	53064
557.577	77095
557.639	75128
557.701	51058
557.764	51796
557.826	57123
557.888	63559
557.950	66853
558.012	72704
558.074	103344
558.136	273076
558.198	597363
558.260	163730
558.322	87240
558.384	94303
558.446	111106
558.508	135986
558.570	180016
558.632	310762
558.694	418072
558.756	421666
558.818	1379683
558.880	2822357
558.942	707548
559.003	670385
559.065	266509
559.127	134828
559.189	134984
559.251	152136
559.312	225222
559.374	615200
559.436	1919054
559.498	680090
559.559	149796
559.621	131823
559.683	151601
559.744	268319
559.806	953279
559.868	1133035
559.929	181296
559.991	134481
560.052	223619
560.114	610109
560.176	309122
560.237	375758
560.299	522015
560.360	93819
560.422	48993
560.483	42103
560.545	37908
560.606	36234
560.667	34585
560.729	34335
560.790	33243
560.852	32477
560.913	32253
560.974	33326
561.036	32824
561.097	34436
561.158	36539
561.220	38485
561.281	41418
561.342	43233
561.403	53493
561.465	86958
561.526	259266
561.587	287446
561.648	57159
561.709	38980
561.771	34240
561.832	33513
561.893	33182
561.954	30492
562.015	30423
562.076	31420
562.137	29506
562.198	30679
562.259	31257
562.320	34228
562.381	44790
562.442	78472
562.503	47534
562.564	31400
562.625	29435
562.686	29201
562.747	34637
562.808	30095
562.869	28590
562.930	31240
562.991	29890
563.051	29137
563.112	28693
563.173	28751
563.234	26685
563.294	27543
563.355	31269
563.416	33671
563.477	29227
563.537	30279
563.598	31894
563.659	31533
563.720	32390
563.780	35148
563.841	37429
563.901	29995
563.962	28692
564.023	28568
564.083	29860
564.144	32647
564.204	29808
564.265	29854
564.325	35572
564.386	69426
564.446	52318
564.507	28642
564.567	28403
564.628	28519
564.688	27191
564.749	27879
564.809	34127
564.869	37641
564.930	28368
564.990	29399
565.050	28578
565.111	30107
565.171	28709
565.231	28308
565.292	27965
565.352	28858
565.412	30990
565.472	33744
565.532	38667
565.593	33369
565.653	31790
565.713	33673
565.773	38403
565.833	58393
565.893	71834
565.953	36132
566.013	32470
566.074	34635
566.134	43991
566.194	70781
566.254	75136
566.314	46499
566.374	35124
566.434	34178
566.494	34461
566.554	37187
566.614	36637
566.673	38408
566.733	42349
566.793	43486
566.853	43522
566.913	43310
566.973	45341
567.033	45719
567.092	47651
567.152	46846
567.212	46588
567.272	46722
567.331	50158
567.391	49728
567.451	55184
567.511	67968
567.570	62996
567.630	47269
567.690	47014
567.749	48703
567.809	54297
567.868	60890
567.928	70640
567.988	79248
568.047	90059
568.107	109906
568.166	150401
568.226	233790
568.285	307246
568.345	260544
568.404	212614
568.464	184550
568.523	172338
568.582	178000
568.642	198039
568.701	242903
568.761	352355
568.820	527487
568.879	489119
568.939	372212
568.998	270747
569.057	205422
569.116	163587
569.176	132667
569.235	110986
569.294	95202
569.353	82358
569.413	72253
569.472	64498
569.531	59176
569.590	53991
569.649	50534
569.708	47511
569.767	49669
569.827	57397
569.886	46457
569.945	40330
570.004	40784
570.063	39884
570.122	44257
570.181	42961
570.240	43484
570.299	43689
570.358	44602
570.417	35630
570.475	33811
570.534	37595
570.593	39606
570.652	39068
570.711	39776
570.770	35431
570.829	42115
570.887	45031
570.946	51215
571.005	34274
571.064	38999
571.122	49608
571.181	46027
571.240	31590
571.299	28208
571.357	29778
571.416	31104
571.475	34980
571.533	33687
571.592	27971
571.650	30272
571.709	26805
571.768	32207
571.826	29556
571.885	26227
571.943	24744
572.002	25524
572.060	25952
572.119	22552
572.177	23024
572.236	22851
572.294	22974
572.352	23773
572.411	23842
572.469	22626
572.528	23192
572.586	25061
572.644	30854
572.703	39311
572.761	25853
572.819	22854
572.877	22118
572.936	21621
572.994	21817
573.052	22171
573.110	25307
573.169	27421
573.227	22570
573.285	21997
573.343	21226
573.401	22845
573.459	22031
573.517	21066
573.576	22591
573.634	24360
573.692	24960
573.750	23235
573.808	22370
573.866	23662
573.924	30561
573.982	28686
574.040	22343
574.098	22055
574.155	21320
574.213	21567
574.271	21882
574.329	24480
574.387	21435
574.445	19253
574.503	18774
574.560	19467
574.618	19420
574.676	20826
574.734	20399
574.792	21567
574.849	19791
574.907	17880
574.965	18191
575.022	17699
575.080	18401
575.138	21957
575.195	22871
575.253	24903
575.311	28814
575.368	21143
575.426	18571
575.483	19051
575.541	18758
575.598	20025
575.656	20909
575.713	20130
575.771	20487
575.828	19609
575.886	19130
575.943	21597
576.001	21129
576.058	20638
576.115	22516
576.173	27600
576.230	34853
576.287	44993
576.345	29920
576.402	21787
576.459	21443
576.517	22163
576.574	22866
576.631	24119
576.688	20577
576.746	19716
576.803	19026
576.860	18321
576.917	19723
576.974	19483
577.031	19735
577.089	19769
577.146	19857
577.203	20439
577.260	21865
577.317	23057
577.374	24556
577.431	23812
577.488	23660
577.545	20262
577.602	19191
577.659	18661
577.716	18711
577.773	18354
577.830	18134
577.886	17683
577.943	17121
578.000	18795
578.057	21666
578.114	19511
578.171	18346
578.227	19232
578.284	19473
578.341	20063
578.398	21199
578.454	22321
578.511	25193
578.568	27783
578.625	22930
578.681	19518
578.738	18834
578.794	18707
578.851	17876
578.908	20194
578.964	20126
579.021	20604
579.077	21346
579.134	20459
579.190	18230
579.247	19628
579.303	18978
579.360	19681
579.416	19246
579.473	17765
579.529	17105
579.586	18102
579.642	18578
579.698	20049
579.755	20115
579.811	19783
579.867	19234
579.924	19124
579.980	18252
580.036	19958
580.093	19811
580.149	20473
580.205	19722
580.261	19843
580.317	19973
580.374	23628
580.430	25671
580.486	24911
580.542	21920
580.598	22340
580.619	22324
580.654	22329
580.692	22036
580.710	21938
580.765	20994
580.767	20993
580.823	21596
580.838	21442
580.879	21146
580.911	21423
580.935	21664
580.984	20105
580.991	19924
581.047	19742
581.057	19760
581.103	19933
581.130	19878
581.159	19880
581.203	19945
581.215	19986
581.270	20098
581.276	19971
581.326	18999
581.349	19213
581.382	19576
581.422	20468
581.438	20864
581.494	21729
581.494	21700
581.550	21091
581.567	21915
581.606	23678
581.640	22665
581.661	22109
581.713	21149
581.717	21088
581.773	18781
581.786	18998
581.829	19781
581.859	19734
581.885	19771
581.932	19952
581.940	19978
581.996	20017
582.004	19866
582.052	19222
582.077	18880
582.107	18535
582.150	19049
582.163	19208
582.219	20368
582.223	20271
582.274	19149
582.296	19693
582.330	20673
582.368	20607
582.386	20627
582.441	19120
582.441	19126
582.497	18968
582.514	18822
582.552	18767
582.587	19332
582.608	19578
582.659	18262
582.663	18174
582.719	19997
582.732	19769
582.774	19150
582.805	19779
582.830	20268
582.877	19302
582.885	19140
582.941	19012
582.950	19125
582.996	19709
583.023	19893
583.052	20214
583.095	19594
583.107	19392
583.162	20274
583.168	20273
583.218	20144
583.240	20069
583.273	20095
583.313	19359
583.328	19148
583.384	20095
583.385	20108
583.439	19928
583.458	19787
583.494	19654
583.531	19178
583.549	19020
583.603	19836
583.605	19846
583.660	19612
583.676	19565
583.715	19594
583.748	19945
583.770	20183
583.820	19920
583.825	19882
583.881	19309
583.893	19249
583.936	19109
583.965	19021
583.991	18965
584.038	19294
584.046	19308
584.101	19690
584.110	19680
584.156	19671
584.183	19357
584.211	18931
584.255	19244
584.266	19370
584.321	19366
584.328	19490
584.376	20403
584.400	20455
584.431	20398
584.472	20580
584.486	20655
584.541	20449
584.545	20524
584.596	21183
584.617	21082
584.651	21517
584.689	22205
584.706	22165
584.761	22463
584.762	22477
584.816	22760
584.834	22849
584.871	22944
584.906	23531
584.926	23760
584.978	25072
584.980	25116
585.035	26175
585.051	26796
585.090	28422
585.123	30028
585.145	30900
585.195	33953
585.200	34244
585.254	38597
585.267	39871
585.309	43752
585.340	46673
585.364	48887
585.412	53307
585.419	54013
585.473	63297
585.484	66349
585.528	80204
585.556	97425
585.583	121982
585.628	195861
585.637	216142
585.692	456744
585.700	493225
585.747	642055
585.772	488561
585.801	273069
585.845	108672
585.856	81464
585.910	52687
585.917	50554
585.965	42145
585.989	39137
586.019	35479
586.061	33367
586.074	33122
586.128	33605
586.133	33785
586.183	35204
586.205	35465
586.237	34833
586.277	32966
586.292	32263
586.346	30999
586.349	31054
586.401	31766
586.421	32068
586.455	32198
586.493	33369
586.509	34614
586.564	41997
586.565	42459
586.618	59745
586.637	57556
586.672	49093
586.709	41762
586.727	38992
586.781	39817
586.781	39744
586.835	35358
586.853	34817
586.889	34285
586.925	33553
586.944	32916
586.996	33890
586.998	33866
587.052	35047
587.068	35215
587.106	35104
587.140	35650
587.161	36038
587.212	37447
587.215	37413
587.269	38352
587.284	38833
587.323	40094
587.356	40734
587.377	40901
587.427	42684
587.431	42698
587.485	44004
587.499	44509
587.539	45375
587.571	46580
587.593	47644
587.643	50631
587.648	50753
587.702	53722
587.715	54825
587.755	57287
587.786	59423
587.810	60890
587.858	64565
587.864	64798
587.917	70047
587.930	71842
587.971	77079
588.001	81523
588.025	84728
588.073	91834
588.079	92525
588.133	104109
588.145	107485
588.187	117772
588.217	127528
588.241	135499
588.288	154547
588.295	156602
588.348	183348
588.360	190678
588.402	215079
588.431	236459
588.456	253472
588.503	295728
588.510	300664
588.564	360209
588.575	377536
588.617	441325
588.646	499049
588.671	552076
588.718	693436
588.725	717724
588.778	990238
588.789	1068196
588.832	1473068
588.861	1795674
588.886	2138803
588.932	2590632
588.939	2598300
588.993	2527471
589.004	2558120
589.047	2199576
589.075	1727396
589.100	1406119
589.147	909982
589.154	859925
589.207	649996
589.218	625523
589.261	572613
589.290	566889
589.314	576080
589.361	649424
589.368	667453
589.421	915522
589.433	993813
589.475	1443861
589.504	1782718
589.528	2038784
589.576	2315814
589.582	2251882
589.635	1685797
589.647	1512655
589.689	930074
589.718	608577
589.742	476337
589.790	313883
589.795	299494
589.849	221851
589.861	209337
589.902	175339
589.932	155617
589.955	140528
590.004	116136
590.009	113457
590.062	98162
590.075	95650
590.115	86876
590.146	81322
590.168	76976
590.218	70578
590.222	69653
590.275	64298
590.289	63406
590.328	60225
590.360	58077
590.381	55627
590.431	51475
590.435	51023
590.488	49415
590.503	49352
590.541	47557
590.574	46268
590.594	45282
590.645	44167
590.647	43817
590.700	40274
590.716	39642
590.753	38943
590.787	38648
590.806	37931
590.859	36823
590.859	36621
590.912	35992
590.930	36020
590.965	35115
591.001	34694
591.018	34269
591.071	33296
591.072	33457
591.124	32218
591.143	32053
591.177	32021
591.214	32306
591.230	32492
591.283	34063
591.285	34269
591.336	35200
591.356	36022
591.389	35709
591.427	34835
591.442	33517
591.495	29342
591.498	29196
591.547	28693
591.569	28798
591.600	27961
591.640	26924
591.653	26912
591.706	27718
591.711	27932
591.759	27554
591.782	27650
591.811	28174
591.853	29068
591.864	28595
591.917	26710
591.924	26596
591.969	26580
591.995	26822
592.022	26525
592.066	26265
592.075	26398
592.127	28134
592.137	28619
592.180	29288
592.208	29722
592.233	28416
592.279	26300
592.285	26108
592.338	25692
592.350	25699
592.390	25485
592.421	25567
592.443	25593
592.491	26006
592.495	25883
592.548	25744
592.562	25821
592.600	26203
592.633	26740
592.653	26248
592.704	25112
592.705	25268
592.775	26090
592.846	26309
592.916	28091
592.987	30984
593.058	28560
593.128	24697
593.199	24749
593.270	25062
593.341	25005
593.411	27292
593.482	27683
593.553	26844
593.623	26451
593.694	27133
593.764	27775
593.835	26857
593.906	26281
593.976	25968
594.047	27530
594.117	30241
594.188	29887
594.258	27380
594.329	28006
594.399	28809
594.470	29161
594.540	29448
594.611	29955
594.681	29948
594.751	31447
594.822	33394
594.892	34260
594.963	34171
595.033	34415
595.103	33629
595.174	35315
595.244	40536
595.314	44115
595.384	35550
595.455	36224
595.525	37963
595.595	38589
595.665	38120
595.736	36651
595.806	37664
595.876	37651
595.946	38060
596.016	38523
596.087	40596
596.157	40378
596.227	40957
596.297	41747
596.367	43987
596.437	47818
596.507	49988
596.577	53693
596.647	48051
596.717	48744
596.787	49763
596.857	49918
596.927	50555
596.997	50580
597.067	51406
597.137	51141
597.207	51762
597.277	51962
597.347	49823
597.417	49683
597.487	50719
597.557	51333
597.626	52873
597.696	54060
597.766	56060
597.836	56245
597.906	47579
597.975	45831
598.045	46647
598.115	48524
598.185	52235
598.254	58582
598.324	63780
598.394	65139
598.464	63625
598.533	60751
598.603	57834
598.672	55792
598.742	56332
598.812	54950
598.881	56852
598.951	56453
599.020	57077
599.090	58754
599.159	60244
599.229	57565
599.299	55159
599.368	56122
599.437	56193
599.507	52715
599.576	50522
599.646	49745
599.715	49406
599.785	50207
599.854	48424
599.924	48764
599.993	47941
600.062	48065
600.132	48857
600.201	53563
600.270	62651
600.340	64674
600.409	60906
600.478	59925
600.547	62219
600.617	57180
600.686	46365
600.755	44252
600.824	45165
600.894	40968
600.963	39964
601.032	39104
601.101	38064
601.170	35304
601.239	36007
601.308	37529
601.378	35393
601.447	35518
601.516	35758
601.585	38705
601.654	41167
601.723	37412
601.792	37260
601.861	39733
601.930	44495
601.999	47324
602.068	42985
602.137	46176
602.206	44956
602.275	44123
602.343	52081
602.412	51001
602.481	44422
602.550	42513
602.619	44200
602.688	44472
602.756	42801
602.825	44001
602.894	44235
602.963	45687
603.032	46279
603.100	46002
603.169	45541
603.238	46858
603.307	46665
603.375	47136
603.444	47833
603.513	49604
603.581	50006
603.650	50557
603.719	48324
603.787	51106
603.856	52077
603.924	53363
603.993	55645
604.061	57304
604.130	60701
604.198	62268
604.267	61636
604.335	61379
604.404	61743
604.472	64182
604.541	65260
604.609	65387
604.678	65446
604.746	65629
604.815	67375
604.883	68755
604.951	68153
605.020	69349
605.088	70548
605.156	71714
605.225	72740
605.293	74018
605.361	73830
605.429	74923
605.498	78617
605.566	81375
605.634	83232
605.702	85431
605.771	87216
605.839	86812
605.907	85307
605.975	82986
606.043	81275
606.111	81020
606.180	80086
606.248	80097
606.316	79304
606.384	80225
606.452	86306
606.520	97054
606.588	87925
606.656	84845
606.724	83041
606.792	78348
606.860	70522
606.928	64083
606.996	62907
607.064	60751
607.132	64517
607.200	67174
607.267	69573
607.335	69578
607.403	72222
607.471	69938
607.539	66835
607.607	67351
607.674	61044
607.742	62134
607.810	65130
607.878	62255
607.946	60907
608.013	64192
608.081	66116
608.149	67177
608.216	67255
608.284	69923
608.352	69435
608.419	67884
608.487	71927
608.555	67883
608.622	68698
608.690	73659
608.757	80386
608.825	82085
608.893	80286
608.960	78869
609.028	77035
609.095	76709
609.163	71778
609.230	64235
609.298	60333
609.365	61403
609.432	68127
609.500	74766
609.567	85101
609.635	96362
609.702	101421
609.769	96065
609.837	76046
609.904	67167
609.971	71296
610.039	85806
610.106	121812
610.173	248456
610.241	579289
610.308	392835
610.375	187685
610.442	86381
610.509	73274
610.577	70553
610.644	70527
610.711	70824
610.778	73986
610.845	75295
610.912	80944
610.980	82483
611.047	82456
611.114	82459
611.181	78839
611.248	77366
611.315	84572
611.382	85290
611.449	86917
611.516	90118
611.583	88091
611.650	89546
611.717	91093
611.784	93451
611.851	99387
611.918	110468
611.984	135461
612.051	208982
612.118	458670
612.185	1159878
612.252	600071
612.319	147656
612.386	120482
612.452	108441
612.519	103117
612.586	103105
612.653	101376
612.719	105394
612.786	100537
612.853	90577
612.919	91429
612.986	90806
613.053	85173
613.120	80811
613.186	77815
613.253	79790
613.319	78745
613.386	79049
613.453	80926
613.519	86159
613.586	94100
613.652	111205
613.719	99605
613.785	92348
613.852	82172
613.918	80646
613.985	83443
614.051	85463
614.118	87279
614.184	82407
614.250	80534
614.317	83235
614.383	82095
614.449	83909
614.516	81970
614.582	81944
614.648	81113
614.715	80257
614.781	78216
614.847	79164
614.914	78542
614.980	75948
615.046	77937
615.112	79649
615.179	79724
615.245	81906
615.311	83421
615.377	91501
615.443	92763
615.509	86829
615.575	88179
615.642	87240
615.708	91205
615.774	97072
615.840	104612
615.906	121175
615.972	160235
616.038	269629
616.104	592386
616.170	1462959
616.236	1048424
616.302	218955
616.368	158007
616.434	113746
616.500	106289
616.565	120499
616.631	147830
616.697	115789
616.763	125414
616.829	200085
616.895	358141
616.961	308668
617.026	125778
617.092	88903
617.158	85412
617.224	82363
617.289	76780
617.355	73752
617.421	71947
617.487	71541
617.552	67539
617.618	66030
617.684	65627
617.749	68825
617.815	64572
617.880	62774
617.946	63560
618.012	64970
618.077	65966
618.143	62590
618.208	62533
618.274	68507
618.339	68890
618.405	56108
618.470	57565
618.536	58068
618.601	57726
618.667	53169
618.732	51009
618.798	49782
618.863	50360
618.928	49297
618.994	52251
619.059	57167
619.124	69560
619.190	54904
619.255	49108
619.320	50311
619.386	50217
619.451	47688
619.516	47000
619.581	47528
619.647	48703
619.712	48847
619.777	46406
619.842	47201
619.907	49048
619.972	48852
620.038	49104
620.103	45828
620.168	46041
620.233	47760
620.298	47383
620.363	48256
620.428	49801
620.493	50279
620.558	51363
620.623	51993
620.688	51213
620.753	50199
620.818	52397
620.883	52216
620.948	52011
621.013	51907
621.078	50881
621.143	50213
621.207	54292
621.272	52850
621.337	52849
621.402	51630
621.467	53461
621.532	53746
621.596	51725
621.661	48644
621.726	47545
621.791	48971
621.855	51727
621.920	52266
621.985	50757
622.049	53760
622.114	52002
622.179	51580
622.243	52222
622.308	52641
622.373	56666
622.437	54804
622.502	50689
622.566	51868
622.631	50503
622.695	52561
622.760	52630
622.824	52256
622.889	53879
622.953	58069
623.018	79775
623.082	73745
623.147	55791
623.211	55792
623.276	55195
623.340	49845
623.404	48414
623.469	49925
623.533	50234
623.597	47685
623.662	47792
623.726	44971
623.790	42476
623.854	40908
623.919	43732
623.983	44518
624.047	44253
624.111	45232
624.176	45194
624.240	47899
624.304	49770
624.368	45759
624.432	46179
624.496	48384
624.560	55794
624.625	57059
624.689	50378
624.753	50170
624.817	47524
624.881	45628
624.945	41695
625.009	41387
625.073	43519
625.137	47217
625.201	57829
625.265	55796
625.329	46461
625.393	47018
625.456	46533
625.520	47270
625.584	48424
625.648	52020
625.712	57024
625.776	79809
625.839	78296
625.903	46766
625.967	38685
626.031	48966
626.095	61658
626.158	43640
626.222	32329
626.286	32092
626.349	30109
626.413	28741
626.477	32349
626.540	30402
626.604	28902
626.668	28525
626.731	28216
626.795	28917
626.858	27699
626.922	26751
626.986	28516
627.049	26889
627.113	30300
627.176	27947
627.240	26424
627.303	27578
627.366	25990
627.430	28574
627.493	27152
627.557	26445
627.620	28257
627.684	28436
627.747	27941
627.810	25070
627.874	24525
627.937	22815
628.000	25955
628.064	24838
628.127	20052
628.190	21883
628.253	20608
628.317	19975
628.380	19397
628.443	19246
628.506	18781
628.569	18823
628.632	17187
628.696	17204
628.759	17527
628.822	16732
628.885	16350
628.948	16963
629.011	16855
629.074	17686
629.137	15980
629.200	14731
629.263	16777
629.326	14448
629.389	15069
629.452	15475
629.515	15407
629.578	15192
629.641	15674
629.704	15623
629.767	16498
629.830	14548
629.892	13778
629.955	14438
630.018	17861
630.081	20825
630.144	24984
630.207	18117
630.269	18158
630.332	15356
630.395	14041
630.458	14620
630.520	13213
630.583	15078
630.646	13795
630.708	13024
630.771	12342
630.834	15808
630.896	13625
630.959	13771
631.021	12549
631.084	13542
631.146	15218
631.209	15872
631.272	14187
631.334	14274
631.397	15363
631.459	14967
631.522	16960
631.584	16638
631.646	18573
631.709	20018
631.771	24512
631.834	18644
631.896	16419
631.958	15539
632.021	14715
632.083	13193
632.145	13870
632.208	13857
632.270	14613
632.332	12507
632.395	11699
632.457	13249
632.519	12093
632.581	13303
632.643	12453
632.706	12948
632.768	11347
632.830	12648
632.892	13214
632.954	12561
633.016	14262
633.078	11966
633.141	12722
633.203	12257
633.265	12921
633.327	13195
633.389	12729
633.451	16380
633.513	18913
633.575	16478
633.637	20106
633.698	17043
633.760	14596
633.822	14882
633.884	15370
633.946	15392
634.008	15092
634.070	16181
634.132	17936
634.193	18985
634.255	22342
634.317	21538
634.379	22894
634.441	18770
634.502	17247
634.564	17925
634.626	18503
634.687	19583
634.749	15290
634.811	12919
634.873	12586
634.934	13083
634.996	13738
635.057	12408
635.119	12202
635.181	13306
635.242	13913
635.304	11566
635.365	15048
635.427	12335
635.488	13692
635.550	11875
635.611	13597
635.673	11082
635.734	16273
635.796	15950
635.857	17989
635.918	17067
635.980	20959
636.041	21184
636.102	23613
636.164	23914
636.225	23423
636.286	17707
636.348	17191
636.409	15698
636.470	13631
636.531	13402
636.593	12993
636.654	12490
636.715	11282
636.776	11080
636.838	10616
636.899	11941
636.960	10938
637.021	11180
637.082	12310
637.143	12777
637.204	9969
637.265	9992
637.326	10953
637.387	10807
637.448	9272
637.509	10547
637.570	10207
637.631	11304
637.692	8477
637.753	8723
637.814	9246
637.875	8767
637.936	10143
637.997	9041
638.058	10368
638.119	9823
638.179	9964
638.240	7751
638.301	9206
638.362	8150
638.423	8867
638.483	10155
638.544	7115
638.605	9032
638.666	8014
638.726	9272
638.787	8622
638.848	8766
638.908	9270
638.969	8742
639.030	8580
639.090	7748
639.151	8292
639.211	10410
639.272	15582
639.332	25737
639.393	13187
639.453	9018
639.514	9489
639.574	8183
639.635	7947
639.695	9376
639.756	7996
639.816	10883
639.877	13459
639.937	25855
639.997	32801
640.058	9725
640.118	7628
640.178	9336
640.239	8234
640.299	7822
640.359	6934
640.420	8954
640.480	10540
640.540	12040
640.600	11002
640.661	10949
640.721	10705
640.781	14536
640.841	8180
640.901	10002
640.961	9901
641.021	11031
641.082	14041
641.142	19738
641.202	11859
641.262	6981
641.322	8382
641.382	6940
641.442	7817
641.502	7325
641.562	7621
641.622	8484
641.682	8518
641.742	10100
641.802	9114
641.861	10212
641.921	9606
641.981	11749
642.041	12033
642.101	15460
642.161	8361
642.221	7409
642.280	7105
642.340	6025
642.400	6547
642.460	7457
642.519	7802
642.579	6622
642.639	8544
642.698	4615
642.758	10840
642.818	8009
642.877	6547
642.937	8411
642.997	11467
643.056	17217
643.116	9700
643.175	9576
643.235	8132
643.294	8149
643.354	9839
643.414	11100
643.473	15062
643.532	18954
643.592	27701
643.651	47596
643.711	88848
643.770	187450
643.830	477239
643.889	944801
643.948	173345
644.008	30145
644.067	17828
644.126	12771
644.186	11764
644.245	11715
644.304	7690
644.363	10826
644.423	7735
644.482	8919
644.541	9095
644.600	7829
644.659	12323
644.719	14958
644.778	24147
644.837	44009
644.896	94623
644.955	209406
645.014	56532
645.073	13139
645.132	10465
645.191	8951
645.250	8385
645.309	10638
645.368	9825
645.427	13084
645.486	23085
645.545	38765
645.604	10793
645.663	9156
645.722	8110
645.781	10755
645.840	12393
645.898	17412
645.957	26114
646.016	41953
646.075	81898
646.134	166956
646.192	478863
646.251	627365
646.310	72401
646.369	19818
646.427	15585
646.486	11243
646.545	9472
646.603	9151
646.662	7464
646.721	7503
646.779	7315
646.838	7412
646.896	11755
646.955	15245
647.014	25259
647.072	48864
647.131	134163
647.189	52526
647.248	8097
647.306	7858
647.365	7038
647.423	5034
647.481	7624
647.540	5183
647.598	5297
647.657	5551
647.715	5874
647.773	4226
647.832	5404
647.890	4096
647.948	4095
648.007	5049
648.065	3854
648.123	5092
648.181	5826
648.240	5454
648.298	4043
648.356	4897
648.414	5710
648.472	5179
648.531	5027
648.589	5685
648.647	4252
648.705	4897
648.763	4756
648.821	5707
648.879	5243
648.937	7591
648.995	8425
649.053	12107
649.111	19163
649.169	34278
649.227	63369
649.285	139015
649.343	392976
649.401	156373
649.459	45309
649.516	23402
649.574	9463
649.632	10811
649.690	10694
649.748	11966
649.806	16300
649.863	32445
649.921	92685
649.979	51214
650.037	8029
650.094	3909
650.152	5112
650.210	3451
650.268	4566
650.325	3566
650.383	3444
650.440	2463
650.498	3616
650.556	3956
650.613	3284
650.671	4526
650.728	4186
650.786	3806
650.843	4894
650.901	2298
650.958	3444
651.016	3453
651.073	3821
651.131	1925
651.188	2089
651.246	4004
651.303	2608
651.360	3256
651.418	3090
651.475	3256
651.532	2423
651.590	3358
651.647	2403
651.704	3063
651.762	3294
651.819	3950
651.876	3243
651.933	2526
651.990	3482
652.048	1206
652.105	2904
652.162	3610
652.219	1710
652.276	2841
652.333	2983
652.390	1815
652.448	3292
652.505	2605
652.562	2653
652.619	3289
652.676	2258
652.733	2788
652.790	2241
652.847	1588
652.904	3295
652.961	1048
653.017	2308
653.074	3059
653.131	2968
653.188	2390
653.245	2506
653.302	3097
653.359	2610
653.415	2938
653.472	1580
653.529	3075
653.586	1531
653.642	1551
653.699	2721
653.756	2090
653.813	1668
653.869	2581
653.926	1819
653.983	1515
654.039	2348
654.096	2662
654.152	3965
654.209	1469
654.266	2790
654.322	1698
654.379	3028
654.435	3126
654.492	3843
654.548	6153
654.605	8824
654.661	4984
654.717	2347
654.774	3131
654.830	2897
654.887	2683
654.943	2476
655.000	2587
655.056	2699
655.112	3506
655.168	1683
655.225	2195
655.281	3203
655.337	4043
655.394	4796
655.450	4765
655.506	3622
655.562	6075
655.618	5645
655.675	2986
655.731	3909
655.787	3283
655.843	4992
655.899	3457
655.955	5356
656.011	6549
656.067	6011
656.123	7690
656.179	8123
656.235	10316
656.291	9118
656.347	8518
656.403	6366
656.459	5746
656.515	5363
656.571	4896
656.627	3611
656.683	2944
656.739	3657
656.795	4143
656.850	4978
656.906	5792
656.962	4370
657.018	2896
657.074	3334
657.129	3706
657.185	5351
657.241	11135
657.297	4758
657.352	3648
657.408	2202
657.464	3355
657.519	2474
657.575	1239
657.630	2198
657.686	2508
657.742	1775
657.797	2390
657.853	1413
657.908	2723
657.964	1725
658.019	2660
658.075	1630
658.130	2417
658.186	1007
658.241	2462
658.297	1390
658.352	2148
658.407	2399
658.463	583
658.518	2752
658.573	2081
658.629	475
658.684	1021
658.739	2368
658.795	1075
658.850	1357
658.905	898
658.960	1694
659.016	1718
659.071	2517
659.126	2872
659.181	3689
659.236	8509
659.291	8533
659.346	2888
659.401	2849
659.457	1538
659.512	591
659.567	3027
659.622	1357
659.677	1321
659.732	1826
659.787	1314
659.842	2608
659.897	2089
659.952	2311
660.007	2306
660.061	1984
660.116	1310
660.171	639
660.226	1117
660.281	1695
660.336	1120
660.391	1885
660.445	1170
660.500	2167
660.555	2097
660.610	1632
660.664	1453
660.719	1387
660.774	1908
660.828	1833
660.883	2054
660.938	2453
660.992	1447
661.047	1965
661.101	771
661.156	1435
661.211	772
661.265	1389
661.320	1293
661.374	1197
661.429	1489
661.483	2045
661.538	745
661.592	616
661.647	1113
661.701	1401
661.755	508
661.810	1606
661.864	1686
661.919	1354
661.973	1990
662.027	1022
662.081	681
662.136	1403
662.190	1672
662.244	1959
662.299	1568
662.353	1028
662.407	1057
662.461	1062
662.515	1942
662.569	1319
662.624	2696
662.678	2118
662.732	1580
662.786	1825
662.840	1166
662.894	2026
662.948	940
663.002	1173
663.056	1951
663.110	1554
663.164	1318
663.218	1878
663.272	2253
663.326	2735
663.380	2564
663.434	1934
663.488	1271
663.542	1632
663.595	1594
663.649	1218
663.703	2446
663.757	1420
663.811	1020
663.864	1720
663.918	1461
663.972	2057
664.026	766
664.079	1328
664.133	1317
664.187	1445
664.240	1363
664.294	1220
664.348	2463
664.401	1451
664.455	2039
664.508	2233
664.562	1680
664.615	1985
664.669	1426
664.722	1640
664.776	840
664.829	1859
664.883	1758
664.936	1384
664.990	2244
665.043	1878
665.097	2167
665.150	2433
665.203	1884
665.257	1791
665.310	2260
665.363	1667
665.417	2035
665.470	2013
665.523	2518
665.576	2504
665.630	2171
665.683	1892
665.736	1805
665.789	1586
665.842	1209
665.895	2218
665.949	2231
666.002	2119
666.055	1106
666.108	2766
666.161	1503
666.214	2486
666.267	2647
666.320	4019
666.373	2604
666.426	2172
666.479	1615
666.532	1951
666.585	2826
666.638	3169
666.691	2017
666.744	3279
666.796	1926
666.849	1942
666.902	1647
666.955	2191
667.008	1797
667.060	1349
667.113	1963
667.166	2044
667.219	1350
667.271	1931
667.324	1894
667.377	1954
667.430	2345
667.482	1582
667.535	1776
667.587	2551
667.640	2208
667.693	4191
667.745	9758
667.798	9730
667.850	3006
667.903	2599
667.955	2647
668.008	2665
668.060	1980
668.113	2095
668.165	2863
668.218	2680
668.270	2324
668.322	1741
668.375	1885
668.427	2470
668.479	2524
668.532	2362
668.584	2598
668.636	2290
668.689	2290
668.741	2636
668.793	2510
668.845	2775
668.898	3345
668.950	2206
669.002	2485
669.054	2255
669.106	1579
669.158	2799
669.211	1755
669.263	1944
669.315	2674
669.367	3266
669.419	3111
669.471	4162
669.523	4245
669.575	6926
669.627	4509
669.679	3755
669.731	3798
669.783	4124
669.835	4366
669.886	4076
669.938	3616
669.990	4243
670.042	3603
670.094	4296
670.146	5338
670.197	6596
670.249	7377
670.301	10146
670.353	15142
670.404	22295
670.456	31975
670.508	50607
670.560	83473
670.611	144102
670.663	266651
670.715	662959
670.766	997417
670.818	359890
670.869	69094
670.921	33631
670.972	22493
671.024	16500
671.075	11230
671.127	10249
671.178	7715
671.230	7736
671.281	7201
671.333	6845
671.384	5027
671.436	7296
671.487	7516
671.538	9776
671.590	13299
671.641	20987
671.692	39394
671.744	75247
671.795	45606
671.846	14104
671.897	8521
671.949	6403
672.000	5109
672.051	3842
672.102	4447
672.153	3644
672.204	3187
672.256	3740
672.307	3533
672.358	3550
672.409	3266
672.460	4130
672.511	2075
672.562	3417
672.613	3329
672.664	3115
672.715	2403
672.766	2329
672.817	2668
672.868	2540
672.919	2223
672.970	2496
673.021	1866
673.071	1795
673.122	2295
673.173	2329
673.224	2060
673.275	2705
673.326	2933
673.376	1881
673.427	1773
673.478	2075
673.528	1702
673.579	2237
673.630	2103
673.680	2859
673.731	2269
673.782	2902
673.832	2814
673.883	2536
673.934	1363
673.984	1959
674.035	2120
674.085	2576
674.136	2472
674.186	2372
674.237	3489
674.287	4185
674.338	2985
674.388	2488
674.438	2804
674.489	3321
674.539	2626
674.589	2710
674.640	3011
674.690	2332
674.740	1930
674.791	2807
674.841	2566
674.891	2199
674.942	2531
674.992	3295
675.042	2775
675.092	1493
675.142	2376
675.193	1981
675.243	2299
675.293	2730
675.343	2019
675.393	2235
675.443	2309
675.493	2757
675.543	1531
675.593	2158
675.643	1528
675.693	2338
675.743	2254
675.793	2540
675.843	1078
675.893	1924
675.943	2462
675.993	2131
676.043	2148
676.093	2391
676.142	1826
676.192	2466
676.242	1289
676.292	2114
676.341	1282
676.391	2658
676.441	1280
676.491	1162
676.540	1573
676.590	1892
676.640	2088
676.689	1155
676.739	2091
676.789	1505
676.838	1600
676.888	2002
676.937	1746
676.987	1262
677.037	1228
677.086	1145
677.136	2524
677.185	1453
677.235	1221
677.284	1738
677.333	944
677.383	1230
677.432	852
677.482	1587
677.531	1764
677.580	1516
677.630	1781
677.679	1828
677.728	2742
677.778	2048
677.827	1347
677.876	1811
677.925	1373
677.975	1401
678.024	1843
678.073	1690
678.122	2210
678.171	1697
678.220	2582
678.269	2645
678.319	2606
678.368	1966
678.417	2739
678.466	2673
678.515	1940
678.564	1889
678.613	1974
678.662	2120
678.711	2246
678.760	1718
678.809	1388
678.857	1807
678.906	1351
678.955	1717
679.004	2167
679.053	1444
679.102	1032
679.151	1267
679.199	1215
679.248	1468
679.297	956
679.346	901
679.394	1829
679.443	1562
679.492	1970
679.540	1321
679.589	1422
679.638	1182
679.686	2613
679.735	964
679.784	2145
679.832	1844
679.881	1792
679.929	1321
679.978	635
680.026	1083
680.075	2394
680.123	965
680.172	1437
680.220	1646
680.268	2001
680.317	1198
680.365	1243
680.414	1090
680.462	1461
680.510	1952
680.559	1047
680.607	840
680.655	1788
680.703	1384
680.752	1590
680.800	1324
680.848	1479
680.896	1989
680.945	1428
680.993	1204
681.041	1235
681.089	2021
681.137	1517
681.185	588
681.233	716
681.258	949
681.281	1147
681.329	1508
681.377	1322
681.380	1349
681.425	1422
681.473	2075
681.502	1834
681.521	1624
681.569	1761
681.617	2160
681.624	2128
681.665	1780
681.713	2444
681.745	2073
681.761	1856
681.809	1749
681.857	2177
681.867	2187
681.904	2141
681.952	1970
681.989	2041
682.000	2042
682.048	1746
682.096	2646
682.111	2380
682.143	1698
682.191	1379
682.233	2652
682.239	2826
682.286	2536
682.334	2231
682.354	2179
682.382	2054
682.430	2983
682.476	2226
682.477	2190
682.525	2353
682.572	1733
682.598	1877
682.620	1993
682.667	2219
682.715	3221
682.720	3224
682.763	3016
682.810	3654
682.841	3466
682.857	3326
682.905	3045
682.952	3184
682.963	3293
683.000	3593
683.047	2532
683.085	3183
683.095	3335
683.142	3082
683.190	2997
683.206	2947
683.237	2812
683.284	3236
683.328	3161
683.332	3140
683.379	2884
683.426	3207
683.449	3101
683.473	2975
683.521	3340
683.568	3008
683.571	3072
683.615	3687
683.662	4082
683.693	4073
683.709	4024
683.757	3359
683.804	3793
683.814	3930
683.851	4376
683.898	4207
683.936	4173
683.945	4150
683.992	4482
684.039	4768
684.057	4905
684.086	5077
684.133	4783
684.179	4299
684.180	4263
684.227	4939
684.274	5080
684.300	5465
684.321	5725
684.368	4472
684.415	5053
684.422	4953
684.462	4158
684.509	4368
684.543	4057
684.556	3983
684.603	4513
684.649	4473
684.665	4313
684.696	3964
684.743	4085
684.786	4849
684.790	4908
684.837	4614
684.883	5128
684.908	4893
684.930	4599
684.977	5055
685.023	4948
685.029	4975
685.070	5057
685.117	4743
685.150	4819
685.164	4876
685.210	5706
685.257	5920
685.272	6117
685.303	6543
685.350	5538
685.393	6459
685.396	6525
685.443	6652
685.490	7517
685.514	7430
685.536	7084
685.583	7265
685.629	6420
685.636	6309
685.675	5834
685.722	6668
685.757	6861
685.768	6929
685.815	6355
685.861	6130
685.878	6213
685.908	6248
685.954	5538
686.000	6438
686.000	6453
686.047	6411
686.093	7281
686.121	7629
686.139	7555
686.185	6856
686.232	6167
686.242	6176
686.278	6348
686.324	5735
686.363	5223
686.370	5174
686.416	5898
686.463	6645
686.484	6572
686.509	6411
686.555	5965
686.601	5653
686.606	5761
686.647	6626
686.693	6243
686.727	5828
686.739	5723
686.785	6137
686.831	6213
686.848	6156
686.877	5964
686.923	6713
686.969	6300
686.969	6297
687.015	6599
687.061	6210
687.090	6197
687.107	6146
687.153	6477
687.199	5960
687.211	5800
687.245	5585
687.291	6187
687.332	7175
687.336	7254
687.382	6806
687.428	6940
687.453	7099
687.474	7091
687.520	6809
687.565	6268
687.574	6161
687.611	6059
687.657	5959
687.695	6808
687.702	6963
687.748	6868
687.794	7717
687.816	7602
687.839	7414
687.885	7334
687.931	6640
687.937	6650
687.976	6787
688.022	6777
688.058	7222
688.067	7318
688.113	7361
688.158	7160
688.179	7154
688.204	7180
688.249	7003
688.295	7253
688.300	7252
688.340	7419
688.386	8292
688.421	7626
688.431	7426
688.477	7997
688.522	8289
688.542	8395
688.567	8500
688.613	7903
688.658	8195
688.663	8139
688.703	7694
688.749	7827
688.784	8115
688.794	8194
688.839	7662
688.884	7579
688.905	7456
688.930	7315
688.975	7211
689.020	7168
689.026	7181
689.065	7455
689.110	7205
689.146	7136
689.155	7150
689.201	7375
689.246	7523
689.267	7738
689.291	7938
689.336	7972
689.381	7867
689.388	7866
689.426	7844
689.471	7577
689.509	7814
689.516	7895
689.561	8051
689.606	7738
689.630	8084
689.651	8277
689.696	8122
689.741	7892
689.750	7998
689.785	8577
689.830	7987
689.871	7860
689.875	7850
689.920	8179
689.965	8355
689.992	8118
690.010	7955
690.054	7954
690.099	7870
690.112	7865
690.144	8072
690.189	7715
690.233	8134
690.233	8147
690.278	8078
690.323	7941
690.354	8093
690.367	8261
690.412	8634
690.457	8389
690.474	8570
690.501	8515
690.546	8209
690.590	7736
690.595	7647
690.635	7494
690.680	8141
690.716	7846
690.724	7746
690.769	8383
690.813	8175
690.836	7941
690.857	7868
690.902	8293
690.946	8332
690.957	8361
690.991	8551
691.035	8623
691.077	9280
691.080	9321
691.124	9375
691.168	9259
691.198	9305
691.213	9409
691.257	9498
691.301	9615
691.318	9752
691.346	9701
691.390	9056
691.434	8645
691.439	8640
691.478	9162
691.522	9534
691.559	9419
691.567	9481
691.611	10421
691.655	10570
691.680	10953
691.699	10816
691.743	10168
691.787	9524
691.800	9344
691.831	9426
691.875	9938
691.919	9967
691.921	9948
691.964	9785
692.008	9986
692.041	9727
692.052	9645
692.096	9950
692.139	9788
692.162	9656
692.183	9663
692.227	9445
692.271	9582
692.282	9662
692.315	10156
692.359	10169
692.402	10638
692.403	10659
692.447	10278
692.490	10624
692.523	10073
692.534	9889
692.578	9938
692.622	9744
692.643	9598
692.666	9679
692.709	9732
692.753	9981
692.763	10050
692.797	10001
692.840	9466
692.884	9268
692.884	9291
692.928	9589
692.971	9889
693.004	10071
693.015	10097
693.059	10293
693.102	10419
693.124	10513
693.146	10613
693.189	10522
693.233	10577
693.245	10581
693.276	10798
693.320	10921
693.363	11004
693.365	10977
693.407	10503
693.450	10398
693.485	10248
693.493	10319
693.537	10336
693.580	10528
693.605	10807
693.624	10927
693.667	10711
693.710	10345
693.725	10315
693.753	10881
693.797	11578
693.840	12381
693.845	12427
693.883	11984
693.926	11704
693.966	11076
693.970	11052
694.013	10910
694.056	10728
694.086	10450
694.099	10421
694.142	10206
694.185	10400
694.206	10233
694.229	10555
694.272	11467
694.315	12262
694.326	12395
694.358	12654
694.401	13429
694.444	13934
694.446	13926
694.487	13733
694.530	13256
694.566	13122
694.573	13045
694.616	12163
694.659	11361
694.686	10855
694.702	10903
694.745	10990
694.787	10890
694.806	10934
694.830	10900
694.873	10767
694.916	10397
694.926	10270
694.959	10626
695.002	11299
695.044	11941
695.046	11946
695.087	12071
695.130	11958
695.166	11769
695.172	11756
695.215	11372
695.258	11158
695.286	11049
695.301	11092
695.343	11022
695.386	11125
695.406	10997
695.428	11052
695.471	11382
695.514	11598
695.526	11595
695.556	11786
695.599	12325
695.641	12615
695.646	12637
695.684	12635
695.726	12396
695.766	12080
695.769	12092
695.811	12103
695.854	11949
695.886	11886
695.896	11928
695.938	11779
695.981	11655
696.005	11600
696.023	11807
696.065	12095
696.108	12597
696.125	12791
696.150	12797
696.192	12559
696.235	12259
696.245	12215
696.277	12359
696.319	12401
696.361	12425
696.365	12392
696.404	12543
696.446	12569
696.485	12792
696.488	12848
696.530	12908
696.572	13249
696.604	13274
696.614	13213
696.656	12917
696.698	12643
696.724	12471
696.740	12505
696.783	12323
696.825	12254
696.844	12241
696.867	12480
696.909	12753
696.951	12938
696.964	12973
696.992	12888
697.034	12727
697.076	12618
697.083	12568
697.118	12856
697.160	13143
697.202	13414
697.203	13385
697.244	13303
697.286	13258
697.323	13179
697.327	13248
697.369	13434
697.411	13684
697.442	13915
697.453	14004
697.494	14092
697.536	14222
697.562	14282
697.578	14567
697.620	15261
697.661	15802
697.682	16095
697.703	16407
697.744	16852
697.786	17402
697.801	17549
697.828	17647
697.869	17572
697.911	17629
697.921	17585
697.952	16838
697.994	15843
698.035	14823
698.040	14652
698.077	14501
698.118	14334
698.160	14190
698.160	14150
698.201	14034
698.243	13860
698.279	13724
698.284	13773
698.325	13833
698.367	13931
698.399	13928
698.408	14003
698.449	14160
698.491	14408
698.518	14488
698.532	14545
698.573	14622
698.614	14690
698.638	14690
698.656	14799
698.697	14971
698.738	15126
698.757	15165
698.779	15222
698.820	15248
698.862	15275
698.877	15244
698.903	15214
698.944	15103
698.985	14992
698.996	14923
699.026	14836
699.067	14663
699.116	14420
699.235	14440
699.354	14398
699.474	14055
699.593	15787
699.713	15597
699.832	15657
699.951	17039
700.070	16676
700.190	14566
700.309	15478
700.428	15838
700.547	14385
700.667	14617
700.786	15504
700.905	13886
701.024	15236
701.143	13249
701.262	13827
701.381	14392
701.500	15423
701.619	17724
701.738	14564
701.857	13797
701.976	13357
702.095	13997
702.214	16033
702.333	16541
702.452	15338
702.571	14532
702.690	13789
702.809	13279
702.928	13251
703.047	13454
703.165	13585
703.284	12891
703.403	13090
703.522	13763
703.640	14011
703.759	16649
703.878	17787
703.997	12734
704.115	12622
704.234	12413
704.353	11936
704.471	11850
704.590	12177
704.708	11017
704.827	11874
704.946	11098
705.064	12335
705.183	11109
705.301	12546
705.420	14101
705.538	12785
705.656	12181
705.775	12074
705.893	12100
706.012	13414
706.130	11982
706.249	12342
706.367	13017
706.485	13454
706.604	12807
706.722	14187
706.840	16478
706.958	12750
707.077	12082
707.195	12352
707.313	11971
707.431	11204
707.549	11141
707.668	11022
707.786	11599
707.904	11290
708.022	10778
708.140	12038
708.258	11461
708.376	11903
708.494	11243
708.612	13339
708.730	15122
708.848	14230
708.966	15279
709.084	14756
709.202	12513
709.320	11894
709.438	12852
709.556	14043
709.674	12539
709.791	12452
709.909	12289
710.027	12212
710.145	11489
710.263	13223
710.380	12195
710.498	11735
710.616	12042
710.733	12579
710.851	11441
710.969	12689
711.086	11213
711.204	12454
711.322	11253
711.439	11443
711.557	11166
711.674	11316
711.792	11229
711.909	11491
712.027	10462
712.144	10228
712.262	10399
712.379	11000
712.497	14968
712.614	14253
712.732	12809
712.849	13690
712.966	15055
713.084	19624
713.201	14235
713.318	13462
713.436	12900
713.553	12923
713.670	13562
713.787	14627
713.905	13904
714.022	13756
714.139	14362
714.256	18439
714.373	25878
714.490	48223
714.608	143192
714.725	616871
714.842	485718
714.959	34732
715.076	18068
715.193	16278
715.310	14439
715.427	12864
715.544	12278
715.661	13755
715.778	12475
715.895	12595
716.011	12786
716.128	11958
716.245	12800
716.362	18667
716.479	16969
716.596	12324
716.713	11953
716.829	11035
716.946	10934
717.063	9917
717.180	10095
717.296	10221
717.413	10525
717.530	11740
717.646	10769
717.763	10060
717.880	10375
717.996	10124
718.113	11604
718.229	10518
718.346	9905
718.462	11339
718.579	17821
718.695	37271
718.812	18463
718.928	14155
719.045	10269
719.161	10846
719.277	10232
719.394	10280
719.510	10750
719.626	10766
719.743	13572
719.859	20451
719.975	40164
720.092	170087
720.208	325900
720.324	30477
720.440	13521
720.557	14725
720.673	26230
720.789	23431
720.905	33479
721.021	12595
721.137	8775
721.253	10036
721.369	8976
721.486	10278
721.602	12968
721.718	8797
721.834	8549
721.950	9815
722.066	7822
722.181	9250
722.297	9200
722.413	9295
722.529	8336
722.645	8235
722.761	7579
722.877	7433
722.993	8318
723.108	9713
723.224	8663
723.340	8408
723.456	7398
723.571	7931
723.687	7048
723.803	7863
723.918	8495
724.034	8579
724.150	7120
724.265	8735
724.381	14753
724.497	15341
724.612	7531
724.728	7263
724.843	6933
724.959	8927
725.074	15154
725.190	15051
725.305	7262
725.421	8069
725.536	6899
725.651	7124
725.767	7224
725.882	7132
725.997	6673
726.113	6990
726.228	6980
726.343	6827
726.459	6408
726.574	6635
726.689	6469
726.804	6308
726.920	6208
727.035	6423
727.150	5990
727.265	6814
727.380	7654
727.495	7340
727.610	6327
727.725	6870
727.841	6527
727.956	6871
728.071	6146
728.186	6030
728.301	4819
728.416	7561
728.531	6987
728.645	6892
728.760	8854
728.875	10324
728.990	9092
729.105	7669
729.220	8784
729.335	8376
729.449	5427
729.564	5628
729.679	5334
729.794	5192
729.908	6735
730.023	5954
730.138	5185
730.253	6224
730.367	5275
730.482	5940
730.596	6002
730.711	8109
730.826	7340
730.940	6185
731.055	7119
731.169	6847
731.284	5803
731.398	6345
731.513	7586
731.627	7019
731.742	7246
731.856	9172
731.970	8802
732.085	10516
732.199	13852
732.313	23825
732.428	64193
732.542	191064
732.656	90031
732.771	17101
732.885	9939
732.999	8799
733.113	9514
733.227	7976
733.342	7380
733.456	7463
733.570	7606
733.684	7911
733.798	6594
733.912	7410
734.026	6343
734.140	6844
734.254	7569
734.368	9756
734.482	10987
734.596	6938
734.710	6770
734.824	6783
734.938	5423
735.052	6930
735.166	8212
735.280	7378
735.393	6063
735.507	6770
735.621	7821
735.735	11033
735.849	6797
735.962	6955
736.076	6898
736.190	6631
736.303	7921
736.417	8960
736.531	6568
736.644	6310
736.758	5247
736.872	6195
736.985	6621
737.099	6847
737.212	5124
737.326	5806
737.439	5623
737.553	6264
737.666	6301
737.780	5601
737.893	6117
738.007	5992
738.120	5291
738.233	5578
738.347	5989
738.460	6042
738.573	6933
738.687	6742
738.800	7414
738.913	10696
739.026	6597
739.140	5533
739.253	4999
739.366	5509
739.479	5291
739.592	5490
739.705	4953
739.818	5757
739.932	5916
740.045	6382
740.158	5905
740.271	6314
740.384	5461
740.497	6861
740.610	6570
740.723	6473
740.836	7177
740.949	8799
741.062	11343
741.174	7895
741.287	5742
741.400	6439
741.513	7261
741.626	7481
741.739	6705
741.851	6614
741.964	5898
742.077	6101
742.189	6574
742.302	11610
742.415	10100
742.527	7141
742.640	5720
742.753	5046
742.865	4871
742.978	4792
743.090	4966
743.203	5324
743.316	3998
743.428	4301
743.541	4982
743.653	3678
743.766	4567
743.878	5806
743.990	7072
744.103	9891
744.215	15114
744.327	7769
744.440	8433
744.552	14372
744.664	6840
744.777	4210
744.889	3789
745.001	5381
745.113	4470
745.226	4446
745.338	4504
745.450	4016
745.562	3808
745.674	4503
745.786	3168
745.898	4877
746.010	3544
746.122	4640
746.234	4150
746.347	4526
746.459	4092
746.570	5156
746.682	8498
746.794	19583
746.906	9726
747.018	4740
747.130	4319
747.242	3679
747.354	3947
747.466	4921
747.577	4064
747.689	3975
747.801	3341
747.913	3552
748.024	2856
748.136	4275
748.248	3300
748.359	4065
748.471	4057
748.583	4098
748.694	2697
748.806	4440
748.918	4328
749.029	4172
749.141	5110
749.252	5805
749.364	7170
749.475	16990
749.587	7690
749.698	4277
749.809	3973
749.921	3552
750.032	3703
750.144	3222
750.255	3386
750.366	3428
750.478	3759
750.589	3606
750.700	5110
750.811	4603
750.923	7524
751.034	21072
751.145	15858
751.256	4945
751.367	3134
751.479	3861
751.590	2796
751.701	2859
751.812	3270
751.923	3446
752.034	3035
752.145	2685
752.256	3559
752.367	2942
752.478	3454
752.589	2643
752.700	2802
752.811	2789
752.922	3159
753.032	4750
753.143	5070
753.254	2816
753.365	4240
753.476	2540
753.586	2281
753.697	2893
753.808	2900
753.919	2587
754.029	2493
754.140	2459
754.251	2709
754.361	3142
754.472	3354
754.582	3619
754.693	2741
754.804	3515
754.914	2517
755.025	2950
755.135	2700
755.246	3515
755.356	2654
755.466	3264
755.577	3231
755.687	3247
755.798	2484
755.908	2750
756.018	1941
756.129	2299
756.239	3102
756.349	3996
756.460	2574
756.570	3657
756.680	3042
756.790	3131
756.900	3991
757.011	2650
757.121	2307
757.231	3497
757.341	2800
757.451	2473
757.561	1903
757.671	2272
757.781	2232
757.891	3130
758.001	3078
758.111	3771
758.221	3618
758.331	5587
758.441	4708
758.551	7437
758.661	5242
758.771	4355
758.880	4143
758.990	3529
759.100	2180
759.210	2591
759.320	3416
759.429	3176
759.539	3504
759.649	4052
759.758	3936
759.868	5046
759.978	4132
760.087	4306
760.197	3897
760.307	3855
760.416	3964
760.526	2699
760.635	3892
760.745	4705
760.854	5247
760.964	4801
761.073	5001
761.182	4889
761.292	4518
761.401	4645
761.511	2581
761.620	3452
761.729	3155
761.839	3392
761.948	4081
762.057	3922
762.166	2764
762.276	1572
762.385	2488
762.494	3288
762.603	2277
762.712	3001
762.822	2006
762.931	3170
763.040	2035
763.149	2131
763.258	2822
763.367	3463
763.476	3050
763.585	2648
763.694	2605
763.803	2338
763.912	3278
764.021	3300
764.130	3332
764.238	1881
764.347	3299
764.456	3281
764.565	3130
764.674	3879
764.783	2888
764.891	2968
765.000	4035
765.109	4071
765.217	3164
765.326	4139
765.435	5218
765.543	4763
765.652	4768
765.761	5364
765.869	7139
765.978	8742
766.086	16152
766.195	29052
766.303	89592
766.412	319903
766.520	243020
766.629	32345
766.737	12075
766.846	8119
766.954	6287
767.062	6380
767.171	4395
767.279	5056
767.387	3830
767.496	4007
767.604	3368
767.712	3266
767.820	3423
767.928	3843
768.037	3005
768.145	3988
768.253	3612
768.361	2820
768.469	3018
768.577	3557
768.685	3510
768.793	3175
768.901	2554
769.009	3453
769.117	3858
769.225	3569
769.333	4664
769.441	7183
769.549	12482
769.657	28941
769.765	111966
769.873	271966
769.981	56512
770.088	10586
770.196	5692
770.304	5349
770.412	4293
770.519	4051
770.627	3617
770.735	2785
770.842	3602
770.950	3447
771.058	3522
771.165	3769
771.273	3843
771.380	3823
771.488	4679
771.595	4517
771.703	2977
771.810	4947
771.918	2427
772.025	4111
772.133	3861
772.240	3654
772.348	4795
772.455	4438
772.562	3572
772.670	3709
772.777	4343
772.884	4427
772.991	3668
773.099	4722
773.206	2785
773.313	4326
773.420	3743
773.528	2971
773.635	3142
773.742	4087
773.849	4084
773.956	3010
774.063	3458
774.170	2952
774.277	4844
774.384	3498
774.491	3498
774.598	5335
774.705	4234
774.812	6107
774.919	4114
775.026	4016
775.133	3189
775.239	2805
775.346	3397
775.453	3537
775.560	3384
775.667	3522
775.773	2751
775.880	3810
775.987	3380
776.093	3884
776.200	3099
776.307	2450
776.413	3803
776.520	3674
776.627	3402
776.733	4176
776.840	3444
776.946	8177
777.053	15090
777.159	36339
777.266	19973
777.372	29642
777.478	24456
777.585	12111
777.691	4705
777.798	3542
777.904	5043
778.010	7917
778.117	5744
778.223	3378
778.329	2840
778.435	1929
778.542	3775
778.648	3014
778.754	2753
778.860	3267
778.966	2932
779.072	2891
779.178	2530
779.284	3079
779.391	1970
779.497	1693
779.603	3398
779.708	1586
779.815	3573
779.920	5334
780.026	5771
780.132	3654
780.238	1572
780.344	2266
780.450	2834
780.556	2337
780.661	2657
780.767	2901
780.873	2591
780.979	3030
781.085	2882
781.190	2696
781.296	2094
781.402	2504
781.507	2511
781.613	2163
781.719	1805
781.824	3391
781.930	2835
782.035	2558
782.141	1920
782.246	1872
782.352	2283
782.457	1989
782.563	2420
782.668	2317
782.773	2430
782.879	2449
782.984	2777
783.090	4229
783.195	7786
783.300	5045
783.405	2235
783.511	3507
783.616	2388
783.721	2808
783.826	1975
783.932	2681
784.037	2529
784.142	3324
784.247	1650
784.352	3007
784.457	2327
784.562	3183
784.667	2091
784.772	1639
784.877	1666
784.982	3340
785.087	2145
785.192	2957
785.297	1666
785.402	2295
785.507	2381
785.611	2276
785.716	1488
785.821	2407
785.926	1939
786.031	1363
786.135	2494
786.240	2073
786.345	-1
786.450	2691
786.554	2281
786.659	1768
786.763	1423
786.868	2035
786.973	2822
787.077	1812
787.182	2277
787.286	1865
787.391	2218
787.495	2039
787.600	1396
787.704	1900
787.809	2686
787.913	1722
788.017	2523
788.122	1782
788.226	1495
788.330	2055
788.435	1757
788.539	2306
788.643	1232
788.747	1361
788.852	1998
788.956	1013
789.060	3208
789.164	1490
789.268	1222
789.372	2641
789.476	1526
789.580	1177
789.684	660
789.788	2352
789.892	1443
789.996	2314
790.100	2089
790.204	2290
790.308	2041
790.412	1534
790.516	2037
790.620	976
790.724	2211
790.828	2307
790.931	1495
791.035	3056
791.139	1188
791.242	1081
791.346	3111
791.450	1938
791.554	1203
791.657	1099
791.761	2196
791.864	2075
791.968	2557
792.072	1482
792.175	788
792.279	2186
792.382	1915
792.486	1817
792.589	1799
792.693	2371
792.796	773
792.899	2495
793.003	2873
793.106	394
793.209	911
793.313	3137
793.416	715
793.519	3936
793.623	6995
793.726	8062
793.829	2690
793.932	2216
794.035	914
794.138	3116
794.242	3086
794.345	2906
794.448	3659
794.551	6683
794.654	6343
794.757	4845
794.860	2731
794.963	1752
795.066	1070
795.169	2448
795.272	386
795.375	2119
795.477	654
795.580	1242
795.683	-115
795.786	2381
795.889	408
795.991	1745
796.094	2300
796.197	1097
796.300	876
796.402	1150
796.505	1458
796.608	960
796.710	2093
796.813	1421
796.915	1325
797.018	2342
797.120	1502
797.223	507
797.326	2929
797.428	835
797.530	1112
797.633	1533
797.735	2466
797.838	2546
797.940	3330
798.042	115
798.145	276
798.247	2052
798.349	47
798.452	1855
798.554	859
798.656	304
798.758	2291
798.860	1654
798.962	353
799.065	1125
799.167	95
799.269	2663
799.371	2879
799.473	2442
799.575	2367
799.677	2885
799.779	4221
799.881	5128
799.983	2481
800.085	1410
800.187	2029
800.289	777
800.390	914
800.492	862
800.594	2278
800.696	379
800.798	603
800.899	1277
801.001	1224
801.103	1275
801.205	1163
801.306	1310
801.408	827
801.509	1348
801.611	1710
801.713	1145
801.814	28
801.916	1546
802.017	1115
802.119	661
802.220	718
802.322	-705
802.423	3039
802.525	744
802.626	842
802.727	1393
802.829	2203
802.930	295
803.031	2293
803.133	823
803.234	281
803.335	1144
803.436	102
803.538	1350
803.639	378
803.740	1303
803.841	-410
803.942	1440
804.043	780
804.144	274
804.245	744
804.346	-233
804.447	1290
804.548	4608
804.649	4016
804.750	1148
804.851	747
804.952	614
805.053	1209
805.154	-135
805.255	1474
805.355	1542
805.456	956
805.557	-381
805.658	-595
805.758	1733
805.859	538
805.960	1413
806.061	306
806.161	1070
806.262	683
806.362	184
806.463	980
806.564	943
806.664	1092
806.765	1136
806.865	979
806.966	1178
807.066	317
807.166	1870
807.267	2019
807.367	710
807.468	878
807.568	237
807.668	1403
807.769	1265
807.869	117
807.969	749
808.069	987
808.170	1160
808.270	555
808.370	2406
808.470	2316
808.570	1166
808.670	438
808.770	494
808.870	202
808.970	1240
809.070	974
809.170	-100
809.271	1757
809.370	1021
809.470	977
809.570	-11
809.670	276
809.770	1258
809.870	695
809.970	765
810.070	-394
810.169	812
810.269	-154
810.369	1891
810.469	1246
810.568	583
810.668	1072
810.768	217
810.867	1040
810.967	270
811.066	696
811.166	1240
811.265	1100
811.365	432
811.464	441
811.564	2015
811.663	621
811.763	184
811.862	895
811.962	1327
812.061	146
812.160	955
812.260	1014
812.359	2047
812.458	3375
812.557	14213
812.657	17200
812.756	4939
812.855	1515
812.954	1649
813.053	1491
813.153	410
813.252	781
813.351	1188
813.450	128
813.549	626
813.648	883
813.747	681
813.846	591
813.945	709
814.044	1924
814.143	1692
814.242	1264
814.341	722
814.439	1297
814.538	1317
814.637	642
814.736	797
814.835	1449
814.933	622
815.032	1040
815.131	1559
815.229	1728
815.328	2013
815.427	788
815.525	3141
815.624	2236
815.722	1031
815.821	1791
815.919	2075
816.018	873
816.116	2468
816.215	1911
816.313	1951
816.412	2925
816.510	2170
816.609	3975
816.707	3855
816.805	3172
816.904	2320
817.002	3934
817.100	4092
817.198	4799
817.296	3974
817.395	3716
817.493	5393
817.591	5113
817.689	7657
817.787	9115
817.885	16067
817.983	28262
818.081	60775
818.179	151988
818.277	367221
818.375	253030
818.473	66542
818.571	28377
818.669	20095
818.767	20068
818.865	17596
818.963	19724
819.061	31303
819.158	54273
819.256	122164
819.354	295181
819.452	585014
819.549	309910
819.647	86280
819.745	36197
819.842	24467
819.940	17708
820.038	12664
820.135	9355
820.233	9346
820.330	6049
820.428	4775
820.525	6627
820.623	4562
820.720	4468
820.818	4735
820.915	4740
821.012	4947
821.110	3975
821.207	3901
821.304	3441
821.402	4430
821.499	7442
821.596	14185
821.693	8332
821.791	5631
821.888	6073
821.985	11523
822.082	8890
822.179	7037
822.276	6168
822.373	4876
822.470	2449
822.567	2514
822.664	1477
822.761	2981
822.858	1133
822.955	2424
823.052	2240
823.149	2083
823.246	2626
823.343	777
823.440	1806
823.536	2179
823.633	1239
823.730	2068
823.827	1748
823.923	2543
824.020	3166
824.117	4075
824.213	4359
824.310	3172
824.407	801
824.503	2240
824.600	2028
824.696	1082
824.793	2797
824.889	2160
824.986	1045
825.082	1947
825.179	2033
825.275	1720
825.371	724
825.468	1571
825.564	87
825.660	2459
825.757	1880
825.853	1628
825.949	729
826.045	1088
826.142	1330
826.238	1937
826.334	1648
826.430	718
826.526	2538
826.622	395
826.718	1652
826.814	1101
826.910	1869
827.006	598
827.102	569
827.198	2080
827.294	1531
827.390	1855
827.486	1431
827.582	212
827.678	403
827.774	1909
827.869	341
827.965	1613
828.061	436
828.157	1276
828.252	1468
828.348	-310
828.444	1834
828.539	996
828.635	1065
828.731	1851
828.826	608
828.922	1831
829.017	1012
829.113	1872
829.208	-22
829.304	333
829.399	2909
829.495	926
829.590	2431
829.685	1019
829.781	1912
829.876	1494
829.971	267
830.066	542
830.162	857
830.257	629
830.352	649
830.447	1304
830.543	1440
830.638	448
830.733	2061
830.828	491
830.923	990
831.018	906
831.113	1071
831.208	-254
831.303	491
831.398	1401
831.493	-61
831.588	1580
831.683	-68
831.778	1560
831.873	498
831.967	1397
832.062	230
832.157	-42
832.252	1955
832.346	1258
832.441	2873
832.536	3963
832.631	8895
832.725	6865
832.820	839
832.914	1059
833.009	256
833.104	1727
833.198	2316
833.293	1780
833.387	1009
833.482	1196
833.576	1045
833.670	1907
833.765	1519
833.859	2073
833.954	1662
834.048	1243
834.142	1300
834.237	538
834.331	650
834.425	1218
834.519	293
834.613	1488
834.708	215
834.802	886
834.896	-4
834.990	196
835.084	199
835.178	484
835.272	91
835.366	1222
835.460	1026
835.554	476
835.648	715
835.742	414
835.836	667
835.930	-446
836.024	1055
836.117	1330
836.211	711
836.305	1778
836.399	2139
836.493	-428
836.586	1279
836.680	-538
836.774	127
836.867	1763
836.961	-420
837.055	403
837.148	815
837.242	908
837.335	-49
837.429	995
837.522	450
837.616	1447
837.709	2565
837.803	1432
837.896	1273
837.989	825
838.083	1319
838.176	2595
838.269	1805
838.363	2285
838.456	163
838.549	3767
838.642	5345
838.735	10261
838.829	3097
838.922	-168
839.015	1070
839.108	46
839.201	616
839.294	458
839.387	870
839.480	-536
839.573	1486
839.666	798
839.759	154
839.852	-448
839.945	408
840.038	130
840.131	135
840.223	182
840.316	2022
840.409	1190
840.502	-372
840.594	1918
840.687	-730
840.780	-318
840.873	-292
840.965	1135
841.058	1015
841.150	3037
841.243	404
841.336	956
841.428	1440
841.521	138
841.613	-268
841.706	1188
841.798	214
841.890	16
841.983	-1072
842.075	918
842.167	597
842.260	1392
842.352	1862
842.444	1663
842.537	2984
842.629	3758
842.721	932
842.813	336
842.905	-506
842.997	1165
843.090	523
843.182	1643
843.274	2639
843.366	8021
843.458	11837
843.550	7098
843.642	1596
843.734	1770
843.826	996
843.918	2018
844.009	894
844.101	640
844.193	679
844.285	1614
844.377	2846
844.469	5752
844.560	8600
844.652	7712
844.744	1855
844.835	648
844.927	496
845.019	1609
845.110	661
845.202	377
845.293	-112
845.385	218
845.476	842
845.568	2239
845.659	289
845.751	1013
845.842	-34
845.934	226
846.025	138
846.116	824
846.208	81
846.299	66
846.390	-104
846.482	1173
846.573	1000
846.664	2108
846.755	3287
846.846	3122
846.937	-428
847.029	296
847.120	253
847.211	295
847.302	1487
847.393	-489
847.484	341
847.575	49
847.666	-127
847.757	-249
847.847	-177
847.938	741
848.029	801
848.120	528
848.211	165
848.302	48
848.392	-160
848.483	790
848.574	-38
848.664	150
848.755	-138
848.846	142
848.936	158
849.027	911
849.118	405
849.208	1175
849.299	3197
849.389	6956
849.480	15540
849.570	31626
849.661	66390
849.751	93898
849.841	26622
849.932	3992
850.022	1410
850.112	2249
850.203	1502
850.293	107
850.383	1092
850.474	851
850.564	62
850.654	582
850.744	594
850.834	236
850.924	788
851.014	591
851.104	587
851.194	835
851.284	1276
851.374	2601
851.464	929
851.554	1277
851.644	638
851.734	1988
851.824	940
851.914	164
852.004	342
852.094	-219
852.183	414
852.273	511
852.363	1283
852.452	1785
852.542	1063
852.632	832
852.721	507
852.811	1730
852.901	1078
852.990	1081
853.080	1323
853.169	1397
853.259	1785
853.348	3300
853.438	4162
853.527	7515
853.617	10285
853.706	22647
853.795	43165
853.885	99738
853.974	180240
854.063	352119
854.152	451622
854.242	142631
854.331	27222
854.420	11553
854.509	8510
854.598	6741
854.687	4732
854.777	4185
854.866	1804
854.955	3204
855.044	1999
855.133	1971
855.222	1512
855.311	1669
855.400	1649
855.488	1624
855.577	925
855.666	1521
855.755	1228
855.844	1109
855.933	1003
856.021	828
856.110	1132
856.199	211
856.288	-265
856.376	285
856.465	-263
856.554	757
856.642	629
856.731	1295
856.819	749
856.908	674
856.996	1144
857.085	891
857.173	276
857.262	116
857.350	184
857.438	416
857.527	8
857.615	188
857.703	492
857.792	148
857.880	-168
857.968	638
858.056	-183
858.145	698
858.233	527
858.321	-365
858.409	800
858.497	-400
858.585	536
858.673	1016
858.761	-94
858.849	937
858.937	-53
859.025	1096
859.113	1438
859.201	992
859.289	1493
859.377	1732
859.465	282
859.552	894
859.640	-34
859.728	1220
859.816	60
859.903	868
859.991	-385
860.079	92
860.166	-97
860.254	424
860.342	42
860.429	-19
860.517	-185
860.604	-218
860.692	250
860.779	393
860.867	3
860.954	808
861.042	927
861.129	793
861.216	101
861.304	48
861.391	732
861.478	667
861.565	178
861.653	1248
861.740	-54
861.827	-8
861.914	31
862.001	566
862.089	801
862.176	745
862.263	598
862.350	1248
862.437	-297
862.524	570
862.611	809
862.698	2122
862.785	3479
862.871	4026
862.958	1056
863.045	520
863.132	-1
863.219	847
863.306	-1053
863.392	338
863.479	556
863.566	174
863.652	631
863.739	564
863.826	731
863.912	858
863.999	-713
864.086	524
864.172	914
864.259	895
864.345	204
864.432	1464
864.518	501
864.604	203
864.691	5
864.777	1327
864.863	2266
864.950	2179
865.036	1399
865.122	4121
865.209	3895
865.295	4407
865.381	4649
865.467	5053
865.553	8231
865.639	13026
865.726	22733
865.812	49407
865.898	94325
865.984	139515
866.070	275264
866.156	234810
866.242	52880
866.328	13174
866.414	6818
866.499	6109
866.585	5199
866.671	3886
866.757	4439
866.843	4388
866.928	2204
867.014	2527
867.100	3002
867.186	2790
867.271	3526
867.357	4518
867.442	3524
867.528	2591
867.614	3902
867.699	4696
867.785	5959
867.870	8210
867.956	11587
868.041	6885
868.127	5115
868.212	7568
868.297	6880
868.383	5069
868.468	6717
868.553	8440
868.639	8560
868.724	17597
868.809	11288
868.894	2636
868.979	1430
869.065	2308
869.150	1073
869.235	1456
869.320	628
869.405	1155
869.490	1462
869.575	1446
869.660	1928
869.745	1974
869.830	1853
869.915	1688
870.000	2123
870.085	1539
870.169	3279
870.254	3444
870.339	1235
870.424	1166
870.509	1667
870.593	1904
870.678	1474
870.763	1096
870.847	1963
870.932	2314
871.016	3731
871.101	3216
871.186	1672
871.270	1722
871.355	802
871.439	1994
871.523	1945
871.608	1906
871.692	1815
871.777	3372
871.861	2409
871.945	2012
872.030	1077
872.114	1061
872.198	318
872.282	1269
872.367	1175
872.451	599
872.535	814
872.619	1167
872.703	861
872.787	2254
872.871	1505
872.955	505
873.039	1598
873.123	1719
873.207	924
873.291	1052
873.375	493
873.459	2010
873.543	67
873.627	1545
873.711	827
873.794	1913
873.878	781
873.962	474
874.045	1128
874.129	1908
874.137	1865
874.213	1439
874.245	1218
874.296	867
874.352	884
874.380	887
874.460	549
874.464	535
874.547	1087
874.568	1008
874.631	802
874.676	1211
874.714	1536
874.784	1933
874.798	2009
874.881	1299
874.892	1295
874.965	1322
874.999	1337
875.048	1334
875.107	1519
875.131	1603
875.215	910
875.215	910
875.298	876
875.323	729
875.381	390
875.430	1353
875.465	2062
875.538	1253
875.548	1123
875.631	881
875.646	703
875.714	-44
875.753	232
875.798	505
875.861	270
875.881	200
875.964	883
875.968	837
876.047	103
876.076	877
876.130	2374
876.183	2279
876.213	2159
876.291	2160
876.296	2160
876.379	558
876.398	753
876.462	1384
876.506	1426
876.545	1535
876.613	1187
876.628	1072
876.711	1202
876.721	1239
876.794	1876
876.828	1895
876.877	1647
876.935	1636
876.960	1751
877.043	1466
877.043	1469
877.125	2059
877.150	2006
877.208	2007
877.258	2529
877.291	2747
877.365	2433
877.374	2409
877.456	2208
877.472	2178
877.539	2146
877.579	2499
877.622	2816
877.687	2223
877.704	2038
877.787	1727
877.794	1696
877.869	1524
877.901	1696
877.952	1883
878.008	1449
878.034	1274
878.115	1606
878.117	1615
878.199	1645
878.222	1595
878.282	1579
878.329	1873
878.364	1946
878.437	2132
878.447	2162
878.529	578
878.544	799
878.611	1913
878.651	1581
878.694	1299
878.758	1647
878.776	1723
878.858	1544
878.865	1532
878.941	1488
878.972	1527
879.023	1435
879.078	1480
879.105	1721
879.185	2664
879.187	2672
879.269	1976
879.292	1983
879.351	1820
879.399	949
879.433	545
879.506	1415
879.516	1526
879.598	1160
879.613	1205
879.680	1450
879.720	1886
879.762	2392
879.827	1863
879.844	1660
879.926	2401
879.933	2442
880.007	3114
880.040	3496
880.089	4229
880.147	6356
880.171	7427
880.253	12872
880.254	12913
880.335	20519
880.360	22367
880.417	32052
880.467	49507
880.499	60697
880.574	67722
880.580	65744
880.662	21730
880.680	15457
880.744	6366
880.787	3108
880.825	2358
880.893	2005
880.907	2007
880.989	1641
881.000	1672
881.070	1883
881.106	1687
881.152	1431
881.213	1157
881.233	1095
881.315	1311
881.319	1303
881.396	1412
881.426	1367
881.478	1123
881.532	1197
881.559	1316
881.639	1297
881.641	1294
881.722	1222
881.745	1371
881.803	1779
881.852	1629
881.885	1580
881.958	1698
881.966	1713
882.047	2358
882.064	2381
882.129	3069
882.171	3879
882.210	5238
882.277	7326
882.291	7193
882.372	4275
882.383	4025
882.454	1905
882.489	1087
882.535	1228
882.596	1064
882.616	1021
882.697	1175
882.702	1183
882.778	1328
882.808	1519
882.859	1473
882.914	944
882.940	912
883.020	1336
883.021	1339
883.102	1242
883.127	1247
883.183	1777
883.233	1858
883.264	1417
883.339	1201
883.345	1249
883.426	1022
883.445	1201
883.507	1400
883.551	1090
883.587	1208
883.657	1850
883.668	1890
883.749	1540
883.763	1537
883.830	1418
883.869	1216
883.910	802
883.975	853
883.991	1094
884.072	1432
884.081	1481
884.152	1623
884.187	1830
884.233	1777
884.292	1305
884.314	1237
884.394	1139
884.398	1139
884.475	1242
884.504	1217
884.555	1177
884.610	1347
884.636	1483
884.716	1602
884.716	1606
884.797	1676
884.821	1459
884.877	1518
884.927	1980
884.958	1731
885.033	465
885.038	455
885.118	1000
885.139	1038
885.199	869
885.244	859
885.279	1195
885.350	1547
885.359	1501
885.439	1487
885.456	1337
885.520	1090
885.561	1214
885.600	1100
885.667	821
885.680	953
885.760	1921
885.773	2000
885.840	1536
885.878	1395
885.920	1556
885.984	1752
886.000	1637
886.080	1041
886.089	966
886.160	1319
886.195	1499
886.240	1574
886.300	1742
886.320	1754
886.400	1810
886.406	1815
886.480	2500
886.511	2701
886.560	3432
886.616	4118
886.640	3684
886.720	2313
886.722	2272
886.800	1685
886.827	1487
886.879	1405
886.932	1371
886.959	1796
887.038	2938
887.039	2932
887.119	1658
887.143	1280
887.198	1429
887.248	1593
887.278	1454
887.354	933
887.358	978
887.437	1983
887.459	2240
887.517	2482
887.564	2678
887.596	2359
887.669	1425
887.676	1379
887.755	899
887.774	796
887.835	1056
887.880	1189
887.914	1038
887.985	667
887.994	786
888.073	1873
888.090	2092
888.153	2116
888.195	2107
888.232	1972
888.300	1818
888.311	1868
888.391	2057
888.405	2078
888.470	1590
888.510	1342
888.549	1390
888.615	1388
888.628	1461
888.708	1837
888.720	1899
888.787	1394
888.825	1070
888.866	1150
888.930	1317
888.945	1286
889.024	1080
889.035	1047
889.103	1729
889.140	2076
889.182	1883
889.245	1619
889.261	1628
889.340	1615
889.349	1610
889.419	1414
889.454	1305
889.498	1145
889.559	929
889.577	1138
889.656	2037
889.664	2123
889.735	1916
889.768	1806
889.814	1974
889.873	2188
889.978	2426
890.083	1898
890.187	1670
890.292	1231
890.397	1505
890.501	1331
890.606	1577
890.710	1452
890.815	2163
890.919	2726
891.024	2143
891.128	2783
891.233	2210
891.337	2144
891.442	747
891.546	1240
891.650	814
891.755	992
891.859	3023
891.963	2727
892.068	2138
892.172	2610
892.276	1686
892.380	1856
892.484	1934
892.589	3254
892.693	2533
892.797	1630
892.901	1340
893.005	948
893.109	2336
893.213	1676
893.317	1783
893.421	1455
893.525	1384
893.629	1398
893.733	1662
893.837	993
893.941	1508
894.045	1296
894.148	1281
894.252	1376
894.356	2660
894.460	2676
894.564	2799
894.667	1031
894.771	1200
894.875	1185
894.978	1631
895.082	1037
895.186	2360
895.289	1984
895.393	2046
895.496	1503
895.600	1055
895.703	922
895.807	1358
895.910	1354
896.014	1835
896.117	1504
896.221	2786
896.324	1617
896.427	1898
896.531	731
896.634	1372
896.737	1022
896.840	1849
896.944	1332
897.047	1654
897.150	1379
897.253	1032
897.356	1228
897.460	1471
897.563	1538
897.666	1805
897.769	1472
897.872	1223
897.975	1497
898.078	1051
898.181	1038
898.284	1787
898.387	1563
898.490	2260
898.593	955
898.695	478
898.798	1462
898.901	1907
899.004	545
899.107	1026
899.209	1413
899.312	1562
899.415	837
899.518	1180
899.620	1151
899.723	2326
899.826	4447
899.928	7317
900.031	2272
900.133	1707
900.236	1467
900.338	1523
900.441	1074
900.543	886
900.646	1799
900.748	1090
900.851	2011
900.953	1055
901.055	1307
901.158	3572
901.260	1824
901.362	1270
901.465	773
901.567	1083
901.669	1052
901.771	785
901.873	1128
901.976	1149
902.078	1338
902.180	1078
902.282	1511
902.384	1440
902.486	765
902.588	2313
902.690	1860
902.792	1353
902.894	1183
902.996	1362
903.098	1018
903.200	1188
903.302	1492
903.404	1867
903.505	658
903.607	2075
903.709	1130
903.811	1105
903.913	927
904.014	1052
904.116	1174
904.218	2317
904.319	888
904.421	2204
904.523	1859
904.624	1076
904.726	342
904.827	1206
904.929	1133
905.030	1622
905.132	1515
905.233	1474
905.335	906
905.436	359
905.537	785
905.639	1075
905.740	1065
905.841	1939
905.943	1718
906.044	1305
906.145	1551
906.247	1144
906.348	1186
906.449	1902
906.550	987
906.651	2094
906.752	249
906.854	906
906.955	507
907.056	1389
907.157	1068
907.258	1858
907.359	1006
907.460	1851
907.561	853
907.662	432
907.762	1212
907.863	1405
907.964	1507
908.065	1758
908.166	542
908.267	1136
908.367	441
908.468	1570
908.569	1278
908.670	1519
908.770	2908
908.871	2570
908.971	2416
909.072	1703
909.173	412
909.273	1442
909.374	1101
909.474	1565
909.575	1048
909.675	761
909.776	980
909.876	1874
909.977	458
910.077	1820
910.177	492
910.278	1250
910.378	1178
910.478	1575
910.579	1016
910.679	1940
910.779	1053
910.879	1614
910.980	389
911.080	1280
911.180	516
911.280	881
911.380	1197
911.480	914
911.580	1551
911.680	937
911.780	1823
911.880	2156
911.980	1296
912.080	814
912.180	682
912.280	2104
912.380	937
912.480	1074
912.580	621
912.679	1431
912.779	1393
912.879	1602
912.979	603
913.078	568
913.178	662
913.278	739
913.377	1103
913.477	918
913.577	890
913.676	1636
913.776	841
913.875	702
913.975	1236
914.074	1315
914.174	-64
914.273	713
914.373	1271
914.472	910
914.572	1154
914.671	716
914.770	722
914.870	1274
914.969	862
915.068	1075
915.167	1267
915.267	1115
915.366	489
915.465	1630
915.564	832
915.663	1984
915.763	1072
915.862	1195
915.961	690
916.060	606
916.159	133
916.258	284
916.357	1103
916.456	1017
916.555	7
916.654	1022
916.752	800
916.851	485
916.950	819
917.049	1234
917.148	877
917.247	1123
917.345	1260
917.444	243
917.543	851
917.642	997
917.740	734
917.839	1711
917.937	1145
918.036	1027
918.135	-363
918.233	668
918.332	847
918.430	488
918.529	712
918.627	-22
918.726	1314
918.824	1559
918.923	1256
919.021	644
919.119	1100
919.218	1106
919.316	603
919.414	906
919.512	703
919.611	668
919.709	1271
919.807	1005
919.905	954
920.003	932
920.102	733
920.200	1111
920.298	867
920.396	1283
920.494	467
920.592	701
920.690	1669
920.788	639
920.886	1473
920.984	2159
921.082	1487
921.180	2130
921.277	1478
921.375	1948
921.473	2680
921.571	1920
921.669	1126
921.766	1699
921.864	1538
921.962	1762
922.060	1883
922.157	737
922.255	1163
922.352	1947
922.450	1158
922.548	1232
922.645	2841
922.743	2668
922.840	3129
922.938	4092
923.035	2783
923.133	3744
923.230	3913
923.327	4923
923.425	4414
923.522	4603
923.619	3873
923.717	3778
923.814	3227
923.911	4381
924.008	4271
924.106	3272
924.203	4471
924.300	3187
924.397	3834
924.494	3942
924.591	3350
924.688	3721
924.786	3309
924.883	3490
924.979	3422
925.077	4011
925.173	3306
925.270	3799
925.367	3698
925.464	4476
925.561	4787
925.658	5202
925.755	5753
925.852	5668
925.948	5123
926.045	5376
926.142	5128
926.239	5247
926.335	4125
926.432	4724
926.529	5289
926.625	4609
926.722	3756
926.818	3691
926.915	4364
927.011	3386
927.108	3052
927.204	3738
927.301	3203
927.397	4485
927.494	2960
927.590	2344
927.687	2303
927.783	3866
927.879	3270
927.976	2469
928.072	2966
928.168	4823
928.264	3145
928.361	2664
928.457	3116
928.553	2548
928.649	3001
928.745	3264
928.841	2203
928.937	2918
929.033	3360
929.129	3196
929.225	2174
929.321	2882
929.417	2488
929.513	3407
929.609	2309
929.705	2215
929.801	2507
929.897	2056
929.993	2381
930.089	2542
930.184	1789
930.280	3051
930.376	3041
930.471	2334
930.567	1812
930.663	2617
930.758	2486
930.854	2180
930.950	2696
931.045	2157
931.141	2847
931.236	3505
931.332	2195
931.427	1682
931.523	2697
931.618	2409
931.714	2438
931.809	2527
931.905	2239
932.000	1855
932.095	1329
932.191	2645
932.286	1996
932.381	2768
932.476	1368
932.572	1849
932.667	1802
932.762	1740
932.857	3027
932.952	3120
933.047	2570
933.142	2047
933.237	2414
933.332	2537
933.427	2511
933.522	1949
933.617	1815
933.712	2596
933.807	3319
933.902	2756
933.997	2125
934.092	1741
934.187	1691
934.282	2542
934.376	2496
934.471	2121
934.566	1464
934.661	1921
934.755	2553
934.850	3028
934.945	2967
935.039	1400
935.134	1451
935.228	2706
935.323	3015
935.417	2447
935.512	1897
935.606	1971
935.701	2287
935.795	1675
935.890	2125
935.984	2869
936.079	1298
936.173	2172
936.267	1432
936.362	1643
936.456	1848
936.550	2520
936.644	1907
936.738	1449
936.833	1411
936.927	1420
937.021	2331
937.115	2415
937.209	1720
937.303	2947
937.397	1064
937.491	1590
937.585	2024
937.679	2106
937.773	2113
937.867	1460
937.961	1279
938.055	1836
938.149	1970
938.243	1435
938.337	1646
938.430	2037
938.524	3041
938.618	2884
938.712	3217
938.805	2663
938.899	2180
938.993	2347
939.086	2065
939.180	3116
939.274	3059
939.367	2392
939.461	1982
939.554	2300
939.648	1096
939.741	1368
939.835	2752
939.928	2204
940.022	1746
940.115	2145
940.208	2651
940.302	2808
940.395	2579
940.488	1571
940.582	2075
940.675	1632
940.768	2115
940.861	2106
940.954	3211
941.048	1690
941.141	1871
941.234	3126
941.327	5787
941.420	7043
941.513	3065
941.606	2203
941.699	2003
941.792	2388
941.885	2163
941.978	2558
942.071	1261
942.164	1303
942.257	1714
942.349	1568
942.442	1485
942.535	1290
942.628	1550
942.721	1949
942.813	1297
942.906	2917
942.999	1118
943.091	2181
943.184	854
943.277	1985
943.369	1222
943.462	1464
943.554	1402
943.647	980
943.739	1639
943.832	2203
943.924	43
944.017	1459
944.109	56
944.201	1122
944.294	1747
944.386	1285
944.478	1209
944.571	1076
944.663	785
944.755	1738
944.847	1020
944.940	157
945.032	556
945.124	1210
945.216	2120
945.308	1365
945.400	1646
945.492	1040
945.584	1376
945.676	1040
945.768	1234
945.860	1577
945.952	1516
946.044	2138
946.136	734
946.228	1071
946.320	815
946.412	2003
946.503	1108
946.595	1945
946.687	505
946.779	837
946.870	991
946.962	616
947.054	1243
947.145	1742
947.237	836
947.329	875
947.420	905
947.512	646
947.603	452
947.695	480
947.786	787
947.878	1045
947.969	475
948.061	846
948.152	492
948.243	1427
948.335	1808
948.426	1165
948.517	1552
948.609	1536
948.700	843
948.791	513
948.882	239
948.973	1023
949.065	1433
949.156	1285
949.247	-401
949.338	686
949.429	68
949.520	1288
949.611	978
949.702	1255
949.793	708
949.884	1127
949.975	804
950.066	493
950.157	946
950.247	2026
950.338	9
950.429	943
950.520	808
950.611	1792
950.701	1231
950.792	1515
950.883	1280
950.973	540
951.064	633
951.155	2034
951.245	1449
951.336	1225
951.427	1212
951.517	1965
951.608	1033
951.698	737
951.788	109
951.879	829
951.969	1050
952.060	295
952.150	702
952.240	1678
952.331	317
952.421	2689
952.511	353
952.602	591
952.692	17
952.782	417
952.872	653
952.962	647
953.052	741
953.143	-30
953.233	1026
953.323	1018
953.413	945
953.503	1902
953.593	1041
953.683	537
953.773	-41
953.863	900
953.953	322
954.042	1288
954.132	800
954.222	1192
954.312	1013
954.402	941
954.492	894
954.581	3158
954.671	1061
954.761	696
954.850	2039
954.940	1042
955.030	489
955.119	503
955.209	760
955.298	623
955.388	858
955.477	1250
955.567	236
955.656	260
955.746	448
955.835	475
955.925	788
956.014	1029
956.103	923
956.193	1124
956.282	534
956.371	775
956.461	791
956.550	901
956.639	655
956.728	54
956.817	924
956.906	1199
956.995	1374
957.085	486
957.174	679
957.263	1022
957.352	682
957.441	420
957.530	458
957.619	532
957.708	1353
957.796	639
957.885	291
957.974	555
958.063	639
958.152	92
958.241	-240
958.329	1084
958.418	538
958.507	501
958.596	1231
958.684	469
958.773	1262
958.861	84
958.950	269
959.039	910
959.127	741
959.216	882
959.304	321
959.393	823
959.481	579
959.570	396
959.658	192
959.746	695
959.835	1240
959.923	2816
960.011	991
960.100	1411
960.188	380
960.276	907
960.365	-111
960.453	973
960.541	-346
960.629	713
960.717	344
960.805	-307
960.893	821
960.981	442
961.069	1482
961.158	2021
961.245	1248
961.333	614
961.421	292
961.509	713
961.597	22
961.685	238
961.773	-89
961.861	258
961.949	1243
962.036	27
962.124	1345
962.212	538
962.299	-77
962.387	83
962.475	430
962.562	388
962.650	1150
962.738	1343
962.825	47
962.913	544
963.000	556
963.088	1242
963.175	-181
963.263	484
963.350	530
963.438	1253
963.525	813
963.612	3486
963.700	6901
963.787	16124
963.874	5872
963.962	526
964.049	1164
964.136	613
964.223	-17
964.310	236
964.398	605
964.485	983
964.572	1066
964.659	2599
964.746	1634
964.833	382
964.920	-120
965.007	367
965.094	224
965.181	-398
965.268	479
965.355	698
965.441	716
965.528	-82
965.615	1123
965.702	381
965.789	69
965.875	597
965.962	13
966.049	-707
966.136	176
966.222	616
966.309	807
966.395	1260
966.482	781
966.569	378
966.655	214
966.742	-146
966.828	-452
966.915	887
967.001	515
967.087	380
967.174	939
967.260	1644
967.347	2895
967.433	5195
967.519	10930
967.605	2473
967.692	-222
967.778	676
967.864	-101
967.950	362
968.036	434
968.123	979
968.209	-407
968.295	-638
968.381	1552
968.467	329
968.553	-1105
968.639	1565
968.725	317
968.811	2289
968.897	1764
968.983	810
969.069	19
969.154	39
969.240	604
969.326	-548
969.412	-485
969.497	-314
969.583	-574
969.669	890
969.755	-359
969.840	172
969.926	1139
970.012	888
970.097	1898
970.183	1318
970.268	118
970.354	1272
970.439	2840
970.525	6207
970.610	1161
970.696	674
970.781	-542
970.866	-961
970.952	659
971.037	-449
971.122	-41
971.208	1123
971.293	-193
971.378	-1342
971.463	-679
971.549	169
971.634	-112
971.719	834
971.804	-220
971.889	1285
971.974	-49
972.059	-491
972.144	159
972.229	-576
972.314	-445
972.399	697
972.484	-884
972.569	462
972.654	-218
972.739	3198
972.824	2078
972.908	477
972.993	-73
973.078	-462
973.163	-435
973.247	-43
973.332	-1749
973.417	1066
973.501	-1211
973.586	475
973.671	2
973.755	747
973.840	1160
973.924	739
974.009	339
974.093	389
974.178	2467
974.262	1936
974.346	2363
974.431	819
974.515	-154
974.600	454
974.684	307
974.768	-925
974.852	618
974.937	-636
975.021	325
975.105	-448
975.189	44
975.273	399
975.358	-1327
975.442	-516
975.526	487
975.610	-720
975.694	-802
975.778	89
975.862	-141
975.946	-2503
976.030	1001
976.114	-143
976.198	-341
976.281	88
976.365	45
976.449	-647
976.533	-469
976.617	-1127
976.700	137
976.784	369
976.868	-587
976.951	1326
977.035	-241
977.119	122
977.202	8
977.286	600
977.369	-497
977.453	1251
977.536	379
977.620	-38
977.703	-438
977.787	-633
977.870	913
977.953	892
978.037	-807
978.120	661
978.203	1455
978.287	3192
978.370	1312
978.453	-104
978.536	-129
978.620	1532
978.703	1277
978.786	845
978.869	-197
978.952	-737
979.035	1043
979.118	483
979.201	-398
979.284	-327
979.367	-346
979.450	-53
979.533	-696
979.616	-628
979.699	-420
979.782	-574
979.865	-583
979.948	-634
980.030	-516
980.113	-81
980.196	-1134
980.279	79
980.361	-376
980.444	-400
980.526	162
980.609	938
980.692	222
980.774	-48
980.857	-1197
980.939	1022
981.022	-406
981.104	-516
981.187	-236
981.269	115
981.352	196
981.434	-722
981.516	-922
981.599	424
981.681	-402
981.763	-162
981.846	-109
981.928	-530
982.010	-427
982.092	-965
982.174	290
982.256	-550
982.339	-136
982.421	-608
982.503	-581
982.585	-1332
982.667	126
982.749	-530
982.831	-105
982.913	-585
982.995	-673
983.077	-535
983.158	1119
983.240	-554
983.322	-72
983.404	544
983.486	-625
983.568	628
983.649	-180
983.731	440
983.813	-714
983.894	354
983.976	-1013
984.058	-805
984.139	800
984.221	-1366
984.302	662
984.384	420
984.465	-605
984.547	167
984.628	-872
984.710	-131
984.791	-360
984.872	58
984.954	-761
985.035	-269
985.116	-1492
985.198	-249
985.279	588
985.360	-276
985.441	-901
985.522	223
985.604	-635
985.685	-1632
985.766	-494
985.847	1799
985.928	-1263
986.009	-7
986.090	-1418
986.171	312
986.252	-592
986.333	-25
986.414	-693
986.495	442
986.576	-708
986.656	518
986.737	-171
986.818	149
986.899	-853
986.980	-414
987.060	338
987.141	-292
987.222	-415
987.302	147
987.383	628
987.464	-815
987.544	486
987.625	-136
987.705	-68
987.786	149
987.866	-686
987.947	-375
988.027	-42
988.108	293
988.188	520
988.268	304
988.349	-172
988.429	-257
988.509	116
988.589	-213
988.670	-1424
988.750	1097
988.830	-74
988.910	827
988.990	-542
989.070	-1051
989.151	-147
989.231	718
989.311	-484
989.391	304
989.471	-400
989.551	-121
989.631	-1139
989.711	621
989.791	-384
989.870	35
989.950	504
990.030	-544
990.110	254
990.190	129
990.269	-543
990.349	-299
990.429	-628
990.509	-387
990.588	-946
990.668	-455
990.747	-242
990.827	-115
990.907	129
990.986	-816
991.066	-224
991.145	-761
991.225	-1083
991.304	-699
991.383	-570
991.463	-1129
991.542	-532
991.622	-310
991.701	-1614
991.780	-806
991.859	-490
991.939	-25
992.018	-164
992.097	5
992.176	-692
992.256	8
992.335	-1332
992.414	185
992.493	-1198
992.572	-349
992.651	539
992.730	-106
992.809	-336
992.888	-670
992.967	-1342
993.046	-277
993.125	-1116
993.203	126
993.282	-620
993.361	-36
993.440	220
993.519	-1268
993.597	-753
993.676	-1441
993.755	191
993.834	251
993.912	-1390
993.991	-392
994.069	-1964
994.148	-531
994.226	-497
994.305	-107
994.384	-513
994.462	724
994.540	-1310
994.619	-1121
994.697	-103
994.776	-949
994.854	-947
994.932	-1752
995.011	-306
995.089	-708
995.167	-561
995.245	-60
995.324	-1208
995.402	-217
995.480	-540
995.558	312
995.636	-1540
995.714	-1193
995.792	10
995.870	-1131
995.948	-1044
996.026	-677
996.104	-1123
996.182	-221
996.260	-642
996.338	-26
996.416	-1482
996.494	-1367
996.572	-185
996.649	-1113
996.727	-1220
996.805	-1047
996.883	-878
996.960	-1944
997.038	141
997.116	-120
997.193	-709
997.271	-516
997.348	-1902
997.426	-285
997.504	-1569
997.581	-7
997.658	-162
997.736	-1621
997.813	-1797
997.891	225
997.968	-1598
998.046	-315
998.123	-246
998.200	-123
998.277	-1666
998.355	-225
998.432	-1484
998.509	-292
998.586	-848
998.663	-684
998.741	-1251
998.818	-952
998.895	-1274
998.972	-633
999.049	-575
999.126	-492
999.203	-796
999.280	-481
999.357	-1108
999.434	-1254
999.511	-911
999.587	-211
999.664	-192
999.741	-576
999.818	-398
999.895	-563
999.971	-1888
1000.048	-1187
1000.125	896
1000.202	-1510
1000.278	-1770
1000.355	-218
1000.431	-1120
1000.508	-2222
1000.584	-671
1000.661	-800
1000.738	-1748
1000.814	-704
1000.890	-1070
1000.967	-700
1001.043	-1177
1001.120	-1752
1001.196	-1493
1001.272	-1553
1001.349	-1185
1001.425	-251
1001.501	-1166
1001.577	-1769
1001.654	-1689
1001.730	-1147
1001.806	-1218
1001.882	-1600
1001.958	-872
1002.034	-634
1002.110	-801
1002.186	-1644
1002.262	-1664
1002.338	-1132
1002.414	-611
1002.490	-807
1002.566	-2687
1002.642	-1396
1002.718	-706
1002.794	-786
1002.870	-1562
1002.945	-1036
1003.021	-978
1003.097	-1482
1003.173	-1318
1003.248	-1766
1003.324	-1477
1003.400	-1275
1003.475	-1164
1003.551	-1685
1003.626	-1056
1003.702	-2146
1003.777	-712
1003.853	-1694
1003.928	-997
1004.004	-1403
1004.079	-766
1004.155	-763
1004.230	-2234
1004.305	-329
1004.381	-1580
1004.456	-1271
1004.531	-1505
1004.607	-1804
1004.682	-1133
1004.757	-810
1004.832	-973
1004.907	-1112
1004.982	-1660
1005.057	-779
1005.133	-1755
1005.208	-942
1005.283	-2002
1005.358	-476
1005.433	-1528
1005.508	-1308
1005.583	-1514
1005.657	-1933
1005.732	-377
1005.807	-1448
1005.882	-778
1005.957	-1169
1006.032	-1576
1006.106	-735
1006.181	-1493
1006.256	-980
1006.331	-1585
1006.405	-1625
1006.480	-480
1006.554	-1435
1006.629	-1241
1006.704	-1306
1006.778	-1560
1006.853	-350
1006.927	-1218
1007.002	-1177
1007.076	-1363
1007.150	-1286
1007.225	-899
1007.299	-695
1007.373	-2144
1007.448	-1468
1007.522	-1452
1007.596	-1052
1007.671	-1407
1007.745	-483
1007.819	-1523
1007.893	-942
1007.967	-701
1008.041	-2018
1008.115	-601
1008.190	-1870
1008.264	-1351
1008.338	-1918
1008.412	-1692
1008.486	-1381
1008.560	-1749
1008.633	-1765
1008.707	-1248
1008.781	-968
1008.855	-1159
1008.929	-996
1009.003	-1175
1009.076	-1065
1009.150	-1828
1009.224	-904
1009.298	-1716
1009.371	-1609
1009.445	-1028
1009.519	-1265
1009.592	-1911
1009.666	-731
1009.739	-836
1009.813	-1339
1009.886	-334
1009.960	-1611
1010.033	-1271
1010.107	-690
1010.180	-2168
1010.253	-1523
1010.327	-2148
1010.400	-2039
1010.473	-1003
1010.547	204
1010.620	-1970
1010.693	-800
1010.766	-1245
1010.840	-691
1010.913	-1244
1010.986	-2033
1011.059	-1625
1011.132	-1651
1011.205	-1069
1011.278	-869
1011.351	-1254
1011.424	-1808
1011.497	-2096
1011.570	-1839
1011.643	-1537
1011.716	-2092
1011.789	-1848
1011.862	-1802
1011.934	-1063
1012.007	-2591
1012.080	-1385
1012.153	-1874
1012.225	-712
1012.298	-1667
1012.371	-2246
1012.443	-923
1012.516	-2351
1012.588	-1740
1012.661	-1289
1012.733	-1991
1012.806	-1193
1012.879	-1356
1012.951	-1232
1013.023	-1389
1013.096	-2222
1013.168	-1149
1013.241	-822
1013.313	-1776
1013.385	-2630
1013.458	-2045
1013.530	-1790
1013.602	-1659
1013.674	-1268
1013.746	-1837
1013.819	-2020
1013.891	-1634
1013.963	-1829
1014.035	-1175
1014.107	-1549
1014.179	-1232
1014.251	-1189
1014.323	-964
1014.395	-400
1014.467	-921
1014.539	-914
1014.611	-2304
1014.683	-1183
1014.754	-925
1014.826	-2174
1014.898	-1402
1014.970	-2728
1015.042	-611
1015.113	-979
1015.185	-2083
1015.257	-2144
1015.328	-537
1015.400	-1966
1015.471	-930
1015.543	-2655
1015.615	-1343
1015.686	-1902
1015.757	-2057
1015.829	-1829
1015.901	-1549
1015.972	-2103
1016.043	-1824
1016.115	-1789
1016.186	-1732
1016.257	-2967
1016.328	-1081
1016.400	-1129
1016.471	-1237
1016.542	-1556
1016.613	-1777
1016.685	-1318
1016.756	-1287
1016.827	-2594
1016.898	-2156
1016.969	-816
1017.040	-824
1017.111	-1887
1017.182	-2271
1017.253	-1795
1017.324	-1218
1017.395	-1971
1017.466	-1557
1017.537	-2463
1017.608	-1503
1017.678	-2043
1017.749	-2003
1017.820	-1800
1017.891	-1684
1017.961	-1946
1018.032	-1576
1018.103	-1916
1018.173	-1940
1018.244	-2768
1018.315	-1303
1018.385	-1168
1018.456	-1608
1018.526	-1930
1018.597	-962
1018.667	-1004
1018.738	-2009
1018.808	-2242
1018.878	-1771
1018.949	-703
1019.019	-2142
1019.089	-1442
1019.160	-880
1019.230	-2511
1019.300	-1860
1019.371	-1874
1019.441	-2071
1019.511	-1504
1019.581	-1666
1019.651	-1993
1019.721	-1236
1019.791	-1581
1019.861	-2053
1019.931	-1451
1020.001	-2022
1020.071	-1508
1020.141	-1864
1020.211	-1759
1020.281	-1613
1020.351	-1393
1020.421	-1435
1020.491	-1275
1020.560	-2094
1020.630	-1712
1020.700	-1363
1020.770	-2226
1020.839	-1864
1020.909	-1479
1020.979	-2050
1021.048	-1537
1021.118	-2228
1021.187	-2375
1021.257	-2302
1021.326	-1030
1021.396	-1524
1021.465	-2344
1021.535	-1363
1021.604	-2878
1021.674	-1773
1021.743	-1822
1021.812	-1383
1021.882	-2648
1021.951	-2060
1022.020	-1607
1022.089	-1051
1022.159	-1974
1022.228	-1252
1022.297	-1089
1022.366	-1134
1022.435	-2235
1022.504	-1862
1022.573	-2120
1022.642	-2063
1022.711	-2360
1022.781	-963
1022.849	-1801
1022.918	-1977
1022.987	-1693
1023.056	-1365
1023.125	-2323
1023.194	-1655
1023.263	-1330
1023.331	-1193
1023.400	-1726
1023.469	-2004
1023.538	-2161
1023.606	-2477
1023.675	-2241
1023.744	-2097
1023.812	-2461
1023.881	-1170
1023.949	-1714
1024.018	-2501
1024.086	-2457
1024.155	-1706
1024.223	-1715
1024.292	-2365
1024.360	-1793
1024.429	-1747
1024.497	-2169
1024.565	-1410
1024.634	-1001
1024.702	-816
1024.770	-2264
1024.838	-2278
1024.907	-2184
1024.975	-2598
1025.043	-1669
1025.111	-1821
1025.179	-1976
1025.247	-2618
1025.315	-2217
1025.383	-2633
1025.451	-2004
1025.519	-1450
1025.587	-2488
1025.655	-3134
1025.723	-1729
1025.791	-2988
1025.859	-1890
1025.927	-1492
1025.995	-2049
1026.062	-1867
1026.130	-2229
1026.198	-1933
1026.266	-2811
1026.333	-1715
1026.401	-1687
1026.469	-1808
1026.536	-1494
1026.604	-2431
1026.671	-2355
1026.739	-1847
1026.806	-2355
1026.874	-2639
1026.941	-1723
1027.009	-2255
1027.076	-2476
1027.144	-1648
1027.211	-2606
1027.278	-2250
1027.345	-1479
1027.413	-2513
1027.480	-2654
1027.547	-2679
1027.614	-2210
1027.682	-1774
1027.749	-1973
1027.816	-2142
1027.883	-2985
1027.950	-1733
1028.017	-2370
1028.084	-1316
1028.151	-3210
1028.218	-2181
1028.285	-1911
1028.352	-2166
1028.419	-2199
1028.486	-2564
1028.553	-2398
1028.619	-2007
1028.686	-2008
1028.753	-2524
1028.820	-3100
1028.886	-1667
1028.953	-2969
1029.020	-1228
1029.086	-1682
1029.153	-2068
1029.220	-2431
1029.286	-1662
1029.353	-2596
1029.419	-2152
1029.486	-2749
1029.552	-3253
1029.619	-2846
1029.685	-1851
1029.751	-2134
1029.818	-806
1029.884	-2263
1029.951	-587
1030.017	-2581
1030.083	-1792
1030.149	-2309
1030.216	-2674
1030.282	-2656
1030.348	-2311
1030.414	-2632
1030.480	-1938
1030.546	-2912
1030.612	-1731
1030.678	-2332
1030.744	-2136
1030.810	-2211
1030.876	-2633
1030.942	-2224
1031.008	-2085
1031.074	-2545
1031.140	-2032
1031.206	-2544
1031.272	-2742
1031.337	-2709
1031.403	-2373
1031.469	-3008
1031.534	-2517
1031.600	-1673
1031.666	-2641
1031.731	-2551
1031.797	-2866
1031.863	-2301
1031.928	-2676
1031.994	-2374
1032.059	-2025
1032.125	-3115
1032.190	-2328
1032.256	-1957
1032.321	-2191
1032.386	-2599
1032.452	-1792
1032.517	-2225
1032.582	-1678
1032.647	-2192
1032.713	-1873
1032.778	-2404
1032.843	-2861
1032.908	-2023
1032.974	-1688
1033.039	-1961
1033.104	-1613
1033.169	-1735
1033.234	-1485
1033.299	-1041
1033.364	-675
1033.429	-771
1033.494	-2046
1033.559	-2816
1033.624	-2266
1033.688	-1945
1033.753	-1804
1033.818	-2350
1033.883	-1977
1033.948	-2555
1034.013	-1749
1034.077	-1011
1034.142	-708
1034.207	-1175
1034.271	1321
1034.336	1489
1034.400	1700
1034.465	2081
1034.530	1178
1034.594	-1602
1034.658	-1636
1034.723	-2101
1034.787	-2182
1034.852	-1737
1034.916	-2323
1034.981	-2946
1035.045	-1753
1035.109	-2926
1035.173	-1538
1035.238	-2471
1035.302	-1820
1035.366	-3210
1035.430	-1839
1035.495	-2685
1035.559	-2549
1035.623	-2497
1035.687	-2232
1035.751	-2804
1035.815	-2711
1035.879	-2143
1035.943	-2545
1036.007	-2795
1036.071	-1687
1036.135	-3178
1036.198	-2266
1036.262	-2542
1036.326	-1054
1036.390	-2423
1036.454	-930
1036.517	-186
1036.581	1362
1036.645	2021
1036.709	1196
1036.772	-279
1036.836	-1018
1036.900	-1660
1036.963	-2783
1037.026	-2505
1037.090	-2807
1037.154	-3238
1037.217	-2240
1037.280	-2470
1037.344	-2679
1037.407	-2317
1037.471	-1658
1037.534	-2784
1037.597	-2337
1037.661	-2138
1037.724	-1830
1037.787	-2222
1037.850	-1854
1037.913	-2223
1037.977	-2205
1038.040	-2560
1038.103	-2028
1038.166	-2568
1038.229	-2171
1038.292	-2201
1038.355	-2258
1038.418	-2646
1038.481	-1931
1038.544	-2020
1038.607	-1897
1038.670	-2656
1038.732	-2299
1038.795	-2956
1038.858	-2650
1038.921	-1952
1038.984	-2306
1039.046	-2185
1039.109	-2564
1039.172	-2862
1039.234	-1820
1039.297	-2320
1039.360	-1781
1039.422	-2685
1039.485	-1851
1039.547	-3104
1039.610	-2407
1039.672	-2324
1039.734	-2578
1039.797	-3044
1039.859	-2508
1039.922	-3071
1039.984	-2459
1040.046	-2812
1040.109	-2065
1040.171	-2526
1040.233	-1934
1040.295	-2228
1040.358	-2578
1040.420	-2470
1040.482	-2462
1040.544	-3175
1040.606	-2373
1040.668	-2393
1040.730	-2575
1040.792	-3518
1040.854	-2479
1040.916	-2182
1040.978	-2464
1041.040	-1862
1041.102	-2828
1041.164	-3234
1041.225	-1988
1041.287	-3150
1041.349	-1731
1041.411	-2835
1041.472	-1856
1041.534	-2560
1041.596	-2034
1041.657	-2016
1041.719	-1766
1041.781	-2363
1041.842	-1444
1041.904	-2526
1041.965	-2361
1042.027	-1516
1042.088	-2192
1042.150	-2298
1042.211	-1810
1042.272	-2410
1042.334	-2434
1042.395	-2592
1042.456	-2558
1042.518	-1961
1042.579	-1848
1042.640	-2717
1042.701	-2075
1042.763	-2908
1042.824	-2518
1042.885	-2778
1042.946	-2205
1043.007	-2357
1043.068	-2982
1043.129	-2184
1043.190	-2426
1043.251	-2089
1043.312	-2382
1043.373	-2459
1043.434	-2718
1043.495	-2006
1043.556	-1846
1043.616	-2499
1043.677	-2450
1043.738	-3001
1043.799	-2854
1043.859	-2104
1043.920	-2180
1043.981	-2170
1044.041	-2674
1044.102	-2325
1044.162	-1907
1044.223	-2162
1044.284	-2653
1044.344	-2812
1044.405	-2916
1044.465	-2742
1044.525	-3355
1044.586	-1738
1044.646	-2026
1044.707	-1912
1044.767	-1681
1044.827	-2353
1044.887	-2097
1044.948	-2550
1045.008	-2570
1045.068	-2472
1045.128	-1531
1045.188	-2295
1045.249	-1539
1045.309	-1467
1045.369	-1098
1045.429	-1030
1045.489	-1663
1045.549	-2583
1045.609	-1620
1045.669	-2508
1045.729	-2606
1045.789	-2198
1045.848	-2065
1045.908	-1267
1045.968	-2162
1046.028	-1672
1046.088	-1687
1046.147	-1550
1046.207	-1919
1046.267	-1434
1046.326	-1703
1046.386	-1804
1046.446	-759
1046.505	-1482
1046.565	-981
1046.624	-827
1046.684	-1597
1046.743	-726
1046.803	-1022
1046.862	-652
1046.922	0
