'Start Wavelength	183.907
'End Wavelength	1046.922
'Gate Delay	5.000
'Gate Width (ms)	1.050
'Laser Output Level	0.000
'X Position	0.000
'Y Position	0.000
'Z Position	0.000
'Grid Point Number	1.000
'Shot Number	100.000
183.907	701.000
183.977	903.000
184.047	141
184.116	1363
184.186	866
184.256	1180
184.325	261
184.395	-802
184.465	1557
184.534	-67
184.604	73
184.674	432
184.743	-83
184.813	1385
184.883	792
184.952	887
185.022	560
185.092	466
185.161	311
185.231	428
185.301	1405
185.370	733
185.440	-77
185.509	607
185.579	571
185.649	725
185.718	306
185.788	700
185.857	961
185.927	1199
185.996	1088
186.066	717
186.136	500
186.205	516
186.275	317
186.344	1063
186.414	355
186.483	209
186.553	2028
186.622	1767
186.692	1239
186.761	887
186.831	912
186.900	585
186.970	1050
187.039	1219
187.109	1349
187.178	1115
187.248	752
187.317	1232
187.387	727
187.456	1092
187.526	783
187.595	737
187.664	1082
187.734	1287
187.803	1409
187.873	1370
187.942	1764
188.012	1105
188.081	502
188.150	907
188.220	1713
188.289	2112
188.358	1668
188.428	1725
188.497	200
188.567	1342
188.636	1499
188.705	754
188.775	640
188.844	378
188.913	2235
188.983	1149
189.052	936
189.121	339
189.191	621
189.260	1043
189.329	1777
189.399	1073
189.468	690
189.537	875
189.606	935
189.676	1548
189.745	979
189.814	871
189.883	1052
189.953	1039
190.022	1547
190.091	2025
190.161	3549
190.230	2181
190.299	1299
190.368	570
190.437	980
190.507	834
190.576	885
190.645	1731
190.714	979
190.783	442
190.853	1551
190.922	1375
190.991	1280
191.060	1571
191.129	443
191.198	1493
191.268	1535
191.337	345
191.406	1181
191.475	1523
191.544	1701
191.613	1350
191.682	1061
191.752	1201
191.821	287
191.890	430
191.959	1990
192.028	1006
192.097	1520
192.166	612
192.235	-68
192.304	1186
192.373	587
192.442	725
192.511	355
192.580	531
192.650	729
192.719	974
192.788	1297
192.857	1051
192.926	725
192.995	713
193.064	129
193.133	1380
193.202	1523
193.271	1261
193.340	1808
193.409	1646
193.478	2442
193.547	2236
193.615	1927
193.684	2927
193.753	1883
193.822	2337
193.891	1270
193.960	1550
194.029	1484
194.098	1587
194.167	631
194.236	1344
194.305	767
194.374	869
194.443	856
194.512	1595
194.580	1221
194.649	1346
194.718	1843
194.787	1389
194.856	1009
194.925	2666
194.994	1896
195.062	2319
195.131	1644
195.200	2304
195.269	2536
195.338	2027
195.407	2136
195.475	1598
195.544	2096
195.613	1438
195.682	1550
195.751	2073
195.819	2685
195.888	2417
195.957	2615
196.026	2725
196.094	2851
196.163	2581
196.232	3091
196.301	2985
196.369	2636
196.438	2464
196.507	1128
196.576	1595
196.644	1493
196.713	577
196.782	704
196.850	2312
196.919	599
196.988	1679
197.056	1378
197.125	2479
197.194	1013
197.262	746
197.331	1776
197.400	948
197.468	1061
197.537	707
197.606	1935
197.674	2463
197.743	3183
197.812	1791
197.880	2772
197.949	2662
198.017	3492
198.086	2490
198.155	1746
198.223	2456
198.292	3370
198.360	2570
198.429	1563
198.497	1520
198.566	1799
198.635	3643
198.703	2407
198.772	2591
198.840	3754
198.909	4330
198.977	2274
199.046	1624
199.114	1910
199.183	1557
199.251	1873
199.320	1457
199.388	1282
199.457	1316
199.525	1776
199.594	1815
199.662	1909
199.731	1993
199.799	2379
199.867	1781
199.936	2028
200.004	2261
200.073	1928
200.141	1187
200.210	1606
200.278	1747
200.346	2410
200.415	2694
200.483	2962
200.552	2909
200.620	2459
200.688	1840
200.757	2494
200.825	1750
200.893	1554
200.962	1290
201.030	1710
201.098	1660
201.167	2212
201.235	1784
201.303	1629
201.372	2211
201.440	1736
201.508	2393
201.577	2796
201.645	2328
201.713	1754
201.781	1620
201.850	2558
201.918	1733
201.986	2142
202.055	2618
202.123	1992
202.191	2475
202.259	2740
202.327	1550
202.396	1579
202.464	1797
202.532	2425
202.600	6155
202.669	4475
202.737	2495
202.805	1276
202.873	1266
202.941	2159
203.009	1443
203.078	1580
203.146	2909
203.214	1648
203.282	1583
203.350	2719
203.418	2268
203.487	2061
203.555	1921
203.623	1722
203.691	2374
203.759	1987
203.827	1433
203.895	1211
203.963	2318
204.031	2084
204.099	1727
204.168	1311
204.236	2277
204.304	2766
204.372	2862
204.440	2113
204.508	1694
204.576	1565
204.644	1505
204.712	1458
204.780	1954
204.848	2297
204.916	2101
204.984	1485
205.052	2177
205.120	1897
205.188	2612
205.256	1471
205.324	1848
205.392	2192
205.460	2356
205.528	1920
205.596	1741
205.664	1766
205.732	2232
205.799	4916
205.867	6542
205.935	2135
206.003	2295
206.071	2372
206.139	2617
206.207	1827
206.275	2208
206.343	1873
206.411	1890
206.478	1984
206.546	1879
206.614	2141
206.682	2418
206.750	2045
206.818	3196
206.885	3397
206.953	1526
207.021	2817
207.089	2064
207.157	1665
207.225	2111
207.292	1732
207.360	1771
207.428	2002
207.496	2740
207.563	2411
207.631	2063
207.699	2455
207.767	2085
207.834	1985
207.902	2162
207.970	2765
208.038	2479
208.105	2402
208.173	2529
208.241	3405
208.309	3174
208.376	3936
208.444	5592
208.512	2694
208.579	1750
208.647	3302
208.715	3489
208.782	2099
208.850	2339
208.918	2616
208.985	2205
209.053	2437
209.120	2480
209.188	2298
209.256	2571
209.323	2393
209.391	3862
209.459	3931
209.526	2827
209.594	1991
209.661	2455
209.729	2669
209.796	3403
209.864	3062
209.932	2024
209.999	4475
210.067	3185
210.134	4203
210.202	3228
210.269	4236
210.337	4800
210.404	2650
210.472	3361
210.539	2793
210.607	3313
210.674	3922
210.742	3149
210.809	3146
210.877	3587
210.944	4917
211.012	2603
211.079	4926
211.146	2341
211.214	3471
211.281	4597
211.349	4752
211.416	3096
211.484	3759
211.551	3916
211.618	2986
211.686	3360
211.753	2096
211.821	3746
211.888	2817
211.955	3072
212.023	3492
212.090	3038
212.157	3044
212.225	3925
212.292	5484
212.359	8222
212.427	16403
212.494	9504
212.561	4998
212.629	4621
212.696	3705
212.763	3912
212.831	3064
212.898	3310
212.965	3375
213.032	4085
213.100	4021
213.167	3408
213.234	4623
213.301	3973
213.369	3276
213.436	2385
213.503	2621
213.570	4430
213.638	4443
213.705	4060
213.772	2763
213.839	4365
213.906	4951
213.973	4433
214.041	4017
214.108	4369
214.175	3216
214.242	4603
214.309	4600
214.376	3768
214.444	4540
214.511	4406
214.578	3774
214.645	4592
214.712	5065
214.779	4699
214.846	4205
214.913	5405
214.980	4989
215.048	5239
215.115	7049
215.182	5562
215.249	4960
215.316	4105
215.383	4400
215.450	4877
215.517	4153
215.584	4081
215.651	3770
215.718	4311
215.785	5010
215.852	4787
215.919	5826
215.986	5809
216.053	4469
216.120	4469
216.187	5328
216.254	5664
216.321	4048
216.388	5285
216.455	4701
216.522	5659
216.589	6259
216.656	8718
216.722	8716
216.789	6591
216.856	5719
216.923	4952
216.990	5099
217.057	5060
217.124	6200
217.191	6201
217.258	6978
217.324	6916
217.391	7192
217.458	6258
217.525	4353
217.592	4936
217.659	3960
217.725	6198
217.792	6932
217.859	7394
217.926	4496
217.993	4596
218.059	4711
218.126	4962
218.193	4268
218.260	4095
218.327	5008
218.393	3827
218.460	4657
218.527	4248
218.594	4647
218.660	7449
218.727	8255
218.794	4289
218.860	5218
218.927	2513
218.994	4034
219.061	3483
219.127	5489
219.194	7488
219.261	6453
219.327	3585
219.394	4987
219.461	2795
219.527	3770
219.594	4963
219.661	4673
219.727	3469
219.794	4701
219.860	3320
219.927	5159
219.994	7171
220.060	10211
220.127	10363
220.193	6128
220.260	5879
220.326	6572
220.393	7691
220.460	9432
220.526	8346
220.593	5531
220.659	7257
220.726	6501
220.792	10629
220.859	10418
220.925	11375
220.992	12948
221.058	13519
221.125	13435
221.191	10970
221.258	6607
221.324	5688
221.391	5899
221.457	4425
221.524	4644
221.590	6551
221.657	11914
221.723	10369
221.789	9610
221.856	9480
221.922	5702
221.989	7147
222.055	6093
222.121	5292
222.188	7384
222.254	6297
222.321	5696
222.387	4485
222.453	4840
222.520	4598
222.586	4833
222.652	4865
222.719	3893
222.785	5898
222.851	4570
222.918	5065
222.984	4899
223.050	5231
223.116	3946
223.183	5148
223.249	2876
223.315	3399
223.382	4788
223.448	3926
223.514	3208
223.580	3537
223.647	3728
223.713	3135
223.779	4365
223.845	4170
223.911	5076
223.978	3571
224.044	4363
224.110	3468
224.176	3914
224.242	4280
224.309	3490
224.375	3971
224.441	4406
224.507	3532
224.573	3268
224.639	4296
224.705	2716
224.772	3792
224.838	3137
224.904	5523
224.970	3952
225.036	3732
225.102	3233
225.168	4108
225.234	5127
225.300	3949
225.366	3440
225.432	3819
225.499	4124
225.565	4293
225.631	4648
225.697	6178
225.763	5743
225.829	5590
225.895	6449
225.961	9029
226.027	8046
226.093	6615
226.159	8339
226.225	9833
226.291	15448
226.357	23128
226.423	16609
226.489	12634
226.554	8535
226.620	8173
226.686	9332
226.752	14131
226.818	16871
226.884	28561
226.950	26726
227.016	14218
227.082	9748
227.148	8861
227.214	9901
227.279	9119
227.345	8556
227.411	8149
227.477	9359
227.543	15925
227.609	17607
227.674	13050
227.740	8800
227.806	7300
227.872	6317
227.938	6307
228.003	10300
228.069	6685
228.135	4651
228.201	4715
228.267	4817
228.332	6460
228.398	7222
228.464	6518
228.530	4178
228.595	4554
228.661	4544
228.727	6636
228.792	8172
228.858	5093
228.924	4679
228.990	7378
229.055	5501
229.121	7384
229.187	4646
229.252	5516
229.318	5076
229.384	6474
229.449	6087
229.515	3503
229.581	3781
229.646	5460
229.712	5333
229.777	9096
229.843	11722
229.909	9298
229.974	10765
230.040	10163
230.105	7825
230.171	7471
230.236	9927
230.302	11976
230.368	10832
230.433	7247
230.499	8225
230.564	10538
230.630	7231
230.695	5860
230.761	7007
230.826	5055
230.892	8910
230.957	6180
231.023	5128
231.088	6548
231.154	6061
231.219	5404
231.284	7183
231.350	8624
231.415	5992
231.481	6066
231.546	4764
231.612	5613
231.677	4149
231.742	4586
231.808	6480
231.873	4067
231.939	4178
232.004	8927
232.069	8671
232.135	5370
232.200	5000
232.265	5379
232.331	4909
232.396	4746
232.461	4536
232.527	4039
232.592	5018
232.657	5093
232.723	7062
232.788	6248
232.853	5331
232.918	4936
232.984	4775
233.049	4674
233.114	5878
233.179	7639
233.245	7920
233.310	9337
233.375	4379
233.440	4576
233.506	4043
233.571	4621
233.636	4386
233.701	5335
233.766	6580
233.832	9197
233.897	6202
233.962	5625
234.027	8045
234.092	7504
234.157	6958
234.222	6635
234.288	8757
234.353	14499
234.418	14854
234.483	11954
234.548	10723
234.613	9181
234.678	8941
234.743	8094
234.808	16499
234.873	12515
234.938	9637
235.004	7639
235.069	7151
235.134	6565
235.199	7458
235.264	6274
235.329	4868
235.394	6794
235.459	7811
235.524	6869
235.589	6080
235.654	6157
235.719	5074
235.784	6906
235.849	6602
235.913	9752
235.978	11027
236.043	12834
236.108	7842
236.173	6054
236.238	8121
236.303	6159
236.368	6194
236.433	8277
236.498	11227
236.563	10131
236.627	13750
236.692	37412
236.757	36654
236.822	18013
236.887	14224
236.952	12556
237.017	10235
237.081	12431
237.146	13102
237.211	20251
237.276	37048
237.341	59159
237.405	35740
237.470	18631
237.535	14699
237.600	11148
237.664	9164
237.729	8070
237.794	9359
237.859	14877
237.923	11611
237.988	9532
238.053	11494
238.118	10228
238.182	18220
238.247	19242
238.312	10751
238.376	10013
238.441	7681
238.506	9766
238.570	5403
238.635	7339
238.700	6606
238.764	6558
238.829	10342
238.893	12606
238.958	10219
239.023	10571
239.087	7318
239.152	7272
239.216	6964
239.281	6892
239.346	6722
239.410	7656
239.475	7806
239.539	16872
239.604	15071
239.668	8575
239.733	7666
239.797	12938
239.862	26796
239.926	25968
239.991	13235
240.055	9113
240.120	7651
240.184	7966
240.249	6188
240.313	7161
240.378	6638
240.442	11062
240.507	17651
240.571	7896
240.635	9658
240.700	13513
240.764	8057
240.829	6889
240.893	5817
240.957	6371
241.022	10634
241.086	16804
241.151	10511
241.215	6978
241.279	8686
241.344	10819
241.408	9982
241.472	9398
241.537	11130
241.601	10084
241.665	8486
241.730	8011
241.794	10151
241.858	9237
241.922	9339
241.987	9189
242.051	8347
242.115	7567
242.179	9200
242.244	6850
242.308	8891
242.372	8767
242.436	10750
242.501	9294
242.565	7681
242.629	7753
242.693	7771
242.757	7753
242.822	8161
242.886	8985
242.950	9108
243.014	8311
243.078	9177
243.142	10534
243.206	8198
243.271	8574
243.335	8377
243.399	11681
243.463	24245
243.527	57387
243.591	25364
243.655	14466
243.719	9439
243.783	11374
243.847	14269
243.911	16894
243.975	21075
244.040	18386
244.104	12310
244.168	9505
244.232	12793
244.296	17063
244.360	15960
244.424	11145
244.488	9131
244.552	9433
244.615	6764
244.679	7660
244.743	9092
244.807	10692
244.871	8154
244.935	7995
244.999	6914
245.063	8016
245.127	9405
245.191	11707
245.255	12568
245.319	11472
245.383	10928
245.446	9562
245.510	7347
245.574	9353
245.638	9482
245.702	8834
245.766	17082
245.829	13335
245.893	9785
245.957	8580
246.021	10212
246.085	10404
246.149	11674
246.212	23143
246.276	35027
246.340	19436
246.404	15245
246.467	13687
246.531	17831
246.595	13112
246.659	12583
246.722	11766
246.786	15532
246.850	14563
246.913	17088
246.977	10318
247.041	9887
247.104	11956
247.168	11740
247.232	21742
247.295	42136
247.359	26707
247.423	13118
247.486	19952
247.550	15295
247.614	12556
247.677	16846
247.741	11343
247.804	10375
247.868	12807
247.932	19992
247.995	42288
248.059	21105
248.122	12648
248.186	14765
248.249	24015
248.313	60547
248.376	69723
248.440	49941
248.503	23815
248.567	19587
248.630	24122
248.694	33073
248.757	40818
248.821	66991
248.884	51575
248.948	42463
249.011	58649
249.075	76139
249.138	72861
249.202	36934
249.265	24044
249.328	23214
249.392	21154
249.455	19133
249.519	15061
249.582	18510
249.645	26153
249.709	21554
249.772	15349
249.835	15045
249.899	16247
249.962	15791
250.025	14406
250.089	27911
250.152	41478
250.215	24144
250.279	18065
250.342	17408
250.405	16431
250.468	15821
250.532	19745
250.595	25278
250.658	54704
250.721	91588
250.785	46195
250.848	28888
250.911	19176
250.974	18813
251.038	23609
251.101	44594
251.164	27124
251.227	26311
251.290	24492
251.354	28719
251.417	74572
251.480	86523
251.543	63706
251.606	121813
251.669	112429
251.732	56157
251.795	57090
251.859	57555
251.922	88282
251.985	66476
252.048	34602
252.111	27302
252.174	25600
252.237	42613
252.300	80701
252.363	78689
252.426	114792
252.489	66659
252.552	39448
252.615	28047
252.678	30001
252.741	59132
252.804	71258
252.867	113984
252.930	92208
252.993	58520
253.056	37281
253.119	29778
253.182	22906
253.245	31199
253.308	28220
253.371	27959
253.434	26774
253.497	25371
253.559	40707
253.622	33814
253.685	38348
253.748	45210
253.811	23908
253.874	25415
253.937	25232
254.000	22112
254.062	31539
254.125	46921
254.188	41938
254.251	38826
254.314	19925
254.376	30761
254.439	38444
254.502	33803
254.565	31951
254.628	55045
254.690	37587
254.753	23548
254.816	19036
254.878	19786
254.941	29993
255.004	35975
255.067	18660
255.129	20040
255.192	12947
255.255	11718
255.317	14387
255.380	11041
255.443	8771
255.505	9890
255.568	9457
255.631	10948
255.693	11541
255.756	10456
255.819	9757
255.881	9253
255.944	8787
256.006	8092
256.069	9259
256.132	7710
256.194	10928
256.257	18452
256.319	16050
256.382	15178
256.444	14115
256.507	11714
256.569	11107
256.632	10695
256.694	13932
256.757	24075
256.819	62910
256.882	34664
256.944	17645
257.007	16136
257.069	17976
257.132	12816
257.194	12440
257.257	11541
257.319	12908
257.381	11132
257.444	20807
257.506	66780
257.569	88773
257.631	53196
257.693	33003
257.756	17371
257.818	15240
257.880	11951
257.943	11800
258.005	10647
258.067	11969
258.130	11837
258.192	13698
258.254	23293
258.317	16393
258.379	12529
258.441	22909
258.503	24530
258.566	20261
258.628	27544
258.690	12081
258.753	13653
258.815	24719
258.877	17155
258.939	12150
259.001	11568
259.064	11426
259.126	11715
259.188	15371
259.250	12447
259.312	14798
259.375	29106
259.437	23771
259.499	13056
259.561	12302
259.623	13423
259.685	12943
259.747	12050
259.809	19823
259.872	33636
259.934	45597
259.996	59790
260.058	25082
260.120	12825
260.182	10810
260.244	9433
260.306	9024
260.368	10710
260.430	10472
260.492	21304
260.554	37032
260.616	25498
260.678	31632
260.740	41218
260.802	16451
260.864	15343
260.926	12833
260.988	13137
261.050	12652
261.112	28713
261.174	53893
261.236	34210
261.298	17388
261.359	19742
261.421	26383
261.483	13359
261.545	12321
261.607	9516
261.669	10036
261.731	13807
261.793	30314
261.854	20733
261.916	15655
261.978	14937
262.040	15873
262.102	10909
262.164	13468
262.225	12962
262.287	10594
262.349	22471
262.411	21508
262.472	12113
262.534	12953
262.596	24079
262.658	12944
262.719	9414
262.781	11274
262.843	21646
262.904	14686
262.966	11782
263.028	13864
263.090	35037
263.151	94061
263.213	46514
263.275	34607
263.336	16660
263.398	11923
263.459	9447
263.521	9804
263.583	21002
263.644	18604
263.706	9710
263.767	7011
263.829	8016
263.891	7855
263.952	7378
264.014	7438
264.075	14184
264.137	38506
264.198	20027
264.260	9425
264.321	9011
264.383	19657
264.444	52494
264.506	21644
264.567	13745
264.629	20391
264.690	45314
264.752	20492
264.813	13141
264.875	9835
264.936	10332
264.998	9894
265.059	8795
265.120	9252
265.182	11277
265.243	30930
265.305	39286
265.366	13115
265.427	9948
265.489	10297
265.550	8266
265.611	9420
265.673	11408
265.734	10571
265.795	7828
265.857	6182
265.918	7829
265.979	13114
266.040	48219
266.102	53608
266.163	20581
266.224	20722
266.286	12547
266.347	8702
266.408	8941
266.469	9191
266.530	8464
266.592	7552
266.653	15467
266.714	27089
266.775	12609
266.836	8862
266.898	7598
266.959	15977
267.020	13600
267.081	8956
267.142	7907
267.203	6679
267.264	7291
267.326	9249
267.387	7994
267.448	7540
267.509	8478
267.570	8470
267.631	6934
267.692	6412
267.753	7922
267.814	7745
267.875	13201
267.936	29510
267.997	21051
268.058	20864
268.119	11824
268.180	10820
268.241	9600
268.302	8165
268.363	7937
268.424	10059
268.485	10237
268.546	8478
268.607	6692
268.668	8019
268.729	6462
268.790	7758
268.851	10120
268.912	21165
268.972	26447
269.033	16883
269.094	9375
269.155	8782
269.216	7452
269.277	9269
269.338	8161
269.398	8122
269.459	11309
269.520	14556
269.581	17913
269.642	21644
269.702	15070
269.763	11674
269.824	10459
269.885	12068
269.945	19794
270.006	11011
270.067	7663
270.128	8107
270.188	8068
270.249	8774
270.310	7890
270.370	8200
270.431	8047
270.492	7356
270.553	8808
270.613	15911
270.674	30862
270.734	17849
270.795	10529
270.856	13950
270.916	13904
270.977	9936
271.038	11611
271.098	13712
271.159	16942
271.219	19337
271.280	9841
271.340	8849
271.401	9368
271.462	18158
271.522	15374
271.583	10772
271.643	10422
271.704	11503
271.764	13112
271.825	25879
271.885	67679
271.946	99191
272.006	42103
272.066	44406
272.127	75893
272.187	32791
272.248	19752
272.308	18426
272.369	46634
272.429	34841
272.489	25761
272.550	31355
272.610	27704
272.671	24910
272.731	18062
272.791	27162
272.852	20782
272.912	18939
272.972	12599
273.033	11418
273.093	16561
273.153	21528
273.214	15719
273.274	15180
273.334	39351
273.394	75990
273.455	39663
273.515	32905
273.575	66203
273.635	34218
273.696	34142
273.756	68462
273.816	36782
273.876	20818
273.936	26964
273.997	49580
274.057	21068
274.117	17379
274.177	24411
274.237	79904
274.297	78258
274.358	48299
274.418	56201
274.478	50556
274.538	24084
274.598	17788
274.658	35256
274.718	50138
274.778	26452
274.838	16465
274.898	23984
274.958	64230
275.018	66734
275.078	53002
275.138	26161
275.198	16159
275.258	13073
275.318	15163
275.378	26661
275.438	32670
275.498	22174
275.558	29371
275.618	63310
275.678	55601
275.738	36522
275.798	34773
275.858	22256
275.918	12838
275.978	14735
276.038	16119
276.098	12303
276.157	20586
276.217	56539
276.277	31605
276.337	24508
276.397	14703
276.457	17928
276.517	14602
276.576	10892
276.636	11565
276.696	18283
276.756	33148
276.815	30422
276.875	14821
276.935	17187
276.995	17324
277.055	11648
277.114	13134
277.174	15226
277.234	43517
277.293	25369
277.353	15848
277.413	12674
277.472	13788
277.532	15287
277.592	13889
277.651	29447
277.711	62103
277.771	26248
277.830	65387
277.890	68174
277.950	38426
278.009	98138
278.069	50301
278.128	41448
278.188	66015
278.248	34002
278.307	60859
278.367	47924
278.426	18138
278.486	15433
278.545	13136
278.605	12010
278.664	12875
278.724	14048
278.783	26054
278.843	69492
278.902	28148
278.962	18338
279.021	20153
279.081	19490
279.140	20961
279.199	20330
279.259	20035
279.318	19352
279.378	23846
279.437	36583
279.496	107636
279.556	218336
279.615	208470
279.675	70260
279.734	42409
279.793	58507
279.853	98555
279.912	47293
279.971	26461
280.031	24403
280.090	36305
280.149	70886
280.208	49763
280.268	145959
280.327	186808
280.386	58471
280.445	43468
280.505	46216
280.564	24728
280.623	22508
280.682	27007
280.742	44583
280.801	19141
280.860	15321
280.919	15182
280.978	14883
281.037	13182
281.097	12286
281.156	12924
281.215	12367
281.274	14485
281.333	42913
281.392	43581
281.451	14350
281.510	11557
281.569	12425
281.628	10871
281.688	10193
281.747	12146
281.806	14381
281.865	10704
281.924	10757
281.983	11462
282.042	9264
282.101	10534
282.160	10219
282.219	10504
282.278	11289
282.337	29980
282.396	27733
282.454	13454
282.513	15802
282.572	45306
282.631	36720
282.690	14431
282.749	12234
282.808	16391
282.867	15687
282.926	16524
282.985	11527
283.043	10868
283.102	10653
283.161	12774
283.220	22890
283.279	51140
283.338	22779
283.396	14672
283.455	14470
283.514	14683
283.573	22914
283.631	18886
283.690	14302
283.749	14050
283.808	22831
283.866	32424
283.925	15427
283.984	13562
284.043	17731
284.101	21918
284.160	15435
284.219	19649
284.277	18147
284.336	23316
284.395	60854
284.453	61742
284.512	27541
284.570	33480
284.629	32018
284.688	27647
284.746	30063
284.805	33151
284.863	40979
284.922	53841
284.981	62878
285.039	88827
285.098	141954
285.156	261117
285.215	342070
285.273	347068
285.332	314106
285.390	190228
285.449	121312
285.507	84807
285.566	64846
285.624	49848
285.683	40544
285.741	33378
285.799	29602
285.858	27789
285.916	26167
285.975	21341
286.033	19046
286.091	17408
286.150	16231
286.208	15983
286.267	18678
286.325	19217
286.383	27556
286.442	26168
286.500	15536
286.558	12765
286.616	13470
286.675	18457
286.733	17661
286.791	15642
286.850	16421
286.908	20737
286.966	34198
287.024	19405
287.083	13501
287.141	12064
287.199	12324
287.257	19918
287.315	16574
287.374	15400
287.432	32045
287.490	27556
287.548	16117
287.606	14481
287.664	13834
287.723	17627
287.781	25668
287.839	15854
287.897	16573
287.955	20530
288.013	26847
288.071	50285
288.129	138985
288.187	362835
288.245	229671
288.303	79913
288.361	43441
288.419	34577
288.477	27698
288.535	21636
288.593	16623
288.651	15599
288.709	13364
288.767	13187
288.825	12826
288.883	11813
288.941	10759
288.999	10885
289.057	10534
289.115	10293
289.173	10971
289.231	11793
289.289	13418
289.346	11403
289.404	13550
289.462	21595
289.520	24263
289.578	15129
289.636	9547
289.694	9409
289.751	9152
289.809	8550
289.867	10853
289.925	12056
289.983	17777
290.040	11213
290.098	9616
290.156	13196
290.214	15183
290.271	12076
290.329	9780
290.387	9193
290.444	9129
290.502	8336
290.560	9322
290.617	10993
290.675	11024
290.733	10110
290.790	12345
290.848	9472
290.906	11171
290.963	12095
291.021	10966
291.078	11162
291.136	13419
291.194	28557
291.251	72154
291.309	28581
291.366	13537
291.424	12376
291.481	12517
291.539	12563
291.596	10903
291.654	8555
291.711	9354
291.769	11089
291.826	22972
291.884	19747
291.941	11063
291.999	10931
292.056	13059
292.114	15153
292.171	11964
292.228	12793
292.286	16177
292.343	25588
292.401	32799
292.458	22894
292.515	15903
292.573	18251
292.630	18173
292.687	17605
292.745	15667
292.802	19393
292.859	45034
292.917	65609
292.974	48608
293.031	19857
293.089	14266
293.146	12228
293.203	12139
293.260	12202
293.318	16059
293.375	25149
293.432	18182
293.489	12333
293.546	13117
293.604	18297
293.661	37759
293.718	96590
293.775	67288
293.832	34347
293.889	26258
293.947	25863
294.004	22675
294.061	21549
294.118	33882
294.175	66921
294.232	87380
294.289	44616
294.346	22418
294.403	20643
294.460	18227
294.517	17313
294.574	16830
294.631	14371
294.688	18353
294.745	35249
294.802	102401
294.859	139216
294.916	63555
294.973	38004
295.030	29944
295.087	25885
295.144	19689
295.201	16776
295.258	16499
295.315	19756
295.372	40042
295.429	82781
295.486	47472
295.542	30561
295.599	50440
295.656	98342
295.713	69834
295.770	81092
295.827	42264
295.883	23493
295.940	21279
295.997	32288
296.054	36553
296.111	21710
296.167	16065
296.224	13400
296.281	14047
296.338	13571
296.394	14118
296.451	17713
296.508	35251
296.564	75524
296.621	61011
296.678	84799
296.734	142253
296.791	68050
296.848	35418
296.904	33641
296.961	66126
297.018	92159
297.074	80867
297.131	36600
297.187	25988
297.244	33711
297.301	72263
297.357	145024
297.414	70142
297.470	30524
297.527	21590
297.583	18587
297.640	19877
297.696	17735
297.753	15085
297.809	14199
297.866	12257
297.922	12441
297.979	12212
298.035	15390
298.092	22274
298.148	47655
298.204	59443
298.261	34934
298.317	45191
298.374	107703
298.430	81822
298.486	39009
298.543	32186
298.599	26609
298.656	26304
298.712	38614
298.768	81749
298.824	70250
298.881	30210
298.937	19800
298.993	18093
299.050	22073
299.106	23937
299.162	19629
299.218	20056
299.275	17088
299.331	20926
299.387	31578
299.443	85474
299.500	119325
299.556	61463
299.612	29775
299.668	27287
299.724	34817
299.780	41348
299.837	26962
299.893	32570
299.949	76789
300.005	115281
300.061	88193
300.117	137429
300.173	87004
300.229	41590
300.285	42904
300.341	55418
300.397	33437
300.453	21988
300.510	19634
300.566	22124
300.622	26803
300.678	56839
300.734	108292
300.790	93892
300.845	103832
300.901	77739
300.957	96141
301.013	84878
301.069	39968
301.125	27174
301.181	30050
301.237	24754
301.293	18374
301.349	15845
301.405	14562
301.461	15666
301.516	15820
301.572	18697
301.628	34416
301.684	36027
301.740	39301
301.796	63594
301.851	50412
301.907	70842
301.963	82217
302.019	99662
302.074	227494
302.130	271950
302.186	144616
302.242	62205
302.297	41986
302.353	38058
302.409	60255
302.464	63279
302.520	51751
302.576	94898
302.631	125571
302.687	85915
302.743	41104
302.798	24850
302.854	20317
302.910	22028
302.965	26441
303.021	42765
303.076	43864
303.132	49776
303.187	63476
303.243	40049
303.299	22669
303.354	17158
303.410	16847
303.465	16594
303.521	16105
303.576	17461
303.632	21741
303.687	31938
303.743	79324
303.798	85148
303.853	41503
303.909	24631
303.964	21679
304.020	30574
304.075	49139
304.130	45275
304.186	71740
304.241	79733
304.297	66333
304.352	39488
304.358	37935
304.407	25355
304.449	24535
304.463	24276
304.518	25923
304.539	25421
304.573	24661
304.629	23957
304.630	24120
304.684	32217
304.720	52257
304.739	62304
304.794	105041
304.811	93093
304.850	64764
304.902	34034
304.905	32039
304.960	21569
304.992	19829
305.015	18629
305.071	19570
305.083	19226
305.126	17878
305.173	15958
305.181	15668
305.236	13551
305.264	14399
305.292	15276
305.347	18667
305.354	18947
305.402	20627
305.445	20782
305.457	20862
305.512	23186
305.535	25008
305.567	27422
305.622	27678
305.626	28198
305.678	39693
305.716	66271
305.733	76038
305.788	105488
305.807	94299
305.843	74705
305.897	79217
305.898	79197
305.953	90914
305.988	66499
306.008	53001
306.063	33875
306.078	31233
306.118	24363
306.168	18214
306.173	17695
306.228	15619
306.259	14765
306.283	14147
306.338	12875
306.349	13010
306.393	13719
306.440	15515
306.448	15838
306.503	17923
306.530	19401
306.558	23567
306.613	46795
306.620	50970
306.668	74959
306.711	88341
306.723	89793
306.778	79418
306.801	63232
306.833	44133
306.888	25104
306.892	24439
306.943	17794
306.982	16147
306.997	15621
307.052	15110
307.072	15295
307.107	16693
307.162	21286
307.163	21411
307.217	32937
307.253	39596
307.272	41270
307.327	46635
307.343	43536
307.381	37022
307.434	30415
307.436	30622
307.491	48536
307.524	71084
307.546	78568
307.600	83630
307.614	75026
307.655	49786
307.704	27795
307.710	26333
307.765	27577
307.795	32853
307.819	37616
307.874	62032
307.885	62693
307.929	54260
307.975	36002
307.984	34327
308.038	33877
308.065	39220
308.093	57390
308.148	107594
308.156	120959
308.202	188355
308.246	245719
308.257	248326
308.312	156292
308.336	120159
308.366	92103
308.421	67067
308.426	64382
308.475	42432
308.517	31129
308.530	28384
308.585	23232
308.607	22104
308.639	22540
308.694	26265
308.697	26664
308.748	43789
308.787	66490
308.803	68013
308.857	59787
308.877	50381
308.912	39770
308.967	32743
308.967	32786
309.021	38900
309.058	46411
309.076	54917
309.130	91850
309.148	107638
309.185	170529
309.238	272131
309.239	272598
309.293	318442
309.328	301623
309.348	272451
309.402	148091
309.418	117946
309.457	81818
309.508	54799
309.511	53731
309.566	50321
309.598	51566
309.620	58110
309.674	82057
309.688	89160
309.729	88928
309.778	76903
309.783	75528
309.837	56154
309.868	47726
309.892	52929
309.946	72259
309.959	80231
310.001	101997
310.049	121907
310.055	119082
310.109	77722
310.139	51034
310.163	39458
310.218	24252
310.229	22281
310.272	18349
310.319	15832
310.326	15442
310.381	14009
310.409	13602
310.435	13589
310.489	13177
310.499	13264
310.543	13794
310.589	14664
310.598	14577
310.652	14732
310.679	14450
310.706	13345
310.760	10759
310.769	10445
310.814	9278
310.859	8273
310.868	8276
310.923	8793
310.948	9311
310.977	10228
311.031	11918
311.038	12218
311.085	11763
311.128	10781
311.139	10714
311.193	10742
311.218	10776
311.247	9955
311.301	8589
311.308	8431
311.356	8954
311.398	9752
311.410	9616
311.464	9146
311.488	8802
311.518	8629
311.572	8584
311.578	8642
311.626	12524
311.668	16096
311.680	16172
311.734	16261
311.758	16384
311.788	15982
311.842	15241
311.847	15212
311.896	19708
311.937	23868
311.950	23293
312.004	20917
312.027	19783
312.058	16491
312.112	10880
312.117	10375
312.165	10371
312.207	10488
312.297	15547
312.386	13071
312.476	11064
312.566	22531
312.656	10466
312.745	7877
312.835	10135
312.925	11475
313.015	9728
313.104	11693
313.194	8002
313.284	9158
313.374	12489
313.463	10990
313.553	7737
313.643	8579
313.732	7156
313.822	8345
313.912	9374
314.001	11037
314.091	13899
314.180	19519
314.270	14911
314.360	17309
314.449	13587
314.539	9583
314.628	8588
314.718	11856
314.808	14077
314.897	9890
314.987	9648
315.076	12893
315.166	15564
315.255	15771
315.345	14791
315.434	14799
315.524	12626
315.613	15351
315.703	19321
315.792	25861
315.881	62604
315.971	24650
316.060	26849
316.150	41840
316.239	42799
316.328	15999
316.418	9285
316.507	10827
316.597	13678
316.686	12742
316.775	21439
316.865	44041
316.954	11305
317.043	8675
317.133	8885
317.222	8602
317.311	8843
317.400	8334
317.490	14160
317.579	15045
317.668	11739
317.757	18628
317.847	37628
317.936	109062
318.025	46973
318.114	30965
318.203	20400
318.293	27641
318.382	52132
318.471	38481
318.560	52184
318.649	92678
318.738	20645
318.828	17328
318.917	18122
319.006	23149
319.095	51805
319.184	115742
319.273	63481
319.362	32620
319.451	13273
319.540	13769
319.629	28306
319.718	44483
319.807	23492
319.896	42302
319.985	135650
320.074	48616
320.163	18507
320.252	29465
320.341	26004
320.430	22368
320.519	26272
320.608	15699
320.697	14313
320.786	14411
320.875	17591
320.964	22681
321.053	33202
321.142	45143
321.230	45619
321.319	38994
321.408	83830
321.497	37237
321.586	34899
321.675	45231
321.764	40224
321.852	28241
321.941	48990
322.030	31979
322.119	39216
322.207	83842
322.296	64791
322.385	38250
322.474	40266
322.562	98760
322.651	52236
322.740	40728
322.829	56967
322.917	60321
323.006	34150
323.095	29207
323.183	22503
323.272	32617
323.361	53784
323.449	140139
323.538	51450
323.626	109868
323.715	63124
323.804	31963
323.892	100990
323.981	54346
324.069	21540
324.158	59517
324.246	50873
324.335	22107
324.424	30919
324.512	14436
324.601	21819
324.689	47265
324.778	82674
324.866	47212
324.954	14743
325.043	15141
325.131	29707
325.220	48582
325.308	53930
325.397	39851
325.485	23726
325.574	10567
325.662	9662
325.750	11124
325.839	10467
325.927	9277
326.015	13714
326.104	20816
326.192	27574
326.280	9646
326.369	10909
326.457	15686
326.545	25637
326.634	12247
326.722	8751
326.810	9422
326.898	9047
326.987	11464
327.075	23990
327.163	26546
327.251	16934
327.340	36675
327.428	48609
327.516	10918
327.604	9886
327.692	11009
327.781	12887
327.869	22710
327.957	13863
328.045	12286
328.133	8294
328.221	11933
328.309	9950
328.397	9477
328.485	12410
328.574	17781
328.662	51244
328.750	30378
328.838	13599
328.926	9524
329.014	8675
329.102	14922
329.190	36833
329.278	21344
329.366	7132
329.454	7927
329.542	7868
329.630	7741
329.718	8462
329.806	10991
329.893	11101
329.981	11732
330.069	16545
330.157	50393
330.245	131277
330.333	66638
330.421	15578
330.509	19806
330.597	61962
330.684	39663
330.772	18471
330.860	27677
330.948	35676
331.036	14244
331.123	7282
331.211	8476
331.299	13471
331.387	30329
331.475	48767
331.562	15394
331.650	7952
331.738	11652
331.825	15657
331.913	8635
332.001	7651
332.089	13187
332.176	28112
332.264	58964
332.352	43146
332.439	15256
332.527	12265
332.614	10610
332.702	13786
332.790	11234
332.877	28508
332.965	52450
333.052	14754
333.140	16481
333.228	32858
333.315	11794
333.403	13122
333.490	37096
333.578	28448
333.665	33774
333.753	17542
333.840	10216
333.928	14460
334.015	39043
334.103	53652
334.190	139634
334.278	39146
334.365	22033
334.452	16800
334.540	11909
334.627	16411
334.715	24462
334.802	43001
334.889	180109
334.977	154209
335.064	29304
335.151	15013
335.239	15575
335.326	21718
335.413	73969
335.501	88135
335.588	17551
335.675	14415
335.762	19441
335.850	32645
335.937	23584
336.024	56403
336.111	192011
336.199	83734
336.286	22118
336.373	13191
336.460	9828
336.547	9677
336.635	12929
336.722	11749
336.809	11281
336.896	17978
336.983	53050
337.070	114353
337.157	141807
337.245	114955
337.332	73437
337.419	13951
337.506	10470
337.593	14861
337.680	44903
337.767	114035
337.854	35676
337.941	41783
338.028	47875
338.115	17113
338.202	23176
338.289	40105
338.376	115089
338.463	37640
338.550	72151
338.637	67066
338.724	28949
338.811	40782
338.898	10976
338.984	10065
339.071	13130
339.158	14338
339.245	33529
339.332	20013
339.419	32756
339.506	26215
339.593	6413
339.679	8648
339.766	8316
339.853	13615
339.940	23535
340.027	10280
340.113	10714
340.200	13705
340.287	10523
340.374	14669
340.460	20601
340.547	10376
340.634	17994
340.720	57128
340.807	28731
340.894	7987
340.980	8683
341.067	8591
341.154	9641
341.240	15306
341.327	28849
341.414	11657
341.500	11399
341.587	8743
341.674	9588
341.760	22349
341.847	24074
341.933	8853
342.020	5208
342.106	6115
342.193	10072
342.279	17104
342.366	13455
342.452	20664
342.539	12832
342.625	28198
342.712	58910
342.798	24678
342.885	11530
342.971	5349
343.058	6235
343.144	5686
343.230	6613
343.317	6923
343.403	6308
343.490	5239
343.576	6896
343.662	7931
343.749	8936
343.835	12546
343.921	21236
344.008	98784
344.094	192512
344.180	44575
344.267	22299
344.353	65099
344.439	67581
344.525	30092
344.612	12657
344.698	11497
344.784	8431
344.870	6634
344.957	7914
345.043	13317
345.129	10875
345.215	20119
345.301	11437
345.387	7291
345.474	5924
345.560	6980
345.646	9968
345.732	8251
345.818	9148
345.904	9655
345.990	10153
346.076	11956
346.162	21448
346.249	9248
346.335	6937
346.421	8886
346.507	28565
346.593	82035
346.679	20792
346.765	9796
346.851	9534
346.937	8325
347.023	7322
347.108	10058
347.194	8319
347.280	7867
347.366	10896
347.452	31640
347.538	102460
347.624	75204
347.710	63419
347.796	12914
347.882	8839
347.967	8743
348.053	14248
348.139	9488
348.225	7038
348.311	7739
348.397	5998
348.482	10259
348.568	11973
348.654	8288
348.740	12274
348.825	11682
348.911	15557
348.997	52213
349.083	88573
349.168	17322
349.254	9429
349.340	8698
349.425	7136
349.511	10911
349.597	13600
349.682	24075
349.768	64744
349.854	29207
349.939	9847
350.025	6034
350.110	6478
350.196	4866
350.282	4731
350.367	6992
350.453	14663
350.538	13847
350.624	11486
350.709	11608
350.795	7262
350.880	7150
350.966	8536
351.051	13884
351.137	11151
351.222	8004
351.308	25257
351.393	56005
351.479	15759
351.564	7412
351.649	8096
351.735	6224
351.820	5359
351.906	8167
351.991	12820
352.076	40508
352.162	51768
352.247	13165
352.332	9782
352.418	18531
352.503	24001
352.588	88058
352.673	65596
352.759	17121
352.844	9109
352.929	10613
353.014	14258
353.100	10433
353.185	20830
353.270	26339
353.355	22678
353.441	8928
353.526	11622
353.611	21746
353.696	23420
353.781	14830
353.866	8077
353.952	9660
354.037	23540
354.122	46388
354.207	40763
354.292	15908
354.377	8967
354.462	7769
354.547	11724
354.632	10699
354.717	18344
354.802	22442
354.887	9282
354.972	7039
355.057	5986
355.142	5602
355.227	10202
355.312	15781
355.397	33878
355.482	71593
355.567	32611
355.652	28067
355.737	27776
355.822	75487
355.907	53049
355.991	12224
356.076	8150
356.161	8229
356.246	6770
356.331	8375
356.416	21453
356.501	111101
356.585	100662
356.670	18937
356.755	14446
356.840	22738
356.924	92149
357.009	259107
357.094	93524
357.179	27152
357.263	17987
357.348	19058
357.433	18973
357.517	16330
357.602	13368
357.687	11499
357.771	15227
357.856	16861
357.941	18404
358.025	67685
358.110	240037
358.195	106186
358.279	21473
358.364	18372
358.448	60042
358.533	141147
358.617	101282
358.702	97141
358.787	36217
358.871	24486
358.956	19669
359.040	7906
359.125	6989
359.209	7289
359.294	10200
359.378	13556
359.462	17473
359.547	13131
359.631	10416
359.716	6586
359.800	9484
359.885	15783
359.969	11015
360.053	9101
360.138	8795
360.222	13768
360.306	23153
360.391	17493
360.475	21685
360.559	43740
360.644	55103
360.728	40461
360.812	67695
360.896	154670
360.981	76546
361.065	44491
361.149	13373
361.233	13446
361.318	11435
361.402	12254
361.486	11275
361.570	9904
361.654	12918
361.739	32114
361.823	112086
361.907	147578
361.991	30499
362.075	23600
362.159	45369
362.243	33995
362.327	37750
362.411	46020
362.495	24153
362.580	13987
362.664	11328
362.748	10050
362.832	15010
362.916	26635
363.000	77708
363.084	178557
363.168	189233
363.252	48010
363.336	23482
363.420	31584
363.503	104713
363.587	105942
363.671	23047
363.755	18725
363.839	25654
363.923	13085
364.007	27850
364.091	30947
364.175	49105
364.258	161214
364.342	127035
364.426	155444
364.510	82941
364.594	40834
364.677	44216
364.761	142002
364.845	89937
364.929	40646
365.013	32969
365.096	29383
365.180	32452
365.264	48508
365.347	149632
365.431	66065
365.515	22412
365.598	11393
365.682	11301
365.766	24099
365.849	28170
365.933	14174
366.017	20391
366.100	16413
366.184	7887
366.267	8690
366.351	8798
366.435	7896
366.518	6331
366.602	7248
366.685	8172
366.769	10267
366.852	22178
366.936	33733
367.019	17679
367.103	18574
367.186	31476
367.270	9792
367.353	6657
367.436	7762
367.520	7915
367.603	11434
367.687	16884
367.770	27224
367.853	17317
367.937	49292
368.020	70866
368.104	19480
368.187	22174
368.270	31256
368.353	27854
368.437	40371
368.520	87381
368.603	49741
368.687	61273
368.770	96658
368.853	27341
368.936	31881
369.020	31382
369.103	12638
369.186	9246
369.269	10771
369.352	21076
369.436	27544
369.519	17805
369.602	9224
369.685	11704
369.768	11681
369.851	10945
369.934	7520
370.018	12173
370.101	23901
370.184	19849
370.267	16314
370.350	26220
370.433	39648
370.516	82999
370.599	96458
370.682	36157
370.765	63889
370.848	72451
370.931	116254
371.014	47890
371.097	13522
371.180	9855
371.263	7469
371.346	5751
371.429	7987
371.511	9469
371.594	17107
371.677	28366
371.760	34197
371.843	26303
371.926	104139
372.009	199646
372.091	67594
372.174	53712
372.257	106938
372.340	43252
372.423	46967
372.505	52852
372.588	22871
372.671	44232
372.754	117918
372.836	54680
372.919	57346
373.002	99156
373.085	29852
373.167	25556
373.250	58173
373.332	110751
373.415	145731
373.498	265852
373.580	101771
373.663	150607
373.746	176218
373.828	45754
373.911	24556
373.993	28826
374.076	99833
374.159	85851
374.241	41124
374.324	105101
374.406	65694
374.489	91840
374.571	222701
374.654	88426
374.736	52485
374.819	146397
374.901	199309
374.983	185709
375.066	37208
375.148	20940
375.231	81460
375.313	139706
375.395	56675
375.478	14893
375.560	11321
375.643	16268
375.725	51506
375.807	177899
375.890	143972
375.972	75436
376.054	44891
376.136	70999
376.219	29948
376.301	59525
376.383	146639
376.465	55113
376.548	42500
376.630	50441
376.712	130108
376.794	53067
376.877	9416
376.959	7764
377.041	11044
377.123	27649
377.205	29694
377.287	8110
377.369	6790
377.452	9240
377.534	8378
377.616	8417
377.698	7835
377.780	6835
377.862	8875
377.944	8656
378.026	5651
378.108	6599
378.190	6415
378.272	7460
378.354	5680
378.436	6169
378.518	16732
378.600	52776
378.682	40098
378.764	76139
378.846	53592
378.928	21908
379.010	28013
379.091	14581
379.173	8672
379.255	7209
379.337	13043
379.419	41076
379.501	100028
379.583	38094
379.664	14923
379.746	30934
379.828	77881
379.910	98915
379.991	77594
380.073	15802
380.155	12962
380.237	9197
380.318	7979
380.400	8585
380.482	20344
380.564	29032
380.645	30239
380.727	26793
380.809	16743
380.890	12026
380.972	8955
381.053	9739
381.135	12349
381.217	29833
381.298	78210
381.380	38502
381.461	35948
381.543	136639
381.624	144688
381.706	29911
381.787	21063
381.869	23282
381.951	65622
382.032	208384
382.113	124382
382.195	34680
382.276	26192
382.358	53690
382.439	122543
382.521	132054
382.602	188610
382.684	93872
382.765	176739
382.846	188805
382.928	249180
383.009	131279
383.090	109406
383.172	358896
383.253	470968
383.334	178736
383.416	184955
383.497	92366
383.578	52425
383.659	99237
383.741	319458
383.822	681950
383.903	332877
383.984	148325
384.066	227127
384.147	134221
384.228	34362
384.309	27319
384.390	21947
384.471	16284
384.553	18890
384.634	25554
384.715	24735
384.796	13677
384.877	19662
384.958	69649
385.039	79396
385.120	30979
385.201	17148
385.282	22965
385.363	24104
385.444	19695
385.525	35141
385.606	100124
385.687	74011
385.768	26340
385.849	35356
385.930	111653
386.011	166314
386.092	47065
386.173	15621
386.254	15187
386.335	15702
386.416	17858
386.496	53056
386.577	75486
386.658	33921
386.739	22525
386.820	22530
386.901	19822
386.981	16328
387.062	12290
387.143	23252
387.224	77446
387.304	68217
387.385	29005
387.466	22901
387.547	28088
387.627	18769
387.708	36631
387.789	128413
387.869	137718
387.950	37769
388.031	12136
388.111	14582
388.192	37986
388.273	52826
388.353	27747
388.434	16772
388.514	30424
388.595	111817
388.676	138568
388.756	71244
388.837	73895
388.917	42095
388.998	13085
389.078	12288
389.159	11082
389.239	10158
389.320	18032
389.400	14955
389.480	34525
389.561	79154
389.641	35552
389.722	18147
389.802	27170
389.883	38583
389.963	87728
390.043	58253
390.124	25534
390.204	33749
390.284	87107
390.365	52957
390.445	74437
390.525	135427
390.605	103267
390.686	42750
390.766	17092
390.846	10682
390.927	7894
391.007	9568
391.087	12727
391.167	12866
391.247	10684
391.328	20677
391.408	30974
391.488	20821
391.568	9631
391.648	14690
391.728	19400
391.808	18276
391.888	20192
391.969	48232
392.049	68365
392.129	35980
392.209	41567
392.289	84665
392.369	50223
392.449	54532
392.529	33832
392.609	26238
392.689	33089
392.769	87043
392.849	71594
392.929	65995
393.009	135283
393.089	102405
393.169	104919
393.248	298442
393.328	809515
393.408	776243
393.488	267316
393.568	92148
393.648	48513
393.728	30557
393.807	22272
393.887	20443
393.967	16824
394.047	18587
394.127	21040
394.206	26332
394.286	79944
394.366	316408
394.446	305560
394.525	67834
394.605	22863
394.685	27739
394.764	69331
394.844	114722
394.924	73601
395.003	23118
395.083	15913
395.163	14637
395.242	14013
395.322	13754
395.402	9851
395.481	16382
395.561	49969
395.640	123809
395.720	94808
395.799	125822
395.879	82658
395.958	36637
396.038	111192
396.117	410945
396.197	413915
396.276	132901
396.356	58632
396.435	54818
396.515	37828
396.594	47438
396.673	91131
396.753	298848
396.832	728860
396.912	533373
396.991	152064
397.070	49036
397.150	28839
397.229	21646
397.308	32906
397.388	53105
397.467	25877
397.546	13468
397.625	10184
397.705	16602
397.784	16579
397.863	9556
397.942	7977
398.022	10510
398.101	43144
398.180	111302
398.259	56946
398.338	17355
398.417	12498
398.497	10397
398.576	10843
398.655	7661
398.734	7591
398.813	9217
398.892	39877
398.971	116233
399.050	50515
399.129	8715
399.208	7114
399.287	6781
399.366	5668
399.445	6448
399.524	6674
399.603	6749
399.682	16280
399.761	41272
399.840	121545
399.919	83434
399.998	14223
400.077	5410
400.156	5791
400.235	10054
400.313	7571
400.392	12152
400.471	44773
400.550	63357
400.629	18341
400.708	10585
400.786	12427
400.865	34969
400.944	34604
401.023	14711
401.102	4728
401.180	4647
401.259	6702
401.338	8290
401.416	11231
401.495	9849
401.574	9997
401.652	7773
401.731	11940
401.810	11550
401.888	5700
401.967	4056
402.046	5466
402.124	10234
402.203	14206
402.281	8711
402.360	13710
402.438	41349
402.517	28325
402.596	11395
402.674	10150
402.753	7313
402.831	6328
402.910	10254
402.988	36482
403.066	107133
403.145	54355
403.223	37182
403.302	88136
403.380	66139
403.459	65970
403.537	25744
403.615	11714
403.694	3469
403.772	4767
403.850	4443
403.929	3973
404.007	5922
404.085	14811
404.164	16046
404.242	6771
404.320	8148
404.398	13686
404.477	39993
404.555	164890
404.633	126349
404.711	20192
404.789	8438
404.868	8408
404.946	5835
405.024	3934
405.102	3935
405.180	3137
405.258	3599
405.336	5738
405.415	6524
405.493	15400
405.571	13994
405.649	5779
405.727	4320
405.805	9473
405.883	8990
405.961	11134
406.039	12888
406.117	6633
406.195	11543
406.273	46875
406.351	146246
406.429	79270
406.507	19545
406.585	8100
406.663	7610
406.740	10131
406.818	9238
406.896	5783
406.974	6708
407.052	16896
407.130	91570
407.208	111014
407.285	22691
407.363	6350
407.441	6055
407.519	4840
407.596	6990
407.674	17867
407.752	42966
407.830	47694
407.907	24544
407.985	8366
408.063	5068
408.141	5480
408.218	12331
408.296	12515
408.373	8913
408.451	7777
408.529	7061
408.606	3606
408.684	2818
408.762	3671
408.839	3144
408.917	3605
408.994	3672
409.072	4181
409.149	5526
409.227	9456
409.304	11895
409.382	9431
409.459	10269
409.537	15165
409.614	13834
409.692	8733
409.769	10193
409.846	16329
409.924	20964
410.001	15294
410.079	10042
410.156	8727
410.233	7633
410.311	5746
410.388	5132
410.465	7675
410.543	7923
410.620	5660
410.697	6532
410.775	7750
410.852	3986
410.929	9179
411.006	10335
411.083	7578
411.161	17790
411.238	19331
411.315	10540
411.392	4903
411.469	10019
411.547	9734
411.624	4664
411.701	4964
411.778	6388
411.855	13768
411.932	7692
412.009	4589
412.086	4796
412.163	6945
412.240	7638
412.317	11841
412.394	9034
412.471	4038
412.548	3459
412.625	4464
412.702	7800
412.779	14445
412.856	8688
412.933	4193
413.010	3895
413.087	10158
413.164	44193
413.241	53243
413.318	12460
413.395	10538
413.471	14009
413.548	5777
413.625	4883
413.702	7220
413.779	5311
413.855	2972
413.932	2254
414.009	3202
414.086	3018
414.162	4175
414.239	9785
414.316	42207
414.393	80581
414.469	25395
414.546	4693
414.623	3934
414.699	3999
414.776	5507
414.853	3941
414.929	4929
415.006	5057
415.082	7764
415.159	5569
415.236	4284
415.312	5450
415.389	10920
415.465	12717
415.542	6980
415.618	4323
415.695	9140
415.771	6055
415.848	5914
415.924	6104
416.000	4280
416.077	3881
416.153	1551
416.230	513
416.306	1916
416.383	3501
416.459	3503
416.535	1262
416.612	3147
416.688	3475
416.764	2896
416.841	2397
416.917	3812
416.993	3019
417.069	5526
417.146	7366
417.222	9093
417.298	5764
417.374	3630
417.451	5218
417.527	6876
417.603	6973
417.679	4434
417.755	4564
417.831	2556
417.908	2604
417.984	3006
418.060	2785
418.136	11993
418.212	14701
418.288	5561
418.364	3785
418.440	3929
418.516	8491
418.592	14280
418.668	21744
418.744	28576
418.820	19697
418.896	5959
418.972	3149
419.048	4221
419.124	13968
419.200	9511
419.276	3340
419.352	1925
419.428	3051
419.504	5052
419.579	6339
419.655	5439
419.731	6292
419.807	19490
419.883	33350
419.959	20483
420.034	6641
420.110	15707
420.186	54081
420.262	37536
420.337	8566
420.413	7354
420.489	4238
420.565	4128
420.640	3648
420.716	5805
420.792	3134
420.867	4747
420.943	4948
421.019	10162
421.094	8571
421.170	4969
421.245	3973
421.321	5771
421.397	6555
421.472	11312
421.548	23304
421.623	18518
421.699	9670
421.774	10022
421.850	9575
421.925	15754
422.001	14566
422.076	13454
422.152	17567
422.227	26543
422.302	31677
422.378	47350
422.453	87007
422.529	191840
422.604	409752
422.679	515275
422.755	407091
422.830	191092
422.905	84118
422.981	48341
423.056	31559
423.131	23660
423.207	18634
423.282	18082
423.357	24997
423.432	18007
423.508	18688
423.583	34075
423.658	23945
423.733	11942
423.808	13238
423.883	13216
423.959	12222
424.034	10440
424.109	8073
424.184	6202
424.259	4557
424.334	5503
424.409	4774
424.484	5127
424.559	5234
424.634	5187
424.709	7882
424.784	9023
424.859	6154
424.934	11818
425.009	42002
425.084	63510
425.159	22667
425.234	6047
425.309	3881
425.384	5143
425.459	4184
425.534	3794
425.609	5553
425.683	4351
425.758	3860
425.833	5245
425.908	7994
425.983	27965
426.058	67283
426.132	28249
426.207	9002
426.282	14412
426.357	11842
426.431	5002
426.506	4874
426.581	5011
426.655	5000
426.730	3733
426.805	4000
426.879	5764
426.954	6194
427.029	13783
427.103	63814
427.178	132120
427.253	53913
427.327	9732
427.402	10325
427.476	19289
427.551	8210
427.625	7610
427.700	7101
427.774	5480
427.849	7440
427.923	4098
427.998	4974
428.072	7043
428.147	16131
428.221	58296
428.296	141519
428.370	66422
428.444	13558
428.519	19439
428.593	35296
428.667	29110
428.742	35463
428.816	34817
428.890	105441
428.965	132683
429.039	46452
429.113	38709
429.188	14847
429.262	5426
429.336	13099
429.410	34047
429.485	23929
429.559	30908
429.633	22403
429.707	8926
429.781	26306
429.855	126569
429.930	161621
430.004	96960
430.078	142195
430.152	120055
430.226	180769
430.300	157085
430.374	29733
430.448	14476
430.522	48316
430.596	122775
430.670	72980
430.744	160615
430.818	196539
430.892	40901
430.966	9229
431.040	5817
431.114	3644
431.188	3774
431.262	4519
431.336	4888
431.410	16793
431.484	42723
431.557	25432
431.631	6301
431.705	6827
431.779	32319
431.853	123098
431.927	78215
432.000	12325
432.074	5534
432.148	8386
432.222	7583
432.295	4159
432.369	4598
432.443	10473
432.516	62532
432.590	132399
432.664	49695
432.737	8124
432.811	2888
432.885	1827
432.958	2461
433.032	1806
433.106	2607
433.179	2117
433.253	1815
433.326	2217
433.400	2040
433.473	2532
433.547	1367
433.620	3455
433.694	8759
433.767	9124
433.841	5135
433.914	1880
433.988	1979
434.061	2933
434.134	3554
434.208	1414
434.281	1455
434.355	1829
434.428	2586
434.501	2133
434.575	2534
434.648	4097
434.721	2195
434.795	2551
434.868	1620
434.941	1589
435.014	1440
435.088	2472
435.161	4701
435.234	8434
435.307	9864
435.381	5704
435.454	5679
435.527	8682
435.600	7852
435.673	5259
435.746	4463
435.819	4660
435.892	3489
435.966	3214
436.039	3465
436.112	3725
436.185	2532
436.258	1430
436.331	883
436.404	1344
436.477	2056
436.550	1919
436.623	2968
436.696	2329
436.769	3913
436.842	3369
436.915	4915
436.987	6566
437.060	4652
437.133	2757
437.206	2691
437.279	3181
437.352	2694
437.425	1525
437.498	4441
437.570	10144
437.643	10552
437.716	3149
437.789	1947
437.861	9244
437.934	24563
438.007	11169
438.080	3425
438.152	4091
438.225	11943
438.298	74074
438.370	180989
438.443	78916
438.516	23589
438.588	6454
438.661	2796
438.734	3201
438.806	4942
438.879	6516
438.951	8070
439.024	12833
439.096	5827
439.169	3223
439.241	2318
439.314	3107
439.386	7976
439.459	11743
439.531	16757
439.604	7539
439.676	3022
439.749	2095
439.821	1949
439.893	2328
439.966	3653
440.038	5008
440.110	6234
440.183	3678
440.255	3423
440.327	6903
440.400	37365
440.472	130263
440.544	82864
440.617	13866
440.689	10784
440.761	14632
440.833	21322
440.905	13661
440.978	3858
441.050	1966
441.122	2201
441.194	2752
441.266	3104
441.338	2545
441.411	8395
441.483	47741
441.555	66151
441.627	16924
441.699	11087
441.771	11706
441.843	4710
441.915	3276
441.987	2744
442.059	3059
442.131	6500
442.203	10532
442.275	12814
442.347	11555
442.419	15569
442.491	75454
442.563	163143
442.635	74423
442.706	50839
442.778	36211
442.850	8421
442.922	4841
442.994	7654
443.066	11218
443.137	8655
443.209	7990
443.281	12317
443.353	26460
443.425	96479
443.496	289674
443.568	272035
443.640	103074
443.711	24075
443.783	10099
443.855	8544
443.926	4746
443.998	6904
444.070	9475
444.141	8503
444.213	10595
444.285	14096
444.356	13607
444.428	12045
444.499	5901
444.571	3428
444.642	3306
444.714	5279
444.785	11111
444.857	15740
444.928	34662
445.000	21426
445.071	24950
445.143	28404
445.214	17966
445.285	30024
445.357	79555
445.428	209511
445.500	408850
445.571	281652
445.642	148546
445.714	67176
445.785	56986
445.856	21074
445.928	15773
445.999	14061
446.070	10622
446.141	11268
446.213	14132
446.284	8747
446.355	8812
446.426	6237
446.497	5700
446.569	11740
446.640	17865
446.711	13575
446.782	5441
446.853	10115
446.924	9406
446.995	6150
447.066	7281
447.138	13374
447.209	7422
447.280	2247
447.351	1841
447.422	2745
447.493	6332
447.564	8122
447.635	10275
447.706	5162
447.777	2644
447.847	2588
447.918	2649
447.989	7384
448.060	10934
448.131	24955
448.202	22479
448.273	14996
448.344	6864
448.414	3331
448.485	3818
448.556	2754
448.627	1835
448.698	2077
448.768	1639
448.839	3947
448.910	11894
448.981	11930
449.051	5604
449.122	3340
449.193	2077
449.263	3791
449.334	2763
449.405	5228
449.475	14040
449.546	12211
449.616	14515
449.687	11587
449.758	4314
449.828	3255
449.899	2406
449.969	2621
450.040	3133
450.110	5513
450.181	7713
450.251	4392
450.322	2972
450.392	4001
450.463	3216
450.533	2274
450.604	3328
450.674	2799
450.744	3578
450.815	3080
450.885	3068
450.955	3038
451.026	2894
451.096	4231
451.166	5468
451.237	16934
451.307	38418
451.377	16741
451.447	3164
451.518	3000
451.588	2779
451.658	2858
451.728	8969
451.799	40132
451.869	44568
451.939	11743
452.009	2971
452.079	2497
452.149	4376
452.219	10976
452.289	45625
452.360	36245
452.430	8680
452.500	6661
452.570	8291
452.640	13050
452.710	36035
452.780	51447
452.850	35166
452.920	30714
452.990	12145
453.060	7153
453.129	9947
453.199	14531
453.269	47672
453.339	100907
453.409	154199
453.479	151681
453.549	223304
453.619	237948
453.688	101358
453.758	17480
453.828	6919
453.898	5568
453.968	5075
454.037	3723
454.087	3580
454.107	3476
454.168	3175
454.177	3074
454.247	2675
454.249	2745
454.316	3521
454.330	4371
454.386	6935
454.411	14349
454.456	24764
454.492	30475
454.525	35494
454.574	19102
454.595	12232
454.655	6135
454.665	5338
454.734	8980
454.736	9492
454.804	19845
454.817	26386
454.873	46856
454.898	49823
454.943	52600
454.979	36749
455.013	23745
455.060	15177
455.082	13096
455.141	17041
455.152	16815
455.221	38555
455.222	39320
455.291	56940
455.303	51799
455.360	31481
455.384	29775
455.430	28230
455.465	31078
455.499	31511
455.546	42028
455.569	43879
455.627	30044
455.638	28339
455.707	7940
455.708	7976
455.777	5081
455.789	5203
455.846	5442
455.869	5336
455.916	5174
455.950	5620
455.985	5710
456.031	6377
456.054	6612
456.112	5429
456.124	5344
456.193	5611
456.193	5550
456.262	8970
456.274	9837
456.332	12783
456.355	13708
456.401	12397
456.436	10131
456.470	8497
456.516	6153
456.540	5442
456.597	4784
456.609	4575
456.678	4997
456.678	4961
456.747	4374
456.759	4301
456.817	3985
456.840	4065
456.886	4281
456.920	4638
456.955	5312
457.001	6253
457.024	7878
457.082	13292
457.093	14141
457.162	20941
457.163	21099
457.232	21330
457.243	20228
457.301	12334
457.324	9054
457.370	6611
457.405	6346
457.439	6344
457.485	7237
457.508	7641
457.566	8247
457.577	8449
457.646	10927
457.647	11003
457.715	19845
457.727	21900
457.784	34558
457.808	42393
457.853	50324
457.889	55729
457.922	51537
457.969	36084
457.991	39453
458.050	54008
458.060	56334
458.129	87581
458.130	88541
458.198	73829
458.211	66338
458.267	38126
458.292	26377
458.336	19850
458.372	19450
458.405	28004
458.453	43364
458.474	55186
458.533	95323
458.543	97967
458.611	138261
458.614	139129
458.680	76620
458.694	59305
458.749	30646
458.775	21969
458.818	15236
458.855	13297
458.887	12335
458.936	11315
458.955	10932
459.016	11419
459.024	11493
459.093	11451
459.097	11512
459.162	12887
459.177	13228
459.230	15055
459.257	16397
459.299	16232
459.338	15485
459.368	15777
459.418	17006
459.437	16198
459.499	12556
459.505	12422
459.574	10646
459.579	10626
459.643	10457
459.659	10412
459.711	11367
459.740	11901
459.780	12997
459.820	14573
459.849	14891
459.900	15269
459.917	14897
459.981	13749
459.986	13651
460.054	11293
460.061	11138
460.123	13021
460.141	13612
460.191	17175
460.222	19862
460.260	21632
460.302	24411
460.328	22115
460.382	15146
460.397	15020
460.462	14135
460.465	14263
460.534	19516
460.543	20160
460.602	48455
460.623	59303
460.671	86839
460.703	110386
460.739	98543
460.783	76657
460.808	63141
460.864	19390
460.876	16869
460.944	14296
460.945	14258
461.013	14460
461.024	14467
461.081	16300
461.104	17468
461.150	16363
461.184	15060
461.218	14454
461.264	13207
461.286	13349
461.345	14229
461.355	14274
461.423	15537
461.425	15543
461.491	16733
461.505	17142
461.559	37531
461.585	47467
461.628	79400
461.665	109513
461.696	118359
461.745	138231
461.764	117617
461.825	33900
461.832	32950
461.901	21133
461.905	20981
461.969	18014
461.985	17382
462.037	16074
462.065	15104
462.105	19602
462.145	24605
462.173	36697
462.225	59406
462.241	65939
462.305	95986
462.310	92903
462.378	43591
462.385	36998
462.446	23059
462.465	19611
462.514	17471
462.545	17559
462.582	17246
462.625	16366
462.650	16060
462.705	15631
462.718	16708
462.785	22124
462.786	22331
462.854	34536
462.865	36680
462.922	44811
462.945	48227
462.990	33837
463.025	20543
463.058	18112
463.104	15145
463.126	15056
463.184	16138
463.194	16555
463.262	18892
463.264	19000
463.330	19663
463.344	19595
463.398	21736
463.424	22813
463.466	23393
463.504	24330
463.533	24528
463.583	24206
463.601	25416
463.663	29359
463.669	30289
463.737	41350
463.743	42386
463.805	68512
463.823	75986
463.873	114955
463.903	139450
463.940	144876
463.982	152462
464.008	119527
464.062	43029
464.076	39489
464.142	19791
464.144	19653
464.211	18575
464.221	18546
464.279	20695
464.301	21585
464.347	24946
464.381	27467
464.414	31150
464.461	36014
464.482	36404
464.540	37895
464.550	36340
464.617	24196
464.620	23727
464.685	27474
464.699	28489
464.753	29308
464.779	29596
464.820	29599
464.859	29283
464.888	31164
464.938	34613
464.956	35351
465.018	38170
465.023	37231
465.091	23761
465.098	22302
465.158	22639
465.177	22858
465.226	24237
465.257	24958
465.293	27415
465.336	30325
465.361	34300
465.416	43359
465.428	47264
465.495	67971
465.496	68406
465.563	119365
465.575	128145
465.631	153338
465.654	164352
465.698	96092
465.734	36994
465.765	31444
465.813	23177
465.833	22655
465.893	22627
465.900	22695
465.968	23139
465.972	23120
466.035	23268
466.052	23318
466.102	24481
466.131	25073
466.170	25564
466.210	25867
466.237	26099
466.290	26569
466.304	27144
466.369	29359
466.372	29503
466.439	32243
466.449	32572
466.506	37752
466.528	39634
466.573	61559
466.607	77930
466.641	122184
466.687	183452
466.708	201257
466.766	250097
466.775	229768
466.842	72913
466.845	65318
466.909	44697
466.925	39915
466.977	36014
467.004	34023
467.044	34382
467.083	34657
467.111	36107
467.163	38612
467.178	39430
467.242	42473
467.245	42539
467.312	42165
467.321	42031
467.379	43597
467.400	44033
467.446	49942
467.480	54042
467.559	44742
467.638	37421
467.717	40107
467.796	48558
467.875	57111
467.955	49731
468.034	81204
468.113	208735
468.192	301979
468.271	67451
468.350	44623
468.429	50469
468.508	50722
468.588	41274
468.667	42635
468.746	48328
468.825	44091
468.904	34085
468.983	47258
469.062	82049
469.141	99557
469.220	34863
469.299	32435
469.378	33948
469.456	33933
469.535	32424
469.614	34598
469.693	40060
469.772	59548
469.851	88616
469.930	55536
470.009	34175
470.088	35216
470.166	43992
470.245	65317
470.324	81365
470.403	55462
470.482	40290
470.560	35313
470.639	40896
470.718	50628
470.797	40236
470.875	50178
470.954	77573
471.033	82956
471.111	28533
471.190	25680
471.269	24865
471.347	26590
471.426	30319
471.505	34228
471.583	31198
471.662	28882
471.740	26293
471.819	27112
471.898	26578
471.976	26172
472.055	27145
472.133	35508
472.212	52113
472.290	55102
472.369	32344
472.447	26046
472.526	24425
472.604	27342
472.683	33157
472.761	37518
472.839	32285
472.918	29011
472.996	32253
473.075	39503
473.153	37757
473.231	32077
473.310	39860
473.388	38789
473.466	33355
473.545	38392
473.623	56564
473.701	57035
473.780	30779
473.858	31608
473.936	37875
474.014	30605
474.093	37878
474.171	66545
474.249	99029
474.327	54588
474.405	26773
474.484	27139
474.562	30677
474.640	29378
474.718	32349
474.796	31610
474.874	27838
474.952	25250
475.030	25923
475.108	27654
475.187	31248
475.265	38436
475.343	64325
475.421	71844
475.499	32083
475.577	33972
475.655	51292
475.733	121864
475.811	224912
475.889	196378
475.966	117444
476.044	36000
476.122	52390
476.200	68896
476.278	51293
476.356	31935
476.434	35484
476.512	47851
476.590	68110
476.667	53045
476.745	30175
476.823	33600
476.901	32666
476.979	34589
477.056	31383
477.134	35246
477.212	36557
477.290	32257
477.367	26720
477.445	27707
477.523	27860
477.601	29538
477.678	29924
477.756	41846
477.834	49160
477.911	30926
477.989	31457
478.066	32055
478.144	38822
478.222	49538
478.299	87213
478.377	71995
478.454	29626
478.532	27776
478.609	32111
478.687	35292
478.764	27325
478.842	33288
478.919	39230
478.997	34978
479.074	29160
479.152	40222
479.229	53341
479.307	31600
479.384	24965
479.461	24022
479.539	30130
479.616	37828
479.694	31617
479.771	36365
479.848	41146
479.926	61105
480.003	61398
480.080	29381
480.157	26820
480.235	28203
480.312	29932
480.389	37842
480.467	71485
480.544	88825
480.621	38934
480.698	36501
480.775	43986
480.853	45144
480.930	34295
481.007	34750
481.084	42049
481.161	43815
481.238	40968
481.315	29533
481.392	28283
481.470	32047
481.547	34952
481.624	31166
481.701	31591
481.778	33155
481.855	40635
481.932	65763
482.009	118327
482.086	75782
482.163	37472
482.240	60155
482.317	111738
482.393	79554
482.470	36643
482.547	36452
482.624	31106
482.701	34448
482.778	32987
482.855	27610
482.932	26902
483.009	28192
483.085	32190
483.162	39689
483.239	40805
483.316	32361
483.393	32266
483.469	31471
483.546	41267
483.623	42790
483.699	31776
483.776	35217
483.853	42161
483.930	62266
484.006	176106
484.083	286724
484.160	83612
484.236	74976
484.313	65076
484.389	55569
484.466	49669
484.543	48336
484.619	53820
484.696	58073
484.772	65264
484.849	71437
484.925	50105
485.002	46341
485.078	52643
485.155	54176
485.231	46712
485.308	46382
485.384	52161
485.461	74656
485.537	159115
485.614	188214
485.690	53769
485.766	46417
485.843	55116
485.919	96530
485.995	100166
486.072	44209
486.148	41485
486.224	42182
486.301	49835
486.377	62338
486.453	60782
486.530	51641
486.606	58862
486.682	68973
486.758	120770
486.835	150709
486.911	112155
486.987	210047
487.063	228329
487.139	290030
487.215	178253
487.292	66921
487.368	53757
487.444	65246
487.520	83906
487.596	83445
487.672	129603
487.748	368567
487.824	540665
487.900	175996
487.976	73562
488.052	73269
488.128	85428
488.204	68704
488.280	57722
488.356	76271
488.432	197895
488.508	308223
488.584	82826
488.660	52613
488.736	51054
488.812	58579
488.888	74700
488.964	111034
489.039	292791
489.115	449307
489.191	228789
489.267	57678
489.343	48313
489.418	38721
489.494	37306
489.570	37527
489.646	40849
489.722	43978
489.797	46088
489.873	92002
489.949	233379
490.024	176883
490.100	43337
490.176	42715
490.251	63233
490.327	85400
490.403	43751
490.478	34731
490.554	31157
490.629	32060
490.705	34150
490.781	39657
490.856	42801
490.932	50077
491.007	52760
491.083	47572
491.158	45114
491.234	67210
491.309	175178
491.385	170332
491.460	48903
491.536	51113
491.611	45713
491.686	54837
491.762	81643
491.837	193696
491.913	315126
491.988	459933
492.063	541340
492.139	141180
492.214	74609
492.289	36147
492.365	36845
492.440	47106
492.515	50621
492.590	44581
492.666	36059
492.741	59709
492.816	98685
492.891	46064
492.967	30524
493.042	29960
493.117	29001
493.192	29979
493.267	41263
493.342	79610
493.418	87286
493.493	32555
493.568	28441
493.643	31226
493.718	48952
493.793	88968
493.868	92696
493.943	53071
494.018	34761
494.093	33941
494.168	34154
494.243	26686
494.318	26903
494.393	26258
494.468	26250
494.543	30335
494.618	38023
494.693	33039
494.768	31779
494.842	33383
494.917	27917
494.992	31873
495.067	28785
495.142	28460
495.217	32547
495.292	36690
495.366	44707
495.441	60657
495.516	76206
495.591	112365
495.665	423093
495.740	971433
495.815	331281
495.890	60705
495.964	46332
496.039	44856
496.114	41046
496.188	45730
496.263	44929
496.338	42773
496.412	51100
496.487	59198
496.561	66946
496.636	65386
496.710	48570
496.785	57759
496.860	65900
496.934	48139
497.009	49581
497.083	44992
497.158	45808
497.232	59954
497.307	78104
497.381	56163
497.455	74536
497.530	104514
497.604	64557
497.679	72211
497.753	120973
497.827	152186
497.902	126373
497.976	140639
498.050	338648
498.125	1301865
498.199	1179517
498.273	200688
498.348	144426
498.422	109453
498.496	111072
498.570	97539
498.645	73564
498.719	75090
498.793	97819
498.867	157961
498.941	194748
499.016	547731
499.090	1414504
499.164	417560
499.238	61962
499.312	55705
499.386	72255
499.460	65805
499.534	61680
499.609	78570
499.683	122972
499.757	114544
499.831	248600
499.905	990356
499.979	827985
500.053	155276
500.127	156116
500.201	111675
500.275	68241
500.349	63890
500.422	76876
500.496	119611
500.570	250338
500.644	582478
500.718	1003887
500.792	197436
500.866	64327
500.940	85541
501.013	71387
501.087	74685
501.161	130243
501.235	167933
501.309	356393
501.382	974366
501.456	747132
501.530	191928
501.603	325383
501.677	112702
501.751	55098
501.825	66882
501.898	134503
501.972	403638
502.046	221847
502.119	72250
502.193	178622
502.266	437732
502.340	182866
502.413	189376
502.487	370557
502.561	211420
502.634	64921
502.708	54026
502.781	47942
502.855	36760
502.928	33288
503.002	34433
503.075	34101
503.149	41417
503.222	41871
503.295	50122
503.369	61374
503.442	85659
503.516	305411
503.589	769112
503.662	454611
503.736	147769
503.809	355664
503.882	265243
503.956	395798
504.029	337642
504.102	244787
504.175	295950
504.249	107447
504.322	70971
504.395	57640
504.468	40321
504.542	40588
504.615	29935
504.688	29267
504.761	32701
504.834	42262
504.907	53971
504.980	88563
505.053	43432
505.127	57641
505.200	62002
505.273	64856
505.346	38364
505.419	30472
505.492	27024
505.565	21745
505.638	22858
505.711	24358
505.784	26740
505.857	24409
505.930	28130
506.003	27924
506.076	32598
506.149	48301
506.221	62419
506.294	51504
506.367	149927
506.440	508937
506.513	235336
506.586	65028
506.659	37044
506.731	30592
506.804	44227
506.877	65568
506.950	39767
507.022	27950
507.095	45656
507.168	54385
507.241	33718
507.313	25858
507.386	34309
507.459	50791
507.531	30100
507.604	25244
507.677	25157
507.749	21867
507.822	35221
507.894	60190
507.967	55942
508.040	29436
508.112	26838
508.185	27195
508.257	29733
508.330	48842
508.402	29379
508.475	28988
508.547	31829
508.620	33469
508.692	62780
508.765	34012
508.837	22572
508.909	21826
508.982	23048
509.054	31301
509.127	25550
509.199	21791
509.271	20450
509.344	20029
509.416	19811
509.488	22615
509.560	22865
509.633	28103
509.705	34814
509.777	32811
509.849	51745
509.922	29796
509.994	20978
510.066	22669
510.138	22273
510.210	33112
510.283	32834
510.355	28557
510.427	27151
510.499	28432
510.571	28790
510.643	28159
510.715	56010
510.787	46769
510.859	30907
510.931	41575
511.003	56226
511.076	45707
511.148	25370
511.219	27276
511.291	55999
511.363	65192
511.435	24720
511.507	21710
511.579	23259
511.651	23798
511.723	23199
511.795	23280
511.867	24667
511.939	37050
512.010	99415
512.082	65400
512.154	29607
512.226	27420
512.298	35958
512.369	51259
512.441	42186
512.513	48145
512.585	33423
512.656	34112
512.728	42777
512.800	26770
512.871	29400
512.943	28942
513.015	23976
513.086	28611
513.158	33473
513.230	36814
513.301	65685
513.373	71737
513.444	34383
513.516	26953
513.588	28369
513.659	34989
513.731	48125
513.802	41757
513.874	100472
513.945	181636
514.016	48006
514.088	27929
514.159	35916
514.231	49234
514.302	51398
514.374	33121
514.445	39554
514.516	100543
514.588	65184
514.659	41521
514.730	91953
514.802	60140
514.873	38962
514.944	37302
515.016	34971
515.087	44480
515.158	63824
515.229	83588
515.301	39198
515.372	45746
515.443	32603
515.514	26773
515.585	24159
515.656	25777
515.728	26272
515.799	26152
515.870	28323
515.941	31533
516.012	31122
516.083	37543
516.154	47927
516.225	73251
516.296	64960
516.367	57408
516.438	67527
516.509	87355
516.580	120273
516.651	376144
516.722	1344660
516.793	496505
516.864	127792
516.935	119124
517.006	132597
517.077	180683
517.148	404575
517.219	1392570
517.289	1899167
517.360	635987
517.431	184672
517.502	63441
517.573	56788
517.643	52480
517.714	57226
517.785	59121
517.856	66007
517.926	80745
517.997	98180
518.068	124879
518.138	159465
518.209	234353
518.280	873583
518.350	2904747
518.421	946406
518.492	146578
518.562	94772
518.633	94889
518.703	92053
518.774	149695
518.845	348416
518.915	315232
518.986	120214
519.056	96956
519.127	165669
519.197	245828
519.268	548685
519.338	290229
519.408	82645
519.479	101233
519.549	69537
519.620	46016
519.690	35386
519.760	34829
519.831	39904
519.901	39927
519.971	31811
520.042	38653
520.112	47950
520.182	51645
520.253	55397
520.323	34909
520.393	35623
520.463	42807
520.534	38697
520.604	61410
520.674	44417
520.744	52436
520.814	75763
520.885	79612
520.955	162379
521.025	604906
521.095	188500
521.165	44075
521.235	40379
521.305	35052
521.375	30332
521.445	37385
521.515	54900
521.585	62609
521.655	57053
521.725	49932
521.795	42228
521.865	31021
521.935	55496
522.005	48088
522.075	31350
522.145	35647
522.215	44610
522.285	66229
522.355	93685
522.424	187519
522.494	145539
522.564	70417
522.634	150734
522.704	415446
522.774	126135
522.843	42766
522.913	41929
522.983	55102
523.053	41796
523.122	41319
523.192	63520
523.262	249858
523.331	200317
523.401	40442
523.471	28106
523.540	32082
523.610	24485
523.680	25163
523.749	26742
523.819	38743
523.888	38120
523.958	25469
524.027	28304
524.097	32424
524.166	29877
524.236	36879
524.305	33322
524.375	27592
524.444	25751
524.514	29917
524.583	31954
524.653	41552
524.722	46424
524.791	29740
524.861	29706
524.930	27082
524.999	32146
525.069	47049
525.138	39293
525.207	49031
525.277	33286
525.346	33246
525.415	31293
525.484	34109
525.554	44793
525.623	41208
525.692	37500
525.761	42629
525.830	45814
525.900	55631
525.969	83054
526.038	119781
526.107	233984
526.176	650473
526.245	504147
526.314	192030
526.383	356656
526.452	444084
526.522	756072
526.591	729861
526.660	268977
526.729	133655
526.797	134667
526.867	270245
526.935	1099992
527.004	1682989
527.073	801853
527.142	102789
527.211	54285
527.280	55320
527.349	51976
527.418	29417
527.487	31267
527.555	26783
527.624	25645
527.693	24691
527.762	27328
527.831	25236
527.899	26553
527.968	27219
528.037	28070
528.106	37209
528.174	74251
528.243	54737
528.312	90786
528.380	109952
528.449	35363
528.518	25264
528.586	20808
528.655	22071
528.723	21622
528.792	22331
528.861	27373
528.929	23102
528.998	21025
529.066	21343
529.135	23170
529.203	22152
529.272	25035
529.340	26747
529.409	29230
529.477	26457
529.545	38490
529.614	39496
529.682	45770
529.751	50983
529.819	49125
529.887	38635
529.956	29990
530.024	32068
530.092	27462
530.161	37260
530.229	59930
530.297	34137
530.365	28926
530.434	26600
530.502	26750
530.570	27306
530.638	25078
530.707	30377
530.775	30478
530.843	26639
530.911	27988
530.979	26856
531.047	27897
531.115	28646
531.183	26905
531.252	27249
531.320	28735
531.388	26589
531.456	28579
531.524	27159
531.592	29841
531.660	33844
531.728	29682
531.796	28663
531.864	28464
531.932	30978
532.000	30067
532.067	34028
532.135	36100
532.203	40147
532.271	44482
532.339	73183
532.407	199327
532.475	99526
532.542	55970
532.610	55990
532.678	75157
532.746	302854
532.814	669905
532.881	153510
532.949	45092
533.017	36202
533.084	33226
533.152	31705
533.220	32721
533.287	37680
533.355	29838
533.423	30022
533.490	30974
533.558	30992
533.625	33212
533.693	34446
533.761	33128
533.828	34341
533.896	35390
533.963	67066
534.031	75983
534.098	109857
534.166	49535
534.233	31280
534.300	33099
534.368	34019
534.435	33428
534.503	33637
534.570	35344
534.637	37547
534.705	43157
534.772	46702
534.840	72703
534.907	304755
534.974	346714
535.041	59914
535.109	49532
535.176	32100
535.243	30648
535.310	32737
535.378	31814
535.445	27588
535.512	26534
535.579	27795
535.646	27359
535.714	28141
535.781	30962
535.848	31942
535.915	32360
535.982	29744
536.049	30069
536.116	31853
536.183	30966
536.250	34002
536.317	33642
536.384	40778
536.451	64164
536.518	62057
536.585	45069
536.652	57694
536.719	83934
536.786	63725
536.853	49908
536.920	75624
536.987	117571
537.053	102263
537.120	372141
537.187	260991
537.254	43447
537.321	35973
537.388	33781
537.454	28280
537.521	27657
537.588	28541
537.654	32388
537.721	33543
537.788	32609
537.855	30154
537.921	32068
537.988	33549
538.055	32635
538.121	32662
538.188	37255
538.254	60840
538.321	122740
538.388	63358
538.454	35740
538.521	31767
538.587	29353
538.654	29212
538.720	29244
538.787	30344
538.853	33034
538.920	43371
538.986	43090
539.053	35706
539.119	37078
539.185	35640
539.252	43850
539.318	69404
539.385	45393
539.451	40224
539.517	40401
539.583	46452
539.650	115756
539.716	269515
539.782	67818
539.849	36421
539.915	36324
539.981	38873
540.047	46647
540.114	41704
540.180	40843
540.246	41961
540.312	59256
540.378	121295
540.444	103932
540.510	116504
540.576	302219
540.643	81722
540.709	35460
540.775	33842
540.841	33501
540.907	46502
540.973	59737
541.039	60977
541.105	64444
541.171	37754
541.237	35656
541.303	35925
541.369	42615
541.435	58493
541.500	102504
541.566	56992
541.632	32070
541.698	29602
541.764	30566
541.830	30166
541.896	30337
541.961	31830
542.027	34048
542.093	33974
542.159	36702
542.224	40681
542.290	55565
542.356	103672
542.421	107527
542.487	47422
542.553	37794
542.618	41543
542.684	37807
542.750	37399
542.815	44367
542.881	78601
542.947	274899
543.012	162857
543.078	37159
543.143	34204
543.209	36456
543.274	35680
543.340	42845
543.405	106122
543.471	149182
543.536	37803
543.602	33048
543.667	32275
543.732	30683
543.798	29956
543.863	30036
543.928	29033
543.994	27870
544.059	30206
544.124	29945
544.190	31303
544.255	32088
544.320	33578
544.386	37380
544.451	51658
544.516	59426
544.581	57777
544.646	173547
544.712	230723
544.777	50795
544.842	44256
544.907	48092
544.972	39230
545.037	38746
545.102	42319
545.168	44204
545.233	44980
545.298	48493
545.363	55446
545.428	60082
545.493	106816
545.558	219938
545.623	79643
545.688	44698
545.753	42423
545.818	40799
545.883	42452
545.947	41836
546.012	48847
546.077	49199
546.142	47087
546.207	48106
546.272	65013
546.337	64241
546.401	49501
546.466	47768
546.531	47345
546.596	54760
546.661	53284
546.725	51044
546.790	48902
546.855	52530
546.919	53747
546.984	58858
547.049	64767
547.113	76770
547.178	71651
547.243	82192
547.307	90852
547.372	109469
547.436	111464
547.501	95345
547.565	102671
547.630	112447
547.695	106588
547.759	114482
547.823	104551
547.888	92341
547.952	94796
548.017	98849
548.081	110358
548.146	129195
548.210	116024
548.274	107130
548.339	101909
548.403	94186
548.468	89763
548.532	90841
548.596	92671
548.660	92951
548.725	104752
548.789	121806
548.853	117800
548.917	104671
548.982	126312
549.046	115593
549.110	86081
549.174	86737
549.238	95194
549.303	100079
549.367	104746
549.431	100602
549.495	94875
549.559	95735
549.623	108263
549.687	125086
549.751	143346
549.815	140168
549.879	134111
549.943	128658
550.007	136183
550.071	140280
550.135	141181
550.199	124151
550.263	117637
550.327	119837
550.391	142082
550.455	127459
550.519	130174
550.582	138551
550.646	171433
550.710	171820
550.774	151487
550.838	153330
550.901	158008
550.965	168029
551.029	176531
551.093	192251
551.156	224541
551.220	328507
551.284	344891
551.347	222876
551.411	310863
551.475	290841
551.538	167083
551.602	151810
551.666	142613
551.729	132562
551.793	130763
551.856	127562
551.920	126567
551.983	127115
552.047	124254
552.110	125078
552.174	126210
552.237	129025
552.301	119624
552.364	115006
552.428	113641
552.491	118997
552.554	121024
552.618	120944
552.681	126834
552.745	130273
552.808	163086
552.871	191330
552.934	141707
552.998	124745
553.061	124194
553.124	115929
553.187	112485
553.251	116275
553.314	117979
553.377	115656
553.440	125540
553.503	145119
553.567	159733
553.630	123557
553.693	121448
553.756	121546
553.819	118028
553.882	112829
553.945	113072
554.008	112299
554.071	114299
554.134	114625
554.197	108734
554.260	105840
554.323	112644
554.386	112507
554.449	114966
554.512	112920
554.575	110050
554.638	111987
554.701	108440
554.764	105525
554.827	104265
554.889	98792
554.952	93035
555.015	92451
555.078	94225
555.141	96227
555.203	92727
555.266	93801
555.329	94422
555.391	91151
555.454	95504
555.517	92615
555.580	85813
555.642	81707
555.705	79549
555.768	82803
555.830	81656
555.893	76422
555.955	75933
556.018	76891
556.080	77260
556.143	76823
556.206	78278
556.268	80284
556.330	80930
556.393	77224
556.455	76919
556.518	100426
556.580	96458
556.643	69770
556.705	67853
556.767	68250
556.830	69673
556.892	76709
556.955	104150
557.017	76421
557.079	67244
557.142	66986
557.204	76189
557.266	128315
557.328	98190
557.391	61845
557.453	58134
557.515	60150
557.577	70495
557.639	72570
557.701	60021
557.764	59272
557.826	63073
557.888	67560
557.950	68006
558.012	72713
558.074	90119
558.136	195766
558.198	431447
558.260	154230
558.322	80824
558.384	82236
558.446	89891
558.508	104204
558.570	127254
558.632	190055
558.694	246770
558.756	259504
558.818	787171
558.880	1665808
558.942	505490
559.003	471586
559.065	216797
559.127	106657
559.189	104665
559.251	114227
559.312	154456
559.374	378604
559.436	1182933
559.498	498674
559.559	120500
559.621	102789
559.683	116040
559.744	192991
559.806	613609
559.868	792678
559.929	162670
559.991	112348
560.052	166726
560.114	427486
560.176	251018
560.237	260284
560.299	388050
560.360	95297
560.422	57807
560.483	52423
560.545	48639
560.606	47328
560.667	46103
560.729	45273
560.790	44152
560.852	44562
560.913	43972
560.974	44164
561.036	42626
561.097	45117
561.158	44924
561.220	46714
561.281	46425
561.342	48815
561.403	54102
561.465	68948
561.526	157782
561.587	172258
561.648	57334
561.709	45601
561.771	43269
561.832	44407
561.893	43076
561.954	41573
562.015	42446
562.076	39892
562.137	42056
562.198	41499
562.259	42391
562.320	43576
562.381	49196
562.442	65937
562.503	51932
562.564	42350
562.625	40800
562.686	40411
562.747	45124
562.808	41861
562.869	43219
562.930	51126
562.991	48352
563.051	45531
563.112	42179
563.173	42359
563.234	40053
563.294	40414
563.355	41147
563.416	42612
563.477	40597
563.537	42561
563.598	44057
563.659	44036
563.720	42399
563.780	44246
563.841	46066
563.901	42160
563.962	40355
564.023	42727
564.083	43958
564.144	44463
564.204	42564
564.265	43270
564.325	53047
564.386	96792
564.446	77587
564.507	41255
564.567	40608
564.628	39621
564.688	40866
564.749	41865
564.809	48027
564.869	55138
564.930	41975
564.990	38881
565.050	38794
565.111	38575
565.171	36922
565.231	37551
565.292	38911
565.352	37559
565.412	40394
565.472	42378
565.532	43473
565.593	40966
565.653	38500
565.713	41812
565.773	43743
565.833	54270
565.893	59262
565.953	42320
566.013	40079
566.074	44215
566.134	56382
566.194	89256
566.254	85990
566.314	55002
566.374	43474
566.434	42636
566.494	41339
566.554	42201
566.614	42568
566.673	43633
566.733	45289
566.793	47051
566.853	46560
566.913	47210
566.973	47136
567.033	48855
567.092	48355
567.152	45772
567.212	47956
567.272	49747
567.331	51769
567.391	50303
567.451	53102
567.511	72147
567.570	68641
567.630	46944
567.690	45662
567.749	47010
567.809	48489
567.868	52871
567.928	56604
567.988	63436
568.047	64258
568.107	71595
568.166	89503
568.226	131229
568.285	172635
568.345	142291
568.404	115379
568.464	100678
568.523	94449
568.582	96054
568.642	106829
568.701	124903
568.761	182495
568.820	279212
568.879	259730
568.939	199770
568.998	144271
569.057	110525
569.116	90693
569.176	76391
569.235	66994
569.294	62569
569.353	57705
569.413	53799
569.472	51291
569.531	47085
569.590	45992
569.649	44590
569.708	41924
569.767	45171
569.827	50768
569.886	44997
569.945	39773
570.004	41156
570.063	41541
570.122	44819
570.181	44727
570.240	50181
570.299	49091
570.358	46877
570.417	39107
570.475	36956
570.534	39995
570.593	41626
570.652	41588
570.711	43007
570.770	41732
570.829	45440
570.887	42663
570.946	44983
571.005	37353
571.064	38313
571.122	42048
571.181	45847
571.240	39046
571.299	36526
571.357	39334
571.416	40146
571.475	46819
571.533	46358
571.592	38360
571.650	39646
571.709	35740
571.768	37877
571.826	36198
571.885	34195
571.943	33030
572.002	35058
572.060	36154
572.119	32822
572.177	31728
572.236	31637
572.294	31677
572.352	32480
572.411	33103
572.469	31516
572.528	32333
572.586	31812
572.644	35801
572.703	43472
572.761	35543
572.819	31948
572.877	29848
572.936	30341
572.994	30018
573.052	31253
573.110	32448
573.169	32933
573.227	29513
573.285	30170
573.343	30681
573.401	32118
573.459	30190
573.517	30005
573.576	31297
573.634	30592
573.692	32754
573.750	31527
573.808	31947
573.866	33745
573.924	43271
573.982	40037
574.040	30925
574.098	30635
574.155	29636
574.213	28466
574.271	29862
574.329	30831
574.387	28973
574.445	27695
574.503	26788
574.560	26754
574.618	27456
574.676	26063
574.734	27198
574.792	28000
574.849	27635
574.907	26100
574.965	25481
575.022	25984
575.080	25947
575.138	27625
575.195	28280
575.253	29434
575.311	32526
575.368	26718
575.426	26261
575.483	27809
575.541	26243
575.598	25595
575.656	28463
575.713	27723
575.771	28159
575.828	27023
575.886	27321
575.943	29013
576.001	29492
576.058	29318
576.115	32406
576.173	36804
576.230	42165
576.287	44351
576.345	35895
576.402	30680
576.459	31634
576.517	31305
576.574	34139
576.631	36150
576.688	31057
576.746	29247
576.803	29025
576.860	28642
576.917	27760
576.974	29002
577.031	28730
577.089	28966
577.146	28936
577.203	28970
577.260	31235
577.317	32649
577.374	36205
577.431	33654
577.488	30463
577.545	26887
577.602	27143
577.659	27595
577.716	27177
577.773	27598
577.830	26409
577.886	26702
577.943	26316
578.000	27756
578.057	28963
578.114	28645
578.171	27171
578.227	26715
578.284	26112
578.341	27846
578.398	28630
578.454	30910
578.511	35421
578.568	38015
578.625	32353
578.681	27643
578.738	26584
578.794	26794
578.851	27379
578.908	29072
578.964	30212
579.021	29625
579.077	29214
579.134	28627
579.190	26804
579.247	27445
579.303	26979
579.360	27297
579.416	26659
579.473	26638
579.529	25173
579.586	26073
579.642	26663
579.698	26808
579.755	28789
579.811	26777
579.867	27019
579.924	27180
579.980	26167
580.036	27347
580.093	27638
580.149	27440
580.205	29086
580.261	28824
580.317	29724
580.374	31679
580.430	36269
580.486	34221
580.542	30406
580.598	30349
580.619	30300
580.654	30248
580.692	29986
580.710	29913
580.765	28896
580.767	28897
580.823	29104
580.838	28997
580.879	28820
580.911	29001
580.935	29194
580.984	28948
580.991	28951
581.047	28494
581.057	28586
581.103	29099
581.130	29350
581.159	29674
581.203	29284
581.215	29218
581.270	29644
581.276	29581
581.326	29169
581.349	29262
581.382	29500
581.422	30313
581.438	30680
581.494	31251
581.494	31217
581.550	30023
581.567	30742
581.606	32254
581.640	31097
581.661	30498
581.713	30308
581.717	30314
581.773	29334
581.786	29394
581.829	29547
581.859	29874
581.885	30268
581.932	31138
581.940	31291
581.996	30856
582.004	30837
582.052	30896
582.077	30411
582.107	29902
582.150	30341
582.163	30467
582.219	31009
582.223	30993
582.274	31033
582.296	31503
582.330	32208
582.368	32666
582.386	32912
582.441	30514
582.441	30520
582.497	29860
582.514	29880
582.552	30131
582.587	30712
582.608	31006
582.659	30771
582.663	30752
582.719	29847
582.732	29949
582.774	30508
582.805	30712
582.830	30841
582.877	30432
582.885	30348
582.941	30893
582.950	30931
582.996	31340
583.023	32172
583.052	33174
583.095	32628
583.107	32397
583.162	33185
583.168	33179
583.218	33144
583.240	32682
583.273	31985
583.313	31171
583.328	30955
583.384	31797
583.385	31780
583.439	31029
583.458	31169
583.494	31423
583.531	31369
583.549	31340
583.603	30778
583.605	30763
583.660	30378
583.676	30382
583.715	30511
583.748	31624
583.770	32305
583.820	32672
583.825	32705
583.881	32494
583.893	32220
583.936	31321
583.965	31362
583.991	31227
584.038	31832
584.046	31986
584.101	32466
584.110	32262
584.156	31080
584.183	31716
584.211	32338
584.255	31327
584.266	31159
584.321	31340
584.328	31485
584.376	32586
584.400	32763
584.431	32843
584.472	32206
584.486	31966
584.541	32922
584.545	32914
584.596	32737
584.617	33378
584.651	34877
584.689	35865
584.706	36089
584.761	36280
584.762	36285
584.816	36320
584.834	36566
584.871	37157
584.906	37440
584.926	37558
584.978	38236
584.980	38280
585.035	40104
585.051	40632
585.090	41739
585.123	42955
585.145	43796
585.195	46021
585.200	46252
585.254	48614
585.267	49680
585.309	53051
585.340	55879
585.364	58173
585.412	61522
585.419	62007
585.473	67236
585.484	69291
585.528	80865
585.556	93617
585.583	114442
585.628	171470
585.637	189199
585.692	376904
585.700	406471
585.747	516310
585.772	415210
585.801	253945
585.845	111089
585.856	90263
585.910	64774
585.917	62557
585.965	55579
585.989	53330
586.019	51956
586.061	51055
586.074	50715
586.128	50689
586.133	50810
586.183	53071
586.205	53543
586.237	53626
586.277	53283
586.292	53044
586.346	51822
586.349	51803
586.401	52146
586.421	52886
586.455	54742
586.493	57569
586.509	60685
586.564	75367
586.565	76071
586.618	109188
586.637	107588
586.672	88887
586.709	69895
586.727	64062
586.781	61166
586.781	61158
586.835	57176
586.853	56513
586.889	55451
586.925	55009
586.944	55188
586.996	56778
586.998	56849
587.052	58682
587.068	59221
587.106	59849
587.140	59797
587.161	59989
587.212	61843
587.215	61993
587.269	64827
587.284	65601
587.323	66786
587.356	67321
587.377	68082
587.427	71283
587.431	71510
587.485	72942
587.499	73482
587.539	75562
587.571	77805
587.593	79762
587.643	82639
587.648	82936
587.702	87817
587.715	88858
587.755	91885
587.786	93962
587.810	95714
587.858	100308
587.864	101091
587.917	109146
587.930	111226
587.971	119456
588.001	124761
588.025	128536
588.073	136616
588.079	137992
588.133	150467
588.145	153902
588.187	168084
588.217	178253
588.241	188388
588.288	209869
588.295	213069
588.348	242760
588.360	249603
588.402	281019
588.431	303997
588.456	326155
588.503	372932
588.510	381352
588.564	456234
588.575	473215
588.617	556644
588.646	622113
588.671	702885
588.718	874355
588.725	914855
588.778	1264873
588.789	1345396
588.832	1764276
588.861	2063758
588.886	2233511
588.932	2431897
588.939	2423646
588.993	2215526
589.004	2208824
589.047	2236230
589.075	2135096
589.100	1866487
589.147	1348587
589.154	1300575
589.207	992765
589.218	937745
589.261	862856
589.290	828413
589.314	853056
589.361	927485
589.368	960481
589.421	1269443
589.433	1345594
589.475	1762375
589.504	2057367
589.528	2155286
589.576	2191346
589.582	2166798
589.635	1959004
589.647	1884331
589.689	1374730
589.718	1026584
589.742	859300
589.790	574922
589.795	558509
589.849	428042
589.861	400779
589.902	351118
589.932	313593
589.955	286804
590.004	233172
590.009	230134
590.062	202356
590.075	195668
590.115	180390
590.146	169188
590.168	163727
590.218	152048
590.222	151257
590.275	140496
590.289	137694
590.328	132325
590.360	127588
590.381	124546
590.431	117524
590.435	117254
590.488	111713
590.503	110182
590.541	108005
590.574	105900
590.594	104113
590.645	99500
590.647	99432
590.700	95549
590.716	94427
590.753	92909
590.787	91358
590.806	90579
590.859	88011
590.859	88052
590.912	86286
590.930	85777
590.965	85341
591.001	84853
591.018	84736
591.071	83785
591.072	83699
591.124	82516
591.143	82066
591.177	81407
591.214	80557
591.230	80779
591.283	81240
591.285	81191
591.336	81321
591.356	81221
591.389	80069
591.427	78204
591.442	77546
591.495	75052
591.498	74818
591.547	75227
591.569	75251
591.600	74844
591.640	74095
591.653	74158
591.706	74318
591.711	74265
591.759	75979
591.782	76832
591.811	78630
591.853	80865
591.864	80016
591.917	74854
591.924	74081
591.969	73603
591.995	73242
592.022	73489
592.066	73737
592.075	74703
592.127	80217
592.137	81207
592.180	84178
592.208	85681
592.233	81569
592.279	73408
592.285	73298
592.338	71976
592.350	71609
592.390	70804
592.421	70065
592.443	70577
592.491	71444
592.495	71468
592.548	70708
592.562	70421
592.600	70216
592.633	69906
592.653	69956
592.704	69509
592.705	69908
592.775	69960
592.846	69954
592.916	70675
592.987	72955
593.058	71966
593.128	69454
593.199	68430
593.270	67349
593.341	68589
593.411	68917
593.482	68210
593.553	70060
593.623	68530
593.694	70860
593.764	72575
593.835	69423
593.906	69112
593.976	70373
594.047	73297
594.117	80693
594.188	79407
594.258	70401
594.329	70528
594.399	72419
594.470	72106
594.540	72787
594.611	74330
594.681	72287
594.751	73913
594.822	76401
594.892	78407
594.963	80213
595.033	81253
595.103	83931
595.174	86927
595.244	106522
595.314	114739
595.384	85721
595.455	84936
595.525	86944
595.595	87930
595.665	88325
595.736	87114
595.806	88220
595.876	88159
595.946	87926
596.016	88275
596.087	91225
596.157	92683
596.227	92343
596.297	96022
596.367	102197
596.437	108634
596.507	120996
596.577	130086
596.647	108344
596.717	106680
596.787	108973
596.857	107972
596.927	110052
596.997	108620
597.067	108957
597.137	112519
597.207	113277
597.277	113594
597.347	110424
597.417	108270
597.487	108900
597.557	111679
597.626	112230
597.696	117261
597.766	125092
597.836	132113
597.906	107402
597.975	101911
598.045	103710
598.115	105499
598.185	113092
598.254	122814
598.324	130355
598.394	132088
598.464	129950
598.533	125499
598.603	119411
598.672	117615
598.742	117405
598.812	119381
598.881	123061
598.951	120101
599.020	121326
599.090	126851
599.159	126312
599.229	121535
599.299	119537
599.368	123461
599.437	120335
599.507	114033
599.576	113653
599.646	113081
599.715	111399
599.785	111810
599.854	112034
599.924	114916
599.993	111192
600.062	110768
600.132	113077
600.201	118423
600.270	132454
600.340	136882
600.409	132378
600.478	132320
600.547	135345
600.617	127628
600.686	108451
600.755	104121
600.824	99402
600.894	99087
600.963	97928
601.032	98112
601.101	96406
601.170	93632
601.239	94286
601.308	96283
601.378	96851
601.447	94103
601.516	95190
601.585	98370
601.654	103283
601.723	99895
601.792	102088
601.861	103401
601.930	109797
601.999	113518
602.068	108231
602.137	112882
602.206	112587
602.275	113898
602.343	116264
602.412	118126
602.481	113041
602.550	112108
602.619	114603
602.688	117310
602.756	116714
602.825	116947
602.894	119251
602.963	118567
603.032	121519
603.100	120029
603.169	121740
603.238	122557
603.307	120458
603.375	122034
603.444	124428
603.513	121966
603.581	124812
603.650	127501
603.719	119033
603.787	119385
603.856	123282
603.924	125857
603.993	128623
604.061	131470
604.130	135685
604.198	137801
604.267	140112
604.335	142248
604.404	144123
604.472	145835
604.541	146078
604.609	149678
604.678	150425
604.746	151392
604.815	156147
604.883	156664
604.951	155875
605.020	157472
605.088	156418
605.156	154697
605.225	157673
605.293	155997
605.361	157223
605.429	157578
605.498	163734
605.566	165642
605.634	172354
605.702	176318
605.771	181582
605.839	181367
605.907	175834
605.975	171279
606.043	168044
606.111	167697
606.180	169706
606.248	164842
606.316	163071
606.384	168401
606.452	167561
606.520	167333
606.588	164134
606.656	161160
606.724	158927
606.792	148787
606.860	135196
606.928	124587
606.996	121677
607.064	119427
607.132	121446
607.200	127938
607.267	134284
607.335	134139
607.403	136292
607.471	133117
607.539	130903
607.607	128167
607.674	116169
607.742	118254
607.810	116484
607.878	115157
607.946	116901
608.013	122010
608.081	126129
608.149	125625
608.216	129242
608.284	132587
608.352	131684
608.419	132354
608.487	143184
608.555	130265
608.622	129691
608.690	137631
608.757	150803
608.825	152187
608.893	149528
608.960	145521
609.028	145768
609.095	152303
609.163	137252
609.230	122257
609.298	114541
609.365	117864
609.432	128439
609.500	137966
609.567	157088
609.635	178984
609.702	186718
609.769	178402
609.837	143531
609.904	123098
609.971	125013
610.039	139141
610.106	176923
610.173	314031
610.241	652568
610.308	347896
610.375	159053
610.442	131014
610.509	123761
610.577	124479
610.644	126023
610.711	130717
610.778	134482
610.845	138740
610.912	147376
610.980	151637
611.047	152566
611.114	151099
611.181	144690
611.248	143076
611.315	150519
611.382	154450
611.449	160635
611.516	162172
611.583	160657
611.650	160720
611.717	163411
611.784	166055
611.851	176156
611.918	187484
611.984	217531
612.051	301964
612.118	579527
612.185	1299736
612.252	721031
612.319	242197
612.386	207665
612.452	192689
612.519	187988
612.586	196807
612.653	189901
612.719	189784
612.786	179594
612.853	167840
612.919	165065
612.986	166951
613.053	159103
613.120	149091
613.186	146025
613.253	145530
613.319	145158
613.386	147061
613.453	150418
613.519	154150
613.586	158267
613.652	171187
613.719	162451
613.785	158828
613.852	150963
613.918	149318
613.985	151387
614.051	158366
614.118	164020
614.184	156706
614.250	149013
614.317	151833
614.383	150423
614.449	151985
614.516	153751
614.582	154326
614.648	150098
614.715	148345
614.781	144929
614.847	149404
614.914	149634
614.980	146034
615.046	143918
615.112	146723
615.179	149651
615.245	154137
615.311	157402
615.377	175071
615.443	174973
615.509	159755
615.575	161114
615.642	156899
615.708	163567
615.774	172357
615.840	185585
615.906	204434
615.972	255112
616.038	395523
616.104	729519
616.170	1564240
616.236	1142323
616.302	324820
616.368	252047
616.434	196635
616.500	187984
616.565	202507
616.631	235701
616.697	201845
616.763	211165
616.829	297710
616.895	477330
616.961	418491
617.026	208933
617.092	165324
617.158	160470
617.224	154689
617.289	145704
617.355	141863
617.421	141769
617.487	140888
617.552	135127
617.618	132994
617.684	132638
617.749	133745
617.815	127657
617.880	125090
617.946	125528
618.012	129650
618.077	131122
618.143	127333
618.208	127618
618.274	136607
618.339	137891
618.405	116460
618.470	118221
618.536	120326
618.601	121545
618.667	113038
618.732	107808
618.798	105989
618.863	106174
618.928	104962
618.994	109184
619.059	113423
619.124	121830
619.190	110792
619.255	105109
619.320	105694
619.386	106289
619.451	103911
619.516	101122
619.581	102871
619.647	103842
619.712	104601
619.777	102222
619.842	103344
619.907	105616
619.972	106351
620.038	105201
620.103	103245
620.168	100958
620.233	103640
620.298	103362
620.363	102956
620.428	107459
620.493	108565
620.558	107892
620.623	108950
620.688	107834
620.753	107510
620.818	110431
620.883	110622
620.948	111170
621.013	109532
621.078	109711
621.143	110881
621.207	114943
621.272	113762
621.337	111699
621.402	114887
621.467	126927
621.532	124307
621.596	116469
621.661	110981
621.726	108467
621.791	110088
621.855	112151
621.920	113251
621.985	115732
622.049	121915
622.114	120269
622.179	117514
622.243	121401
622.308	121610
622.373	125076
622.437	123391
622.502	116337
622.566	116411
622.631	115569
622.695	118343
622.760	117178
622.824	117154
622.889	118605
622.953	122568
623.018	141214
623.082	136846
623.147	122406
623.211	119219
623.276	119764
623.340	113738
623.404	112190
623.469	111636
623.533	113906
623.597	110954
623.662	109524
623.726	102263
623.790	98346
623.854	97778
623.919	99723
623.983	100035
624.047	101128
624.111	101898
624.176	102917
624.240	106619
624.304	111374
624.368	102152
624.432	103792
624.496	105041
624.560	111630
624.625	113531
624.689	108374
624.753	111364
624.817	105357
624.881	104124
624.945	95884
625.009	93528
625.073	97650
625.137	103163
625.201	111040
625.265	109282
625.329	99582
625.393	101901
625.456	101316
625.520	103837
625.584	108802
625.648	120293
625.712	149438
625.776	234791
625.839	238057
625.903	121307
625.967	97518
626.031	128635
626.095	165641
626.158	102050
626.222	79212
626.286	75638
626.349	74376
626.413	69847
626.477	73004
626.540	69947
626.604	69540
626.668	70192
626.731	68369
626.795	72193
626.858	70440
626.922	68397
626.986	66431
627.049	66893
627.113	68709
627.176	66499
627.240	64908
627.303	64505
627.366	65935
627.430	66202
627.493	66264
627.557	65178
627.620	65475
627.684	66567
627.747	66900
627.810	61839
627.874	58882
627.937	56619
628.000	61043
628.064	57606
628.127	52396
628.190	53897
628.253	53852
628.317	51408
628.380	51090
628.443	50237
628.506	49504
628.569	47752
628.632	46655
628.696	46056
628.759	45554
628.822	44302
628.885	44293
628.948	43173
629.011	44881
629.074	42611
629.137	41088
629.200	41854
629.263	44301
629.326	40383
629.389	41424
629.452	41500
629.515	42609
629.578	39840
629.641	42598
629.704	42274
629.767	41525
629.830	39927
629.892	39146
629.955	38612
630.018	42752
630.081	41778
630.144	45962
630.207	40625
630.269	43207
630.332	42175
630.395	38471
630.458	35812
630.520	34845
630.583	36797
630.646	36144
630.708	36489
630.771	36476
630.834	37239
630.896	35884
630.959	37900
631.021	36046
631.084	36015
631.146	38755
631.209	41033
631.272	35862
631.334	36383
631.397	35635
631.459	35396
631.522	37112
631.584	37397
631.646	39093
631.709	40493
631.771	45440
631.834	39629
631.896	36334
631.958	34726
632.021	35420
632.083	33702
632.145	35581
632.208	34887
632.270	35165
632.332	32748
632.395	33025
632.457	35243
632.519	33381
632.581	34243
632.643	32873
632.706	32342
632.768	31286
632.830	34350
632.892	32943
632.954	32252
633.016	35183
633.078	32095
633.141	33307
633.203	33146
633.265	32757
633.327	33074
633.389	32171
633.451	35924
633.513	38277
633.575	38347
633.637	37357
633.698	34933
633.760	35054
633.822	33886
633.884	34911
633.946	34202
634.008	35170
634.070	33677
634.132	36109
634.193	37333
634.255	40261
634.317	39928
634.379	39817
634.441	36806
634.502	34699
634.564	32879
634.626	30956
634.687	30965
634.749	31211
634.811	30751
634.873	30063
634.934	30046
634.996	32455
635.057	30494
635.119	29685
635.181	31719
635.242	30948
635.304	28418
635.365	33228
635.427	29784
635.488	30161
635.550	29947
635.611	29832
635.673	28829
635.734	33508
635.796	32521
635.857	35525
635.918	34034
635.980	38390
636.041	37346
636.102	40522
636.164	38189
636.225	39502
636.286	34279
636.348	33656
636.409	31509
636.470	29927
636.531	30800
636.593	31804
636.654	31461
636.715	28271
636.776	27382
636.838	26703
636.899	28949
636.960	27620
637.021	25792
637.082	26427
637.143	26723
637.204	24466
637.265	24244
637.326	25723
637.387	26703
637.448	25374
637.509	26823
637.570	25446
637.631	27191
637.692	23935
637.753	23715
637.814	24902
637.875	23500
637.936	25887
637.997	24092
638.058	24995
638.119	26496
638.179	23858
638.240	22890
638.301	24638
638.362	24675
638.423	24228
638.483	24739
638.544	22730
638.605	24193
638.666	22802
638.726	23479
638.787	23964
638.848	23204
638.908	22799
638.969	23229
639.030	22370
639.090	22631
639.151	22579
639.211	24419
639.272	28046
639.332	37116
639.393	26761
639.453	23627
639.514	24536
639.574	22951
639.635	21562
639.695	23359
639.756	21132
639.816	22865
639.877	25253
639.937	34621
639.997	38793
640.058	22015
640.118	20611
640.178	21286
640.239	20008
640.299	21259
640.359	20612
640.420	22370
640.480	23238
640.540	23395
640.600	23787
640.661	23897
640.721	23380
640.781	26241
640.841	21734
640.901	21896
640.961	22321
641.021	22397
641.082	24741
641.142	29281
641.202	23694
641.262	19007
641.322	21410
641.382	19880
641.442	20326
641.502	20079
641.562	20957
641.622	19378
641.682	20722
641.742	22220
641.802	22443
641.861	22039
641.921	21869
641.981	22463
642.041	22583
642.101	25452
642.161	19683
642.221	19448
642.280	18922
642.340	17613
642.400	18489
642.460	19834
642.519	19871
642.579	19528
642.639	20893
642.698	17770
642.758	21483
642.818	20347
642.877	19155
642.937	20804
642.997	23501
643.056	27291
643.116	19791
643.175	21629
643.235	19911
643.294	20642
643.354	21856
643.414	23791
643.473	26172
643.532	29971
643.592	39326
643.651	59712
643.711	99633
643.770	195036
643.830	473650
643.889	862207
643.948	176299
644.008	42033
644.067	30155
644.126	24748
644.186	23837
644.245	21889
644.304	18550
644.363	21492
644.423	17915
644.482	19156
644.541	21086
644.600	19255
644.659	24479
644.719	27504
644.778	38552
644.837	61765
644.896	118797
644.955	237066
645.014	73624
645.073	25006
645.132	20658
645.191	20828
645.250	18921
645.309	21823
645.368	21264
645.427	25985
645.486	37148
645.545	53806
645.604	22464
645.663	19285
645.722	19522
645.781	19920
645.840	23052
645.898	27620
645.957	37407
646.016	53346
646.075	94045
646.134	177882
646.192	487817
646.251	595498
646.310	84917
646.369	32331
646.427	27436
646.486	21674
646.545	20101
646.603	19343
646.662	18406
646.721	17316
646.779	16905
646.838	16842
646.896	21383
646.955	25737
647.014	38132
647.072	66350
647.131	158501
647.189	67602
647.248	18177
647.306	16514
647.365	16435
647.423	13561
647.481	16335
647.540	13771
647.598	15457
647.657	14026
647.715	15036
647.773	14117
647.832	15472
647.890	13157
647.948	14522
648.007	15099
648.065	13184
648.123	13844
648.181	15617
648.240	13574
648.298	12720
648.356	13867
648.414	14702
648.472	13876
648.531	14799
648.589	13489
648.647	13305
648.705	12950
648.763	14587
648.821	14132
648.879	14660
648.937	16167
648.995	17611
649.053	20608
649.111	29790
649.169	44395
649.227	76391
649.285	158359
649.343	411877
649.401	166730
649.459	48860
649.516	30382
649.574	17750
649.632	23588
649.690	23024
649.748	23956
649.806	28706
649.863	46385
649.921	113705
649.979	65133
650.037	17036
650.094	12607
650.152	12894
650.210	11916
650.268	13421
650.325	12730
650.383	12595
650.440	11388
650.498	12097
650.556	11593
650.613	11230
650.671	11769
650.728	11515
650.786	12183
650.843	13216
650.901	11080
650.958	11046
651.016	10650
651.073	10946
651.131	10159
651.188	10461
651.246	11103
651.303	9675
651.360	10960
651.418	9411
651.475	10342
651.532	9254
651.590	10504
651.647	9667
651.704	10191
651.762	10471
651.819	10326
651.876	10518
651.933	9650
651.990	9910
652.048	9123
652.105	9705
652.162	10171
652.219	9765
652.276	10698
652.333	11060
652.390	8215
652.448	9645
652.505	9969
652.562	9764
652.619	9257
652.676	9650
652.733	9541
652.790	8728
652.847	7501
652.904	9715
652.961	8039
653.017	7969
653.074	9963
653.131	9939
653.188	7857
653.245	9210
653.302	8887
653.359	8261
653.415	8895
653.472	8230
653.529	8927
653.586	8649
653.642	8290
653.699	8239
653.756	8331
653.813	8121
653.869	9130
653.926	7673
653.983	8387
654.039	8985
654.096	8901
654.152	9972
654.209	7971
654.266	9870
654.322	8794
654.379	10626
654.435	10868
654.492	10625
654.548	14660
654.605	19044
654.661	11623
654.717	9147
654.774	10204
654.830	9741
654.887	9322
654.943	9572
655.000	10210
655.056	10113
655.112	10449
655.168	8142
655.225	9392
655.281	11463
655.337	14718
655.394	18971
655.450	15028
655.506	13435
655.562	20612
655.618	15721
655.675	9194
655.731	9073
655.787	8300
655.843	9932
655.899	8300
655.955	9349
656.011	8692
656.067	8113
656.123	9639
656.179	9442
656.235	10256
656.291	7669
656.347	10229
656.403	10018
656.459	10425
656.515	10980
656.571	10988
656.627	9507
656.683	9893
656.739	9619
656.795	9023
656.850	9275
656.906	10225
656.962	9963
657.018	8565
657.074	10464
657.129	11411
657.185	14125
657.241	20868
657.297	13831
657.352	9270
657.408	8646
657.464	9607
657.519	9416
657.575	7583
657.630	8584
657.686	8622
657.742	8455
657.797	8106
657.853	8876
657.908	8891
657.964	6991
658.019	8728
658.075	9878
658.130	8790
658.186	7430
658.241	8394
658.297	8967
658.352	8040
658.407	7744
658.463	8114
658.518	8688
658.573	8499
658.629	7054
658.684	7596
658.739	7998
658.795	6947
658.850	8551
658.905	8310
658.960	9154
659.016	8036
659.071	8966
659.126	8070
659.181	9157
659.236	12750
659.291	13891
659.346	9973
659.401	9224
659.457	8830
659.512	7369
659.567	9000
659.622	8738
659.677	7413
659.732	8326
659.787	9547
659.842	10032
659.897	11322
659.952	8613
660.007	8851
660.061	8311
660.116	7892
660.171	7623
660.226	7879
660.281	9150
660.336	7480
660.391	8733
660.445	8270
660.500	8991
660.555	7734
660.610	7630
660.664	8885
660.719	8012
660.774	8484
660.828	8248
660.883	8452
660.938	9034
660.992	6939
661.047	7821
661.101	7154
661.156	7690
661.211	7077
661.265	8585
661.320	8775
661.374	7736
661.429	7400
661.483	7662
661.538	7565
661.592	7900
661.647	8372
661.701	8877
661.755	8765
661.810	8086
661.864	8778
661.919	7930
661.973	8464
662.027	7915
662.081	7066
662.136	8300
662.190	8437
662.244	9299
662.299	8314
662.353	8323
662.407	7182
662.461	9045
662.515	8877
662.569	8931
662.624	8965
662.678	8185
662.732	7965
662.786	8786
662.840	8098
662.894	9490
662.948	7399
663.002	8534
663.056	7811
663.110	7675
663.164	7778
663.218	7699
663.272	8886
663.326	8550
663.380	8036
663.434	8665
663.488	8494
663.542	8518
663.595	7811
663.649	7721
663.703	8932
663.757	7979
663.811	7082
663.864	8004
663.918	7778
663.972	7693
664.026	7875
664.079	8207
664.133	8135
664.187	7932
664.240	7605
664.294	8622
664.348	8764
664.401	8274
664.455	8231
664.508	7480
664.562	7723
664.615	8193
664.669	7532
664.722	7610
664.776	7240
664.829	8567
664.883	7708
664.936	8182
664.990	8771
665.043	9224
665.097	9985
665.150	10507
665.203	8795
665.257	8395
665.310	8346
665.363	9707
665.417	8742
665.470	9081
665.523	9738
665.576	8269
665.630	8383
665.683	9022
665.736	9093
665.789	9150
665.842	8442
665.895	8779
665.949	8949
666.002	8029
666.055	9628
666.108	9806
666.161	8172
666.214	9974
666.267	9447
666.320	10334
666.373	8793
666.426	8982
666.479	9235
666.532	9828
666.585	11675
666.638	11075
666.691	9993
666.744	11605
666.796	11068
666.849	9258
666.902	9816
666.955	8139
667.008	8470
667.060	8214
667.113	7441
667.166	8809
667.219	8887
667.271	8617
667.324	7871
667.377	9556
667.430	7653
667.482	9162
667.535	8597
667.587	9773
667.640	9079
667.693	11633
667.745	15135
667.798	13778
667.850	9193
667.903	10030
667.955	9205
668.008	9171
668.060	10869
668.113	10345
668.165	10474
668.218	10326
668.270	9322
668.322	9805
668.375	9741
668.427	9690
668.479	9106
668.532	10175
668.584	10024
668.636	9433
668.689	9861
668.741	9672
668.793	9123
668.845	9162
668.898	10014
668.950	9711
669.002	9238
669.054	8913
669.106	9197
669.158	9646
669.211	9025
669.263	9500
669.315	11043
669.367	9421
669.419	9317
669.471	10615
669.523	10049
669.575	10730
669.627	10461
669.679	9440
669.731	9196
669.783	10005
669.835	10596
669.886	9426
669.938	9684
669.990	8605
670.042	8998
670.094	9452
670.146	9060
670.197	9329
670.249	11442
670.301	11696
670.353	13494
670.404	16713
670.456	20967
670.508	29290
670.560	43673
670.611	71874
670.663	121968
670.715	302499
670.766	417562
670.818	105941
670.869	24110
670.921	17260
670.972	14048
671.024	12326
671.075	11699
671.127	11015
671.178	10350
671.230	11300
671.281	11011
671.333	10705
671.384	11260
671.436	13128
671.487	14599
671.538	16607
671.590	21493
671.641	29324
671.692	48386
671.744	80649
671.795	48366
671.846	21088
671.897	15166
671.949	13061
672.000	11143
672.051	10594
672.102	10827
672.153	10580
672.204	9931
672.256	10073
672.307	9734
672.358	10161
672.409	10520
672.460	9413
672.511	9888
672.562	9853
672.613	9096
672.664	9019
672.715	9855
672.766	8841
672.817	8785
672.868	8524
672.919	8554
672.970	8620
673.021	8675
673.071	9079
673.122	8359
673.173	10210
673.224	8576
673.275	9187
673.326	9203
673.376	8280
673.427	9266
673.478	8642
673.528	8761
673.579	8973
673.630	8227
673.680	9273
673.731	8029
673.782	8777
673.832	8626
673.883	9803
673.934	8694
673.984	8253
674.035	8349
674.085	8895
674.136	8941
674.186	10017
674.237	11301
674.287	15225
674.338	9983
674.388	9544
674.438	8265
674.489	9016
674.539	9603
674.589	9477
674.640	8717
674.690	9493
674.740	9891
674.791	9518
674.841	9282
674.891	9170
674.942	8333
674.992	8198
675.042	7477
675.092	7605
675.142	7680
675.193	7651
675.243	8042
675.293	8746
675.343	8926
675.393	8902
675.443	9894
675.493	8017
675.543	7958
675.593	8641
675.643	8697
675.693	8646
675.743	8767
675.793	7528
675.843	8394
675.893	8121
675.943	7821
675.993	8283
676.043	8575
676.093	7970
676.142	7553
676.192	8388
676.242	7904
676.292	7228
676.341	8095
676.391	8312
676.441	7701
676.491	8110
676.540	7306
676.590	7455
676.640	6604
676.689	7523
676.739	6258
676.789	7034
676.838	7258
676.888	6555
676.937	7550
676.987	7400
677.037	6361
677.086	6299
677.136	6646
677.185	6769
677.235	5570
677.284	6341
677.333	7052
677.383	6137
677.432	5529
677.482	7344
677.531	7113
677.580	8153
677.630	6372
677.679	6388
677.728	6924
677.778	6475
677.827	5925
677.876	5878
677.925	5409
677.975	6523
678.024	6322
678.073	6630
678.122	7318
678.171	7929
678.220	7916
678.269	9152
678.319	8239
678.368	7649
678.417	7613
678.466	7465
678.515	7810
678.564	7352
678.613	7040
678.662	7192
678.711	7220
678.760	6941
678.809	6853
678.857	7257
678.906	7735
678.955	7322
679.004	7534
679.053	7324
679.102	6762
679.151	6841
679.199	7203
679.248	6849
679.297	7546
679.346	7254
679.394	6922
679.443	7197
679.492	6643
679.540	7480
679.589	7399
679.638	6255
679.686	6391
679.735	6106
679.784	7700
679.832	7129
679.881	6319
679.929	6275
679.978	6422
680.026	6089
680.075	6361
680.123	6429
680.172	6060
680.220	5495
680.268	7083
680.317	5789
680.365	5469
680.414	6253
680.462	6109
680.510	6977
680.559	5751
680.607	5984
680.655	5372
680.703	6798
680.752	5909
680.800	6233
680.848	5539
680.896	5256
680.945	5875
680.993	5369
681.041	5941
681.089	5638
681.137	5310
681.185	5811
681.233	5471
681.258	5723
681.281	5916
681.329	5978
681.377	5794
681.380	5877
681.425	6538
681.473	7288
681.502	7245
681.521	7119
681.569	7657
681.617	6229
681.624	6299
681.665	6409
681.713	7753
681.745	7416
681.761	7186
681.809	7742
681.857	7127
681.867	7136
681.904	6979
681.952	7689
681.989	7564
682.000	7465
682.048	7936
682.096	6960
682.111	6945
682.143	6768
682.191	6727
682.233	8043
682.239	8202
682.286	7343
682.334	7826
682.354	7838
682.382	7723
682.430	7990
682.476	7302
682.477	7246
682.525	7907
682.572	7269
682.598	7397
682.620	7478
682.667	8161
682.715	8747
682.720	8710
682.763	7920
682.810	7850
682.841	8154
682.857	8229
682.905	7971
682.952	9167
682.963	8933
683.000	7959
683.047	8930
683.085	9674
683.095	9834
683.142	8691
683.190	8782
683.206	8733
683.237	8553
683.284	10305
683.328	9453
683.332	9344
683.379	9613
683.426	8721
683.449	8997
683.473	9237
683.521	9397
683.568	9935
683.571	9934
683.615	9444
683.662	10314
683.693	9798
683.709	9492
683.757	9077
683.804	10372
683.814	10418
683.851	10461
683.898	10381
683.936	10395
683.945	10365
683.992	10379
684.039	10148
684.057	10763
684.086	11649
684.133	10933
684.179	11493
684.180	11477
684.227	11605
684.274	10637
684.300	11067
684.321	11372
684.368	11280
684.415	11263
684.422	11251
684.462	10914
684.509	11018
684.543	11320
684.556	11450
684.603	11077
684.649	10892
684.665	11134
684.696	11637
684.743	11344
684.786	12578
684.790	12667
684.837	12300
684.883	12962
684.908	13404
684.930	13677
684.977	14107
685.023	13553
685.029	13539
685.070	12993
685.117	12783
685.150	13193
685.164	13477
685.210	13585
685.257	14107
685.272	14237
685.303	14187
685.350	14278
685.393	14295
685.396	14301
685.443	14623
685.490	15871
685.514	15654
685.536	15182
685.583	15025
685.629	14512
685.636	14525
685.675	14606
685.722	13696
685.757	14133
685.768	14330
685.815	15707
685.861	15064
685.878	15308
685.908	15728
685.954	15495
686.000	16220
686.000	16229
686.047	17414
686.093	19694
686.121	19632
686.139	18804
686.185	17431
686.232	16311
686.242	16174
686.278	16121
686.324	15567
686.363	14668
686.370	14551
686.416	14283
686.463	15348
686.484	15371
686.509	15428
686.555	14372
686.601	15093
686.606	15052
686.647	14702
686.693	15267
686.727	15089
686.739	15012
686.785	15511
686.831	15827
686.848	15636
686.877	15172
686.923	14860
686.969	14809
686.969	14808
687.015	15371
687.061	15067
687.090	15609
687.107	15736
687.153	15528
687.199	14963
687.211	14973
687.245	15564
687.291	15755
687.332	16712
687.336	16762
687.382	16905
687.428	16119
687.453	16628
687.474	16871
687.520	15934
687.565	15904
687.574	15722
687.611	15357
687.657	15936
687.695	16641
687.702	16820
687.748	17560
687.794	17797
687.816	17499
687.839	16811
687.885	16408
687.931	16062
687.937	16008
687.976	16316
688.022	16804
688.058	17408
688.067	17452
688.113	16956
688.158	16525
688.179	16355
688.204	16452
688.249	17177
688.295	17459
688.300	17490
688.340	17866
688.386	18249
688.421	18172
688.431	18058
688.477	17872
688.522	17723
688.542	17862
688.567	18151
688.613	17728
688.658	17392
688.663	17424
688.703	17754
688.749	17955
688.784	17662
688.794	17580
688.839	17422
688.884	17897
688.905	17703
688.930	17513
688.975	17352
689.020	17599
689.026	17592
689.065	17766
689.110	17380
689.146	17301
689.155	17261
689.201	17260
689.246	17193
689.267	17197
689.291	17460
689.336	17419
689.381	18067
689.388	18036
689.426	17518
689.471	17724
689.509	17035
689.516	17004
689.561	17085
689.606	17406
689.630	17682
689.651	17916
689.696	17718
689.741	18150
689.750	18227
689.785	18212
689.830	17467
689.871	17442
689.875	17495
689.920	17324
689.965	17745
689.992	17575
690.010	17503
690.054	17474
690.099	18007
690.112	17934
690.144	17707
690.189	17889
690.233	17015
690.233	17033
690.278	17391
690.323	17834
690.354	17692
690.367	17655
690.412	17794
690.457	17851
690.474	17853
690.501	17774
690.546	17865
690.590	17393
690.595	17335
690.635	17200
690.680	17622
690.716	17164
690.724	17084
690.769	17535
690.813	18015
690.836	17669
690.857	17592
690.902	18175
690.946	18364
690.957	18487
690.991	19021
691.035	19501
691.077	19849
691.080	19900
691.124	20236
691.168	20984
691.198	21207
691.213	21220
691.257	21653
691.301	21409
691.318	21298
691.346	20562
691.390	19180
691.434	18566
691.439	18394
691.478	18498
691.522	19316
691.559	19482
691.567	19555
691.611	20074
691.655	20156
691.680	20384
691.699	20357
691.743	20232
691.787	19968
691.800	19800
691.831	19908
691.875	20548
691.919	21236
691.921	21202
691.964	21280
692.008	21807
692.041	21872
692.052	21868
692.096	22131
692.139	22307
692.162	22268
692.183	22117
692.227	21974
692.271	21562
692.282	21493
692.315	21561
692.359	21212
692.402	21230
692.403	21268
692.447	21004
692.490	21415
692.523	21413
692.534	21556
692.578	21849
692.622	22367
692.643	22530
692.666	22184
692.709	20938
692.753	20510
692.763	20300
692.797	20494
692.840	20426
692.884	20781
692.884	20822
692.928	20952
692.971	21269
693.004	21193
693.015	21186
693.059	21399
693.102	21361
693.124	21362
693.146	21625
693.189	21880
693.233	22527
693.245	22533
693.276	22527
693.320	22653
693.363	22865
693.365	22834
693.407	22734
693.450	22061
693.485	21851
693.493	21982
693.537	22389
693.580	22321
693.605	22735
693.624	22933
693.667	22344
693.710	22630
693.725	22461
693.753	22716
693.797	23382
693.840	24092
693.845	24076
693.883	23490
693.926	22990
693.966	22545
693.970	22516
694.013	21732
694.056	21106
694.086	20540
694.099	20901
694.142	21703
694.185	22680
694.206	23187
694.229	23470
694.272	23548
694.315	24043
694.326	24079
694.358	24673
694.401	25242
694.444	25875
694.446	25864
694.487	25507
694.530	24530
694.566	24105
694.573	24056
694.616	23033
694.659	22265
694.686	21545
694.702	21345
694.745	21086
694.787	20672
694.806	20463
694.830	20868
694.873	21294
694.916	21772
694.926	21842
694.959	21846
695.002	21867
695.044	21879
695.046	21834
695.087	22343
695.130	22576
695.166	22940
695.172	23036
695.215	23387
695.258	23390
695.286	23388
695.301	23334
695.343	23295
695.386	23104
695.406	22823
695.428	22541
695.471	22227
695.514	21881
695.526	21791
695.556	22379
695.599	23058
695.641	23560
695.646	23551
695.684	23075
695.726	22507
695.766	22093
695.769	22149
695.811	22208
695.854	22259
695.886	22225
695.896	22251
695.938	21968
695.981	21876
696.005	21721
696.023	22003
696.065	22765
696.108	23426
696.125	23555
696.150	23668
696.192	24072
696.235	24364
696.245	24387
696.277	24298
696.319	23884
696.361	23737
696.365	23649
696.404	23480
696.446	23517
696.485	23282
696.488	23340
696.530	23412
696.572	23633
696.604	23601
696.614	23535
696.656	23128
696.698	22622
696.724	22260
696.740	22489
696.783	22975
696.825	23550
696.844	23736
696.867	23644
696.909	23227
696.951	22943
696.964	22801
696.992	22951
697.034	23010
697.076	23069
697.083	23031
697.118	23497
697.160	24082
697.202	24507
697.203	24459
697.244	24109
697.286	23901
697.323	23366
697.327	23379
697.369	23150
697.411	23020
697.442	22748
697.453	22981
697.494	23738
697.536	24494
697.562	24883
697.578	24882
697.620	24826
697.661	24653
697.682	24565
697.703	25108
697.744	25921
697.786	26871
697.801	27111
697.828	27230
697.869	27376
697.911	27415
697.921	27379
697.952	26837
697.994	26030
698.035	25228
698.040	25064
698.077	24877
698.118	24606
698.160	24296
698.160	24232
698.201	24375
698.243	24421
698.279	24495
698.284	24595
698.325	24873
698.367	25155
698.399	25294
698.408	25292
698.449	25046
698.491	24743
698.518	24478
698.532	24693
698.573	25162
698.614	25654
698.638	25845
698.656	25920
698.697	25977
698.738	26017
698.757	25975
698.779	26120
698.820	26261
698.862	26386
698.877	26379
698.903	26786
698.944	27300
698.985	27830
698.996	27906
699.026	27590
699.067	27057
699.116	26353
699.235	25200
699.354	25182
699.474	26151
699.593	28413
699.713	27435
699.832	26399
699.951	26784
700.070	25971
700.190	24361
700.309	26307
700.428	28044
700.547	25125
700.667	25254
700.786	28645
700.905	23234
701.024	26534
701.143	24266
701.262	22071
701.381	23785
701.500	24790
701.619	26440
701.738	23377
701.857	23011
701.976	21696
702.095	21426
702.214	25314
702.333	23845
702.452	23647
702.571	22129
702.690	22349
702.809	21394
702.928	21584
703.047	22173
703.165	21051
703.284	20713
703.403	22160
703.522	24693
703.640	23877
703.759	29831
703.878	37082
703.997	22131
704.115	21135
704.234	21641
704.353	20359
704.471	20527
704.590	19399
704.708	19759
704.827	19516
704.946	19825
705.064	22510
705.183	20995
705.301	26135
705.420	36553
705.538	30698
705.656	25910
705.775	24022
705.893	28355
706.012	30748
706.130	28286
706.249	27155
706.367	28847
706.485	29212
706.604	27778
706.722	29047
706.840	33283
706.958	32873
707.077	26900
707.195	25087
707.313	24852
707.431	24622
707.549	24822
707.668	24806
707.786	25095
707.904	24241
708.022	23495
708.140	23838
708.258	23971
708.376	25434
708.494	24195
708.612	27721
708.730	39670
708.848	36481
708.966	33441
709.084	30335
709.202	30257
709.320	31409
709.438	32201
709.556	31506
709.674	30727
709.791	31285
709.909	28601
710.027	28595
710.145	29071
710.263	29979
710.380	30127
710.498	28698
710.616	29535
710.733	29218
710.851	30584
710.969	30420
711.086	29141
711.204	27585
711.322	28606
711.439	28495
711.557	29200
711.674	27284
711.792	27000
711.909	26015
712.027	25606
712.144	25572
712.262	27142
712.379	32175
712.497	43251
712.614	42101
712.732	34928
712.849	34719
712.966	36960
713.084	42660
713.201	36810
713.318	37064
713.436	35022
713.553	34406
713.670	35719
713.787	39160
713.905	37568
714.022	33827
714.139	34585
714.256	37673
714.373	46507
714.490	66336
714.608	159626
714.725	603721
714.842	456899
714.959	50890
715.076	36371
715.193	32234
715.310	31237
715.427	29977
715.544	29533
715.661	29593
715.778	29147
715.895	33005
716.011	32388
716.128	29551
716.245	29839
716.362	33575
716.479	32178
716.596	28699
716.713	27821
716.829	28304
716.946	27814
717.063	25618
717.180	25629
717.296	25721
717.413	26673
717.530	26165
717.646	24836
717.763	24682
717.880	24723
717.996	25603
718.113	25237
718.229	25491
718.346	23308
718.462	24933
718.579	32419
718.695	46559
718.812	35704
718.928	37280
719.045	25605
719.161	23419
719.277	22184
719.394	22363
719.510	25047
719.626	25556
719.743	32107
719.859	34756
719.975	54953
720.092	186177
720.208	324459
720.324	43782
720.440	25552
720.557	30248
720.673	41601
720.789	56713
720.905	110747
721.021	33659
721.137	22144
721.253	23012
721.369	24209
721.486	27870
721.602	35836
721.718	21650
721.834	20040
721.950	21101
722.066	20000
722.181	19875
722.297	21254
722.413	19310
722.529	20229
722.645	20117
722.761	19361
722.877	18838
722.993	19373
723.108	21070
723.224	19735
723.340	19528
723.456	17567
723.571	19869
723.687	17587
723.803	17670
723.918	18930
724.034	19199
724.150	18342
724.265	22744
724.381	46574
724.497	47396
724.612	18324
724.728	15864
724.843	17473
724.959	22305
725.074	43726
725.190	41194
725.305	19929
725.421	18426
725.536	16150
725.651	15762
725.767	16023
725.882	15524
725.997	15591
726.113	16087
726.228	15143
726.343	15424
726.459	14019
726.574	17237
726.689	15224
726.804	15695
726.920	15203
727.035	15249
727.150	15762
727.265	14685
727.380	15639
727.495	14866
727.610	14098
727.725	14806
727.841	14816
727.956	16833
728.071	18062
728.186	14922
728.301	13517
728.416	15937
728.531	13427
728.645	13899
728.760	14893
728.875	16000
728.990	14286
729.105	14413
729.220	15240
729.335	14205
729.449	12806
729.564	12238
729.679	11767
729.794	12775
729.908	15728
730.023	13403
730.138	11607
730.253	12682
730.367	11850
730.482	11246
730.596	12848
730.711	13297
730.826	14482
730.940	13658
731.055	14275
731.169	11803
731.284	11614
731.398	12922
731.513	15425
731.627	13955
731.742	17898
731.856	17454
731.970	13847
732.085	15713
732.199	19714
732.313	30738
732.428	72110
732.542	199627
732.656	90904
732.771	21385
732.885	15975
732.999	15926
733.113	16768
733.227	15796
733.342	12684
733.456	13671
733.570	12366
733.684	12962
733.798	13904
733.912	13076
734.026	12588
734.140	13382
734.254	16056
734.368	26910
734.482	27842
734.596	13326
734.710	12646
734.824	11918
734.938	11291
735.052	12962
735.166	15262
735.280	12882
735.393	11804
735.507	12797
735.621	18477
735.735	29184
735.849	13890
735.962	12430
736.076	12864
736.190	13293
736.303	19125
736.417	21183
736.531	11914
736.644	12027
736.758	10620
736.872	10243
736.985	10830
737.099	11171
737.212	10724
737.326	10313
737.439	11169
737.553	10183
737.666	11372
737.780	9934
737.893	9798
738.007	9660
738.120	10355
738.233	10367
738.347	10037
738.460	10326
738.573	11148
738.687	10328
738.800	11993
738.913	13632
739.026	11019
739.140	9997
739.253	9289
739.366	10078
739.479	9657
739.592	9372
739.705	9409
739.818	9798
739.932	9084
740.045	9444
740.158	10073
740.271	9720
740.384	9809
740.497	10217
740.610	10323
740.723	10708
740.836	10583
740.949	11314
741.062	14341
741.174	11626
741.287	9743
741.400	9383
741.513	10465
741.626	10525
741.739	9413
741.851	10456
741.964	9492
742.077	8696
742.189	10049
742.302	11584
742.415	10280
742.527	8974
742.640	8061
742.753	8535
742.865	8281
742.978	7857
743.090	8671
743.203	9068
743.316	7722
743.428	8992
743.541	7389
743.653	7648
743.766	7709
743.878	8311
743.990	11867
744.103	11111
744.215	9676
744.327	9554
744.440	10451
744.552	16072
744.664	9449
744.777	7939
744.889	8012
745.001	8188
745.113	7965
745.226	6912
745.338	7633
745.450	8013
745.562	7220
745.674	7300
745.786	7383
745.898	7416
746.010	7807
746.122	7179
746.234	6519
746.347	7699
746.459	7781
746.570	7151
746.682	7839
746.794	8712
746.906	8266
747.018	6081
747.130	6833
747.242	6977
747.354	7046
747.466	8164
747.577	6538
747.689	6949
747.801	7083
747.913	6575
748.024	6312
748.136	6782
748.248	6226
748.359	6457
748.471	7249
748.583	5839
748.694	6389
748.806	7983
748.918	10382
749.029	7709
749.141	7850
749.252	7808
749.364	9277
749.475	18203
749.587	11445
749.698	7624
749.809	6907
749.921	6742
750.032	7019
750.144	5386
750.255	5645
750.366	6420
750.478	6099
750.589	6492
750.700	6883
750.811	7954
750.923	10125
751.034	21058
751.145	16714
751.256	6605
751.367	6383
751.479	6027
751.590	6215
751.701	6251
751.812	5794
751.923	5766
752.034	6037
752.145	6832
752.256	5988
752.367	5690
752.478	6507
752.589	5856
752.700	6573
752.811	5384
752.922	5583
753.032	7012
753.143	7533
753.254	4928
753.365	6697
753.476	5556
753.586	4868
753.697	5789
753.808	5759
753.919	5756
754.029	5548
754.140	5921
754.251	5791
754.361	5380
754.472	6184
754.582	6031
754.693	6110
754.804	5798
754.914	5555
755.025	4461
755.135	5899
755.246	4840
755.356	4983
755.466	5778
755.577	5373
755.687	5936
755.798	4955
755.908	5896
756.018	5074
756.129	5627
756.239	6209
756.349	5549
756.460	5455
756.570	6217
756.680	5083
756.790	6429
756.900	6231
757.011	5857
757.121	4674
757.231	5187
757.341	4990
757.451	5018
757.561	5159
757.671	5550
757.781	4572
757.891	5402
758.001	5161
758.111	6792
758.221	6557
758.331	7564
758.441	7088
758.551	9313
758.661	7805
758.771	6752
758.880	6606
758.990	5585
759.100	6438
759.210	6067
759.320	6292
759.429	6423
759.539	6311
759.649	6361
759.758	6343
759.868	7359
759.978	7306
760.087	6751
760.197	7202
760.307	7110
760.416	5669
760.526	5451
760.635	6507
760.745	6770
760.854	6622
760.964	8133
761.073	7611
761.182	7433
761.292	7717
761.401	7643
761.511	6750
761.620	6608
761.729	6449
761.839	5544
761.948	6184
762.057	6138
762.166	5992
762.276	5451
762.385	6011
762.494	4757
762.603	5777
762.712	6195
762.822	6152
762.931	5568
763.040	4995
763.149	4736
763.258	5695
763.367	5813
763.476	5641
763.585	5584
763.694	6538
763.803	6733
763.912	6537
764.021	6216
764.130	5226
764.238	6277
764.347	5662
764.456	5944
764.565	5980
764.674	5448
764.783	5825
764.891	5660
765.000	6114
765.109	6927
765.217	5767
765.326	8282
765.435	8750
765.543	8823
765.652	7425
765.761	8929
765.869	11609
765.978	15232
766.086	28553
766.195	55415
766.303	167975
766.412	520363
766.520	311291
766.629	49041
766.737	20262
766.846	14437
766.954	11367
767.062	11611
767.171	9201
767.279	8655
767.387	7830
767.496	8561
767.604	7107
767.712	7159
767.820	7517
767.928	6967
768.037	6659
768.145	7698
768.253	7266
768.361	6598
768.469	6624
768.577	6459
768.685	7817
768.793	6511
768.901	7046
769.009	7515
769.117	7481
769.225	9021
769.333	10218
769.441	14244
769.549	24002
769.657	59369
769.765	217727
769.873	389407
769.981	73084
770.088	17116
770.196	12270
770.304	9915
770.412	9284
770.519	8280
770.627	7917
770.735	7482
770.842	7476
770.950	6946
771.058	7707
771.165	7400
771.273	7115
771.380	7445
771.488	8564
771.595	8114
771.703	7159
771.810	8778
771.918	6979
772.025	8310
772.133	8157
772.240	7560
772.348	8857
772.455	9076
772.562	8217
772.670	8256
772.777	9006
772.884	7175
772.991	7886
773.099	7381
773.206	7174
773.313	8340
773.420	6985
773.528	7005
773.635	7025
773.742	7937
773.849	8014
773.956	7838
774.063	7486
774.170	6507
774.277	8385
774.384	7504
774.491	7607
774.598	7586
774.705	8769
774.812	9492
774.919	8401
775.026	8396
775.133	8212
775.239	7579
775.346	7162
775.453	7520
775.560	6985
775.667	7377
775.773	6538
775.880	7630
775.987	7101
776.093	8039
776.200	7525
776.307	6548
776.413	6505
776.520	7496
776.627	7621
776.733	7493
776.840	6152
776.946	8554
777.053	9285
777.159	12488
777.266	7163
777.372	11254
777.478	9896
777.585	8431
777.691	6130
777.798	7481
777.904	7972
778.010	11290
778.117	8386
778.223	6706
778.329	6576
778.435	6100
778.542	7009
778.648	6532
778.754	5710
778.860	6750
778.966	6739
779.072	6561
779.178	6752
779.284	6240
779.391	6082
779.497	5483
779.603	6939
779.708	5236
779.815	6912
779.920	6913
780.026	7644
780.132	6962
780.238	5255
780.344	5569
780.450	7243
780.556	6103
780.661	5664
780.767	6085
780.873	5247
780.979	6355
781.085	5866
781.190	5728
781.296	5195
781.402	5174
781.507	4622
781.613	5182
781.719	4735
781.824	5812
781.930	5725
782.035	7033
782.141	5737
782.246	4457
782.352	4968
782.457	5249
782.563	5734
782.668	5322
782.773	5423
782.879	5143
782.984	6761
783.090	7529
783.195	10584
783.300	7888
783.405	6485
783.511	6060
783.616	6176
783.721	5579
783.826	5262
783.932	5500
784.037	5581
784.142	5103
784.247	4813
784.352	5565
784.457	5213
784.562	5815
784.667	5051
784.772	5031
784.877	4843
784.982	6291
785.087	4744
785.192	6354
785.297	5093
785.402	5241
785.507	5109
785.611	5244
785.716	5074
785.821	4849
785.926	4810
786.031	4247
786.135	4484
786.240	5419
786.345	3828
786.450	4644
786.554	4463
786.659	4065
786.763	3746
786.868	5829
786.973	5964
787.077	4181
787.182	4218
787.286	5551
787.391	4983
787.495	4200
787.600	4558
787.704	4032
787.809	4775
787.913	3612
788.017	3953
788.122	4791
788.226	4642
788.330	4132
788.435	4727
788.539	4396
788.643	3995
788.747	3365
788.852	3754
788.956	3160
789.060	4992
789.164	4427
789.268	3477
789.372	4834
789.476	3831
789.580	3632
789.684	3672
789.788	4893
789.892	3797
789.996	4660
790.100	3551
790.204	3471
790.308	4339
790.412	3439
790.516	3826
790.620	3634
790.724	4454
790.828	3393
790.931	3257
791.035	4919
791.139	3582
791.242	3496
791.346	5401
791.450	3786
791.554	3727
791.657	3029
791.761	5322
791.864	4926
791.968	4640
792.072	4809
792.175	3645
792.279	3185
792.382	4692
792.486	4173
792.589	4187
792.693	3531
792.796	3099
792.899	4332
793.003	4021
793.106	2446
793.209	3973
793.313	5170
793.416	2737
793.519	5334
793.623	7190
793.726	8355
793.829	4485
793.932	3723
794.035	3058
794.138	5570
794.242	4713
794.345	5024
794.448	5819
794.551	7240
794.654	7113
794.757	5757
794.860	6052
794.963	5152
795.066	3290
795.169	4322
795.272	2834
795.375	3556
795.477	2965
795.580	3560
795.683	1811
795.786	3510
795.889	2212
795.991	4289
796.094	5645
796.197	2306
796.300	3913
796.402	2092
796.505	2812
796.608	3303
796.710	3523
796.813	3312
796.915	3099
797.018	3561
797.120	3888
797.223	2142
797.326	3911
797.428	2207
797.530	2642
797.633	3589
797.735	5391
797.838	8723
797.940	5949
798.042	2824
798.145	2874
798.247	4413
798.349	1399
798.452	4097
798.554	3218
798.656	1984
798.758	3866
798.860	2697
798.962	3199
799.065	2353
799.167	1848
799.269	4713
799.371	3704
799.473	5392
799.575	5054
799.677	5438
799.779	5862
799.881	5693
799.983	4992
800.085	2654
800.187	2676
800.289	1948
800.390	3137
800.492	3057
800.594	4031
800.696	1890
800.798	2667
800.899	2334
801.001	2269
801.103	2046
801.205	2143
801.306	3104
801.408	1653
801.509	2139
801.611	1787
801.713	3771
801.814	1215
801.916	3005
802.017	2164
802.119	1470
802.220	2922
802.322	2105
802.423	5041
802.525	2359
802.626	2789
802.727	3454
802.829	2967
802.930	506
803.031	4126
803.133	1972
803.234	2245
803.335	2290
803.436	631
803.538	2366
803.639	681
803.740	2559
803.841	2129
803.942	2747
804.043	2440
804.144	1681
804.245	2177
804.346	2674
804.447	2385
804.548	4214
804.649	5451
804.750	3004
804.851	1958
804.952	1078
805.053	2804
805.154	1306
805.255	3102
805.355	2506
805.456	1743
805.557	2081
805.658	1379
805.758	3106
805.859	2421
805.960	1547
806.061	2035
806.161	1263
806.262	2071
806.362	1757
806.463	1870
806.564	2585
806.664	2146
806.765	3894
806.865	3551
806.966	2352
807.066	1334
807.166	3004
807.267	2212
807.367	1369
807.468	2654
807.568	329
807.668	2307
807.769	2242
807.869	2599
807.969	2430
808.069	1738
808.170	2051
808.270	2077
808.370	2691
808.470	3998
808.570	2637
808.670	1465
808.770	2273
808.870	2021
808.970	2623
809.070	1248
809.170	1153
809.271	2274
809.370	1690
809.470	2332
809.570	1328
809.670	962
809.770	1198
809.870	2504
809.970	2169
810.070	1468
810.169	2078
810.269	184
810.369	2377
810.469	2029
810.568	1832
810.668	1637
810.768	1081
810.867	2056
810.967	812
811.066	1278
811.166	1089
811.265	1571
811.365	807
811.464	1735
811.564	2547
811.663	2791
811.763	493
811.862	1826
811.962	3115
812.061	1844
812.160	598
812.260	2394
812.359	1265
812.458	1189
812.557	3520
812.657	3383
812.756	1953
812.855	2554
812.954	2047
813.053	2552
813.153	1810
813.252	1157
813.351	1926
813.450	1541
813.549	1632
813.648	2382
813.747	711
813.846	3396
813.945	1241
814.044	1599
814.143	2239
814.242	2579
814.341	1079
814.439	2187
814.538	1722
814.637	2541
814.736	1843
814.835	3018
814.933	1645
815.032	3290
815.131	2887
815.229	3601
815.328	4061
815.427	3512
815.525	4251
815.624	4469
815.722	2810
815.821	3974
815.919	4073
816.018	3426
816.116	4144
816.215	3644
816.313	3628
816.412	4956
816.510	3905
816.609	5852
816.707	5138
816.805	4476
816.904	4823
817.002	5832
817.100	6485
817.198	7047
817.296	5422
817.395	6618
817.493	8606
817.591	8149
817.689	11047
817.787	12682
817.885	22849
817.983	38507
818.081	84249
818.179	204572
818.277	466717
818.375	312767
818.473	85091
818.571	35954
818.669	24940
818.767	22450
818.865	23975
818.963	28217
819.061	41764
819.158	74068
819.256	159274
819.354	367940
819.452	678835
819.549	369409
819.647	112266
819.745	50165
819.842	32046
819.940	22820
820.038	16065
820.135	13000
820.233	12092
820.330	8371
820.428	8175
820.525	8638
820.623	7118
820.720	5885
820.818	5882
820.915	7027
821.012	5546
821.110	4213
821.207	5485
821.304	4053
821.402	4964
821.499	6138
821.596	6362
821.693	5231
821.791	5273
821.888	6314
821.985	11396
822.082	8286
822.179	4739
822.276	4062
822.373	3301
822.470	3682
822.567	3042
822.664	1840
822.761	3784
822.858	2204
822.955	3025
823.052	2967
823.149	3374
823.246	3301
823.343	3351
823.440	2863
823.536	3268
823.633	2643
823.730	2012
823.827	3501
823.923	2668
824.020	2956
824.117	2952
824.213	3033
824.310	2968
824.407	2202
824.503	3132
824.600	2483
824.696	2313
824.793	3353
824.889	1737
824.986	1594
825.082	2204
825.179	2453
825.275	1767
825.371	1540
825.468	2627
825.564	1743
825.660	3354
825.757	2364
825.853	3220
825.949	1311
826.045	2080
826.142	1604
826.238	2310
826.334	2829
826.430	553
826.526	1632
826.622	1134
826.718	1767
826.814	1768
826.910	2545
827.006	2279
827.102	307
827.198	2686
827.294	1750
827.390	2258
827.486	1478
827.582	871
827.678	1036
827.774	3287
827.869	667
827.965	2066
828.061	173
828.157	1971
828.252	1662
828.348	766
828.444	3239
828.539	1044
828.635	1682
828.731	2788
828.826	888
828.922	1205
829.017	2055
829.113	2133
829.208	1451
829.304	1392
829.399	2695
829.495	1402
829.590	3140
829.685	1440
829.781	3172
829.876	1450
829.971	868
830.066	499
830.162	1872
830.257	1495
830.352	1320
830.447	1406
830.543	2138
830.638	1949
830.733	2404
830.828	2140
830.923	2048
831.018	1792
831.113	2029
831.208	1980
831.303	1452
831.398	2016
831.493	1168
831.588	2700
831.683	970
831.778	1670
831.873	2384
831.967	2019
832.062	1376
832.157	558
832.252	2408
832.346	1838
832.441	2987
832.536	4563
832.631	8489
832.725	5978
832.820	1408
832.914	1349
833.009	1557
833.104	3029
833.198	2481
833.293	1843
833.387	2246
833.482	1150
833.576	1722
833.670	1973
833.765	1364
833.859	1401
833.954	2808
834.048	1212
834.142	1988
834.237	1119
834.331	1639
834.425	1851
834.519	897
834.613	2212
834.708	1683
834.802	1488
834.896	1263
834.990	1505
835.084	857
835.178	1444
835.272	1820
835.366	1125
835.460	1357
835.554	1846
835.648	997
835.742	1126
835.836	1344
835.930	536
836.024	2057
836.117	2901
836.211	2337
836.305	4338
836.399	4485
836.493	1332
836.586	2100
836.680	1354
836.774	1140
836.867	1932
836.961	745
837.055	-743
837.148	1669
837.242	1618
837.335	1023
837.429	1505
837.522	1091
837.616	2829
837.709	6526
837.803	3904
837.896	2638
837.989	2252
838.083	3933
838.176	7808
838.269	5739
838.363	2218
838.456	1716
838.549	2938
838.642	4916
838.735	10250
838.829	3724
838.922	1345
839.015	807
839.108	622
839.201	1683
839.294	1630
839.387	2028
839.480	1403
839.573	3617
839.666	3169
839.759	1737
839.852	1064
839.945	1881
840.038	1391
840.131	939
840.223	663
840.316	1521
840.409	1730
840.502	1094
840.594	2902
840.687	666
840.780	1955
840.873	1862
840.965	1784
841.058	3207
841.150	7655
841.243	4184
841.336	1636
841.428	1086
841.521	1645
841.613	1707
841.706	1784
841.798	1306
841.890	1190
841.983	1028
842.075	1257
842.167	1353
842.260	1143
842.352	3452
842.444	4862
842.537	8387
842.629	11068
842.721	2944
842.813	1708
842.905	-140
842.997	2285
843.090	1872
843.182	4430
843.274	8440
843.366	20280
843.458	34193
843.550	18534
843.642	2753
843.734	2173
843.826	2567
843.918	2516
844.009	1424
844.101	1572
844.193	859
844.285	1296
844.377	1609
844.469	2510
844.560	2280
844.652	1881
844.744	1802
844.835	1340
844.927	2280
845.019	1916
845.110	1532
845.202	1475
845.293	1225
845.385	211
845.476	791
845.568	1997
845.659	1079
845.751	1173
845.842	323
845.934	530
846.025	729
846.116	1756
846.208	855
846.299	411
846.390	1867
846.482	1186
846.573	2336
846.664	3693
846.755	4052
846.846	3983
846.937	551
847.029	807
847.120	864
847.211	918
847.302	2113
847.393	-198
847.484	966
847.575	755
847.666	784
847.757	783
847.847	942
847.938	1688
848.029	808
848.120	154
848.211	1101
848.302	1287
848.392	853
848.483	726
848.574	-213
848.664	253
848.755	916
848.846	1020
848.936	-150
849.027	1476
849.118	1651
849.208	1472
849.299	3254
849.389	4501
849.480	10290
849.570	18423
849.661	37152
849.751	56392
849.841	16663
849.932	2987
850.022	1547
850.112	1865
850.203	1347
850.293	1698
850.383	403
850.474	552
850.564	430
850.654	1833
850.744	1056
850.834	-62
850.924	501
851.014	1265
851.104	629
851.194	1317
851.284	2042
851.374	2535
851.464	1626
851.554	1018
851.644	2049
851.734	3959
851.824	2772
851.914	1628
852.004	1625
852.094	499
852.183	924
852.273	1124
852.363	1254
852.452	1506
852.542	280
852.632	1353
852.721	1530
852.811	1011
852.901	2048
852.990	1952
853.080	2151
853.169	2127
853.259	1881
853.348	1973
853.438	2771
853.527	4067
853.617	6140
853.706	13064
853.795	23740
853.885	53982
853.974	101268
854.063	194040
854.152	269124
854.242	87740
854.331	15619
854.420	6693
854.509	5262
854.598	4798
854.687	4270
854.777	3440
854.866	2311
854.955	2519
855.044	1706
855.133	1400
855.222	1539
855.311	1075
855.400	1248
855.488	1243
855.577	2041
855.666	1730
855.755	509
855.844	925
855.933	870
856.021	935
856.110	1950
856.199	641
856.288	935
856.376	1308
856.465	376
856.554	468
856.642	919
856.731	1219
856.819	2089
856.908	1044
856.996	654
857.085	348
857.173	212
857.262	282
857.350	630
857.438	1145
857.527	488
857.615	479
857.703	606
857.792	-363
857.880	556
857.968	-209
858.056	905
858.145	424
858.233	294
858.321	89
858.409	1507
858.497	24
858.585	597
858.673	1122
858.761	431
858.849	530
858.937	613
859.025	466
859.113	1264
859.201	1231
859.289	858
859.377	682
859.465	720
859.552	706
859.640	615
859.728	1292
859.816	1211
859.903	1326
859.991	696
860.079	675
860.166	705
860.254	543
860.342	641
860.429	-113
860.517	552
860.604	540
860.692	1037
860.779	588
860.867	455
860.954	-42
861.042	1814
861.129	1179
861.216	1380
861.304	139
861.391	89
861.478	1077
861.565	1111
861.653	979
861.740	575
861.827	1438
861.914	916
862.001	1377
862.089	1325
862.176	1044
862.263	262
862.350	777
862.437	607
862.524	604
862.611	212
862.698	877
862.785	1199
862.871	1122
862.958	280
863.045	523
863.132	1032
863.219	1162
863.306	508
863.392	828
863.479	964
863.566	431
863.652	416
863.739	-138
863.826	1781
863.912	1279
863.999	619
864.086	651
864.172	855
864.259	321
864.345	127
864.432	1427
864.518	1161
864.604	971
864.691	849
864.777	1105
864.863	2745
864.950	2189
865.036	2374
865.122	3929
865.209	3915
865.295	3595
865.381	3378
865.467	3854
865.553	5182
865.639	8447
865.726	13304
865.812	28784
865.898	53097
865.984	80175
866.070	153546
866.156	141757
866.242	33826
866.328	8969
866.414	4866
866.499	4171
866.585	4062
866.671	4115
866.757	3420
866.843	3425
866.928	2909
867.014	2835
867.100	3776
867.186	3140
867.271	3975
867.357	4730
867.442	5261
867.528	2548
867.614	2328
867.699	1849
867.785	3240
867.870	3348
867.956	3462
868.041	3061
868.127	3735
868.212	4224
868.297	3465
868.383	3386
868.468	4995
868.553	5830
868.639	6327
868.724	13246
868.809	9512
868.894	2442
868.979	2563
869.065	2370
869.150	1882
869.235	2227
869.320	1459
869.405	1952
869.490	2346
869.575	1741
869.660	1276
869.745	1563
869.830	1383
869.915	1428
870.000	1537
870.085	1393
870.169	3066
870.254	2484
870.339	937
870.424	748
870.509	1635
870.593	1626
870.678	1516
870.763	1624
870.847	1761
870.932	2147
871.016	1700
871.101	1237
871.186	2251
871.270	1529
871.355	805
871.439	1189
871.523	2102
871.608	858
871.692	520
871.777	2729
871.861	1584
871.945	1145
872.030	2168
872.114	1668
872.198	1160
872.282	1757
872.367	1291
872.451	860
872.535	2134
872.619	1242
872.703	649
872.787	962
872.871	476
872.955	-177
873.039	708
873.123	1540
873.207	2372
873.291	1619
873.375	827
873.459	1958
873.543	815
873.627	982
873.711	1374
873.794	1300
873.878	809
873.962	733
874.045	1347
874.129	1144
874.137	1125
874.213	935
874.245	811
874.296	608
874.352	671
874.380	700
874.460	649
874.464	647
874.547	726
874.568	977
874.631	1722
874.676	1296
874.714	935
874.784	1187
874.798	1241
874.881	2298
874.892	2137
874.965	1024
874.999	1013
875.048	963
875.107	1310
875.131	1449
875.215	1289
875.215	1289
875.298	536
875.323	952
875.381	1926
875.430	1632
875.465	1416
875.538	1160
875.548	1123
875.631	1700
875.646	1463
875.714	359
875.753	568
875.798	820
875.861	1410
875.881	1582
875.964	1216
875.968	1220
876.047	1291
876.076	1132
876.130	895
876.183	1223
876.213	1384
876.291	1969
876.296	2011
876.379	1554
876.398	1391
876.462	796
876.506	1079
876.545	1326
876.613	1231
876.628	1231
876.711	1720
876.721	1647
876.794	1156
876.828	1128
876.877	929
876.935	683
876.960	654
877.043	949
877.043	948
877.125	875
877.150	1052
877.208	1452
877.258	1232
877.291	1153
877.365	1175
877.374	1170
877.456	1205
877.472	1319
877.539	1618
877.579	1393
877.622	1263
877.687	1365
877.704	1406
877.787	1626
877.794	1626
877.869	1644
877.901	1890
877.952	2098
878.008	1502
878.034	1323
878.115	1213
878.117	1208
878.199	874
878.222	994
878.282	1504
878.329	1460
878.364	1346
878.437	1708
878.447	1769
878.529	1153
878.544	1204
878.611	1468
878.651	1625
878.694	1950
878.758	2191
878.776	2095
878.858	1721
878.865	1656
878.941	1431
878.972	1508
879.023	1590
879.078	1599
879.105	1641
879.185	1964
879.187	1969
879.269	2400
879.292	2221
879.351	1821
879.399	1577
879.433	1383
879.506	1639
879.516	1684
879.598	916
879.613	1015
879.680	1497
879.720	1696
879.762	1924
879.827	1521
879.844	1411
879.926	2092
879.933	2096
880.007	2277
880.040	2336
880.089	2301
880.147	2882
880.171	3139
880.253	4474
880.254	4483
880.335	6669
880.360	7181
880.417	9396
880.467	13652
880.499	16674
880.574	18637
880.580	18153
880.662	7282
880.680	5548
880.744	2277
880.787	1518
880.825	1652
880.893	1690
880.907	1690
880.989	1434
881.000	1553
881.070	2378
881.106	2248
881.152	1922
881.213	1607
881.233	1539
881.315	1678
881.319	1691
881.396	2121
881.426	2048
881.478	1897
881.532	2181
881.559	2393
881.639	1698
881.641	1672
881.722	2096
881.745	1827
881.803	1714
881.852	2323
881.885	2645
881.958	2115
881.966	2048
882.047	2311
882.064	2371
882.129	3060
882.171	3520
882.210	4295
882.277	5857
882.291	5860
882.372	3797
882.383	3692
882.454	2933
882.489	2320
882.535	2081
882.596	2209
882.616	2163
882.697	1628
882.702	1587
882.778	1330
882.808	1429
882.859	1933
882.914	2232
882.940	2203
883.020	2027
883.021	2030
883.102	1814
883.127	1749
883.183	2202
883.233	2483
883.264	2305
883.339	1795
883.345	1804
883.426	1978
883.445	2075
883.507	2142
883.551	1932
883.587	2015
883.657	2883
883.668	3015
883.749	2868
883.763	2841
883.830	1896
883.869	1493
883.910	1598
883.975	1982
883.991	2043
884.072	2397
884.081	2364
884.152	2460
884.187	2488
884.233	2126
884.292	2017
884.314	2009
884.394	1425
884.398	1405
884.475	1597
884.504	1700
884.555	1891
884.610	1837
884.636	1855
884.716	2494
884.716	2508
884.797	2966
884.821	3111
884.877	2494
884.927	1870
884.958	1853
885.033	2010
885.038	2020
885.118	1871
885.139	1833
885.199	1782
885.244	1967
885.279	2327
885.350	2766
885.359	2742
885.439	2416
885.456	2288
885.520	2235
885.561	2251
885.600	1950
885.667	1583
885.680	1720
885.760	2617
885.773	2735
885.840	2166
885.878	1764
885.920	1814
885.984	1932
886.000	2018
886.080	2448
886.089	2490
886.160	2782
886.195	2826
886.240	2570
886.300	2458
886.320	2711
886.400	3504
886.406	3549
886.480	3108
886.511	2945
886.560	3174
886.616	3182
886.640	3106
886.720	3015
886.722	3006
886.800	3118
886.827	3078
886.879	2877
886.932	2660
886.959	2819
887.038	3347
887.039	3347
887.119	2485
887.143	2178
887.198	2507
887.248	2851
887.278	2857
887.354	2664
887.358	2652
887.437	2315
887.459	2247
887.517	3163
887.564	3704
887.596	3340
887.669	2842
887.676	2847
887.755	2510
887.774	2457
887.835	2590
887.880	2695
887.914	2471
887.985	1855
887.994	1962
888.073	2902
888.090	3096
888.153	3371
888.195	3538
888.232	3135
888.300	2305
888.311	2290
888.391	2183
888.405	2156
888.470	2615
888.510	2877
888.549	2603
888.615	2164
888.628	2243
888.708	2594
888.720	2646
888.787	2753
888.825	2797
888.866	2611
888.930	2317
888.945	2342
889.024	2447
889.035	2457
889.103	2993
889.140	3227
889.182	3027
889.245	2784
889.261	2885
889.340	3282
889.349	3323
889.419	2657
889.454	2300
889.498	2498
889.559	2779
889.577	2840
889.656	3067
889.664	3084
889.735	2948
889.768	2869
889.814	2872
889.873	2859
889.978	3149
890.083	2684
890.187	2924
890.292	3011
890.397	2660
890.501	2381
890.606	2600
890.710	2210
890.815	3174
890.919	3060
891.024	2900
891.128	2725
891.233	2365
891.337	3691
891.442	3051
891.546	3234
891.650	2464
891.755	1680
891.859	3992
891.963	3292
892.068	3323
892.172	3081
892.276	2209
892.380	2753
892.484	3331
892.589	2458
892.693	2262
892.797	2055
892.901	2445
893.005	2252
893.109	2469
893.213	2958
893.317	3268
893.421	2243
893.525	2745
893.629	2917
893.733	3380
893.837	3253
893.941	2251
894.045	2717
894.148	2124
894.252	2072
894.356	3023
894.460	3801
894.564	2959
894.667	2656
894.771	2620
894.875	1767
894.978	3267
895.082	2874
895.186	3381
895.289	2448
895.393	2460
895.496	2447
895.600	2228
895.703	2658
895.807	2805
895.910	3197
896.014	2949
896.117	2876
896.221	3024
896.324	2467
896.427	2663
896.531	1653
896.634	1738
896.737	2923
896.840	2369
896.944	2715
897.047	2049
897.150	3034
897.253	2347
897.356	3252
897.460	1972
897.563	3169
897.666	2732
897.769	1880
897.872	2562
897.975	2192
898.078	3006
898.181	1957
898.284	1925
898.387	2203
898.490	2941
898.593	2166
898.695	2497
898.798	2093
898.901	2767
899.004	3216
899.107	1978
899.209	2729
899.312	2958
899.415	2839
899.518	1946
899.620	1993
899.723	2472
899.826	4816
899.928	5214
900.031	2298
900.133	2773
900.236	2238
900.338	1952
900.441	2353
900.543	2477
900.646	1801
900.748	1758
900.851	2615
900.953	2480
901.055	3134
901.158	3209
901.260	2479
901.362	2075
901.465	1998
901.567	2660
901.669	2421
901.771	2407
901.873	2057
901.976	2281
902.078	1930
902.180	2245
902.282	2246
902.384	2513
902.486	3498
902.588	2884
902.690	3066
902.792	2571
902.894	2503
902.996	2389
903.098	2580
903.200	2095
903.302	2202
903.404	2260
903.505	1013
903.607	2455
903.709	2573
903.811	2251
903.913	2634
904.014	1967
904.116	1285
904.218	1718
904.319	1183
904.421	3206
904.523	2001
904.624	1621
904.726	1151
904.827	2774
904.929	1519
905.030	1701
905.132	1851
905.233	2037
905.335	1643
905.436	1378
905.537	1729
905.639	1962
905.740	1808
905.841	2565
905.943	2105
906.044	2594
906.145	1969
906.247	1734
906.348	2816
906.449	2778
906.550	2974
906.651	2987
906.752	2287
906.854	1532
906.955	1851
907.056	2905
907.157	2086
907.258	2692
907.359	1761
907.460	2282
907.561	2192
907.662	2325
907.762	1876
907.863	2857
907.964	1938
908.065	1804
908.166	2229
908.267	2214
908.367	1726
908.468	3175
908.569	2590
908.670	3027
908.770	3314
908.871	4167
908.971	3471
909.072	3380
909.173	1820
909.273	2326
909.374	2038
909.474	2277
909.575	1618
909.675	1970
909.776	1926
909.876	2050
909.977	2412
910.077	2379
910.177	2359
910.278	1814
910.378	2152
910.478	2544
910.579	2040
910.679	2686
910.779	3086
910.879	2351
910.980	2613
911.080	2701
911.180	1718
911.280	1986
911.380	1481
911.480	1709
911.580	1502
911.680	2305
911.780	2452
911.880	3078
911.980	1033
912.080	1726
912.180	1722
912.280	2461
912.380	1415
912.480	1986
912.580	1825
912.679	2261
912.779	1720
912.879	2098
912.979	1708
913.078	1927
913.178	2223
913.278	2093
913.377	1251
913.477	1553
913.577	1788
913.676	2435
913.776	1978
913.875	2468
913.975	1769
914.074	1366
914.174	2436
914.273	1600
914.373	2162
914.472	1896
914.572	1907
914.671	1996
914.770	2056
914.870	1356
914.969	1544
915.068	1917
915.167	1963
915.267	2119
915.366	1825
915.465	2789
915.564	2338
915.663	2412
915.763	1853
915.862	2248
915.961	2241
916.060	1778
916.159	1100
916.258	1826
916.357	1342
916.456	2079
916.555	2448
916.654	1764
916.752	2919
916.851	2194
916.950	2330
917.049	1673
917.148	1416
917.247	2473
917.345	1711
917.444	1679
917.543	1418
917.642	1506
917.740	1757
917.839	2621
917.937	2544
918.036	2768
918.135	1707
918.233	1597
918.332	1006
918.430	1349
918.529	1314
918.627	1439
918.726	2100
918.824	2704
918.923	1940
919.021	2560
919.119	1816
919.218	1642
919.316	1344
919.414	2067
919.512	2500
919.611	1531
919.709	2223
919.807	1923
919.905	2224
920.003	1269
920.102	2004
920.200	1935
920.298	2200
920.396	2555
920.494	2300
920.592	1742
920.690	2787
920.788	2303
920.886	2055
920.984	2860
921.082	2029
921.180	3076
921.277	2560
921.375	3374
921.473	3092
921.571	3793
921.669	2918
921.766	2899
921.864	2918
921.962	2901
922.060	3481
922.157	3460
922.255	3035
922.352	3813
922.450	3805
922.548	3137
922.645	3759
922.743	4196
922.840	6080
922.938	6739
923.035	6981
923.133	6685
923.230	7074
923.327	8459
923.425	7314
923.522	7629
923.619	6180
923.717	6301
923.814	5448
923.911	6459
924.008	6615
924.106	6283
924.203	6442
924.300	5544
924.397	6100
924.494	6656
924.591	6701
924.688	6402
924.786	5788
924.883	5295
924.979	5559
925.077	5600
925.173	5537
925.270	6075
925.367	6157
925.464	6254
925.561	6443
925.658	7533
925.755	6143
925.852	7043
925.948	6169
926.045	5501
926.142	6288
926.239	5561
926.335	5043
926.432	6223
926.529	5737
926.625	6234
926.722	4935
926.818	5398
926.915	5966
927.011	5582
927.108	5007
927.204	6192
927.301	4618
927.397	6644
927.494	5103
927.590	3587
927.687	4916
927.783	5778
927.879	5037
927.976	4820
928.072	4656
928.168	5528
928.264	4799
928.361	4642
928.457	6030
928.553	5533
928.649	5402
928.745	4995
928.841	4740
928.937	5303
929.033	5910
929.129	5805
929.225	4823
929.321	4932
929.417	3856
929.513	5273
929.609	4001
929.705	4413
929.801	5464
929.897	4181
929.993	4314
930.089	4892
930.184	4520
930.280	4905
930.376	5965
930.471	4048
930.567	3484
930.663	4616
930.758	3896
930.854	3907
930.950	3933
931.045	4361
931.141	4229
931.236	5553
931.332	4290
931.427	3978
931.523	4783
931.618	5052
931.714	4419
931.809	4877
931.905	4977
932.000	4560
932.095	3399
932.191	5108
932.286	4663
932.381	3525
932.476	4917
932.572	4570
932.667	3999
932.762	3007
932.857	4402
932.952	4965
933.047	4203
933.142	3491
933.237	4932
933.332	4064
933.427	4835
933.522	4367
933.617	3792
933.712	3616
933.807	4857
933.902	4076
933.997	4623
934.092	2507
934.187	3804
934.282	3287
934.376	4081
934.471	3672
934.566	3321
934.661	3359
934.755	3700
934.850	3562
934.945	3918
935.039	3420
935.134	2430
935.228	3839
935.323	3743
935.417	2253
935.512	2378
935.606	3093
935.701	2908
935.795	4635
935.890	3412
935.984	3638
936.079	2711
936.173	3934
936.267	2194
936.362	2826
936.456	3478
936.550	4730
936.644	3882
936.738	2860
936.833	2644
936.927	3637
937.021	2341
937.115	4200
937.209	3148
937.303	3711
937.397	2337
937.491	3155
937.585	3477
937.679	3640
937.773	2921
937.867	2435
937.961	3007
938.055	4140
938.149	3486
938.243	3108
938.337	2304
938.430	3161
938.524	4018
938.618	3224
938.712	2610
938.805	2326
938.899	3380
938.993	3411
939.086	3563
939.180	2196
939.274	2557
939.367	3676
939.461	2629
939.554	3055
939.648	2344
939.741	2823
939.835	2814
939.928	3784
940.022	3151
940.115	2709
940.208	3547
940.302	3903
940.395	4750
940.488	2411
940.582	3156
940.675	1806
940.768	2893
940.861	3184
940.954	3284
941.048	1537
941.141	1971
941.234	3798
941.327	4160
941.420	5295
941.513	3961
941.606	1770
941.699	2906
941.792	3268
941.885	2889
941.978	3372
942.071	2268
942.164	2249
942.257	2423
942.349	2824
942.442	2855
942.535	2186
942.628	2283
942.721	3094
942.813	1592
942.906	3280
942.999	1838
943.091	1880
943.184	2927
943.277	1424
943.369	1929
943.462	1432
943.554	2581
943.647	2060
943.739	2943
943.832	2129
943.924	1289
944.017	2148
944.109	2032
944.201	1658
944.294	1649
944.386	2368
944.478	2820
944.571	2233
944.663	1947
944.755	2655
944.847	1882
944.940	2253
945.032	942
945.124	1296
945.216	2671
945.308	1894
945.400	2931
945.492	2599
945.584	2441
945.676	1631
945.768	1941
945.860	2460
945.952	1993
946.044	1891
946.136	1631
946.228	3081
946.320	2187
946.412	2278
946.503	2238
946.595	2642
946.687	1673
946.779	1317
946.870	1789
946.962	1486
947.054	2309
947.145	2182
947.237	1784
947.329	1990
947.420	1297
947.512	1598
947.603	1349
947.695	1902
947.786	1896
947.878	1377
947.969	2650
948.061	2230
948.152	1217
948.243	1596
948.335	780
948.426	1171
948.517	1205
948.609	2111
948.700	1125
948.791	2003
948.882	1187
948.973	907
949.065	1274
949.156	815
949.247	1368
949.338	2291
949.429	549
949.520	950
949.611	499
949.702	1735
949.793	1010
949.884	626
949.975	1606
950.066	1222
950.157	346
950.247	1602
950.338	1460
950.429	1364
950.520	857
950.611	2225
950.701	1706
950.792	2644
950.883	2194
950.973	1618
951.064	2081
951.155	1758
951.245	1207
951.336	1923
951.427	1780
951.517	2444
951.608	956
951.698	510
951.788	1250
951.879	1263
951.969	1191
952.060	1116
952.150	1638
952.240	1332
952.331	336
952.421	2040
952.511	771
952.602	1429
952.692	636
952.782	1763
952.872	751
952.962	1376
953.052	1041
953.143	1168
953.233	1105
953.323	1048
953.413	916
953.503	1971
953.593	1287
953.683	1134
953.773	964
953.863	1159
953.953	-35
954.042	1726
954.132	1511
954.222	1673
954.312	1402
954.402	856
954.492	2433
954.581	3919
954.671	1562
954.761	450
954.850	2106
954.940	-36
955.030	1008
955.119	249
955.209	491
955.298	867
955.388	1602
955.477	2444
955.567	-81
955.656	1338
955.746	851
955.835	-158
955.925	587
956.014	790
956.103	908
956.193	2130
956.282	1604
956.371	425
956.461	-60
956.550	783
956.639	810
956.728	411
956.817	837
956.906	1332
956.995	1834
957.085	1029
957.174	929
957.263	743
957.352	611
957.441	317
957.530	794
957.619	932
957.708	447
957.796	-125
957.885	1289
957.974	453
958.063	498
958.152	-349
958.241	366
958.329	931
958.418	320
958.507	-391
958.596	2087
958.684	1009
958.773	1176
958.861	156
958.950	383
959.039	-66
959.127	143
959.216	761
959.304	308
959.393	840
959.481	929
959.570	777
959.658	268
959.746	877
959.835	2235
959.923	5574
960.011	1555
960.100	920
960.188	801
960.276	-191
960.365	763
960.453	515
960.541	-408
960.629	1061
960.717	321
960.805	-745
960.893	640
960.981	330
961.069	2273
961.158	542
961.245	1846
961.333	1021
961.421	404
961.509	1003
961.597	902
961.685	1032
961.773	952
961.861	-64
961.949	616
962.036	-351
962.124	573
962.212	602
962.299	-29
962.387	-242
962.475	191
962.562	-456
962.650	924
962.738	533
962.825	535
962.913	605
963.000	420
963.088	600
963.175	370
963.263	768
963.350	578
963.438	717
963.525	1507
963.612	3918
963.700	10081
963.787	26256
963.874	11088
963.962	1825
964.049	451
964.136	1022
964.223	-234
964.310	1525
964.398	-11
964.485	1121
964.572	1064
964.659	3636
964.746	3245
964.833	287
964.920	-239
965.007	779
965.094	335
965.181	16
965.268	494
965.355	53
965.441	193
965.528	-144
965.615	840
965.702	125
965.789	-438
965.875	654
965.962	-329
966.049	478
966.136	807
966.222	960
966.309	601
966.395	335
966.482	301
966.569	1
966.655	666
966.742	735
966.828	-93
966.915	56
967.001	384
967.087	113
967.174	603
967.260	756
967.347	2017
967.433	8082
967.519	16275
967.605	5674
967.692	606
967.778	574
967.864	-206
967.950	-218
968.036	-487
968.123	249
968.209	503
968.295	-1330
968.381	1835
968.467	112
968.553	-1397
968.639	618
968.725	308
968.811	3008
968.897	2827
968.983	854
969.069	-1351
969.154	898
969.240	312
969.326	-731
969.412	-73
969.497	7
969.583	192
969.669	1415
969.755	-434
969.840	-308
969.926	937
970.012	1545
970.097	2383
970.183	1433
970.268	862
970.354	2081
970.439	3521
970.525	10785
970.610	3024
970.696	879
970.781	39
970.866	-1090
970.952	1103
971.037	-349
971.122	-34
971.208	512
971.293	115
971.378	-991
971.463	-471
971.549	1070
971.634	273
971.719	58
971.804	1268
971.889	1431
971.974	-181
972.059	-190
972.144	-547
972.229	506
972.314	-734
972.399	637
972.484	389
972.569	580
972.654	404
972.739	4254
972.824	5178
972.908	140
972.993	-664
973.078	-419
973.163	-242
973.247	159
973.332	-1089
973.417	687
973.501	-1046
973.586	-387
973.671	564
973.755	542
973.840	433
973.924	642
974.009	330
974.093	661
974.178	2196
974.262	3268
974.346	2793
974.431	392
974.515	695
974.600	711
974.684	-60
974.768	-1238
974.852	338
974.937	-441
975.021	50
975.105	-389
975.189	-138
975.273	551
975.358	-237
975.442	-1074
975.526	509
975.610	-46
975.694	-940
975.778	368
975.862	-36
975.946	-1106
976.030	792
976.114	-682
976.198	-152
976.281	306
976.365	-73
976.449	-136
976.533	-346
976.617	-977
976.700	-153
976.784	-197
976.868	36
976.951	2543
977.035	1063
977.119	281
977.202	-804
977.286	-500
977.369	316
977.453	1951
977.536	150
977.620	245
977.703	242
977.787	-644
977.870	1462
977.953	740
978.037	-588
978.120	2172
978.203	2127
978.287	5622
978.370	2174
978.453	156
978.536	-271
978.620	1883
978.703	2491
978.786	438
978.869	-1096
978.952	-803
979.035	1807
979.118	439
979.201	-747
979.284	67
979.367	-128
979.450	-325
979.533	-157
979.616	70
979.699	-851
979.782	108
979.865	-358
979.948	-1336
980.030	-691
980.113	-80
980.196	-990
980.279	-313
980.361	-515
980.444	-37
980.526	-365
980.609	81
980.692	89
980.774	856
980.857	-685
980.939	161
981.022	-90
981.104	-740
981.187	-747
981.269	362
981.352	-528
981.434	-990
981.516	-654
981.599	709
981.681	418
981.763	-135
981.846	-593
981.928	-62
982.010	-1198
982.092	-960
982.174	743
982.256	-1391
982.339	-488
982.421	-830
982.503	-376
982.585	-979
982.667	-970
982.749	-454
982.831	-76
982.913	-1787
982.995	78
983.077	-332
983.158	1014
983.240	-403
983.322	372
983.404	1381
983.486	-468
983.568	-99
983.649	-318
983.731	308
983.813	-281
983.894	-55
983.976	-623
984.058	-319
984.139	716
984.221	-427
984.302	905
984.384	-489
984.465	-266
984.547	-342
984.628	-541
984.710	533
984.791	-462
984.872	-136
984.954	-863
985.035	-73
985.116	-702
985.198	-485
985.279	809
985.360	-39
985.441	-7
985.522	656
985.604	-10
985.685	-1307
985.766	131
985.847	490
985.928	-1359
986.009	-1296
986.090	-198
986.171	769
986.252	-97
986.333	-751
986.414	-240
986.495	-215
986.576	-646
986.656	285
986.737	744
986.818	301
986.899	-402
986.980	376
987.060	628
987.141	39
987.222	538
987.302	337
987.383	393
987.464	-108
987.544	1007
987.625	520
987.705	980
987.786	1199
987.866	572
987.947	418
988.027	1499
988.108	-299
988.188	65
988.268	714
988.349	943
988.429	-9
988.509	329
988.589	-325
988.670	-819
988.750	1464
988.830	-7
988.910	889
988.990	30
989.070	-329
989.151	316
989.231	-430
989.311	482
989.391	-561
989.471	-666
989.551	-86
989.631	-730
989.711	84
989.791	-1042
989.870	-1045
989.950	799
990.030	-689
990.110	516
990.190	-752
990.269	419
990.349	208
990.429	-82
990.509	-317
990.588	-884
990.668	1094
990.747	374
990.827	380
990.907	201
990.986	-422
991.066	-359
991.145	-1295
991.225	-258
991.304	-8
991.383	49
991.463	-464
991.542	456
991.622	-397
991.701	-125
991.780	-467
991.859	-111
991.939	-323
992.018	-296
992.097	-270
992.176	-920
992.256	70
992.335	-242
992.414	-120
992.493	-1391
992.572	-514
992.651	935
992.730	-554
992.809	-631
992.888	-800
992.967	-172
993.046	331
993.125	-1214
993.203	-450
993.282	554
993.361	-1294
993.440	-21
993.519	-1317
993.597	-398
993.676	-994
993.755	-153
993.834	-559
993.912	-1807
993.991	502
994.069	-636
994.148	-624
994.226	-263
994.305	-1244
994.384	-1089
994.462	77
994.540	-1151
994.619	-1107
994.697	114
994.776	-404
994.854	-518
994.932	-454
995.011	-891
995.089	-1274
995.167	-1071
995.245	-431
995.324	-1360
995.402	-1433
995.480	-1226
995.558	-817
995.636	-1415
995.714	-379
995.792	449
995.870	-1377
995.948	-1263
996.026	-558
996.104	-1847
996.182	-156
996.260	-961
996.338	140
996.416	-1941
996.494	-965
996.572	517
996.649	-1232
996.727	-1515
996.805	-202
996.883	-1049
996.960	-904
997.038	-166
997.116	-304
997.193	-997
997.271	-727
997.348	-1106
997.426	-157
997.504	-1730
997.581	-544
997.658	-1218
997.736	-1357
997.813	-2098
997.891	231
997.968	-1179
998.046	-1187
998.123	-669
998.200	-512
998.277	-1173
998.355	-229
998.432	-2310
998.509	-1429
998.586	59
998.663	-503
998.741	-1150
998.818	-1075
998.895	-1051
998.972	-1195
999.049	-536
999.126	-1742
999.203	-529
999.280	-702
999.357	-1583
999.434	-1711
999.511	-844
999.587	-417
999.664	-1198
999.741	-439
999.818	12
999.895	-1521
999.971	-1028
1000.048	-844
1000.125	-286
1000.202	-1204
1000.278	-818
1000.355	-1095
1000.431	-1147
1000.508	-1900
1000.584	-1240
1000.661	-839
1000.738	-2001
1000.814	-905
1000.890	-740
1000.967	-252
1001.043	-749
1001.120	-1010
1001.196	-1092
1001.272	-1800
1001.349	-1263
1001.425	-63
1001.501	-1493
1001.577	-1383
1001.654	-1041
1001.730	-1580
1001.806	-685
1001.882	-1176
1001.958	-1068
1002.034	-799
1002.110	-837
1002.186	-1886
1002.262	-1237
1002.338	-1272
1002.414	-895
1002.490	-545
1002.566	-1395
1002.642	-1197
1002.718	162
1002.794	-410
1002.870	-1804
1002.945	-1133
1003.021	-359
1003.097	-903
1003.173	-129
1003.248	-2208
1003.324	-1386
1003.400	-1067
1003.475	-1566
1003.551	-1467
1003.626	-956
1003.702	-1158
1003.777	-1787
1003.853	-1310
1003.928	-1134
1004.004	-587
1004.079	-389
1004.155	-1110
1004.230	-1927
1004.305	34
1004.381	-1473
1004.456	-1295
1004.531	-1269
1004.607	-1309
1004.682	-575
1004.757	-959
1004.832	-934
1004.907	-1191
1004.982	-589
1005.057	-226
1005.133	-1792
1005.208	-937
1005.283	-1623
1005.358	-834
1005.433	-2494
1005.508	-726
1005.583	-1070
1005.657	-1492
1005.732	179
1005.807	-2364
1005.882	-690
1005.957	-1315
1006.032	-1173
1006.106	-1556
1006.181	-1495
1006.256	-1088
1006.331	-1746
1006.405	-1556
1006.480	-949
1006.554	-1278
1006.629	-1074
1006.704	-1616
1006.778	-1823
1006.853	-1618
1006.927	-1617
1007.002	-1712
1007.076	-769
1007.150	-1409
1007.225	-734
1007.299	-1004
1007.373	-2075
1007.448	-1676
1007.522	-876
1007.596	-828
1007.671	-1539
1007.745	-724
1007.819	-1734
1007.893	-1471
1007.967	-1638
1008.041	-2341
1008.115	-1703
1008.190	-1802
1008.264	-1568
1008.338	-2489
1008.412	-2201
1008.486	-1956
1008.560	-1743
1008.633	-1693
1008.707	-2157
1008.781	-828
1008.855	-1428
1008.929	-2333
1009.003	-1450
1009.076	-606
1009.150	-1572
1009.224	-1095
1009.298	-1243
1009.371	-1324
1009.445	-840
1009.519	-1262
1009.592	-2100
1009.666	-1551
1009.739	-950
1009.813	-2756
1009.886	-1139
1009.960	-2060
1010.033	-1873
1010.107	-604
1010.180	-1376
1010.253	-1344
1010.327	-2061
1010.400	-1649
1010.473	-2099
1010.547	-578
1010.620	-1806
1010.693	-2124
1010.766	-1739
1010.840	-1201
1010.913	-1415
1010.986	-1428
1011.059	-1983
1011.132	-1929
1011.205	-1490
1011.278	-1167
1011.351	-1188
1011.424	-964
1011.497	-2672
1011.570	-1244
1011.643	-2717
1011.716	-2391
1011.789	-2400
1011.862	-857
1011.934	-1189
1012.007	-2307
1012.080	-1041
1012.153	-1579
1012.225	-925
1012.298	-1911
1012.371	-1899
1012.443	-379
1012.516	-2215
1012.588	-1969
1012.661	-1858
1012.733	-2864
1012.806	-984
1012.879	-1762
1012.951	-1409
1013.023	-1860
1013.096	-1955
1013.168	-2226
1013.241	-1349
1013.313	-1825
1013.385	-1048
1013.458	-1472
1013.530	-1652
1013.602	-2729
1013.674	-1066
1013.746	-2232
1013.819	-1798
1013.891	-1238
1013.963	-2336
1014.035	-1456
1014.107	-1980
1014.179	-2218
1014.251	-2187
1014.323	-1085
1014.395	-2019
1014.467	-2224
1014.539	-1309
1014.611	-2432
1014.683	-1649
1014.754	-1411
1014.826	-2343
1014.898	-1764
1014.970	-2748
1015.042	-921
1015.113	-1573
1015.185	-1079
1015.257	-2628
1015.328	-2202
1015.400	-2195
1015.471	-1666
1015.543	-2094
1015.615	-1980
1015.686	-2284
1015.757	-1544
1015.829	-1983
1015.901	-2199
1015.972	-2105
1016.043	-1809
1016.115	-1628
1016.186	-2379
1016.257	-2331
1016.328	-1750
1016.400	-1503
1016.471	-2205
1016.542	-1957
1016.613	-2118
1016.685	-3239
1016.756	-1949
1016.827	-1841
1016.898	-2047
1016.969	-1558
1017.040	-2278
1017.111	-1990
1017.182	-1673
1017.253	-2298
1017.324	-1370
1017.395	-2467
1017.466	-1683
1017.537	-1909
1017.608	-2332
1017.678	-1877
1017.749	-1886
1017.820	-1898
1017.891	-1838
1017.961	-1720
1018.032	-2186
1018.103	-1967
1018.173	-2301
1018.244	-2360
1018.315	-1444
1018.385	-1883
1018.456	-2320
1018.526	-1995
1018.597	-2225
1018.667	-2513
1018.738	-2203
1018.808	-1540
1018.878	-3168
1018.949	-2260
1019.019	-1781
1019.089	-1371
1019.160	-1789
1019.230	-3088
1019.300	-2259
1019.371	-1974
1019.441	-1919
1019.511	-2212
1019.581	-1914
1019.651	-1329
1019.721	-1757
1019.791	-2180
1019.861	-2151
1019.931	-1736
1020.001	-2318
1020.071	-2053
1020.141	-1714
1020.211	-2081
1020.281	-2102
1020.351	-2815
1020.421	-1235
1020.491	-959
1020.560	-2207
1020.630	-2239
1020.700	-1409
1020.770	-2193
1020.839	-2644
1020.909	-2305
1020.979	-1815
1021.048	-2943
1021.118	-1814
1021.187	-1742
1021.257	-2419
1021.326	-2126
1021.396	-1832
1021.465	-1617
1021.535	-2006
1021.604	-1808
1021.674	-2362
1021.743	-2607
1021.812	-2353
1021.882	-1423
1021.951	-2290
1022.020	-2149
1022.089	-1578
1022.159	-2284
1022.228	-2382
1022.297	-2222
1022.366	-2245
1022.435	-2338
1022.504	-2218
1022.573	-1701
1022.642	-2363
1022.711	-1761
1022.781	-3024
1022.849	-1804
1022.918	-2284
1022.987	-3172
1023.056	-2306
1023.125	-1988
1023.194	-2017
1023.263	-1639
1023.331	-2127
1023.400	-2341
1023.469	-2607
1023.538	-1494
1023.606	-2381
1023.675	-2030
1023.744	-2569
1023.812	-2596
1023.881	-1351
1023.949	-2382
1024.018	-2482
1024.086	-2210
1024.155	-2079
1024.223	-2947
1024.292	-2107
1024.360	-1927
1024.429	-1343
1024.497	-2510
1024.565	-1850
1024.634	-2006
1024.702	-1619
1024.770	-2397
1024.838	-2989
1024.907	-2636
1024.975	-3170
1025.043	-2119
1025.111	-2472
1025.179	-1925
1025.247	-2547
1025.315	-2815
1025.383	-2103
1025.451	-2543
1025.519	-2450
1025.587	-2543
1025.655	-2057
1025.723	-2401
1025.791	-2595
1025.859	-1980
1025.927	-1324
1025.995	-2235
1026.062	-2279
1026.130	-2701
1026.198	-2181
1026.266	-3059
1026.333	-2331
1026.401	-2089
1026.469	-2359
1026.536	-2098
1026.604	-2188
1026.671	-2507
1026.739	-2092
1026.806	-2291
1026.874	-2536
1026.941	-2436
1027.009	-2601
1027.076	-1876
1027.144	-1698
1027.211	-3037
1027.278	-2518
1027.345	-1863
1027.413	-1961
1027.480	-2832
1027.547	-2383
1027.614	-2501
1027.682	-1756
1027.749	-2366
1027.816	-2126
1027.883	-2944
1027.950	-2110
1028.017	-2389
1028.084	-2155
1028.151	-3144
1028.218	-2598
1028.285	-2157
1028.352	-2691
1028.419	-2792
1028.486	-3212
1028.553	-2436
1028.619	-2458
1028.686	-2224
1028.753	-1932
1028.820	-2875
1028.886	-2658
1028.953	-2380
1029.020	-2498
1029.086	-2730
1029.153	-1848
1029.220	-2585
1029.286	-1943
1029.353	-1816
1029.419	-1950
1029.486	-2491
1029.552	-2345
1029.619	-2520
1029.685	-2785
1029.751	-2368
1029.818	-2433
1029.884	-2826
1029.951	-1971
1030.017	-2689
1030.083	-2598
1030.149	-2176
1030.216	-2244
1030.282	-2515
1030.348	-2324
1030.414	-2058
1030.480	-2591
1030.546	-2564
1030.612	-1920
1030.678	-3233
1030.744	-2187
1030.810	-1870
1030.876	-2247
1030.942	-1958
1031.008	-2369
1031.074	-2632
1031.140	-2336
1031.206	-2387
1031.272	-3237
1031.337	-2643
1031.403	-1583
1031.469	-2838
1031.534	-2316
1031.600	-2055
1031.666	-2217
1031.731	-2637
1031.797	-2244
1031.863	-3280
1031.928	-2442
1031.994	-2832
1032.059	-2094
1032.125	-2772
1032.190	-2721
1032.256	-2416
1032.321	-2928
1032.386	-2411
1032.452	-1991
1032.517	-2755
1032.582	-2254
1032.647	-2142
1032.713	-2027
1032.778	-2317
1032.843	-3136
1032.908	-2329
1032.974	-2117
1033.039	-2102
1033.104	-1683
1033.169	-2833
1033.234	-2921
1033.299	-1207
1033.364	-1769
1033.429	-1408
1033.494	-1356
1033.559	-2206
1033.624	-2655
1033.688	-1678
1033.753	-1618
1033.818	-1906
1033.883	-1643
1033.948	-2175
1034.013	-2565
1034.077	-1147
1034.142	-654
1034.207	-389
1034.271	988
1034.336	1200
1034.400	-356
1034.465	-216
1034.530	-602
1034.594	-2214
1034.658	-1767
1034.723	-1500
1034.787	-2136
1034.852	-1261
1034.916	-2571
1034.981	-1583
1035.045	-2691
1035.109	-1900
1035.173	-1750
1035.238	-2475
1035.302	-1791
1035.366	-2333
1035.430	-2325
1035.495	-2496
1035.559	-2267
1035.623	-2420
1035.687	-2423
1035.751	-1884
1035.815	-2903
1035.879	-3264
1035.943	-2292
1036.007	-2300
1036.071	-2165
1036.135	-2036
1036.198	-2324
1036.262	-1796
1036.326	-2407
1036.390	-2533
1036.454	-2036
1036.517	-1359
1036.581	-1949
1036.645	-518
1036.709	-585
1036.772	-2045
1036.836	-1798
1036.900	-1741
1036.963	-2138
1037.026	-2193
1037.090	-2063
1037.154	-1727
1037.217	-2253
1037.280	-2703
1037.344	-962
1037.407	-2381
1037.471	-2253
1037.534	-2356
1037.597	-1688
1037.661	-1855
1037.724	-2007
1037.787	-2981
1037.850	-1868
1037.913	-1790
1037.977	-1886
1038.040	-2806
1038.103	-2428
1038.166	-2672
1038.229	-2002
1038.292	-2410
1038.355	-2179
1038.418	-2037
1038.481	-1272
1038.544	-2601
1038.607	-1718
1038.670	-2478
1038.732	-2035
1038.795	-2102
1038.858	-1980
1038.921	-2798
1038.984	-2027
1039.046	-1954
1039.109	-2229
1039.172	-2853
1039.234	-1667
1039.297	-1861
1039.360	-1349
1039.422	-2742
1039.485	-2192
1039.547	-2302
1039.610	-1494
1039.672	-1658
1039.734	-2035
1039.797	-2173
1039.859	-1564
1039.922	-2050
1039.984	-2995
1040.046	-2646
1040.109	-1850
1040.171	-2052
1040.233	-2004
1040.295	-2375
1040.358	-2235
1040.420	-2652
1040.482	-1397
1040.544	-2818
1040.606	-2049
1040.668	-1798
1040.730	-2446
1040.792	-2095
1040.854	-2029
1040.916	-1897
1040.978	-1584
1041.040	-1256
1041.102	-1549
1041.164	-2941
1041.225	-2810
1041.287	-1871
1041.349	-1986
1041.411	-2514
1041.472	-1920
1041.534	-2455
1041.596	-2552
1041.657	-2031
1041.719	-1927
1041.781	-1782
1041.842	-2132
1041.904	-2465
1041.965	-1243
1042.027	-1539
1042.088	-1430
1042.150	-2608
1042.211	-2207
1042.272	-1515
1042.334	-2287
1042.395	-2379
1042.456	-2252
1042.518	-1429
1042.579	-1484
1042.640	-2212
1042.701	-2003
1042.763	-2110
1042.824	-2519
1042.885	-2315
1042.946	-2024
1043.007	-2285
1043.068	-1834
1043.129	-2544
1043.190	-1615
1043.251	-1944
1043.312	-1663
1043.373	-1817
1043.434	-1529
1043.495	-1375
1043.556	-1828
1043.616	-1407
1043.677	-1903
1043.738	-2442
1043.799	-1745
1043.859	-1920
1043.920	-1831
1043.981	-1946
1044.041	-2008
1044.102	-2062
1044.162	-1821
1044.223	-2332
1044.284	-1612
1044.344	-1846
1044.405	-1765
1044.465	-1598
1044.525	-1578
1044.586	-2076
1044.646	-1993
1044.707	-1910
1044.767	-2231
1044.827	-1834
1044.887	-1227
1044.948	-1558
1045.008	-1118
1045.068	-2070
1045.128	-1998
1045.188	-1881
1045.249	-1537
1045.309	-2467
1045.369	-956
1045.429	-2121
1045.489	-2035
1045.549	-1748
1045.609	-2018
1045.669	-2595
1045.729	-1337
1045.789	-2132
1045.848	-1712
1045.908	-1987
1045.968	-2105
1046.028	-1230
1046.088	-1577
1046.147	-2033
1046.207	-999
1046.267	-2061
1046.326	-1322
1046.386	-1765
1046.446	-1524
1046.505	-1563
1046.565	-539
1046.624	-119
1046.684	-947
1046.743	-1338
1046.803	4
1046.862	-268
1046.922	0
