'Start Wavelength	183.907
'End Wavelength	1046.922
'Gate Delay	5.000
'Gate Width (ms)	1.050
'Laser Output Level	0.000
'X Position	0.000
'Y Position	0.000
'Z Position	0.000
'Grid Point Number	1.000
'Shot Number	100.000
183.907	311.000
183.977	-437.000
184.047	429
184.116	998
184.186	-295
184.256	874
184.325	253
184.395	-557
184.465	620
184.534	-342
184.604	553
184.674	95
184.743	-160
184.813	385
184.883	466
184.952	55
185.022	917
185.092	-315
185.161	652
185.231	448
185.301	219
185.370	497
185.440	-38
185.509	179
185.579	281
185.649	315
185.718	482
185.788	447
185.857	-595
185.927	298
185.996	30
186.066	405
186.136	488
186.205	209
186.275	50
186.344	-166
186.414	941
186.483	-771
186.553	870
186.622	1861
186.692	237
186.761	-103
186.831	32
186.900	-41
186.970	898
187.039	-52
187.109	754
187.178	413
187.248	643
187.317	58
187.387	-152
187.456	526
187.526	779
187.595	-170
187.664	44
187.734	-243
187.803	927
187.873	606
187.942	1100
188.012	623
188.081	1358
188.150	142
188.220	848
188.289	1253
188.358	619
188.428	660
188.497	-663
188.567	916
188.636	-297
188.705	-115
188.775	469
188.844	-492
188.913	677
188.983	77
189.052	521
189.121	238
189.191	932
189.260	736
189.329	1085
189.399	266
189.468	1095
189.537	166
189.606	522
189.676	116
189.745	131
189.814	719
189.883	557
189.953	962
190.022	702
190.091	2203
190.161	3237
190.230	914
190.299	-259
190.368	1115
190.437	344
190.507	1152
190.576	-531
190.645	55
190.714	867
190.783	281
190.853	141
190.922	816
190.991	421
191.060	607
191.129	-78
191.198	181
191.268	-241
191.337	665
191.406	687
191.475	-43
191.544	533
191.613	262
191.682	135
191.752	318
191.821	650
191.890	-230
191.959	-230
192.028	73
192.097	284
192.166	543
192.235	-107
192.304	102
192.373	816
192.442	-501
192.511	-80
192.580	-536
192.650	1200
192.719	514
192.788	1208
192.857	561
192.926	580
192.995	628
193.064	756
193.133	1207
193.202	534
193.271	1685
193.340	606
193.409	1389
193.478	1566
193.547	771
193.615	1632
193.684	2517
193.753	792
193.822	916
193.891	419
193.960	1240
194.029	486
194.098	388
194.167	531
194.236	1002
194.305	650
194.374	79
194.443	1102
194.512	756
194.580	771
194.649	1229
194.718	1422
194.787	621
194.856	-65
194.925	579
194.994	607
195.062	1167
195.131	-293
195.200	1101
195.269	1181
195.338	860
195.407	414
195.475	648
195.544	1382
195.613	563
195.682	39
195.751	1320
195.819	630
195.888	1050
195.957	2170
196.026	1046
196.094	724
196.163	1429
196.232	1152
196.301	1116
196.369	824
196.438	807
196.507	1110
196.576	822
196.644	336
196.713	468
196.782	-126
196.850	1147
196.919	33
196.988	265
197.056	208
197.125	331
197.194	81
197.262	874
197.331	-737
197.400	1387
197.468	338
197.537	292
197.606	752
197.674	1391
197.743	2004
197.812	514
197.880	2797
197.949	2299
198.017	2680
198.086	1806
198.155	1117
198.223	1108
198.292	3246
198.360	1357
198.429	725
198.497	953
198.566	633
198.635	2756
198.703	1142
198.772	1510
198.840	3084
198.909	3488
198.977	1676
199.046	593
199.114	673
199.183	899
199.251	436
199.320	-182
199.388	1088
199.457	615
199.525	240
199.594	187
199.662	640
199.731	116
199.799	438
199.867	1412
199.936	365
200.004	1883
200.073	792
200.141	1259
200.210	199
200.278	-29
200.346	952
200.415	1124
200.483	1014
200.552	607
200.620	597
200.688	781
200.757	651
200.825	407
200.893	195
200.962	709
201.030	1188
201.098	209
201.167	425
201.235	1200
201.303	73
201.372	1356
201.440	1197
201.508	1203
201.577	670
201.645	1076
201.713	136
201.781	971
201.850	1139
201.918	1675
201.986	651
202.055	1225
202.123	325
202.191	619
202.259	254
202.327	-32
202.396	88
202.464	302
202.532	1039
202.600	4552
202.669	3416
202.737	890
202.805	1114
202.873	-75
202.941	623
203.009	832
203.078	294
203.146	-107
203.214	523
203.282	275
203.350	193
203.418	641
203.487	820
203.555	1384
203.623	398
203.691	1090
203.759	227
203.827	405
203.895	843
203.963	1092
204.031	-15
204.099	964
204.168	398
204.236	1439
204.304	1596
204.372	1279
204.440	781
204.508	314
204.576	301
204.644	882
204.712	1103
204.780	869
204.848	1158
204.916	468
204.984	511
205.052	1175
205.120	1445
205.188	704
205.256	1401
205.324	301
205.392	501
205.460	371
205.528	1176
205.596	795
205.664	1210
205.732	984
205.799	3630
205.867	6303
205.935	652
206.003	896
206.071	1018
206.139	965
206.207	1843
206.275	668
206.343	332
206.411	561
206.478	1222
206.546	1189
206.614	1069
206.682	861
206.750	260
206.818	1226
206.885	1467
206.953	-94
207.021	1247
207.089	448
207.157	-199
207.225	788
207.292	475
207.360	1529
207.428	840
207.496	128
207.563	1127
207.631	877
207.699	535
207.767	398
207.834	193
207.902	1194
207.970	-114
208.038	457
208.105	970
208.173	1127
208.241	1059
208.309	1293
208.376	1992
208.444	2448
208.512	1621
208.579	-95
208.647	1877
208.715	2289
208.782	947
208.850	1264
208.918	366
208.985	1495
209.053	1162
209.120	1739
209.188	1047
209.256	643
209.323	516
209.391	1393
209.459	828
209.526	594
209.594	1236
209.661	-119
209.729	616
209.796	559
209.864	875
209.932	-561
209.999	2464
210.067	977
210.134	1451
210.202	834
210.269	2550
210.337	1715
210.404	1327
210.472	946
210.539	1894
210.607	827
210.674	1590
210.742	695
210.809	695
210.877	1032
210.944	1371
211.012	614
211.079	2049
211.146	709
211.214	1190
211.281	2267
211.349	1302
211.416	1373
211.484	1397
211.551	1022
211.618	1360
211.686	1172
211.753	349
211.821	1736
211.888	1321
211.955	1602
212.023	1483
212.090	614
212.157	1116
212.225	1149
212.292	3428
212.359	6658
212.427	18798
212.494	8429
212.561	2235
212.629	954
212.696	1786
212.763	1756
212.831	1197
212.898	1507
212.965	1116
213.032	2112
213.100	1201
213.167	1193
213.234	2401
213.301	892
213.369	1073
213.436	1645
213.503	1281
213.570	1593
213.638	1408
213.705	1250
213.772	932
213.839	1100
213.906	1727
213.973	1873
214.041	1911
214.108	1662
214.175	1305
214.242	1501
214.309	1213
214.376	1159
214.444	1264
214.511	2509
214.578	1448
214.645	1435
214.712	1477
214.779	913
214.846	1180
214.913	1502
214.980	2057
215.048	1932
215.115	2389
215.182	2119
215.249	1685
215.316	1490
215.383	1765
215.450	1351
215.517	847
215.584	1087
215.651	646
215.718	1398
215.785	2077
215.852	1220
215.919	2269
215.986	1330
216.053	1769
216.120	677
216.187	2852
216.254	1775
216.321	1459
216.388	1355
216.455	1800
216.522	2012
216.589	1677
216.656	3570
216.722	4049
216.789	2719
216.856	2730
216.923	2100
216.990	2207
217.057	2024
217.124	2845
217.191	2269
217.258	2846
217.324	3356
217.391	4923
217.458	3571
217.525	3279
217.592	2392
217.659	498
217.725	3072
217.792	3148
217.859	3405
217.926	759
217.993	695
218.059	1250
218.126	488
218.193	1729
218.260	1128
218.327	-226
218.393	961
218.460	734
218.527	360
218.594	1475
218.660	3072
218.727	3852
218.794	651
218.860	770
218.927	13
218.994	751
219.061	1335
219.127	2193
219.194	2853
219.261	1514
219.327	145
219.394	1533
219.461	83
219.527	877
219.594	2297
219.661	1214
219.727	838
219.794	1216
219.860	1416
219.927	1406
219.994	2564
220.060	3830
220.127	2476
220.193	1770
220.260	1336
220.326	2646
220.393	4543
220.460	7036
220.526	4537
220.593	2162
220.659	3776
220.726	2845
220.792	8712
220.859	7076
220.925	8585
220.992	12266
221.058	12916
221.125	12639
221.191	9629
221.258	3543
221.324	2038
221.391	2386
221.457	1452
221.524	1978
221.590	2780
221.657	12128
221.723	7206
221.789	7016
221.856	7089
221.922	2698
221.989	2301
222.055	1211
222.121	600
222.188	3328
222.254	1306
222.321	1788
222.387	646
222.453	612
222.520	496
222.586	616
222.652	875
222.719	803
222.785	1709
222.851	1101
222.918	1293
222.984	898
223.050	-140
223.116	24
223.183	1636
223.249	454
223.315	705
223.382	1096
223.448	817
223.514	786
223.580	1182
223.647	-489
223.713	469
223.779	1742
223.845	712
223.911	1010
223.978	-462
224.044	1106
224.110	821
224.176	1143
224.242	663
224.309	-300
224.375	814
224.441	653
224.507	321
224.573	-135
224.639	850
224.705	-784
224.772	771
224.838	392
224.904	771
224.970	793
225.036	1138
225.102	600
225.168	1531
225.234	758
225.300	1611
225.366	927
225.432	742
225.499	1336
225.565	601
225.631	757
225.697	1021
225.763	1729
225.829	2465
225.895	2002
225.961	3193
226.027	3881
226.093	2495
226.159	2125
226.225	4330
226.291	9760
226.357	17315
226.423	9272
226.489	4698
226.554	2325
226.620	2356
226.686	4066
226.752	6063
226.818	8824
226.884	22230
226.950	20561
227.016	7842
227.082	4245
227.148	3665
227.214	2984
227.279	2474
227.345	1723
227.411	2002
227.477	2082
227.543	4169
227.609	4188
227.674	3287
227.740	763
227.806	2028
227.872	756
227.938	2420
228.003	2770
228.069	1996
228.135	644
228.201	1050
228.267	606
228.332	1934
228.398	1574
228.464	2010
228.530	533
228.595	978
228.661	354
228.727	3057
228.792	2266
228.858	882
228.924	302
228.990	2686
229.055	1158
229.121	3001
229.187	1602
229.252	1372
229.318	837
229.384	705
229.449	1942
229.515	-158
229.581	-232
229.646	1800
229.712	1546
229.777	4550
229.843	5042
229.909	3116
229.974	2235
230.040	2226
230.105	1936
230.171	1008
230.236	2838
230.302	5002
230.368	3791
230.433	1632
230.499	2182
230.564	2797
230.630	336
230.695	1116
230.761	1628
230.826	-727
230.892	2956
230.957	645
231.023	223
231.088	1184
231.154	1586
231.219	2076
231.284	2104
231.350	3098
231.415	129
231.481	1766
231.546	980
231.612	243
231.677	434
231.742	-4
231.808	2377
231.873	44
231.939	-468
232.004	3396
232.069	3162
232.135	1054
232.200	1195
232.265	705
232.331	-26
232.396	287
232.461	368
232.527	482
232.592	807
232.657	1241
232.723	4610
232.788	3806
232.853	1871
232.918	1226
232.984	174
233.049	730
233.114	4472
233.179	4272
233.245	7402
233.310	11142
233.375	1712
233.440	2195
233.506	456
233.571	540
233.636	1431
233.701	1333
233.766	5410
233.832	8074
233.897	2775
233.962	1528
234.027	3106
234.092	2397
234.157	1764
234.222	1655
234.288	4152
234.353	20266
234.418	18590
234.483	8955
234.548	4850
234.613	2426
234.678	3572
234.743	3626
234.808	20682
234.873	11831
234.938	4418
235.004	2492
235.069	2314
235.134	1873
235.199	1810
235.264	1611
235.329	610
235.394	2264
235.459	3904
235.524	3156
235.589	2032
235.654	1085
235.719	355
235.784	2136
235.849	2343
235.913	10331
235.978	11138
236.043	13996
236.108	3615
236.173	3238
236.238	4624
236.303	2547
236.368	1814
236.433	5348
236.498	12333
236.563	5665
236.627	7628
236.692	28439
236.757	23745
236.822	9250
236.887	9167
236.952	6248
237.017	4438
237.081	5931
237.146	5707
237.211	11758
237.276	26420
237.341	51390
237.405	27288
237.470	9729
237.535	9142
237.600	5596
237.664	4222
237.729	2028
237.794	3430
237.859	9124
237.923	8854
237.988	4959
238.053	7816
238.118	9814
238.182	23824
238.247	25066
238.312	10992
238.376	6909
238.441	5304
238.506	4870
238.570	1975
238.635	3834
238.700	2149
238.764	2371
238.829	10390
238.893	15305
238.958	5282
239.023	4048
239.087	1685
239.152	3706
239.216	1832
239.281	1192
239.346	1754
239.410	2883
239.475	3360
239.539	23768
239.604	22149
239.668	4906
239.733	2800
239.797	4287
239.862	7922
239.926	20716
239.991	8536
240.055	3800
240.120	2655
240.184	1764
240.249	1932
240.313	1906
240.378	2489
240.442	12148
240.507	26344
240.571	6352
240.635	10358
240.700	16201
240.764	3986
240.829	2047
240.893	948
240.957	3528
241.022	12726
241.086	27516
241.151	12912
241.215	3434
241.279	6022
241.344	14170
241.408	6215
241.472	2170
241.537	3419
241.601	2178
241.665	1438
241.730	1579
241.794	3403
241.858	1376
241.922	1574
241.987	2371
242.051	1572
242.115	423
242.179	1710
242.244	999
242.308	3079
242.372	2672
242.436	4289
242.501	1666
242.565	1750
242.629	1794
242.693	2118
242.757	966
242.822	2113
242.886	2820
242.950	3397
243.014	3001
243.078	2968
243.142	2452
243.206	2667
243.271	3914
243.335	2667
243.399	4800
243.463	17380
243.527	56885
243.591	17741
243.655	6525
243.719	3848
243.783	4534
243.847	5926
243.911	9373
243.975	10268
244.040	6711
244.104	4078
244.168	2608
244.232	3905
244.296	6884
244.360	7635
244.424	4252
244.488	5548
244.552	3957
244.615	3148
244.679	3404
244.743	2775
244.807	3467
244.871	2690
244.935	2088
244.999	815
245.063	1741
245.127	2531
245.191	5273
245.255	5487
245.319	4571
245.383	3162
245.446	3727
245.510	1607
245.574	2246
245.638	3016
245.702	2010
245.766	9781
245.829	5751
245.893	4154
245.957	2542
246.021	3266
246.085	2806
246.149	5650
246.212	11693
246.276	17318
246.340	6941
246.404	5196
246.467	4881
246.531	7681
246.595	6154
246.659	5276
246.722	3498
246.786	5545
246.850	5690
246.913	6982
246.977	2774
247.041	3403
247.104	4609
247.168	3891
247.232	10031
247.295	23138
247.359	11949
247.423	5063
247.486	10578
247.550	6958
247.614	4203
247.677	6656
247.741	4705
247.804	3157
247.868	4995
247.932	7938
247.995	21504
248.059	8609
248.122	3683
248.186	5149
248.249	9296
248.313	33554
248.376	37179
248.440	24239
248.503	7081
248.567	6813
248.630	10334
248.694	12805
248.757	16014
248.821	38230
248.884	21954
248.948	18999
249.011	29100
249.075	43698
249.138	38943
249.202	14400
249.265	8861
249.328	17843
249.392	8805
249.455	6750
249.519	4333
249.582	6151
249.645	10837
249.709	8627
249.772	5900
249.835	5765
249.899	7419
249.962	5392
250.025	4143
250.089	12662
250.152	19455
250.215	9330
250.279	6837
250.342	7395
250.405	6330
250.468	4702
250.532	7040
250.595	13190
250.658	46363
250.721	85784
250.785	26981
250.848	15107
250.911	7624
250.974	7936
251.038	9199
251.101	22428
251.164	12619
251.227	12192
251.290	9980
251.354	14444
251.417	66484
251.480	71001
251.543	39305
251.606	128963
251.669	96791
251.732	32998
251.795	31110
251.859	33283
251.922	80875
251.985	45844
252.048	16465
252.111	12644
252.174	10987
252.237	19412
252.300	46372
252.363	47151
252.426	107502
252.489	44784
252.552	24427
252.615	16455
252.678	16206
252.741	33555
252.804	43366
252.867	106741
252.930	62325
252.993	32975
253.056	19212
253.119	13453
253.182	10331
253.245	17252
253.308	13437
253.371	14772
253.434	13046
253.497	11951
253.559	22405
253.622	15823
253.685	19356
253.748	21138
253.811	9528
253.874	15402
253.937	13858
254.000	8417
254.062	14022
254.125	23186
254.188	18577
254.251	16957
254.314	8182
254.376	15105
254.439	17597
254.502	14458
254.565	15214
254.628	26488
254.690	16730
254.753	9019
254.816	6834
254.878	9834
254.941	16819
255.004	19537
255.067	9057
255.129	7471
255.192	4245
255.255	3338
255.317	5396
255.380	3981
255.443	2672
255.505	3146
255.568	2462
255.631	3115
255.693	3874
255.756	2448
255.819	3048
255.881	2358
255.944	2895
256.006	2355
256.069	2868
256.132	1897
256.194	4426
256.257	22478
256.319	17702
256.382	14959
256.444	5979
256.507	4004
256.569	2954
256.632	3395
256.694	8659
256.757	14740
256.819	42782
256.882	17158
256.944	7263
257.007	7019
257.069	6722
257.132	5018
257.194	4501
257.257	2854
257.319	3531
257.381	3699
257.444	11910
257.506	48244
257.569	57925
257.631	39716
257.693	18583
257.756	8933
257.818	9535
257.880	5042
257.943	4825
258.005	3438
258.067	3251
258.130	2524
258.192	3755
258.254	12969
258.317	8489
258.379	4871
258.441	12720
258.503	14823
258.566	23546
258.628	37688
258.690	7745
258.753	6044
258.815	10044
258.877	5859
258.939	3256
259.001	3210
259.064	2717
259.126	6038
259.188	9867
259.250	6111
259.312	7246
259.375	21285
259.437	13607
259.499	4841
259.561	3915
259.623	4348
259.685	4027
259.747	4762
259.809	21889
259.872	50460
259.934	66123
259.996	56722
260.058	13150
260.120	6094
260.182	5522
260.244	4208
260.306	2294
260.368	3158
260.430	2518
260.492	6126
260.554	16899
260.616	17266
260.678	26782
260.740	50986
260.802	11644
260.864	8109
260.926	5120
260.988	5587
261.050	4072
261.112	10027
261.174	40475
261.236	40649
261.298	9529
261.359	19721
261.421	34448
261.483	8065
261.545	5652
261.607	2756
261.669	3834
261.731	11682
261.793	33076
261.854	11056
261.916	6529
261.978	4004
262.040	6062
262.102	5751
262.164	11366
262.225	9419
262.287	4486
262.349	10275
262.411	9915
262.472	4673
262.534	12332
262.596	34503
262.658	9628
262.719	4572
262.781	7999
262.843	31400
262.904	13859
262.966	7356
263.028	10581
263.090	43702
263.151	121514
263.213	35532
263.275	14439
263.336	8290
263.398	6246
263.459	3376
263.521	4100
263.583	10193
263.644	6959
263.706	3367
263.767	2520
263.829	2747
263.891	1463
263.952	1172
264.014	511
264.075	2600
264.137	7622
264.198	4734
264.260	1835
264.321	1977
264.383	5273
264.444	13827
264.506	4160
264.567	2323
264.629	5109
264.690	9364
264.752	4758
264.813	2673
264.875	1654
264.936	2299
264.998	1615
265.059	2227
265.120	2147
265.182	4584
265.243	19572
265.305	20914
265.366	4848
265.427	3303
265.489	2664
265.550	759
265.611	2315
265.673	2967
265.734	1043
265.795	1882
265.857	1347
265.918	2064
265.979	6316
266.040	33726
266.102	29007
266.163	8134
266.224	6120
266.286	3567
266.347	2224
266.408	2675
266.469	3884
266.530	2811
266.592	2261
266.653	6107
266.714	10882
266.775	3877
266.836	2560
266.898	1729
266.959	3290
267.020	3007
267.081	3652
267.142	2197
267.203	1732
267.264	1269
267.326	3634
267.387	1511
267.448	1209
267.509	1842
267.570	2322
267.631	1670
267.692	1750
267.753	2155
267.814	1263
267.875	4901
267.936	14088
267.997	5167
268.058	3447
268.119	2642
268.180	2607
268.241	2257
268.302	1437
268.363	1203
268.424	2631
268.485	3571
268.546	1417
268.607	1761
268.668	1111
268.729	387
268.790	1004
268.851	2120
268.912	6357
268.972	10541
269.033	3578
269.094	2039
269.155	1927
269.216	1139
269.277	3363
269.338	2714
269.398	1482
269.459	2024
269.520	2850
269.581	5038
269.642	6503
269.702	3906
269.763	3102
269.824	1996
269.885	2774
269.945	6278
270.006	2062
270.067	622
270.128	1973
270.188	1581
270.249	1246
270.310	1425
270.370	1430
270.431	2280
270.492	630
270.553	1997
270.613	5136
270.674	13485
270.734	5347
270.795	2599
270.856	4172
270.916	3172
270.977	2205
271.038	3324
271.098	3074
271.159	5013
271.219	5824
271.280	3318
271.340	2160
271.401	3802
271.462	15991
271.522	7647
271.583	3210
271.643	2780
271.704	2955
271.764	4172
271.825	8131
271.885	29401
271.946	44434
272.006	14341
272.066	17140
272.127	35357
272.187	9461
272.248	5473
272.308	5298
272.369	22990
272.429	14032
272.489	9434
272.550	10632
272.610	9576
272.671	7619
272.731	9656
272.791	20231
272.852	8107
272.912	5602
272.972	3459
273.033	3696
273.093	7742
273.153	6535
273.214	4340
273.274	5374
273.334	15486
273.394	36669
273.455	14141
273.515	12304
273.575	30893
273.635	13931
273.696	20287
273.756	39497
273.816	15328
273.876	9026
273.936	26990
273.997	55865
274.057	12690
274.117	7815
274.177	10332
274.237	39952
274.297	42670
274.358	38055
274.418	29418
274.478	21354
274.538	9608
274.598	8716
274.658	43285
274.718	59709
274.778	21369
274.838	9768
274.898	22838
274.958	83520
275.018	47297
275.078	26162
275.138	10769
275.198	6617
275.258	5355
275.318	6903
275.378	11808
275.438	10895
275.498	8093
275.558	30646
275.618	66371
275.678	29907
275.738	14328
275.798	10626
275.858	6499
275.918	3146
275.978	4533
276.038	3741
276.098	3605
276.157	7135
276.217	23623
276.277	10485
276.337	7517
276.397	3550
276.457	4389
276.517	4098
276.576	3337
276.636	3582
276.696	6299
276.756	15244
276.815	11738
276.875	5328
276.935	6182
276.995	5292
277.055	3552
277.114	3867
277.174	5656
277.234	16576
277.293	8413
277.353	5200
277.413	4031
277.472	4130
277.532	4630
277.592	6032
277.651	21436
277.711	46507
277.771	15334
277.830	45365
277.890	41445
277.950	27163
278.009	83125
278.069	33297
278.128	29052
278.188	45609
278.248	17868
278.307	46656
278.367	32958
278.426	10611
278.486	7406
278.545	5144
278.605	3838
278.664	5204
278.724	5849
278.783	12897
278.843	36748
278.902	12699
278.962	8348
279.021	9927
279.081	24362
279.140	22819
279.199	11500
279.259	9597
279.318	11396
279.378	16768
279.437	29731
279.496	93542
279.556	306081
279.615	279686
279.675	78147
279.734	43447
279.793	59320
279.853	83890
279.912	29077
279.971	15954
280.031	15069
280.090	22397
280.149	39050
280.208	46184
280.268	203111
280.327	236889
280.386	59791
280.445	34009
280.505	29053
280.564	15659
280.623	11627
280.682	12542
280.742	19296
280.801	7570
280.860	5989
280.919	4821
280.978	5045
281.037	5156
281.097	4598
281.156	4801
281.215	4530
281.274	5312
281.333	21719
281.392	17902
281.451	5240
281.510	4097
281.569	3038
281.628	3631
281.688	4153
281.747	3810
281.806	3572
281.865	2618
281.924	2524
281.983	3387
282.042	2187
282.101	2151
282.160	2757
282.219	1825
282.278	3217
282.337	10827
282.396	8173
282.454	3648
282.513	4128
282.572	16136
282.631	9998
282.690	4090
282.749	2776
282.808	3446
282.867	3204
282.926	3427
282.985	2574
283.043	1832
283.102	2337
283.161	3777
283.220	8606
283.279	21925
283.338	6677
283.396	4261
283.455	3250
283.514	3316
283.573	7280
283.631	5590
283.690	4062
283.749	2599
283.808	6813
283.866	9365
283.925	3904
283.984	3942
284.043	4980
284.101	5630
284.160	3644
284.219	5777
284.277	5308
284.336	7366
284.395	22958
284.453	22309
284.512	7410
284.570	9312
284.629	8812
284.688	9417
284.746	10641
284.805	11517
284.863	16481
284.922	19316
284.981	21412
285.039	29599
285.098	52117
285.156	118001
285.215	233317
285.273	226043
285.332	133865
285.390	70348
285.449	44022
285.507	29051
285.566	21178
285.624	16562
285.683	12257
285.741	9263
285.799	8624
285.858	7998
285.916	6783
285.975	4917
286.033	3803
286.091	3703
286.150	4220
286.208	4013
286.267	4669
286.325	4756
286.383	6149
286.442	6075
286.500	3396
286.558	3812
286.616	1992
286.675	4513
286.733	3219
286.791	3600
286.850	4420
286.908	5642
286.966	7350
287.024	4069
287.083	2890
287.141	1859
287.199	2036
287.257	4491
287.315	3177
287.374	3090
287.432	8761
287.490	5404
287.548	3752
287.606	3256
287.664	2562
287.723	3706
287.781	6140
287.839	3587
287.897	3239
287.955	5171
288.013	9703
288.071	22650
288.129	83085
288.187	254867
288.245	110960
288.303	32053
288.361	18400
288.419	14263
288.477	10065
288.535	7403
288.593	5132
288.651	4420
288.709	2398
288.767	2189
288.825	2772
288.883	2163
288.941	2620
288.999	1568
289.057	2150
289.115	1281
289.173	2027
289.231	2423
289.289	2576
289.346	2729
289.404	2848
289.462	4282
289.520	5496
289.578	1744
289.636	755
289.694	1031
289.751	1456
289.809	761
289.867	1623
289.925	2063
289.983	2329
290.040	689
290.098	624
290.156	1885
290.214	2453
290.271	1236
290.329	1755
290.387	665
290.444	907
290.502	529
290.560	1069
290.617	1082
290.675	1467
290.733	1162
290.790	1929
290.848	1282
290.906	2273
290.963	1645
291.021	1368
291.078	1570
291.136	2238
291.194	6259
291.251	17072
291.309	5180
291.366	2147
291.424	1210
291.481	1144
291.539	2010
291.596	1916
291.654	784
291.711	1281
291.769	1564
291.826	4278
291.884	3369
291.941	1036
291.999	1377
292.056	1729
292.114	1805
292.171	941
292.228	1728
292.286	2796
292.343	4615
292.401	6779
292.458	4161
292.515	2228
292.573	3306
292.630	2474
292.687	4360
292.745	2890
292.802	3151
292.859	10542
292.917	20500
292.974	12529
293.031	4062
293.089	2656
293.146	1956
293.203	1236
293.260	1289
293.318	3316
293.375	4309
293.432	1786
293.489	765
293.546	1769
293.604	4730
293.661	16177
293.718	38567
293.775	18007
293.832	7915
293.889	6549
293.947	8050
294.004	5444
294.061	4693
294.118	8234
294.175	16534
294.232	19114
294.289	8274
294.346	3812
294.403	4395
294.460	4776
294.517	2649
294.574	2812
294.631	2451
294.688	3551
294.745	9859
294.802	36288
294.859	34680
294.916	15174
294.973	11056
295.030	7501
295.087	5050
295.144	3296
295.201	2957
295.258	2893
295.315	3548
295.372	13674
295.429	29396
295.486	11269
295.542	5166
295.599	10242
295.656	18845
295.713	15128
295.770	24591
295.827	10443
295.883	4469
295.940	3626
295.997	6679
296.054	7315
296.111	3041
296.167	2545
296.224	1834
296.281	1915
296.338	1352
296.394	2360
296.451	3586
296.508	9659
296.564	20648
296.621	12919
296.678	26785
296.734	41885
296.791	15450
296.848	6958
296.904	7294
296.961	16060
297.018	28841
297.074	22902
297.131	7649
297.187	5971
297.244	9424
297.301	28232
297.357	57837
297.414	18678
297.470	6603
297.527	4318
297.583	4261
297.640	3724
297.696	3539
297.753	2045
297.809	1436
297.866	1147
297.922	1394
297.979	2177
298.035	2453
298.092	4779
298.148	15161
298.204	17230
298.261	7851
298.317	11842
298.374	34689
298.430	22924
298.486	12244
298.543	8797
298.599	7220
298.656	6540
298.712	10861
298.768	26637
298.824	20947
298.881	6175
298.937	4023
298.993	3208
299.050	4398
299.106	3544
299.162	2831
299.218	3155
299.275	2494
299.331	4017
299.387	7160
299.443	29983
299.500	35416
299.556	12627
299.612	5521
299.668	5617
299.724	4844
299.780	6480
299.837	5012
299.893	7716
299.949	25182
300.005	32595
300.061	23683
300.117	44316
300.173	22024
300.229	10083
300.285	12223
300.341	13509
300.397	6625
300.453	4229
300.510	3010
300.566	3644
300.622	4049
300.678	11971
300.734	25321
300.790	24735
300.845	33658
300.901	19403
300.957	24681
301.013	21257
301.069	7291
301.125	6242
301.181	5562
301.237	5109
301.293	2751
301.349	2834
301.405	2437
301.461	2678
301.516	3461
301.572	3501
301.628	6780
301.684	7622
301.740	10039
301.796	17873
301.851	11940
301.907	18183
301.963	21699
302.019	31360
302.074	88531
302.130	90934
302.186	38870
302.242	15769
302.297	10704
302.353	10705
302.409	18697
302.464	17746
302.520	11807
302.576	29924
302.631	38060
302.687	20163
302.743	7943
302.798	4680
302.854	3526
302.910	3935
302.965	5558
303.021	8453
303.076	8764
303.132	11150
303.187	13356
303.243	7028
303.299	3442
303.354	2437
303.410	2616
303.465	1968
303.521	2724
303.576	3069
303.632	4194
303.687	7944
303.743	26902
303.798	25743
303.853	9662
303.909	4390
303.964	3181
304.020	6100
304.075	9347
304.130	9044
304.186	15654
304.241	18069
304.297	12611
304.352	6756
304.358	6454
304.407	4002
304.449	4035
304.463	4053
304.518	4272
304.539	3934
304.573	3388
304.629	4319
304.630	4394
304.684	8204
304.720	16146
304.739	20032
304.794	33656
304.811	28515
304.850	15853
304.902	7329
304.905	6812
304.960	4765
304.992	4825
305.015	4872
305.071	4824
305.083	4499
305.126	3327
305.173	2675
305.181	2585
305.236	2002
305.264	2176
305.292	2340
305.347	4373
305.354	4279
305.402	3772
305.445	3880
305.457	3884
305.512	5620
305.535	5670
305.567	5789
305.622	6038
305.626	6259
305.678	13168
305.716	27158
305.733	31584
305.788	39134
305.807	33692
305.843	25409
305.897	31519
305.898	31537
305.953	32655
305.988	21025
306.008	15039
306.063	8303
306.078	7346
306.118	5697
306.168	4255
306.173	4153
306.228	3214
306.259	2978
306.283	2707
306.338	2812
306.349	2865
306.393	3360
306.440	4154
306.448	4289
306.503	4541
306.530	4962
306.558	6795
306.613	14690
306.620	15993
306.668	25409
306.711	33281
306.723	33375
306.778	27237
306.801	20398
306.833	13154
306.888	6909
306.892	6596
306.943	4375
306.982	3799
306.997	3719
307.052	3430
307.072	3664
307.107	4394
307.162	5654
307.163	5673
307.217	8937
307.253	11678
307.272	12198
307.327	13584
307.343	12477
307.381	10146
307.434	8993
307.436	9315
307.491	19114
307.524	28710
307.546	30581
307.600	29934
307.614	26853
307.655	16685
307.704	7700
307.710	7420
307.765	9609
307.795	11679
307.819	14345
307.874	25280
307.885	25676
307.929	19844
307.975	12262
307.984	12097
308.038	15645
308.065	19040
308.093	35032
308.148	73804
308.156	82701
308.202	129265
308.246	165005
308.257	160848
308.312	85309
308.336	56962
308.366	42640
308.421	27973
308.426	26550
308.475	16914
308.517	11873
308.530	11169
308.585	9699
308.607	9266
308.639	9491
308.694	10965
308.697	11100
308.748	22151
308.787	34005
308.803	33598
308.857	25798
308.877	21169
308.912	16812
308.967	14331
308.967	14314
309.021	21510
309.058	27578
309.076	34019
309.130	58233
309.148	67233
309.185	128259
309.238	226637
309.239	227326
309.293	249937
309.328	233820
309.348	200399
309.402	90724
309.418	63090
309.457	44194
309.508	28103
309.511	27853
309.566	28949
309.598	30639
309.620	40488
309.674	70232
309.688	78172
309.729	70585
309.778	51280
309.783	49842
309.837	31786
309.868	23109
309.892	26433
309.946	37742
309.959	41348
310.001	52667
310.049	63521
310.055	61386
310.109	36437
310.139	21974
310.163	17448
310.218	10858
310.229	9686
310.272	7911
310.319	6481
310.326	6325
310.381	5137
310.409	4846
310.435	4766
310.489	4482
310.499	4449
310.543	4972
310.589	5415
310.598	5337
310.652	5139
310.679	4923
310.706	4472
310.760	3424
310.769	3269
310.814	2922
310.859	2685
310.868	2729
310.923	2996
310.948	3055
310.977	3788
311.031	5498
311.038	5716
311.085	4671
311.128	3398
311.139	3352
311.193	3450
311.218	3369
311.247	3311
311.301	3302
311.308	3300
311.356	3264
311.398	3148
311.410	3067
311.464	2760
311.488	2627
311.518	2712
311.572	2838
311.578	2852
311.626	4743
311.668	6426
311.680	6345
311.734	5853
311.758	5627
311.788	5540
311.842	5363
311.847	5340
311.896	6490
311.937	7490
311.950	7333
312.004	6594
312.027	6254
312.058	5508
312.112	4173
312.117	4039
312.165	3532
312.207	3102
312.297	4810
312.386	3529
312.476	4847
312.566	10910
312.656	5040
312.745	3432
312.835	3734
312.925	3859
313.015	4246
313.104	5317
313.194	3460
313.284	3963
313.374	5309
313.463	4143
313.553	3203
313.643	2986
313.732	2110
313.822	2417
313.912	3308
314.001	4788
314.091	5039
314.180	4328
314.270	5305
314.360	6838
314.449	5543
314.539	3396
314.628	2697
314.718	3421
314.808	5180
314.897	2977
314.987	3608
315.076	4711
315.166	6871
315.255	6115
315.345	6258
315.434	6609
315.524	6182
315.613	7695
315.703	9919
315.792	18262
315.881	72080
315.971	21500
316.060	14054
316.150	19546
316.239	19917
316.328	6565
316.418	3945
316.507	3821
316.597	5949
316.686	5514
316.775	9584
316.865	22008
316.954	4905
317.043	2861
317.133	4210
317.222	2883
317.311	3217
317.400	3560
317.490	7069
317.579	7813
317.668	6874
317.757	12632
317.847	32389
317.936	127709
318.025	38846
318.114	22908
318.203	12321
318.293	9639
318.382	18959
318.471	14216
318.560	18224
318.649	34143
318.738	8741
318.828	7333
318.917	7671
319.006	9099
319.095	23224
319.184	45896
319.273	29992
319.362	17062
319.451	6152
319.540	5426
319.629	13790
319.718	23189
319.807	9750
319.896	15653
319.985	60366
320.074	22385
320.163	6048
320.252	12517
320.341	7513
320.430	6167
320.519	10767
320.608	5852
320.697	4315
320.786	4311
320.875	7496
320.964	10472
321.053	16427
321.142	23525
321.230	23433
321.319	16740
321.408	39456
321.497	15342
321.586	16394
321.675	19777
321.764	18234
321.852	10705
321.941	22499
322.030	14637
322.119	15205
322.207	43429
322.296	28348
322.385	14099
322.474	15982
322.562	52023
322.651	24468
322.740	20278
322.829	27572
322.917	28423
323.006	16286
323.095	13713
323.183	10475
323.272	15635
323.361	28945
323.449	100289
323.538	30676
323.626	64933
323.715	39998
323.804	14369
323.892	57402
323.981	29929
324.069	9398
324.158	30012
324.246	28137
324.335	9160
324.424	15381
324.512	6129
324.601	9205
324.689	22388
324.778	46447
324.866	23299
324.954	5066
325.043	6209
325.131	12370
325.220	21257
325.308	26256
325.397	18460
325.485	11433
325.574	3548
325.662	3787
325.750	3487
325.839	4239
325.927	3823
326.015	5399
326.104	9216
326.192	14072
326.280	3252
326.369	3409
326.457	5844
326.545	12125
326.634	4499
326.722	3018
326.810	2860
326.898	3102
326.987	4644
327.075	10797
327.163	12779
327.251	6553
327.340	13822
327.428	22602
327.516	3514
327.604	4333
327.692	4200
327.781	5155
327.869	9046
327.957	5310
328.045	5251
328.133	3451
328.221	4809
328.309	4287
328.397	3336
328.485	5207
328.574	7426
328.662	26980
328.750	14689
328.838	5069
328.926	2936
329.014	2189
329.102	4249
329.190	11521
329.278	8169
329.366	2821
329.454	1673
329.542	2155
329.630	2236
329.718	2577
329.806	4065
329.893	3274
329.981	3272
330.069	5221
330.157	17769
330.245	53380
330.333	27303
330.421	6290
330.509	7841
330.597	32810
330.684	18594
330.772	6033
330.860	7492
330.948	7946
331.036	3366
331.123	1961
331.211	2086
331.299	3200
331.387	7094
331.475	11912
331.562	4385
331.650	2472
331.738	3036
331.825	5054
331.913	1583
332.001	1826
332.089	3009
332.176	10298
332.264	27604
332.352	19811
332.439	4789
332.527	2589
332.614	2940
332.702	5366
332.790	4366
332.877	12878
332.965	28589
333.052	7439
333.140	9724
333.228	24404
333.315	5177
333.403	4924
333.490	15769
333.578	16504
333.665	31228
333.753	11855
333.840	3323
333.928	5634
334.015	16885
334.103	22331
334.190	72288
334.278	16830
334.365	7451
334.452	5185
334.540	3671
334.627	5347
334.715	8423
334.802	20742
334.889	113141
334.977	113957
335.064	13676
335.151	4523
335.239	4534
335.326	7038
335.413	29057
335.501	38701
335.588	5716
335.675	3540
335.762	4225
335.850	7698
335.937	7558
336.024	23608
336.111	112852
336.199	41857
336.286	7966
336.373	3847
336.460	2719
336.547	2860
336.635	4228
336.722	4241
336.809	2972
336.896	6934
336.983	17668
337.070	40828
337.157	66495
337.245	69566
337.332	49512
337.419	6139
337.506	2956
337.593	4115
337.680	10696
337.767	31856
337.854	11082
337.941	12615
338.028	21476
338.115	7043
338.202	6614
338.289	17031
338.376	69298
338.463	18996
338.550	19935
338.637	20988
338.724	11556
338.811	19468
338.898	4391
338.984	2704
339.071	3165
339.158	5290
339.245	14676
339.332	9050
339.419	12020
339.506	12057
339.593	1657
339.679	2764
339.766	2241
339.853	4385
339.940	10786
340.027	2767
340.113	2923
340.200	5769
340.287	3217
340.374	4644
340.460	10430
340.547	3876
340.634	7318
340.720	32885
340.807	17091
340.894	3064
340.980	3227
341.067	2457
341.154	3762
341.240	6029
341.327	14558
341.414	5735
341.500	5359
341.587	3980
341.674	2926
341.760	9734
341.847	11028
341.933	3822
342.020	676
342.106	1877
342.193	3730
342.279	7861
342.366	5465
342.452	10757
342.539	4176
342.625	13573
342.712	34705
342.798	13324
342.885	5248
342.971	1404
343.058	1826
343.144	1836
343.230	2241
343.317	2643
343.403	2476
343.490	1668
343.576	1345
343.662	2491
343.749	3208
343.835	5778
343.921	12752
344.008	78885
344.094	185942
344.180	38547
344.267	12732
344.353	44639
344.439	46177
344.525	16276
344.612	5760
344.698	5530
344.784	3489
344.870	3079
344.957	2576
345.043	5842
345.129	3681
345.215	8961
345.301	5210
345.387	2237
345.474	2032
345.560	2537
345.646	2632
345.732	2509
345.818	3825
345.904	3269
345.990	4728
346.076	4669
346.162	8493
346.249	4025
346.335	2666
346.421	3634
346.507	17899
346.593	70931
346.679	14133
346.765	3517
346.851	2018
346.937	2405
347.023	2906
347.108	3311
347.194	2624
347.280	2812
347.366	5107
347.452	18629
347.538	85103
347.624	55545
347.710	41176
347.796	6339
347.882	2415
347.967	2070
348.053	3192
348.139	2795
348.225	1471
348.311	2183
348.397	1910
348.482	3813
348.568	4159
348.654	1658
348.740	2811
348.825	2664
348.911	7925
348.997	37787
349.083	78199
349.168	10434
349.254	3604
349.340	3851
349.425	1757
349.511	4168
349.597	4823
349.682	11012
349.768	41114
349.854	17020
349.939	3017
350.025	1956
350.110	1867
350.196	1947
350.282	1039
350.367	1490
350.453	5940
350.538	5474
350.624	3410
350.709	3219
350.795	1609
350.880	2564
350.966	3117
351.051	5923
351.137	3939
351.222	3658
351.308	12141
351.393	33930
351.479	8048
351.564	3175
351.649	2494
351.735	2491
351.820	1661
351.906	2232
351.991	4373
352.076	22212
352.162	32643
352.247	5305
352.332	4063
352.418	9317
352.503	11676
352.588	47819
352.673	37791
352.759	8138
352.844	3166
352.929	5102
353.014	5525
353.100	3695
353.185	6912
353.270	12151
353.355	11324
353.441	2762
353.526	3868
353.611	9805
353.696	11934
353.781	6476
353.866	1914
353.952	3363
354.037	9841
354.122	25060
354.207	21741
354.292	7416
354.377	3037
354.462	2004
354.547	3968
354.632	3900
354.717	4771
354.802	8049
354.887	2703
354.972	2001
355.057	1776
355.142	1164
355.227	3823
355.312	6876
355.397	15973
355.482	40217
355.567	17788
355.652	13608
355.737	14735
355.822	50411
355.907	38891
355.991	5958
356.076	3184
356.161	3451
356.246	2291
356.331	4143
356.416	11536
356.501	97655
356.585	97927
356.670	11257
356.755	7097
356.840	11718
356.924	59575
357.009	229313
357.094	77162
357.179	14558
357.263	9663
357.348	8458
357.433	7484
357.517	8661
357.602	6174
357.687	5005
357.771	8681
357.856	28069
357.941	16785
358.025	44336
358.110	212085
358.195	90121
358.279	12031
358.364	8424
358.448	32610
358.533	89575
358.617	60818
358.702	63715
358.787	21628
358.871	11460
358.956	9092
359.040	3341
359.125	2416
359.209	3618
359.294	11806
359.378	20626
359.462	9694
359.547	5101
359.631	3690
359.716	2561
359.800	2164
359.885	4595
359.969	2598
360.053	2878
360.138	3193
360.222	4889
360.306	11513
360.391	8394
360.475	15752
360.559	35623
360.644	33613
360.728	24632
360.812	49551
360.896	147331
360.981	47880
361.065	20112
361.149	6331
361.233	5922
361.318	4082
361.402	6725
361.486	5200
361.570	2991
361.654	5497
361.739	16701
361.823	89647
361.907	146316
361.991	22226
362.075	10721
362.159	22885
362.243	15067
362.327	11847
362.411	16308
362.495	8093
362.580	4134
362.664	2496
362.748	2308
362.832	3642
362.916	5323
363.000	24812
363.084	100586
363.168	166208
363.252	33572
363.336	9760
363.420	13697
363.503	41498
363.587	46143
363.671	9204
363.755	6711
363.839	9981
363.923	4576
364.007	11589
364.091	12355
364.175	14804
364.258	67019
364.342	41258
364.426	47859
364.510	26748
364.594	13325
364.677	22106
364.761	124921
364.845	84590
364.929	21302
365.013	16023
365.096	13362
365.180	16212
365.264	16793
365.347	68464
365.431	26035
365.515	5653
365.598	4099
365.682	3924
365.766	4526
365.849	4826
365.933	4038
366.017	5518
366.100	3612
366.184	1235
366.267	3561
366.351	2421
366.435	1287
366.518	1067
366.602	2237
366.685	2765
366.769	3372
366.852	5706
366.936	10750
367.019	6828
367.103	3586
367.186	6662
367.270	2107
367.353	1190
367.436	2793
367.520	1643
367.603	4819
367.687	7115
367.770	13700
367.853	8338
367.937	30846
368.020	51059
368.104	10533
368.187	9597
368.270	14290
368.353	11720
368.437	18874
368.520	45966
368.603	24949
368.687	35411
368.770	66585
368.853	14422
368.936	11308
369.020	9712
369.103	3979
369.186	2174
369.269	3217
369.352	8016
369.436	12453
369.519	7224
369.602	2319
369.685	4923
369.768	3743
369.851	3513
369.934	2569
370.018	3883
370.101	11301
370.184	8635
370.267	5965
370.350	10192
370.433	16829
370.516	59805
370.599	82695
370.682	23367
370.765	31689
370.848	42889
370.931	87111
371.014	27908
371.097	4973
371.180	3731
371.263	2687
371.346	1231
371.429	3797
371.511	1982
371.594	6845
371.677	9956
371.760	10478
371.843	11150
371.926	66278
372.009	158224
372.091	45322
372.174	31399
372.257	84046
372.340	30030
372.423	15759
372.505	16646
372.588	7882
372.671	24432
372.754	86176
372.836	39933
372.919	18862
373.002	34224
373.085	12217
373.167	12248
373.250	32924
373.332	80127
373.415	107940
373.498	237617
373.580	77478
373.663	121763
373.746	157320
373.828	29686
373.911	11368
373.993	10801
374.076	33760
374.159	32218
374.241	19638
374.324	68192
374.406	42388
374.489	65179
374.571	195070
374.654	73977
374.736	34866
374.819	120058
374.901	170684
374.983	176270
375.066	28392
375.148	8368
375.231	29556
375.313	53645
375.395	19325
375.478	4371
375.560	4201
375.643	8388
375.725	32421
375.807	159871
375.890	116414
375.972	41694
376.054	21271
376.136	37162
376.219	15226
376.301	41241
376.383	136416
376.465	46635
376.548	25083
376.630	32020
376.712	108495
376.794	46896
376.877	5350
376.959	2352
377.041	3968
377.123	5369
377.205	6651
377.287	1683
377.369	2766
377.452	2527
377.534	2280
377.616	2934
377.698	3504
377.780	1505
377.862	2658
377.944	3136
378.026	816
378.108	2534
378.190	1536
378.272	1781
378.354	1514
378.436	1842
378.518	4166
378.600	15073
378.682	15054
378.764	45337
378.846	33754
378.928	7817
379.010	10841
379.091	6963
379.173	2913
379.255	2474
379.337	5153
379.419	20942
379.501	67797
379.583	23621
379.664	6434
379.746	15064
379.828	41569
379.910	60648
379.991	53876
380.073	8301
380.155	5322
380.237	4072
380.318	2859
380.400	3255
380.482	10360
380.564	14793
380.645	13663
380.727	12343
380.809	7322
380.890	5319
380.972	3472
381.053	2903
381.135	6052
381.217	14531
381.298	46585
381.380	21556
381.461	20178
381.543	110629
381.624	132380
381.706	20786
381.787	9570
381.869	10706
381.951	44686
382.032	190280
382.113	109638
382.195	18711
382.276	13560
382.358	30794
382.439	94030
382.521	109847
382.602	182279
382.684	72646
382.765	132881
382.846	150173
382.928	256677
383.009	131419
383.090	78126
383.172	345404
383.253	544733
383.334	163532
383.416	158318
383.497	78236
383.578	33395
383.659	64462
383.741	275266
383.822	790696
383.903	380960
383.984	112505
384.066	176142
384.147	103306
384.228	20849
384.309	15787
384.390	10669
384.471	8162
384.553	9106
384.634	12438
384.715	12917
384.796	6368
384.877	9153
384.958	42795
385.039	50372
385.120	15768
385.201	7810
385.282	8583
385.363	8093
385.444	7808
385.525	17060
385.606	71509
385.687	62084
385.768	11425
385.849	13172
385.930	75416
386.011	138158
386.092	33213
386.173	7419
386.254	4533
386.335	5895
386.416	6213
386.496	25447
386.577	42738
386.658	13351
386.739	6610
386.820	6442
386.901	4129
386.981	5395
387.062	3999
387.143	9825
387.224	42782
387.304	38553
387.385	11326
387.466	5890
387.547	7423
387.627	5959
387.708	15068
387.789	79739
387.869	102249
387.950	26311
388.031	3619
388.111	2028
388.192	8480
388.273	12478
388.353	8203
388.434	5720
388.514	16061
388.595	86626
388.676	108264
388.756	43343
388.837	39917
388.917	23332
388.998	3759
389.078	4900
389.159	4037
389.239	2374
389.320	7150
389.400	6059
389.480	15544
389.561	46844
389.641	22362
389.722	6381
389.802	11310
389.883	19039
389.963	60375
390.043	35293
390.124	7873
390.204	14448
390.284	49575
390.365	29699
390.445	29808
390.525	107372
390.605	95289
390.686	24338
390.766	8472
390.846	4715
390.927	2399
391.007	3171
391.087	4044
391.167	4942
391.247	2366
391.328	8074
391.408	9067
391.488	5923
391.568	1726
391.648	4883
391.728	8436
391.808	9077
391.888	8156
391.969	23811
392.049	40098
392.129	15914
392.209	18770
392.289	55271
392.369	27336
392.449	14798
392.529	10568
392.609	10922
392.689	15577
392.769	55291
392.849	45023
392.929	27811
393.009	73295
393.089	57690
393.169	49377
393.248	172847
393.328	744354
393.408	788698
393.488	182423
393.568	46029
393.648	21725
393.728	14815
393.807	9699
393.887	10052
393.967	7741
394.047	10005
394.127	10552
394.206	16218
394.286	60339
394.366	310940
394.446	322933
394.525	59757
394.605	14629
394.685	11888
394.764	20346
394.844	35159
394.924	25274
395.003	9988
395.083	7136
395.163	6891
395.242	6178
395.322	6497
395.402	3509
395.481	6768
395.561	14880
395.640	43717
395.720	34686
395.799	45316
395.879	35744
395.958	22331
396.038	85082
396.117	402598
396.197	426047
396.276	96934
396.356	28129
396.435	19019
396.515	16055
396.594	21882
396.673	44084
396.753	195458
396.832	681497
396.912	474513
396.991	98100
397.070	25681
397.150	12766
397.229	9680
397.308	11053
397.388	16912
397.467	8340
397.546	4962
397.625	2631
397.705	7115
397.784	6698
397.863	2802
397.942	2460
398.022	3298
398.101	12523
398.180	35396
398.259	16869
398.338	5993
398.417	3941
398.497	2699
398.576	4073
398.655	1555
398.734	2058
398.813	2674
398.892	10905
398.971	40056
399.050	18272
399.129	1986
399.208	2412
399.287	2115
399.366	1063
399.445	2323
399.524	1184
399.603	1263
399.682	5227
399.761	14986
399.840	46763
399.919	34520
399.998	3963
400.077	730
400.156	591
400.235	3744
400.313	1120
400.392	1770
400.471	21993
400.550	36991
400.629	6896
400.708	3902
400.786	1810
400.865	6319
400.944	7530
401.023	5861
401.102	485
401.180	1051
401.259	1203
401.338	1554
401.416	3020
401.495	1978
401.574	2516
401.652	1447
401.731	3791
401.810	2301
401.888	1089
401.967	459
402.046	1388
402.124	3175
402.203	3791
402.281	2973
402.360	3010
402.438	9521
402.517	4929
402.596	1443
402.674	1670
402.753	1117
402.831	1832
402.910	2615
402.988	12066
403.066	49867
403.145	28009
403.223	13971
403.302	39148
403.380	27313
403.459	27723
403.537	9945
403.615	3448
403.694	364
403.772	1061
403.850	1148
403.929	388
404.007	1195
404.085	5273
404.164	5072
404.242	1530
404.320	2297
404.398	4919
404.477	23834
404.555	137815
404.633	118043
404.711	14455
404.789	3747
404.868	2134
404.946	1407
405.024	1487
405.102	630
405.180	-22
405.258	131
405.336	965
405.415	1353
405.493	3646
405.571	4946
405.649	916
405.727	484
405.805	2285
405.883	3050
405.961	2547
406.039	2228
406.117	399
406.195	5086
406.273	27902
406.351	112696
406.429	61617
406.507	6614
406.585	1577
406.663	3228
406.740	3602
406.818	3478
406.896	1353
406.974	2582
407.052	7433
407.130	61821
407.208	87501
407.285	15805
407.363	2355
407.441	1924
407.519	1185
407.596	2484
407.674	7253
407.752	23123
407.830	20025
407.907	6845
407.985	1738
408.063	1847
408.141	461
408.218	3704
408.296	2515
408.373	2607
408.451	2344
408.529	2927
408.606	867
408.684	492
408.762	21
408.839	112
408.917	159
408.994	524
409.072	-270
409.149	1077
409.227	3022
409.304	2933
409.382	2041
409.459	2920
409.537	4075
409.614	3522
409.692	1169
409.769	1862
409.846	3856
409.924	6150
410.001	1920
410.079	1396
410.156	2528
410.233	2064
410.311	1282
410.388	1216
410.465	1134
410.543	1239
410.620	1135
410.697	1733
410.775	2236
410.852	446
410.929	2742
411.006	3271
411.083	1248
411.161	4322
411.238	4246
411.315	2085
411.392	775
411.469	2943
411.547	2996
411.624	269
411.701	610
411.778	2806
411.855	6356
411.932	2556
412.009	-208
412.086	1442
412.163	1356
412.240	1911
412.317	2455
412.394	1593
412.471	927
412.548	277
412.625	1107
412.702	1913
412.779	3936
412.856	3080
412.933	19
413.010	215
413.087	3019
413.164	19395
413.241	28955
413.318	5552
413.395	3471
413.471	5172
413.548	2793
413.625	2306
413.702	1174
413.779	1644
413.855	-204
413.932	-619
414.009	-351
414.086	-97
414.162	870
414.239	3330
414.316	19316
414.393	47310
414.469	15093
414.546	1283
414.623	-16
414.699	1107
414.776	1889
414.853	904
414.929	1900
415.006	1029
415.082	1022
415.159	853
415.236	763
415.312	1679
415.389	3710
415.465	5411
415.542	2346
415.618	1075
415.695	4029
415.771	2533
415.848	1545
415.924	1579
416.000	31
416.077	1598
416.153	-449
416.230	-517
416.306	-598
416.383	460
416.459	1292
416.535	98
416.612	209
416.688	808
416.764	332
416.841	745
416.917	780
416.993	1193
417.069	1573
417.146	2470
417.222	2661
417.298	1811
417.374	122
417.451	1643
417.527	2022
417.603	2736
417.679	1522
417.755	1247
417.831	-760
417.908	612
417.984	-160
418.060	47
418.136	5017
418.212	7474
418.288	2255
418.364	1224
418.440	528
418.516	3906
418.592	2874
418.668	8033
418.744	13346
418.820	9350
418.896	1686
418.972	178
419.048	1002
419.124	5882
419.200	4067
419.276	1066
419.352	-1037
419.428	-25
419.504	622
419.579	2026
419.655	1535
419.731	1767
419.807	8775
419.883	17510
419.959	11124
420.034	2797
420.110	5350
420.186	27979
420.262	20604
420.337	2813
420.413	2070
420.489	970
420.565	1007
420.640	228
420.716	1096
420.792	-252
420.867	1845
420.943	518
421.019	3225
421.094	2554
421.170	570
421.245	157
421.321	730
421.397	1919
421.472	4109
421.548	12569
421.623	7735
421.699	3106
421.774	2752
421.850	2217
421.925	4825
422.001	4401
422.076	3285
422.152	3632
422.227	6568
422.302	7556
422.378	10170
422.453	20501
422.529	50521
422.604	177300
422.679	320943
422.755	191271
422.830	57750
422.905	20904
422.981	10558
423.056	7311
423.131	5620
423.207	3997
423.282	3602
423.357	9209
423.432	5281
423.508	6244
423.583	14741
423.658	10899
423.733	2638
423.808	3311
423.883	4785
423.959	3969
424.034	2090
424.109	2505
424.184	545
424.259	-102
424.334	590
424.409	192
424.484	696
424.559	1725
424.634	1521
424.709	2691
424.784	3376
424.859	1567
424.934	3393
425.009	19749
425.084	33252
425.159	11088
425.234	896
425.309	650
425.384	5882
425.459	9396
425.534	3588
425.609	1097
425.683	-13
425.758	680
425.833	1062
425.908	2530
425.983	11421
426.058	36147
426.132	13582
426.207	2321
426.282	2511
426.357	2255
426.431	469
426.506	624
426.581	1420
426.655	531
426.730	631
426.805	417
426.879	1179
426.954	702
427.029	5066
427.103	35484
427.178	94284
427.253	39919
427.327	4273
427.402	4380
427.476	10631
427.551	5265
427.625	1097
427.700	1715
427.774	658
427.849	1716
427.923	42
427.998	217
428.072	562
428.147	4671
428.221	21023
428.296	63940
428.370	31863
428.444	4171
428.519	4188
428.593	6987
428.667	7043
428.742	7365
428.816	8280
428.890	35705
428.965	61325
429.039	19268
429.113	9514
429.188	3488
429.262	1323
429.336	4678
429.410	15793
429.485	10079
429.559	5227
429.633	5517
429.707	1566
429.781	6309
429.855	38532
429.930	63006
430.004	30680
430.078	38548
430.152	38456
430.226	87596
430.300	91216
430.374	13833
430.448	4489
430.522	12764
430.596	38926
430.670	27768
430.744	83717
430.818	130277
430.892	26751
430.966	3946
431.040	1559
431.114	-396
431.188	-87
431.262	1004
431.336	971
431.410	3222
431.484	11425
431.557	8828
431.631	1057
431.705	1692
431.779	10256
431.853	53554
431.927	39534
432.000	5093
432.074	1007
432.148	1506
432.222	759
432.295	977
432.369	653
432.443	4115
432.516	35479
432.590	99165
432.664	33484
432.737	3205
432.811	313
432.885	335
432.958	1015
433.032	-153
433.106	-477
433.179	-81
433.253	-81
433.326	-677
433.400	-782
433.473	131
433.547	-688
433.620	251
433.694	2467
433.767	3732
433.841	1032
433.914	142
433.988	-561
434.061	496
434.134	-144
434.208	-744
434.281	-383
434.355	218
434.428	58
434.501	-749
434.575	-6
434.648	236
434.721	-1124
434.795	-562
434.868	-104
434.941	-494
435.014	-657
435.088	688
435.161	1995
435.234	4383
435.307	5072
435.381	2472
435.454	1373
435.527	2469
435.600	1573
435.673	630
435.746	382
435.819	-213
435.892	251
435.966	350
436.039	-412
436.112	740
436.185	-48
436.258	-262
436.331	-1071
436.404	-302
436.477	-44
436.550	-192
436.623	23
436.696	-456
436.769	593
436.842	-44
436.915	-270
436.987	1773
437.060	152
437.133	-437
437.206	-527
437.279	473
437.352	-607
437.425	172
437.498	-33
437.570	3740
437.643	3295
437.716	523
437.789	-698
437.861	2626
437.934	8959
438.007	5606
438.080	60
438.152	1591
438.225	5959
438.298	52284
438.370	151413
438.443	58391
438.516	11894
438.588	2258
438.661	206
438.734	1315
438.806	776
438.879	1977
438.951	1520
439.024	5077
439.096	1674
439.169	257
439.241	87
439.314	-24
439.386	620
439.459	2789
439.531	5492
439.604	1518
439.676	20
439.749	-54
439.821	157
439.893	894
439.966	1066
440.038	838
440.110	2046
440.183	505
440.255	-19
440.327	2201
440.400	17992
440.472	86081
440.544	57787
440.617	6961
440.689	3647
440.761	5001
440.833	8484
440.905	6156
440.978	991
441.050	-312
441.122	562
441.194	-724
441.266	479
441.338	1060
441.411	2853
441.483	23804
441.555	38754
441.627	8515
441.699	2922
441.771	2579
441.843	701
441.915	661
441.987	97
442.059	118
442.131	1024
442.203	2189
442.275	3748
442.347	3134
442.419	4731
442.491	25409
442.563	69358
442.635	35192
442.706	16420
442.778	13639
442.850	2007
442.922	1118
442.994	1409
443.066	3095
443.137	2500
443.209	1760
443.281	3102
443.353	9215
443.425	35940
443.496	130517
443.568	133338
443.640	52579
443.711	11169
443.783	3832
443.855	1344
443.926	1102
443.998	700
444.070	2487
444.141	1862
444.213	3913
444.285	5497
444.356	4793
444.428	3873
444.499	982
444.571	-354
444.642	1238
444.714	1850
444.785	3583
444.857	4155
444.928	9209
445.000	6378
445.071	7179
445.143	8989
445.214	7093
445.285	8304
445.357	26166
445.428	91051
445.500	216027
445.571	140026
445.642	70491
445.714	28036
445.785	20503
445.856	8230
445.928	6409
445.999	5310
446.070	3991
446.141	4099
446.213	5313
446.284	2312
446.355	2035
446.426	311
446.497	1379
446.569	3027
446.640	6714
446.711	5358
446.782	1897
446.853	2629
446.924	2805
446.995	1502
447.066	2369
447.138	2608
447.209	1736
447.280	-57
447.351	213
447.422	-229
447.493	1229
447.564	2573
447.635	5147
447.706	1488
447.777	-495
447.847	-43
447.918	-578
447.989	1588
448.060	3327
448.131	6930
448.202	7975
448.273	5969
448.344	2414
448.414	959
448.485	1133
448.556	1303
448.627	-204
448.698	-689
448.768	-140
448.839	-60
448.910	2895
448.981	3647
449.051	1794
449.122	406
449.193	126
449.263	177
449.334	862
449.405	2154
449.475	6864
449.546	5199
449.616	4154
449.687	4100
449.758	1045
449.828	450
449.899	916
449.969	-220
450.040	92
450.110	977
450.181	2479
450.251	366
450.322	259
450.392	776
450.463	346
450.533	117
450.604	326
450.674	471
450.744	579
450.815	-23
450.885	554
450.955	1152
451.026	771
451.096	739
451.166	1370
451.237	4128
451.307	11646
451.377	6152
451.447	264
451.518	135
451.588	136
451.658	625
451.728	2697
451.799	12648
451.869	16672
451.939	3997
452.009	-176
452.079	-150
452.149	922
452.219	3267
452.289	14440
452.360	12627
452.430	3709
452.500	2007
452.570	3516
452.640	3983
452.710	13446
452.780	20031
452.850	17485
452.920	16504
452.990	6290
453.060	2585
453.129	4158
453.199	5751
453.269	17904
453.339	42920
453.409	67981
453.479	58384
453.549	88402
453.619	93346
453.688	45281
453.758	7573
453.828	2734
453.898	1547
453.968	1132
454.037	815
454.087	689
454.107	633
454.168	162
454.177	84
454.247	982
454.249	967
454.316	478
454.330	699
454.386	1547
454.411	3422
454.456	6503
454.492	9748
454.525	12723
454.574	7101
454.595	4641
454.655	2053
454.665	1645
454.734	1793
454.736	1859
454.804	4277
454.817	6085
454.873	13624
454.898	15645
454.943	19395
454.979	12934
455.013	6986
455.060	3684
455.082	2284
455.141	2357
455.152	2310
455.221	8746
455.222	8849
455.291	17376
455.303	15896
455.360	9391
455.384	8207
455.430	6085
455.465	6519
455.499	6771
455.546	10561
455.569	12333
455.627	10421
455.638	10091
455.707	1537
455.708	1534
455.777	363
455.789	498
455.846	1273
455.869	1235
455.916	1085
455.950	918
455.985	647
456.031	531
456.054	566
456.112	683
456.124	662
456.193	398
456.193	391
456.262	504
456.274	767
456.332	1919
456.355	2149
456.401	2547
456.436	1963
456.470	1279
456.516	415
456.540	81
456.597	157
456.609	131
456.678	590
456.678	588
456.747	550
456.759	546
456.817	396
456.840	145
456.886	-345
456.920	-131
456.955	106
457.001	789
457.024	1111
457.082	1178
457.093	1201
457.162	2071
457.163	2079
457.232	3113
457.243	3021
457.301	2154
457.324	1392
457.370	116
457.405	604
457.439	1167
457.485	842
457.508	641
457.566	888
457.577	961
457.646	1501
457.647	1511
457.715	3070
457.727	3479
457.784	5264
457.808	6688
457.853	9076
457.889	11528
457.922	12942
457.969	9559
457.991	9004
458.050	8922
458.060	8836
458.129	15222
458.130	15404
458.198	20883
458.211	19183
458.267	12274
458.292	9115
458.336	4812
458.372	3936
458.405	3828
458.453	5046
458.474	5958
458.533	12394
458.543	13187
458.611	27524
458.614	27640
458.680	24450
458.694	20834
458.749	10685
458.775	8011
458.818	3582
458.855	2798
458.887	2263
458.936	1206
458.955	952
459.016	1455
459.024	1498
459.093	1519
459.097	1531
459.162	1395
459.177	1553
459.230	2514
459.257	2847
459.299	3026
459.338	2892
459.368	2731
459.418	2823
459.437	2877
459.499	2419
459.505	2427
459.574	1883
459.579	1928
459.643	1556
459.659	1436
459.711	1528
459.740	1438
459.780	1453
459.820	1845
459.849	2031
459.900	2132
459.917	2181
459.981	2280
459.986	2246
460.054	1703
460.061	1718
460.123	2655
460.141	2775
460.191	3082
460.222	3632
460.260	4250
460.302	5274
460.328	5391
460.382	4036
460.397	3738
460.462	2182
460.465	2180
460.534	3171
460.543	3284
460.602	7441
460.623	9469
460.671	14355
460.703	20818
460.739	22871
460.783	21854
460.808	20647
460.864	7265
460.876	5405
460.944	2594
460.945	2562
461.013	2000
461.024	1940
461.081	1952
461.104	2299
461.150	2533
461.184	2189
461.218	2210
461.264	2215
461.286	1999
461.345	1373
461.355	1391
461.423	2248
461.425	2255
461.491	2084
461.505	2035
461.559	2564
461.585	3157
461.628	5094
461.665	7520
461.696	8834
461.745	13722
461.764	14144
461.825	8091
461.832	7867
461.901	2950
461.905	2992
461.969	1923
461.985	1591
462.037	2279
462.065	2486
462.105	1948
462.145	1619
462.173	2390
462.225	3978
462.241	4206
462.305	6730
462.310	6710
462.378	6240
462.385	5740
462.446	3163
462.465	2646
462.514	2229
462.545	2525
462.582	2285
462.625	2073
462.650	2071
462.705	1935
462.718	1876
462.785	1698
462.786	1719
462.854	2660
462.865	2973
462.922	4159
462.945	4604
462.990	4388
463.025	3406
463.058	2689
463.104	1884
463.126	1740
463.184	1833
463.194	1901
463.262	2166
463.264	2191
463.330	2671
463.344	2755
463.398	2975
463.424	2816
463.466	2322
463.504	2383
463.533	2571
463.583	2513
463.601	2581
463.663	2787
463.669	2773
463.737	2737
463.743	2777
463.805	4575
463.823	5009
463.873	7305
463.903	9168
463.940	10099
463.982	11640
464.008	10572
464.062	6003
464.076	5645
464.142	2620
464.144	2560
464.211	2149
464.221	2135
464.279	2082
464.301	2105
464.347	2029
464.381	2109
464.414	2666
464.461	3359
464.482	3449
464.540	3791
464.550	3684
464.617	2602
464.620	2568
464.685	3783
464.699	4017
464.753	4407
464.779	4733
464.820	4930
464.859	5086
464.888	4831
464.938	4211
464.956	4233
465.018	4340
465.023	4366
465.091	4719
465.098	4725
465.158	3833
465.177	3646
465.226	3767
465.257	3812
465.293	3959
465.336	4066
465.361	4412
465.416	5272
465.428	5455
465.495	6797
465.496	6820
465.563	9671
465.575	10281
465.631	12038
465.654	13046
465.698	9814
465.734	6068
465.765	5022
465.813	3184
465.833	3165
465.893	4089
465.900	4020
465.968	3488
465.972	3449
466.035	3378
466.052	3355
466.102	3553
466.131	3688
466.170	3910
466.210	4045
466.237	4335
466.290	5018
466.304	5030
466.369	4997
466.372	4980
466.439	4475
466.449	4385
466.506	5019
466.528	5311
466.573	6812
466.607	7838
466.641	10286
466.687	13914
466.708	15325
466.766	19491
466.775	18501
466.842	10825
466.845	10449
466.909	6845
466.925	6098
466.977	5826
467.004	5765
467.044	5543
467.083	5388
467.111	6348
467.163	8126
467.178	8079
467.242	7879
467.245	7836
467.312	6938
467.321	6822
467.379	6620
467.400	6534
467.446	6845
467.480	7065
467.559	6696
467.638	5602
467.717	5080
467.796	6384
467.875	6799
467.955	6094
468.034	8166
468.113	15050
468.192	20781
468.271	8429
468.350	5234
468.429	5870
468.508	6515
468.588	5318
468.667	4327
468.746	5305
468.825	4367
468.904	5196
468.983	4920
469.062	6572
469.141	9013
469.220	4853
469.299	4750
469.378	4712
469.456	7161
469.535	6390
469.614	6193
469.693	5294
469.772	6400
469.851	8031
469.930	6585
470.009	4969
470.088	4866
470.166	7467
470.245	11830
470.324	14282
470.403	7797
470.482	5652
470.560	5135
470.639	5165
470.718	6141
470.797	4981
470.875	5209
470.954	6527
471.033	7794
471.111	4415
471.190	3564
471.269	3410
471.347	4683
471.426	3997
471.505	4602
471.583	5356
471.662	5541
471.740	4629
471.819	4445
471.898	4324
471.976	4057
472.055	4556
472.133	4810
472.212	6322
472.290	4805
472.369	4144
472.447	4603
472.526	3642
472.604	4148
472.683	3582
472.761	5173
472.839	4444
472.918	3987
472.996	4138
473.075	4234
473.153	3953
473.231	4244
473.310	4259
473.388	4788
473.466	4443
473.545	5401
473.623	6763
473.701	5628
473.780	4785
473.858	3126
473.936	5539
474.014	3597
474.093	4386
474.171	5907
474.249	7563
474.327	4870
474.405	3707
474.484	4277
474.562	4436
474.640	3981
474.718	3611
474.796	4238
474.874	4390
474.952	2876
475.030	2845
475.108	4191
475.187	4815
475.265	4754
475.343	6489
475.421	7589
475.499	4100
475.577	5181
475.655	5341
475.733	8436
475.811	12868
475.889	12156
475.966	8950
476.044	3672
476.122	5042
476.200	5802
476.278	5284
476.356	4148
476.434	3896
476.512	4634
476.590	6359
476.667	5659
476.745	3317
476.823	4295
476.901	4065
476.979	3015
477.056	3624
477.134	4472
477.212	4012
477.290	3954
477.367	2782
477.445	2552
477.523	3591
477.601	3173
477.678	3248
477.756	4416
477.834	4826
477.911	2838
477.989	4436
478.066	2734
478.144	3066
478.222	3902
478.299	6705
478.377	6121
478.454	3529
478.532	2648
478.609	3190
478.687	4680
478.764	2337
478.842	2313
478.919	3727
478.997	3032
479.074	3134
479.152	3956
479.229	3811
479.307	3215
479.384	2520
479.461	2021
479.539	2749
479.616	3780
479.694	2560
479.771	3542
479.848	2990
479.926	3182
480.003	5439
480.080	2721
480.157	2205
480.235	2409
480.312	2997
480.389	2903
480.467	5271
480.544	6223
480.621	3017
480.698	3641
480.775	3421
480.853	3587
480.930	2793
481.007	3229
481.084	3720
481.161	3330
481.238	3654
481.315	3142
481.392	1557
481.470	2565
481.547	3274
481.624	1928
481.701	3943
481.778	1979
481.855	2881
481.932	4834
482.009	7284
482.086	5554
482.163	3366
482.240	5620
482.317	9332
482.393	7452
482.470	3220
482.547	3186
482.624	2318
482.701	2652
482.778	2963
482.855	2495
482.932	2607
483.009	2658
483.085	3337
483.162	2877
483.239	3984
483.316	2263
483.393	3980
483.469	1999
483.546	3335
483.623	2849
483.699	2111
483.776	2733
483.853	3494
483.930	4422
484.006	10736
484.083	20552
484.160	14098
484.236	22784
484.313	16774
484.389	11756
484.466	10991
484.543	9713
484.619	9493
484.696	10811
484.772	9910
484.849	11192
484.925	10566
485.002	9184
485.078	10289
485.155	9867
485.231	9392
485.308	8799
485.384	9546
485.461	10150
485.537	13953
485.614	17495
485.690	8769
485.766	8362
485.843	10112
485.919	12132
485.995	13470
486.072	8282
486.148	8019
486.224	8103
486.301	8059
486.377	9422
486.453	9373
486.530	9327
486.606	12781
486.682	13256
486.758	15175
486.835	15131
486.911	11958
486.987	20044
487.063	22707
487.139	30802
487.215	20938
487.292	12449
487.368	9409
487.444	9581
487.520	11323
487.596	11371
487.672	17650
487.748	37082
487.824	54735
487.900	20891
487.976	10631
488.052	8659
488.128	11712
488.204	9908
488.280	8663
488.356	9567
488.432	15830
488.508	22272
488.584	10746
488.660	7425
488.736	8410
488.812	7602
488.888	10584
488.964	12902
489.039	27127
489.115	43661
489.191	28406
489.267	8222
489.343	7203
489.418	6493
489.494	6942
489.570	4659
489.646	7731
489.722	7100
489.797	6711
489.873	8535
489.949	16530
490.024	14859
490.100	5638
490.176	6297
490.251	7905
490.327	10365
490.403	6252
490.478	5056
490.554	5113
490.629	5960
490.705	4491
490.781	6243
490.856	5682
490.932	6381
491.007	6934
491.083	5987
491.158	5652
491.234	7396
491.309	12924
491.385	13020
491.460	5648
491.536	7024
491.611	6156
491.686	7226
491.762	8997
491.837	17489
491.913	29556
491.988	38953
492.063	53863
492.139	15517
492.214	8220
492.289	5492
492.365	4723
492.440	5742
492.515	4844
492.590	6064
492.666	4879
492.741	6349
492.816	7697
492.891	4380
492.967	5699
493.042	4208
493.117	3704
493.192	3792
493.267	5722
493.342	8148
493.418	9205
493.493	4643
493.568	3762
493.643	4262
493.718	4746
493.793	7797
493.868	10031
493.943	7003
494.018	4782
494.093	3932
494.168	4310
494.243	3961
494.318	3121
494.393	4469
494.468	3125
494.543	4885
494.618	4002
494.693	4515
494.768	3554
494.842	4869
494.917	3756
494.992	3492
495.067	2745
495.142	3229
495.217	3858
495.292	4253
495.366	4677
495.441	4839
495.516	7965
495.591	9687
495.665	36075
495.740	89899
495.815	44119
495.890	6877
495.964	3783
496.039	6793
496.114	4504
496.188	5492
496.263	4847
496.338	4960
496.412	4595
496.487	5843
496.561	6625
496.636	7196
496.710	5230
496.785	5427
496.860	6704
496.934	5140
497.009	5436
497.083	5377
497.158	5408
497.232	6484
497.307	7834
497.381	6918
497.455	6902
497.530	9524
497.604	8082
497.679	7578
497.753	12877
497.827	16827
497.902	16262
497.976	18036
498.050	31673
498.125	114388
498.199	134197
498.273	31281
498.348	22275
498.422	16916
498.496	14270
498.570	13052
498.645	8705
498.719	7901
498.793	9728
498.867	13058
498.941	16175
499.016	43462
499.090	120574
499.164	52628
499.238	7038
499.312	6210
499.386	7293
499.460	6797
499.534	5996
499.609	8237
499.683	10050
499.757	10056
499.831	18615
499.905	74166
499.979	79483
500.053	13475
500.127	12781
500.201	10651
500.275	6323
500.349	5963
500.422	6586
500.496	10807
500.570	21240
500.644	46042
500.718	81430
500.792	23245
500.866	7182
500.940	6016
501.013	5661
501.087	6043
501.161	10140
501.235	12164
501.309	23213
501.382	64786
501.456	65074
501.530	14756
501.603	21183
501.677	9608
501.751	3225
501.825	6910
501.898	8734
501.972	25652
502.046	18401
502.119	4834
502.193	12791
502.266	25992
502.340	16111
502.413	11287
502.487	23984
502.561	13588
502.634	5646
502.708	4215
502.781	3744
502.855	3377
502.928	2096
503.002	2912
503.075	2312
503.149	2867
503.222	3643
503.295	3090
503.369	4617
503.442	4911
503.516	19262
503.589	46669
503.662	32387
503.736	9670
503.809	21211
503.882	19365
503.956	25735
504.029	27946
504.102	21872
504.175	30893
504.249	10699
504.322	5399
504.395	4570
504.468	2841
504.542	2731
504.615	2012
504.688	2671
504.761	1161
504.834	4517
504.907	5304
504.980	8568
505.053	3952
505.127	3730
505.200	7280
505.273	4926
505.346	2964
505.419	1436
505.492	2234
505.565	2307
505.638	1497
505.711	2249
505.784	1380
505.857	1521
505.930	3859
506.003	1555
506.076	3118
506.149	2626
506.221	2340
506.294	4600
506.367	8070
506.440	34179
506.513	22329
506.586	4693
506.659	1607
506.731	2760
506.804	2736
506.877	4784
506.950	3696
507.022	2976
507.095	1382
507.168	4813
507.241	2641
507.313	1633
507.386	1771
507.459	5202
507.531	2664
507.604	1145
507.677	2335
507.749	959
507.822	4039
507.894	7504
507.967	10516
508.040	5073
508.112	4637
508.185	4139
508.257	3704
508.330	6821
508.402	3279
508.475	2775
508.547	4000
508.620	3312
508.692	5910
508.765	4795
508.837	1985
508.909	3105
508.982	3022
509.054	4143
509.127	3297
509.199	2866
509.271	1797
509.344	2947
509.416	2808
509.488	3099
509.560	2915
509.633	2876
509.705	3899
509.777	3537
509.849	4935
509.922	2866
509.994	1790
510.066	3607
510.138	2179
510.210	9355
510.283	5941
510.355	5525
510.427	4509
510.499	4551
510.571	4409
510.643	3190
510.715	7808
510.787	6012
510.859	5796
510.931	4950
511.003	6918
511.076	7390
511.148	2976
511.219	3558
511.291	4860
511.363	7190
511.435	3845
511.507	1679
511.579	4339
511.651	3918
511.723	3331
511.795	2697
511.867	3506
511.939	4488
512.010	6984
512.082	7234
512.154	2940
512.226	3263
512.298	5685
512.369	9577
512.441	6792
512.513	7768
512.585	3570
512.656	5934
512.728	5690
512.800	3360
512.871	4704
512.943	5478
513.015	2533
513.086	4161
513.158	5251
513.230	3823
513.301	6544
513.373	10632
513.444	5444
513.516	4167
513.588	3513
513.659	4372
513.731	6546
513.802	4817
513.874	11639
513.945	20625
514.016	6929
514.088	4011
514.159	3615
514.231	6370
514.302	8638
514.374	6330
514.445	3150
514.516	10632
514.588	6953
514.659	4905
514.730	6925
514.802	9920
514.873	5583
514.944	8287
515.016	5517
515.087	5901
515.158	7161
515.229	9666
515.301	6507
515.372	9740
515.443	5279
515.514	4451
515.585	2992
515.656	5720
515.728	5362
515.799	3575
515.870	4963
515.941	4985
516.012	4852
516.083	6812
516.154	7645
516.225	10867
516.296	10417
516.367	8761
516.438	11050
516.509	12926
516.580	19469
516.651	62614
516.722	237612
516.793	128103
516.864	22050
516.935	20335
517.006	22403
517.077	28676
517.148	63052
517.219	262701
517.289	488697
517.360	104477
517.431	28389
517.502	8639
517.573	9011
517.643	8509
517.714	7836
517.785	10989
517.856	10219
517.926	15330
517.997	18441
518.068	22273
518.138	31302
518.209	44190
518.280	170642
518.350	692080
518.421	341124
518.492	33163
518.562	14590
518.633	11122
518.703	8357
518.774	15758
518.845	33691
518.915	37857
518.986	13192
519.056	10506
519.127	16710
519.197	24970
519.268	45177
519.338	31578
519.408	7524
519.479	10186
519.549	8228
519.620	6524
519.690	4400
519.760	4507
519.831	4835
519.901	4702
519.971	4144
520.042	4591
520.112	3600
520.182	6554
520.253	7480
520.323	4574
520.393	6061
520.463	11350
520.534	4498
520.604	16469
520.674	7971
520.744	6294
520.814	15433
520.885	16284
520.955	12618
521.025	47263
521.095	21060
521.165	5154
521.235	2672
521.305	3181
521.375	3479
521.445	3894
521.515	5283
521.585	6988
521.655	4876
521.725	5242
521.795	5461
521.865	954
521.935	6693
522.005	3070
522.075	2120
522.145	3716
522.215	1963
522.285	5588
522.355	6492
522.424	11635
522.494	10926
522.564	7040
522.634	13620
522.704	45486
522.774	21313
522.843	5345
522.913	4259
522.983	5154
523.053	3796
523.122	3993
523.192	5674
523.262	22561
523.331	25795
523.401	4930
523.471	2307
523.540	3487
523.610	1566
523.680	1881
523.749	2267
523.819	3614
523.888	2092
523.958	3006
524.027	2758
524.097	3184
524.166	1851
524.236	2290
524.305	4889
524.375	2511
524.444	1415
524.514	4231
524.583	2585
524.653	2314
524.722	4756
524.791	1499
524.861	3066
524.930	1592
524.999	2342
525.069	5228
525.138	2930
525.207	2712
525.277	3420
525.346	2368
525.415	2349
525.484	3779
525.554	2114
525.623	3768
525.692	2227
525.761	3582
525.830	4177
525.900	4642
525.969	7959
526.038	12568
526.107	20974
526.176	67473
526.245	59589
526.314	21700
526.383	35250
526.452	47350
526.522	79737
526.591	93394
526.660	30814
526.729	16160
526.797	15406
526.867	29350
526.935	135973
527.004	223633
527.073	129670
527.142	12679
527.211	4856
527.280	6022
527.349	5401
527.418	1141
527.487	4185
527.555	1609
527.624	1506
527.693	-188
527.762	3413
527.831	116
527.899	2049
527.968	2449
528.037	753
528.106	3008
528.174	6984
528.243	5429
528.312	6722
528.380	11072
528.449	2739
528.518	2533
528.586	490
528.655	2760
528.723	897
528.792	1416
528.861	842
528.929	1065
528.998	2907
529.066	1424
529.135	1169
529.203	1173
529.272	-428
529.340	2058
529.409	2323
529.477	590
529.545	1319
529.614	4043
529.682	1197
529.751	2354
529.819	6042
529.887	1862
529.956	1002
530.024	2551
530.092	590
530.161	2871
530.229	5212
530.297	2330
530.365	3350
530.434	1214
530.502	267
530.570	1580
530.638	-396
530.707	2548
530.775	3586
530.843	901
530.911	1440
530.979	2046
531.047	1493
531.115	2832
531.183	1339
531.252	1799
531.320	1209
531.388	-123
531.456	1598
531.524	399
531.592	2626
531.660	3833
531.728	-161
531.796	1208
531.864	2085
531.932	1774
532.000	487
532.067	1618
532.135	2364
532.203	3563
532.271	2044
532.339	6837
532.407	19066
532.475	13454
532.542	4708
532.610	5670
532.678	6273
532.746	31470
532.814	95005
532.881	27372
532.949	4247
533.017	2936
533.084	2471
533.152	1635
533.220	1970
533.287	1862
533.355	1214
533.423	2209
533.490	1463
533.558	1997
533.625	1714
533.693	2024
533.761	2590
533.828	2943
533.896	1579
533.963	5694
534.031	8041
534.098	11430
534.166	5401
534.233	1858
534.300	3201
534.368	2945
534.435	1221
534.503	2189
534.570	3407
534.637	2380
534.705	3002
534.772	3619
534.840	5877
534.907	30187
534.974	44559
535.041	6009
535.109	2831
535.176	2219
535.243	3177
535.310	3079
535.378	1225
535.445	2430
535.512	1808
535.579	2145
535.646	403
535.714	2323
535.781	3069
535.848	3270
535.915	3855
535.982	2044
536.049	1492
536.116	4241
536.183	1659
536.250	2830
536.317	2463
536.384	3801
536.451	5836
536.518	5832
536.585	2534
536.652	6028
536.719	9054
536.786	6224
536.853	3080
536.920	7225
536.987	12079
537.053	10556
537.120	42333
537.187	46299
537.254	4178
537.321	2961
537.388	2506
537.454	2141
537.521	1708
537.588	2054
537.654	3503
537.721	3448
537.788	4182
537.855	2996
537.921	3454
537.988	2595
538.055	3351
538.121	2656
538.188	3244
538.254	4718
538.321	12934
538.388	9023
538.454	3247
538.521	2860
538.587	2894
538.654	1820
538.720	2560
538.787	3036
538.853	3197
538.920	3371
538.986	3623
539.053	2852
539.119	2716
539.185	3682
539.252	4464
539.318	6427
539.385	6282
539.451	3119
539.517	5247
539.583	5896
539.650	10089
539.716	35117
539.782	10978
539.849	2717
539.915	4039
539.981	3992
540.047	4341
540.114	3565
540.180	5350
540.246	3788
540.312	5209
540.378	11777
540.444	14677
540.510	12513
540.576	38189
540.643	14293
540.709	2016
540.775	3461
540.841	2958
540.907	4823
540.973	7684
541.039	6958
541.105	7538
541.171	4054
541.237	3054
541.303	4518
541.369	5920
541.435	4998
541.500	12378
541.566	7416
541.632	3530
541.698	2727
541.764	4510
541.830	2463
541.896	2131
541.961	3010
542.027	3090
542.093	3724
542.159	4219
542.224	2992
542.290	6455
542.356	10127
542.421	16629
542.487	7304
542.553	3579
542.618	4202
542.684	4596
542.750	3004
542.815	4676
542.881	7630
542.947	32600
543.012	28684
543.078	4092
543.143	2925
543.209	4198
543.274	3489
543.340	5584
543.405	11310
543.471	20575
543.536	5305
543.602	3389
543.667	2792
543.732	3667
543.798	1266
543.863	3129
543.928	2897
543.994	2794
544.059	3849
544.124	2966
544.190	3373
544.255	3774
544.320	3876
544.386	3682
544.451	6324
544.516	7356
544.581	6627
544.646	19292
544.712	36931
544.777	8049
544.842	4270
544.907	4680
544.972	3619
545.037	3751
545.102	4473
545.168	4666
545.233	4569
545.298	6219
545.363	4450
545.428	6636
545.493	12984
545.558	28903
545.623	12539
545.688	4115
545.753	4698
545.818	3595
545.883	5042
545.947	3856
546.012	4971
546.077	5306
546.142	5547
546.207	4850
546.272	7312
546.337	7987
546.401	6372
546.466	5609
546.531	4557
546.596	5405
546.661	5940
546.725	6726
546.790	4794
546.855	6889
546.919	5723
546.984	7535
547.049	6813
547.113	9275
547.178	8471
547.243	11030
547.307	11983
547.372	13032
547.436	13880
547.501	12330
547.565	13441
547.630	14171
547.695	13946
547.759	13094
547.823	13620
547.888	11877
547.952	12300
548.017	12803
548.081	14315
548.146	16469
548.210	14923
548.274	14355
548.339	14273
548.403	13439
548.468	11936
548.532	10830
548.596	12734
548.660	12817
548.725	14018
548.789	15365
548.853	16530
548.917	13327
548.982	15223
549.046	14821
549.110	11518
549.174	11307
549.238	12885
549.303	13597
549.367	15878
549.431	13171
549.495	12892
549.559	13037
549.623	15386
549.687	17184
549.751	20550
549.815	19812
549.879	18835
549.943	17157
550.007	20103
550.071	18099
550.135	19252
550.199	16931
550.263	17009
550.327	16275
550.391	17996
550.455	17747
550.519	18595
550.582	20430
550.646	23248
550.710	25813
550.774	22291
550.838	21472
550.901	21945
550.965	23807
551.029	24865
551.093	27372
551.156	30423
551.220	38814
551.284	46987
551.347	32795
551.411	34699
551.475	37454
551.538	25339
551.602	22200
551.666	20000
551.729	18505
551.793	19393
551.856	18342
551.920	18422
551.983	18416
552.047	17551
552.110	19046
552.174	17625
552.237	19456
552.301	19296
552.364	17856
552.428	17641
552.491	18007
552.554	19224
552.618	18879
552.681	19985
552.745	20092
552.808	31409
552.871	42319
552.934	26346
552.998	19683
553.061	18166
553.124	17832
553.187	16867
553.251	17018
553.314	17799
553.377	17461
553.440	19673
553.503	20596
553.567	22757
553.630	18907
553.693	18738
553.756	19487
553.819	18631
553.882	18513
553.945	18934
554.008	16506
554.071	17696
554.134	17780
554.197	16544
554.260	16232
554.323	18072
554.386	18006
554.449	17715
554.512	17874
554.575	16944
554.638	16480
554.701	17885
554.764	17210
554.827	16213
554.889	15567
554.952	15272
555.015	14410
555.078	14786
555.141	14646
555.203	14706
555.266	14503
555.329	15031
555.391	14171
555.454	14391
555.517	13804
555.580	13248
555.642	11802
555.705	11636
555.768	12940
555.830	13047
555.893	12384
555.955	12182
556.018	11761
556.080	12265
556.143	11708
556.206	11341
556.268	11678
556.330	12764
556.393	12427
556.455	11343
556.518	13222
556.580	14098
556.643	10645
556.705	11015
556.767	9625
556.830	10144
556.892	11835
556.955	16025
557.017	13159
557.079	10096
557.142	10008
557.204	11951
557.266	19824
557.328	18428
557.391	8724
557.453	8777
557.515	9086
557.577	10928
557.639	12251
557.701	9360
557.764	8012
557.826	10085
557.888	10468
557.950	10995
558.012	11824
558.074	14923
558.136	30619
558.198	74495
558.260	31894
558.322	13674
558.384	14529
558.446	17041
558.508	20075
558.570	25050
558.632	34634
558.694	52160
558.756	54427
558.818	142249
558.880	378022
558.942	132482
559.003	82512
559.065	47078
559.127	20094
559.189	19906
559.251	23096
559.312	31713
559.374	68665
559.436	232891
559.498	129910
559.559	23315
559.621	19571
559.683	23621
559.744	37166
559.806	105779
559.868	172455
559.929	36901
559.991	21401
560.052	28913
560.114	75973
560.176	54907
560.237	43586
560.299	76371
560.360	19617
560.422	8540
560.483	7948
560.545	7068
560.606	6434
560.667	6525
560.729	6001
560.790	6765
560.852	7011
560.913	6118
560.974	6374
561.036	6641
561.097	6271
561.158	7468
561.220	7294
561.281	6775
561.342	7284
561.403	9472
561.465	11046
561.526	25660
561.587	38153
561.648	9674
561.709	6634
561.771	7068
561.832	5803
561.893	6745
561.954	5750
562.015	6351
562.076	6211
562.137	6395
562.198	6082
562.259	6095
562.320	6747
562.381	8166
562.442	9907
562.503	10578
562.564	6853
562.625	6542
562.686	6024
562.747	6848
562.808	6657
562.869	5724
562.930	8105
562.991	7654
563.051	6148
563.112	6015
563.173	5775
563.234	6449
563.294	5756
563.355	6126
563.416	6894
563.477	6291
563.537	6139
563.598	7110
563.659	7288
563.720	5982
563.780	7270
563.841	8035
563.901	6617
563.962	6871
564.023	6998
564.083	7231
564.144	6741
564.204	6772
564.265	6457
564.325	7909
564.386	13248
564.446	12808
564.507	6673
564.567	7545
564.628	5405
564.688	6789
564.749	6109
564.809	7537
564.869	8813
564.930	6856
564.990	7389
565.050	5821
565.111	6938
565.171	6585
565.231	7525
565.292	6775
565.352	6311
565.412	7542
565.472	6860
565.532	8384
565.593	7744
565.653	8074
565.713	7968
565.773	8271
565.833	10162
565.893	13593
565.953	8487
566.013	8392
566.074	8072
566.134	10332
566.194	14970
566.254	16221
566.314	11942
566.374	9482
566.434	8212
566.494	8930
566.554	9612
566.614	9229
566.673	9680
566.733	11375
566.793	11661
566.853	11005
566.913	11096
566.973	11786
567.033	12760
567.092	13413
567.152	12664
567.212	13057
567.272	12484
567.331	14046
567.391	14295
567.451	15053
567.511	17856
567.570	18327
567.630	13536
567.690	13156
567.749	15035
567.809	15710
567.868	18542
567.928	21257
567.988	22466
568.047	26277
568.107	31980
568.166	43353
568.226	67647
568.285	92889
568.345	77071
568.404	62135
568.464	54264
568.523	51469
568.582	52837
568.642	58998
568.701	71068
568.761	102925
568.820	160514
568.879	149600
568.939	107725
568.998	82034
569.057	63838
569.116	51602
569.176	42530
569.235	35960
569.294	30184
569.353	26973
569.413	24527
569.472	21677
569.531	19780
569.590	17839
569.649	16210
569.708	15152
569.767	15305
569.827	17986
569.886	15574
569.945	12998
570.004	13775
570.063	12120
570.122	12094
570.181	12582
570.240	13138
570.299	12880
570.358	13736
570.417	10907
570.475	9874
570.534	10762
570.593	10718
570.652	10971
570.711	11571
570.770	10103
570.829	10841
570.887	11074
570.946	11967
571.005	9184
571.064	9968
571.122	11100
571.181	10950
571.240	9463
571.299	8877
571.357	9684
571.416	8458
571.475	10433
571.533	10962
571.592	7862
571.650	9046
571.709	8227
571.768	8650
571.826	8850
571.885	8417
571.943	7761
572.002	7459
572.060	8079
572.119	7524
572.177	7847
572.236	7604
572.294	7471
572.352	8520
572.411	7005
572.469	7546
572.528	6883
572.586	7779
572.644	8654
572.703	11947
572.761	8954
572.819	7452
572.877	7830
572.936	6187
572.994	6641
573.052	6716
573.110	8144
573.169	7592
573.227	6297
573.285	7613
573.343	7418
573.401	7849
573.459	7018
573.517	6975
573.576	6985
573.634	7257
573.692	7895
573.750	7755
573.808	7549
573.866	7856
573.924	10356
573.982	9896
574.040	7713
574.098	6862
574.155	6437
574.213	6755
574.271	6861
574.329	7304
574.387	6363
574.445	7103
574.503	6827
574.560	5295
574.618	6438
574.676	7272
574.734	6713
574.792	7105
574.849	6836
574.907	6455
574.965	6450
575.022	6726
575.080	5904
575.138	7185
575.195	7419
575.253	6761
575.311	8359
575.368	6896
575.426	6251
575.483	7850
575.541	6295
575.598	6743
575.656	7322
575.713	6754
575.771	6905
575.828	6766
575.886	7727
575.943	7139
576.001	6482
576.058	7241
576.115	8274
576.173	9754
576.230	10771
576.287	11748
576.345	10571
576.402	7507
576.459	7297
576.517	7881
576.574	8712
576.631	9097
576.688	7304
576.746	7339
576.803	8049
576.860	6874
576.917	7796
576.974	7137
577.031	7728
577.089	7920
577.146	6469
577.203	7304
577.260	9158
577.317	8430
577.374	9571
577.431	8850
577.488	8428
577.545	7524
577.602	8135
577.659	7320
577.716	6561
577.773	7184
577.830	7005
577.886	7568
577.943	6829
578.000	7823
578.057	7452
578.114	8370
578.171	8191
578.227	7718
578.284	7830
578.341	8296
578.398	8302
578.454	8324
578.511	10150
578.568	10161
578.625	8887
578.681	7516
578.738	7468
578.794	7671
578.851	7297
578.908	8230
578.964	7959
579.021	8501
579.077	8517
579.134	8061
579.190	8171
579.247	7560
579.303	8230
579.360	7195
579.416	8322
579.473	7262
579.529	7276
579.586	8229
579.642	9020
579.698	7546
579.755	8896
579.811	8701
579.867	8251
579.924	7438
579.980	7689
580.036	8832
580.093	7385
580.149	8888
580.205	8990
580.261	9014
580.317	9003
580.374	9794
580.430	11212
580.486	10171
580.542	10049
580.598	9038
580.619	9289
580.654	9734
580.692	9461
580.710	9341
580.765	9925
580.767	9954
580.823	8815
580.838	8952
580.879	9333
580.911	9526
580.935	9680
580.984	9110
580.991	9044
581.047	8466
581.057	8524
581.103	8801
581.130	9067
581.159	9351
581.203	9513
581.215	9568
581.270	9421
581.276	9456
581.326	9872
581.349	9721
581.382	9493
581.422	9414
581.438	9406
581.494	10609
581.494	10591
581.550	9239
581.567	9664
581.606	10560
581.640	10677
581.661	10764
581.713	10590
581.717	10590
581.773	10176
581.786	10152
581.829	9936
581.859	9585
581.885	9383
581.932	9602
581.940	9630
581.996	9632
582.004	9609
582.052	9484
582.077	9658
582.107	9871
582.150	9441
582.163	9344
582.219	9428
582.223	9501
582.274	10376
582.296	10379
582.330	10308
582.368	10191
582.386	10200
582.441	10596
582.441	10598
582.497	9592
582.514	9841
582.552	10585
582.587	10450
582.608	10254
582.659	9883
582.663	9872
582.719	9927
582.732	10222
582.774	11182
582.805	11039
582.830	10834
582.877	10755
582.885	10747
582.941	10260
582.950	10269
582.996	10457
583.023	10866
583.052	11297
583.095	10675
583.107	10510
583.162	11053
583.168	11115
583.218	11654
583.240	11570
583.273	11308
583.313	10836
583.328	10769
583.384	10850
583.385	10861
583.439	10809
583.458	10870
583.494	11074
583.531	10822
583.549	10780
583.603	11906
583.605	11931
583.660	11437
583.676	11454
583.715	11613
583.748	12148
583.770	12480
583.820	11948
583.825	11884
583.881	12149
583.893	12036
583.936	11920
583.965	12259
583.991	12255
584.038	11673
584.046	11671
584.101	12353
584.110	12394
584.156	12533
584.183	12590
584.211	12396
584.255	12093
584.266	12048
584.321	12084
584.328	12099
584.376	12445
584.400	12607
584.431	12820
584.472	12929
584.486	12916
584.541	13632
584.545	13624
584.596	13486
584.617	13660
584.651	14149
584.689	14099
584.706	13961
584.761	14640
584.762	14641
584.816	14600
584.834	14816
584.871	15306
584.906	15608
584.926	15740
584.978	16024
584.980	16036
585.035	16952
585.051	17164
585.090	17990
585.123	18993
585.145	19506
585.195	20526
585.200	20654
585.254	22736
585.267	23239
585.309	24699
585.340	26386
585.364	27855
585.412	30362
585.419	30723
585.473	33687
585.484	34663
585.528	40815
585.556	47096
585.583	58873
585.628	88837
585.637	99660
585.692	193141
585.700	211152
585.747	277697
585.772	240771
585.801	159739
585.845	62790
585.856	50176
585.910	32204
585.917	30738
585.965	26950
585.989	26048
586.019	25243
586.061	24845
586.074	24785
586.128	24079
586.133	24147
586.183	25440
586.205	25769
586.237	25920
586.277	25773
586.292	25600
586.346	24790
586.349	24807
586.401	25702
586.421	25953
586.455	26302
586.493	27676
586.509	29250
586.564	34199
586.565	34434
586.618	45807
586.637	46842
586.672	42086
586.709	35025
586.727	33078
586.781	32788
586.781	32778
586.835	31492
586.853	31128
586.889	30730
586.925	30253
586.944	30393
586.996	31917
586.998	31940
587.052	33545
587.068	33609
587.106	33369
587.140	33745
587.161	34399
587.212	36503
587.215	36587
587.269	38216
587.284	38668
587.323	39483
587.356	40386
587.377	41155
587.427	43322
587.431	43471
587.485	45375
587.499	46099
587.539	48034
587.571	49788
587.593	51220
587.643	53875
587.648	54078
587.702	57254
587.715	58228
587.755	61619
587.786	64133
587.810	66183
587.858	70618
587.864	71131
587.917	78058
587.930	79690
587.971	86223
588.001	91730
588.025	95942
588.073	103669
588.079	104795
588.133	117973
588.145	121337
588.187	133364
588.217	142042
588.241	150883
588.288	171075
588.295	173942
588.348	201216
588.360	207455
588.402	232669
588.431	252632
588.456	272307
588.503	314678
588.510	321530
588.564	382904
588.575	397354
588.617	469136
588.646	524653
588.671	592201
588.718	733527
588.725	767237
588.778	1052370
588.789	1112407
588.832	1464220
588.861	1695495
588.886	1834761
588.932	2021572
588.939	2006677
588.993	1818617
589.004	1807019
589.047	1856886
589.075	1833601
589.100	1627044
589.147	1171884
589.154	1133869
589.207	859121
589.218	809060
589.261	735803
589.290	700084
589.314	719117
589.361	776285
589.368	803410
589.421	1056479
589.433	1113714
589.475	1471233
589.504	1710234
589.528	1785582
589.576	1846269
589.582	1824559
589.635	1666726
589.647	1615096
589.689	1205464
589.718	892326
589.742	748912
589.790	486980
589.795	471584
589.849	350775
589.861	325808
589.902	276380
589.932	242309
589.955	221503
590.004	181847
590.009	179020
590.062	153455
590.075	147850
590.115	134271
590.146	124396
590.168	118970
590.218	107933
590.222	107029
590.275	97175
590.289	94870
590.328	89565
590.360	85370
590.381	82822
590.431	77565
590.435	77227
590.488	72456
590.503	71261
590.541	68358
590.574	66026
590.594	64515
590.645	61047
590.647	60890
590.700	57565
590.716	56634
590.753	54761
590.787	53263
590.806	52428
590.859	50194
590.859	50139
590.912	48422
590.930	47863
590.965	46825
591.001	45821
591.018	45381
591.071	44292
591.072	44294
591.124	43206
591.143	42832
591.177	42436
591.214	42138
591.230	41952
591.283	41487
591.285	41469
591.336	42048
591.356	42269
591.389	41709
591.427	41049
591.442	40135
591.495	36672
591.498	36435
591.547	36023
591.569	35798
591.600	35448
591.640	35049
591.653	35031
591.706	34951
591.711	34957
591.759	35486
591.782	35705
591.811	36239
591.853	37121
591.864	36720
591.917	34402
591.924	34076
591.969	33335
591.995	32919
592.022	33148
592.066	33544
592.075	33911
592.127	36158
592.137	36571
592.180	36696
592.208	36682
592.233	34950
592.279	31584
592.285	31499
592.338	30839
592.350	30696
592.390	31076
592.421	31332
592.443	31341
592.491	31334
592.495	31321
592.548	30985
592.562	30885
592.600	30118
592.633	29443
592.653	29519
592.704	29553
592.705	29721
592.775	29738
592.846	30667
592.916	30150
592.987	33120
593.058	31769
593.128	28839
593.199	29110
593.270	28082
593.341	28488
593.411	29410
593.482	29410
593.553	29445
593.623	28807
593.694	29954
593.764	30565
593.835	29470
593.906	28964
593.976	28737
594.047	30598
594.117	33800
594.188	32853
594.258	30279
594.329	28652
594.399	29228
594.470	30110
594.540	30149
594.611	29869
594.681	29590
594.751	31017
594.822	32782
594.892	33246
594.963	33195
595.033	33657
595.103	33864
595.174	34754
595.244	43215
595.314	47985
595.384	35156
595.455	33301
595.525	34385
595.595	35213
595.665	36153
595.736	34791
595.806	35682
595.876	34399
595.946	35384
596.016	35072
596.087	36788
596.157	36292
596.227	37175
596.297	39295
596.367	40218
596.437	43901
596.507	48215
596.577	53434
596.647	44525
596.717	43628
596.787	44847
596.857	43174
596.927	44033
596.997	44233
597.067	44567
597.137	46088
597.207	45865
597.277	45743
597.347	44410
597.417	43451
597.487	43960
597.557	45211
597.626	46348
597.696	47221
597.766	50396
597.836	54062
597.906	43265
597.975	40905
598.045	40101
598.115	41661
598.185	44613
598.254	49400
598.324	54518
598.394	55226
598.464	53516
598.533	50359
598.603	47254
598.672	47852
598.742	47981
598.812	46359
598.881	47547
598.951	47925
599.020	48896
599.090	49308
599.159	49800
599.229	48662
599.299	46626
599.368	49429
599.437	47955
599.507	45056
599.576	44792
599.646	43123
599.715	42945
599.785	42862
599.854	41570
599.924	44576
599.993	41991
600.062	41676
600.132	42965
600.201	45555
600.270	52195
600.340	53214
600.409	51624
600.478	50295
600.547	52132
600.617	47886
600.686	40596
600.755	38243
600.824	37599
600.894	34882
600.963	35366
601.032	33515
601.101	34530
601.170	31655
601.239	32002
601.308	33519
601.378	32934
601.447	32468
601.516	30892
601.585	33917
601.654	36644
601.723	32585
601.792	33488
601.861	33890
601.930	37470
601.999	38649
602.068	36631
602.137	38795
602.206	39946
602.275	37626
602.343	42594
602.412	41739
602.481	36290
602.550	36373
602.619	36835
602.688	39634
602.756	37514
602.825	37902
602.894	38452
602.963	38661
603.032	40324
603.100	38308
603.169	39753
603.238	39532
603.307	39478
603.375	39909
603.444	41132
603.513	41154
603.581	42144
603.650	42486
603.719	41286
603.787	43114
603.856	43726
603.924	45260
603.993	46097
604.061	48028
604.130	49869
604.198	49959
604.267	50814
604.335	51678
604.404	51173
604.472	51694
604.541	53361
604.609	53967
604.678	53349
604.746	54447
604.815	55389
604.883	55713
604.951	56035
605.020	56421
605.088	56914
605.156	58555
605.225	59291
605.293	58923
605.361	59997
605.429	60091
605.498	62508
605.566	63427
605.634	67056
605.702	68857
605.771	69715
605.839	70388
605.907	69123
605.975	65553
606.043	63900
606.111	64093
606.180	64462
606.248	63069
606.316	63657
606.384	63545
606.452	70893
606.520	74005
606.588	71036
606.656	67373
606.724	65809
606.792	61030
606.860	57447
606.928	50639
606.996	50118
607.064	48893
607.132	49180
607.200	53500
607.267	55907
607.335	55431
607.403	57563
607.471	55303
607.539	53487
607.607	54743
607.674	48368
607.742	49566
607.810	49967
607.878	50606
607.946	50159
608.013	52369
608.081	52980
608.149	52877
608.216	54655
608.284	56285
608.352	54915
608.419	56227
608.487	60309
608.555	54657
608.622	55540
608.690	57913
608.757	63379
608.825	65816
608.893	65214
608.960	64855
609.028	64331
609.095	66233
609.163	57714
609.230	52420
609.298	49471
609.365	49381
609.432	54326
609.500	59013
609.567	67117
609.635	75789
609.702	79943
609.769	77334
609.837	61683
609.904	53967
609.971	56833
610.039	67015
610.106	95584
610.173	199247
610.241	485137
610.308	349749
610.375	164898
610.442	72505
610.509	58272
610.577	57226
610.644	55880
610.711	57492
610.778	58079
610.845	59914
610.912	62531
610.980	65973
611.047	66091
611.114	65334
611.181	62901
611.248	61660
611.315	66961
611.382	65295
611.449	68976
611.516	69517
611.583	69650
611.650	69053
611.717	72909
611.784	73414
611.851	78644
611.918	86747
611.984	106566
612.051	167975
612.118	378814
612.185	986779
612.252	556912
612.319	122829
612.386	95212
612.452	84797
612.519	82992
612.586	85240
612.653	81889
612.719	82632
612.786	77606
612.853	73111
612.919	70219
612.986	73437
613.053	66670
613.120	63212
613.186	60971
613.253	63405
613.319	61882
613.386	61657
613.453	64431
613.519	67596
613.586	71744
613.652	85264
613.719	76344
613.785	71094
613.852	65042
613.918	62174
613.985	65240
614.051	68517
614.118	71695
614.184	68539
614.250	63613
614.317	64177
614.383	64328
614.449	64092
614.516	63554
614.582	66338
614.648	63795
614.715	62838
614.781	63117
614.847	61627
614.914	61833
614.980	62875
615.046	60966
615.112	62912
615.179	63585
615.245	66201
615.311	72613
615.377	93419
615.443	96991
615.509	72968
615.575	71292
615.642	68466
615.708	73401
615.774	76685
615.840	84838
615.906	100536
615.972	145198
616.038	265053
616.104	534668
616.170	1255227
616.236	981340
616.302	192977
616.368	132588
616.434	92925
616.500	85872
616.565	96210
616.631	119473
616.697	94220
616.763	99820
616.829	156805
616.895	288159
616.961	261046
617.026	103652
617.092	71916
617.158	68640
617.224	64694
617.289	61963
617.355	58030
617.421	57712
617.487	58052
617.552	53497
617.618	52490
617.684	52204
617.749	55834
617.815	51594
617.880	49514
617.946	50050
618.012	51885
618.077	51309
618.143	49431
618.208	51459
618.274	55443
618.339	55642
618.405	46025
618.470	46768
618.536	46852
618.601	47677
618.667	43947
618.732	41262
618.798	41023
618.863	40495
618.928	39928
618.994	43398
619.059	45925
619.124	55345
619.190	45552
619.255	40331
619.320	39215
619.386	40407
619.451	38188
619.516	38520
619.581	39050
619.647	39547
619.712	40093
619.777	38402
619.842	38235
619.907	40660
619.972	40557
620.038	40841
620.103	38850
620.168	36703
620.233	39167
620.298	38317
620.363	38963
620.428	40192
620.493	40907
620.558	40944
620.623	41869
620.688	42433
620.753	41631
620.818	40878
620.883	41358
620.948	41708
621.013	41262
621.078	41634
621.143	40422
621.207	44651
621.272	43447
621.337	42718
621.402	42528
621.467	47501
621.532	48325
621.596	43121
621.661	40841
621.726	39338
621.791	39385
621.855	42000
621.920	43771
621.985	42968
622.049	45306
622.114	44947
622.179	43552
622.243	44170
622.308	44436
622.373	47160
622.437	45841
622.502	41427
622.566	41677
622.631	41308
622.695	44924
622.760	43895
622.824	43044
622.889	45143
622.953	47298
623.018	62742
623.082	60163
623.147	45940
623.211	45511
623.276	44680
623.340	40712
623.404	40118
623.469	40279
623.533	41709
623.597	40033
623.662	41003
623.726	38586
623.790	36529
623.854	34862
623.919	35912
623.983	36834
624.047	36450
624.111	37212
624.176	38177
624.240	39575
624.304	43682
624.368	37928
624.432	37643
624.496	39977
624.560	44481
624.625	46784
624.689	41470
624.753	42205
624.817	39852
624.881	38460
624.945	35122
625.009	33730
625.073	35763
625.137	38660
625.201	46535
625.265	45574
625.329	36967
625.393	38952
625.456	38235
625.520	38337
625.584	42040
625.648	44914
625.712	56613
625.776	93302
625.839	100891
625.903	49176
625.967	36034
626.031	48570
626.095	67808
626.158	39319
626.222	29181
626.286	26993
626.349	26290
626.413	24883
626.477	27600
626.540	25733
626.604	25558
626.668	25500
626.731	24060
626.795	25228
626.858	25850
626.922	24775
626.986	25009
627.049	22564
627.113	25109
627.176	24739
627.240	23290
627.303	22908
627.366	24169
627.430	24408
627.493	23797
627.557	23302
627.620	24864
627.684	24184
627.747	25792
627.810	22629
627.874	22608
627.937	20724
628.000	23506
628.064	22335
628.127	17620
628.190	19385
628.253	19739
628.317	18894
628.380	17908
628.443	17845
628.506	18497
628.569	16905
628.632	15621
628.696	16250
628.759	16893
628.822	15677
628.885	16186
628.948	15684
629.011	15681
629.074	16458
629.137	14851
629.200	15192
629.263	18105
629.326	14227
629.389	14090
629.452	14892
629.515	14787
629.578	14620
629.641	16531
629.704	14425
629.767	15160
629.830	13787
629.892	14570
629.955	14006
630.018	16397
630.081	16746
630.144	22679
630.207	15571
630.269	17173
630.332	16136
630.395	14419
630.458	13589
630.520	13044
630.583	13996
630.646	13722
630.708	13169
630.771	12811
630.834	13910
630.896	12553
630.959	13761
631.021	12906
631.084	14213
631.146	15085
631.209	16893
631.272	12990
631.334	13669
631.397	14323
631.459	13361
631.522	15538
631.584	14501
631.646	17208
631.709	17778
631.771	22097
631.834	16909
631.896	14729
631.958	13066
632.021	14472
632.083	12244
632.145	13500
632.208	13833
632.270	14369
632.332	11991
632.395	12227
632.457	13863
632.519	11457
632.581	13658
632.643	11954
632.706	11787
632.768	11939
632.830	12036
632.892	12310
632.954	12227
633.016	12632
633.078	12317
633.141	12087
633.203	12478
633.265	12508
633.327	12096
633.389	12750
633.451	14338
633.513	16881
633.575	16424
633.637	16748
633.698	14582
633.760	14363
633.822	14019
633.884	13957
633.946	13664
634.008	13128
634.070	14757
634.132	14910
634.193	15703
634.255	18364
634.317	18111
634.379	18441
634.441	15604
634.502	14897
634.564	14657
634.626	14368
634.687	14452
634.749	12367
634.811	11895
634.873	10756
634.934	10559
634.996	12875
635.057	11684
635.119	11422
635.181	12276
635.242	11828
635.304	10108
635.365	14036
635.427	11647
635.488	13145
635.550	10632
635.611	12280
635.673	10658
635.734	14945
635.796	13671
635.857	14955
635.918	14791
635.980	17579
636.041	17990
636.102	19865
636.164	19136
636.225	19251
636.286	14841
636.348	14929
636.409	13527
636.470	11750
636.531	12372
636.593	12315
636.654	12231
636.715	10947
636.776	9650
636.838	9378
636.899	10275
636.960	9932
637.021	9804
637.082	10048
637.143	10570
637.204	8882
637.265	9159
637.326	9477
637.387	10212
637.448	9055
637.509	9758
637.570	9276
637.631	9915
637.692	7888
637.753	7637
637.814	9372
637.875	7682
637.936	10301
637.997	8510
638.058	9842
638.119	10036
638.179	8490
638.240	8445
638.301	8331
638.362	7933
638.423	8458
638.483	10245
638.544	6671
638.605	8522
638.666	7518
638.726	8363
638.787	8239
638.848	7688
638.908	7747
638.969	8311
639.030	8361
639.090	7526
639.151	8198
639.211	9953
639.272	13257
639.332	21097
639.393	11837
639.453	8278
639.514	9467
639.574	7748
639.635	7474
639.695	8080
639.756	7340
639.816	9227
639.877	10947
639.937	19165
639.997	24446
640.058	8867
640.118	7300
640.178	9121
640.239	7649
640.299	6709
640.359	6770
640.420	8322
640.480	8974
640.540	9593
640.600	10628
640.661	9410
640.721	9565
640.781	12318
640.841	8645
640.901	8944
640.961	8261
641.021	10324
641.082	11223
641.142	15794
641.202	10868
641.262	5640
641.322	8306
641.382	6629
641.442	7718
641.502	6662
641.562	8209
641.622	6862
641.682	7534
641.742	8904
641.802	8008
641.861	8288
641.921	8675
641.981	9509
642.041	9345
642.101	11299
642.161	7026
642.221	6256
642.280	6738
642.340	6138
642.400	6076
642.460	7570
642.519	6991
642.579	6880
642.639	8369
642.698	4506
642.758	9119
642.818	6605
642.877	6681
642.937	7301
642.997	8637
643.056	13646
643.116	7917
643.175	8461
643.235	7952
643.294	7542
643.354	8448
643.414	9325
643.473	12716
643.532	14820
643.592	22540
643.651	38385
643.711	72887
643.770	150813
643.830	383534
643.889	806997
643.948	164290
644.008	25648
644.067	15810
644.126	11489
644.186	10224
644.245	9403
644.304	7221
644.363	8912
644.423	6501
644.482	7545
644.541	7629
644.600	5962
644.659	10724
644.719	12144
644.778	20151
644.837	34239
644.896	74502
644.955	175616
645.014	51206
645.073	11592
645.132	8860
645.191	8523
645.250	7450
645.309	9881
645.368	8654
645.427	11710
645.486	18289
645.545	32592
645.604	9915
645.663	7889
645.722	7947
645.781	8071
645.840	10822
645.898	12596
645.957	22054
646.016	33706
646.075	66948
646.134	134498
646.192	382583
646.251	544730
646.310	67126
646.369	17991
646.427	14443
646.486	9542
646.545	8987
646.603	8166
646.662	7816
646.721	6945
646.779	6869
646.838	6583
646.896	10280
646.955	11711
647.014	20102
647.072	39923
647.131	109078
647.189	47900
647.248	7502
647.306	6885
647.365	6983
647.423	4271
647.481	6378
647.540	4395
647.598	5925
647.657	5071
647.715	5940
647.773	4421
647.832	5293
647.890	3884
647.948	3891
648.007	5203
648.065	4364
648.123	4532
648.181	5830
648.240	4385
648.298	4444
648.356	4124
648.414	5168
648.472	3877
648.531	5272
648.589	3948
648.647	4550
648.705	3932
648.763	4450
648.821	4367
648.879	4793
648.937	5974
648.995	7152
649.053	10187
649.111	14963
649.169	27297
649.227	49797
649.285	108991
649.343	322317
649.401	138648
649.459	34818
649.516	20020
649.574	7767
649.632	10661
649.690	10668
649.748	10088
649.806	14085
649.863	26655
649.921	74628
649.979	45541
650.037	8767
650.094	3840
650.152	5028
650.210	2765
650.268	5058
650.325	4785
650.383	4184
650.440	2772
650.498	3765
650.556	3659
650.613	4117
650.671	3646
650.728	3388
650.786	4908
650.843	4382
650.901	1818
650.958	3947
651.016	3184
651.073	3289
651.131	2656
651.188	3097
651.246	3481
651.303	1983
651.360	2951
651.418	2758
651.475	3151
651.532	2551
651.590	2990
651.647	2558
651.704	3301
651.762	3161
651.819	3366
651.876	2738
651.933	3084
651.990	3700
652.048	1790
652.105	2417
652.162	3611
652.219	3250
652.276	2959
652.333	3154
652.390	1822
652.448	2836
652.505	3069
652.562	2856
652.619	2655
652.676	3078
652.733	3459
652.790	2605
652.847	1699
652.904	3526
652.961	1349
653.017	2406
653.074	2635
653.131	2980
653.188	1676
653.245	2901
653.302	3113
653.359	2852
653.415	3408
653.472	1945
653.529	3617
653.586	2372
653.642	1863
653.699	3494
653.756	2082
653.813	1915
653.869	2322
653.926	1728
653.983	1660
654.039	2593
654.096	2394
654.152	3442
654.209	1425
654.266	3158
654.322	2306
654.379	4166
654.435	3617
654.492	3397
654.548	4538
654.605	8637
654.661	4498
654.717	3251
654.774	2774
654.830	2458
654.887	2167
654.943	2966
655.000	3669
655.056	3865
655.112	2581
655.168	2357
655.225	2558
655.281	3670
655.337	4345
655.394	6431
655.450	5305
655.506	4647
655.562	7579
655.618	6176
655.675	1810
655.731	2890
655.787	2173
655.843	3183
655.899	2536
655.955	3834
656.011	3828
656.067	3410
656.123	4691
656.179	4175
656.235	5111
656.291	2841
656.347	4548
656.403	4077
656.459	3304
656.515	4580
656.571	3867
656.627	3666
656.683	2786
656.739	3563
656.795	2921
656.850	3048
656.906	4876
656.962	4200
657.018	1650
657.074	3238
657.129	4151
657.185	5270
657.241	9468
657.297	5121
657.352	2904
657.408	1968
657.464	3498
657.519	1885
657.575	1780
657.630	2145
657.686	2450
657.742	901
657.797	1975
657.853	1741
657.908	2539
657.964	1557
658.019	1698
658.075	2247
658.130	2028
658.186	574
658.241	2243
658.297	1287
658.352	2302
658.407	2499
658.463	855
658.518	1827
658.573	2095
658.629	1555
658.684	1720
658.739	2656
658.795	1809
658.850	2216
658.905	1460
658.960	2136
659.016	1739
659.071	2698
659.126	2815
659.181	2845
659.236	5962
659.291	7257
659.346	3014
659.401	3559
659.457	2071
659.512	1486
659.567	2605
659.622	2821
659.677	1293
659.732	1708
659.787	2871
659.842	2175
659.897	3624
659.952	1762
660.007	1721
660.061	2699
660.116	1491
660.171	1908
660.226	1974
660.281	2721
660.336	1560
660.391	2261
660.445	1401
660.500	2089
660.555	2070
660.610	1472
660.664	2347
660.719	1911
660.774	1699
660.828	1799
660.883	1710
660.938	2884
660.992	1369
661.047	1877
661.101	1361
661.156	1358
661.211	1299
661.265	2580
661.320	1948
661.374	1724
661.429	632
661.483	1857
661.538	663
661.592	1812
661.647	1511
661.701	2666
661.755	1954
661.810	2112
661.864	791
661.919	1188
661.973	2064
662.027	1885
662.081	1096
662.136	1694
662.190	1507
662.244	2924
662.299	828
662.353	1552
662.407	1319
662.461	2422
662.515	1765
662.569	1578
662.624	2777
662.678	1952
662.732	1416
662.786	2285
662.840	1635
662.894	2196
662.948	1947
663.002	1424
663.056	1452
663.110	95
663.164	1729
663.218	1993
663.272	1899
663.326	2663
663.380	2451
663.434	1959
663.488	1591
663.542	1322
663.595	1852
663.649	1711
663.703	1928
663.757	1516
663.811	324
663.864	1456
663.918	1513
663.972	2061
664.026	1228
664.079	1317
664.133	2135
664.187	1494
664.240	1527
664.294	1141
664.348	2164
664.401	1890
664.455	1421
664.508	1879
664.562	1945
664.615	1011
664.669	1629
664.722	1966
664.776	684
664.829	1803
664.883	1771
664.936	973
664.990	2050
665.043	1869
665.097	1456
665.150	3130
665.203	1079
665.257	1735
665.310	1847
665.363	1731
665.417	1301
665.470	1897
665.523	1765
665.576	1950
665.630	1661
665.683	2154
665.736	1924
665.789	2457
665.842	1015
665.895	2290
665.949	1866
666.002	1239
666.055	2082
666.108	2822
666.161	3108
666.214	2539
666.267	2870
666.320	2565
666.373	2527
666.426	2048
666.479	1822
666.532	2505
666.585	1973
666.638	3873
666.691	2009
666.744	3500
666.796	2617
666.849	2526
666.902	1939
666.955	1679
667.008	2194
667.060	1043
667.113	1266
667.166	1929
667.219	1705
667.271	1955
667.324	1504
667.377	1164
667.430	953
667.482	2240
667.535	2287
667.587	1979
667.640	2820
667.693	3447
667.745	5750
667.798	6788
667.850	2841
667.903	2276
667.955	1441
668.008	1958
668.060	2588
668.113	2245
668.165	2291
668.218	3117
668.270	1736
668.322	1496
668.375	2157
668.427	2774
668.479	2736
668.532	2150
668.584	2069
668.636	2101
668.689	2122
668.741	1149
668.793	2009
668.845	2161
668.898	2414
668.950	2839
669.002	1791
669.054	1759
669.106	1966
669.158	2148
669.211	2111
669.263	1801
669.315	2524
669.367	3092
669.419	1994
669.471	3492
669.523	4427
669.575	6215
669.627	4011
669.679	3080
669.731	2850
669.783	2634
669.835	4163
669.886	3447
669.938	2941
669.990	2808
670.042	2694
670.094	3845
670.146	3709
670.197	4796
670.249	6472
670.301	7860
670.353	11605
670.404	18260
670.456	25663
670.508	43448
670.560	73230
670.611	127767
670.663	226206
670.715	542494
670.766	777290
670.818	233734
670.869	44180
670.921	21912
670.972	13898
671.024	10898
671.075	8308
671.127	7214
671.178	5388
671.230	5639
671.281	5012
671.333	4299
671.384	4350
671.436	4588
671.487	6402
671.538	7247
671.590	8904
671.641	15074
671.692	26751
671.744	47915
671.795	27563
671.846	9531
671.897	5396
671.949	4061
672.000	3075
672.051	3075
672.102	3343
672.153	1953
672.204	2305
672.256	2805
672.307	2609
672.358	3008
672.409	2637
672.460	2260
672.511	1390
672.562	2417
672.613	1550
672.664	2176
672.715	2451
672.766	2103
672.817	1821
672.868	1520
672.919	2002
672.970	1805
673.021	2274
673.071	1809
673.122	2195
673.173	1560
673.224	1819
673.275	1409
673.326	549
673.376	1815
673.427	1157
673.478	1060
673.528	2341
673.579	2466
673.630	681
673.680	2497
673.731	1733
673.782	505
673.832	1601
673.883	1494
673.934	924
673.984	1436
674.035	954
674.085	1777
674.136	1739
674.186	2602
674.237	2839
674.287	3165
674.338	1977
674.388	1475
674.438	1126
674.489	1753
674.539	1485
674.589	2202
674.640	1741
674.690	1554
674.740	1296
674.791	2141
674.841	1238
674.891	2613
674.942	1275
674.992	2306
675.042	1302
675.092	1334
675.142	911
675.193	1872
675.243	1548
675.293	1631
675.343	867
675.393	799
675.443	1504
675.493	1105
675.543	590
675.593	1395
675.643	1121
675.693	821
675.743	1397
675.793	1024
675.843	707
675.893	1563
675.943	965
675.993	946
676.043	1251
676.093	1211
676.142	790
676.192	2262
676.242	1028
676.292	1225
676.341	2139
676.391	1689
676.441	1204
676.491	738
676.540	536
676.590	1521
676.640	604
676.689	1144
676.739	367
676.789	260
676.838	1069
676.888	544
676.937	1193
676.987	1603
677.037	1150
677.086	-158
677.136	1231
677.185	195
677.235	619
677.284	700
677.333	160
677.383	226
677.432	-404
677.482	614
677.531	1804
677.580	1048
677.630	344
677.679	406
677.728	1153
677.778	1347
677.827	5
677.876	701
677.925	494
677.975	1320
678.024	232
678.073	801
678.122	357
678.171	508
678.220	243
678.269	1366
678.319	1834
678.368	484
678.417	534
678.466	604
678.515	1649
678.564	1683
678.613	471
678.662	727
678.711	367
678.760	531
678.809	-218
678.857	846
678.906	1174
678.955	467
679.004	1674
679.053	468
679.102	482
679.151	202
679.199	974
679.248	455
679.297	311
679.346	950
679.394	159
679.443	788
679.492	781
679.540	1151
679.589	1312
679.638	452
679.686	528
679.735	723
679.784	655
679.832	929
679.881	386
679.929	618
679.978	42
680.026	852
680.075	83
680.123	467
680.172	394
680.220	1093
680.268	-197
680.317	-370
680.365	252
680.414	285
680.462	267
680.510	1112
680.559	-68
680.607	805
680.655	771
680.703	694
680.752	600
680.800	488
680.848	240
680.896	-242
680.945	1084
680.993	404
681.041	694
681.089	591
681.137	314
681.185	372
681.233	581
681.258	563
681.281	509
681.329	444
681.377	759
681.380	762
681.425	116
681.473	1446
681.502	862
681.521	376
681.569	1535
681.617	613
681.624	683
681.665	858
681.713	1022
681.745	1129
681.761	1129
681.809	1719
681.857	2562
681.867	2316
681.904	1302
681.952	1957
681.989	1735
682.000	1617
682.048	1559
682.096	1886
682.111	1812
682.143	1544
682.191	2244
682.233	2835
682.239	2889
682.286	1796
682.334	1640
682.354	1913
682.382	2194
682.430	1715
682.476	3063
682.477	3059
682.525	1954
682.572	1583
682.598	1727
682.620	1817
682.667	3005
682.715	2598
682.720	2683
682.763	3156
682.810	3191
682.841	2499
682.857	2046
682.905	2962
682.952	3634
682.963	3592
683.000	3336
683.047	2879
683.085	4149
683.095	4472
683.142	2868
683.190	3606
683.206	3649
683.237	3660
683.284	4186
683.328	3513
683.332	3420
683.379	3743
683.426	3433
683.449	3509
683.473	3583
683.521	3510
683.568	4618
683.571	4606
683.615	4104
683.662	4489
683.693	4282
683.709	4121
683.757	4180
683.804	3800
683.814	4011
683.851	4639
683.898	5243
683.936	4864
683.945	4752
683.992	5037
684.039	5246
684.057	5299
684.086	5331
684.133	5411
684.179	5709
684.180	5684
684.227	5861
684.274	5703
684.300	5935
684.321	6123
684.368	5130
684.415	6122
684.422	6077
684.462	5470
684.509	5660
684.543	5533
684.556	5537
684.603	5482
684.649	5008
684.665	5158
684.696	5473
684.743	5258
684.786	6250
684.790	6321
684.837	6798
684.883	7240
684.908	7126
684.930	6844
684.977	6858
685.023	6875
685.029	6899
685.070	6911
685.117	6302
685.150	6693
685.164	6905
685.210	7118
685.257	7666
685.272	7687
685.303	7594
685.350	7696
685.393	7372
685.396	7362
685.443	8880
685.490	10017
685.514	9939
685.536	9450
685.583	8896
685.629	8881
685.636	8790
685.675	8260
685.722	8537
685.757	8274
685.768	8228
685.815	8290
685.861	8419
685.878	8658
685.908	9152
685.954	8848
686.000	9057
686.000	9059
686.047	9694
686.093	11008
686.121	11450
686.139	11124
686.185	10535
686.232	9407
686.242	9291
686.278	9317
686.324	8803
686.363	8543
686.370	8502
686.416	8532
686.463	8571
686.484	8258
686.509	8003
686.555	8354
686.601	8442
686.606	8492
686.647	8840
686.693	8378
686.727	8622
686.739	8684
686.785	9135
686.831	8464
686.848	8783
686.877	9296
686.923	8337
686.969	8720
686.969	8723
687.015	9036
687.061	9818
687.090	9958
687.107	9825
687.153	9735
687.199	9392
687.211	9175
687.245	8918
687.291	10147
687.332	9761
687.336	9703
687.382	10421
687.428	9957
687.453	10079
687.474	10071
687.520	9816
687.565	9533
687.574	9526
687.611	9810
687.657	9747
687.695	10250
687.702	10356
687.748	11418
687.794	10793
687.816	11207
687.839	11290
687.885	10333
687.931	10366
687.937	10231
687.976	10085
688.022	10755
688.058	10540
688.067	10442
688.113	11196
688.158	10466
688.179	10540
688.204	10645
688.249	10686
688.295	10913
688.300	10869
688.340	10824
688.386	11651
688.421	11622
688.431	11562
688.477	11102
688.522	11508
688.542	11429
688.567	11434
688.613	11543
688.658	11727
688.663	11711
688.703	11443
688.749	11266
688.784	11482
688.794	11583
688.839	11331
688.884	11312
688.905	11289
688.930	11283
688.975	11344
689.020	11636
689.026	11552
689.065	11239
689.110	11877
689.146	11654
689.155	11550
689.201	11276
689.246	11826
689.267	11322
689.291	10949
689.336	11593
689.381	12274
689.388	12180
689.426	11466
689.471	11194
689.509	11096
689.516	11164
689.561	11185
689.606	11634
689.630	11677
689.651	11680
689.696	11363
689.741	11787
689.750	11892
689.785	12321
689.830	11995
689.871	11866
689.875	11846
689.920	12015
689.965	11537
689.992	11671
690.010	11967
690.054	11943
690.099	12085
690.112	12324
690.144	12730
690.189	11805
690.233	11430
690.233	11448
690.278	12016
690.323	11961
690.354	12494
690.367	12667
690.412	12475
690.457	12037
690.474	12124
690.501	12309
690.546	11928
690.590	11852
690.595	11808
690.635	11575
690.680	11517
690.716	11618
690.724	11736
690.769	11724
690.813	12394
690.836	12381
690.857	12477
690.902	13078
690.946	13059
690.957	13174
690.991	13952
691.035	14833
691.077	15738
691.080	15778
691.124	15412
691.168	16109
691.198	15833
691.213	15661
691.257	15728
691.301	15324
691.318	15338
691.346	15020
691.390	14057
691.434	13482
691.439	13293
691.478	13114
691.522	14138
691.559	14384
691.567	14449
691.611	15035
691.655	15123
691.680	15334
691.699	15163
691.743	15074
691.787	14108
691.800	13862
691.831	13971
691.875	14595
691.919	14749
691.921	14736
691.964	15147
692.008	15177
692.041	15283
692.052	15327
692.096	15418
692.139	15928
692.162	15806
692.183	15495
692.227	15208
692.271	14810
692.282	14627
692.315	14662
692.359	15115
692.402	14949
692.403	14978
692.447	15227
692.490	15211
692.523	15370
692.534	15465
692.578	16086
692.622	15621
692.643	15778
692.666	15814
692.709	15247
692.753	15308
692.763	15191
692.797	15013
692.840	14718
692.884	14571
692.884	14607
692.928	15138
692.971	15128
693.004	15487
693.015	15473
693.059	15378
693.102	14933
693.124	14616
693.146	14882
693.189	15564
693.233	16178
693.245	16393
693.276	16673
693.320	16501
693.363	16678
693.365	16632
693.407	16407
693.450	16825
693.485	16746
693.493	16793
693.537	17345
693.580	16974
693.605	17127
693.624	17269
693.667	17460
693.710	17694
693.725	17592
693.753	18371
693.797	19849
693.840	21358
693.845	21457
693.883	21031
693.926	20752
693.966	20416
693.970	20329
694.013	18893
694.056	17619
694.086	16543
694.099	16704
694.142	17221
694.185	17643
694.206	17929
694.229	18160
694.272	18151
694.315	18476
694.326	18429
694.358	18784
694.401	19461
694.444	20090
694.446	20076
694.487	19658
694.530	19148
694.566	18423
694.573	18297
694.616	17356
694.659	16562
694.686	16041
694.702	16072
694.745	16101
694.787	15778
694.806	15811
694.830	15963
694.873	15727
694.916	15757
694.926	15670
694.959	15807
695.002	16279
695.044	16186
695.046	16160
695.087	16729
695.130	17093
695.166	17412
695.172	17424
695.215	17304
695.258	17064
695.286	16901
695.301	16938
695.343	16861
695.386	16832
695.406	16631
695.428	16609
695.471	16843
695.514	17035
695.526	17060
695.556	17303
695.599	17513
695.641	17576
695.646	17562
695.684	17183
695.726	16588
695.766	15920
695.769	15995
695.811	16633
695.854	17244
695.886	17643
695.896	17650
695.938	17490
695.981	17144
696.005	16989
696.023	17185
696.065	17666
696.108	18200
696.125	18242
696.150	18203
696.192	18347
696.235	18236
696.245	18211
696.277	18130
696.319	17908
696.361	17696
696.365	17619
696.404	17504
696.446	17398
696.485	17368
696.488	17448
696.530	17785
696.572	18153
696.604	18334
696.614	18360
696.656	18461
696.698	18361
696.724	18301
696.740	18223
696.783	17856
696.825	17502
696.844	17315
696.867	17417
696.909	17431
696.951	17362
696.964	17338
696.992	17426
697.034	17484
697.076	17537
697.083	17487
697.118	17913
697.160	18394
697.202	18872
697.203	18834
697.244	18448
697.286	17942
697.323	17441
697.327	17530
697.369	17846
697.411	18232
697.442	18404
697.453	18604
697.494	19291
697.536	20000
697.562	20362
697.578	20421
697.620	20439
697.661	20431
697.682	20384
697.703	20985
697.744	22068
697.786	23265
697.801	23557
697.828	23266
697.869	22826
697.911	22311
697.921	22148
697.952	21604
697.994	20729
698.035	19936
698.040	19773
698.077	19368
698.118	18925
698.160	18425
698.160	18370
698.201	18628
698.243	18784
698.279	18901
698.284	18989
698.325	19295
698.367	19651
698.399	19798
698.408	19843
698.449	19868
698.491	19855
698.518	19818
698.532	20006
698.573	20359
698.614	20756
698.638	20902
698.656	20741
698.697	20252
698.738	19753
698.757	19464
698.779	19876
698.820	20559
698.862	21243
698.877	21433
698.903	21609
698.944	21806
698.985	22000
698.996	21994
699.026	21774
699.067	21386
699.116	20867
699.235	19453
699.354	19798
699.474	19838
699.593	22034
699.713	21322
699.832	20103
699.951	21745
700.070	19634
700.190	20173
700.309	19142
700.428	21057
700.547	19695
700.667	19560
700.786	22284
700.905	19103
701.024	20099
701.143	19129
701.262	17784
701.381	17794
701.500	20216
701.619	23135
701.738	18564
701.857	17726
701.976	17145
702.095	18941
702.214	20512
702.333	21350
702.452	19092
702.571	17607
702.690	17403
702.809	17076
702.928	17478
703.047	17721
703.165	16775
703.284	16996
703.403	17168
703.522	19546
703.640	19308
703.759	23781
703.878	29188
703.997	18123
704.115	16182
704.234	17703
704.353	16745
704.471	16096
704.590	15455
704.708	15437
704.827	14995
704.946	15649
705.064	17820
705.183	16251
705.301	18184
705.420	22564
705.538	20804
705.656	17788
705.775	18250
705.893	19436
706.012	20370
706.130	19451
706.249	18977
706.367	19729
706.485	20419
706.604	19363
706.722	19936
706.840	24105
706.958	23581
707.077	20126
707.195	17801
707.313	17556
707.431	16748
707.549	16834
707.668	17440
707.786	17406
707.904	17492
708.022	18272
708.140	17012
708.258	17210
708.376	16553
708.494	16634
708.612	18437
708.730	24563
708.848	22792
708.966	22231
709.084	21127
709.202	19638
709.320	19652
709.438	19532
709.556	19753
709.674	18930
709.791	19135
709.909	19295
710.027	18221
710.145	18399
710.263	19055
710.380	18308
710.498	18311
710.616	19312
710.733	19611
710.851	19618
710.969	20556
711.086	18644
711.204	18600
711.322	19310
711.439	18839
711.557	18904
711.674	18259
711.792	18948
711.909	18038
712.027	16183
712.144	17386
712.262	17728
712.379	19740
712.497	25096
712.614	24836
712.732	22234
712.849	20379
712.966	23759
713.084	29627
713.201	22781
713.318	22328
713.436	21369
713.553	21393
713.670	21651
713.787	24467
713.905	24780
714.022	21828
714.139	20904
714.256	26630
714.373	34311
714.490	55945
714.608	143600
714.725	598539
714.842	554492
714.959	47964
715.076	25764
715.193	22089
715.310	21804
715.427	19734
715.544	18923
715.661	19422
715.778	18986
715.895	20068
716.011	20864
716.128	19075
716.245	20293
716.362	24027
716.479	24359
716.596	18264
716.713	18921
716.829	17665
716.946	18855
717.063	16784
717.180	16544
717.296	16037
717.413	17153
717.530	16527
717.646	16267
717.763	16572
717.880	15952
717.996	16467
718.113	18134
718.229	15047
718.346	15792
718.462	16250
718.579	24148
718.695	43264
718.812	29219
718.928	24730
719.045	16730
719.161	15398
719.277	14910
719.394	15797
719.510	16097
719.626	16166
719.743	21767
719.859	24887
719.975	44921
720.092	167754
720.208	359170
720.324	44416
720.440	19175
720.557	21229
720.673	34312
720.789	40282
720.905	74345
721.021	24733
721.137	15281
721.253	15783
721.369	15481
721.486	18351
721.602	23710
721.718	14760
721.834	13576
721.950	13770
722.066	13401
722.181	12897
722.297	14580
722.413	13459
722.529	13237
722.645	12144
722.761	13473
722.877	12524
722.993	12767
723.108	14324
723.224	13598
723.340	13098
723.456	12946
723.571	13316
723.687	11523
723.803	12237
723.918	13156
724.034	11899
724.150	12101
724.265	14372
724.381	28781
724.497	34447
724.612	13191
724.728	10912
724.843	12004
724.959	14337
725.074	28518
725.190	30117
725.305	13946
725.421	12324
725.536	10877
725.651	10640
725.767	11258
725.882	10808
725.997	11388
726.113	11769
726.228	10809
726.343	10140
726.459	10048
726.574	11199
726.689	9884
726.804	10743
726.920	10630
727.035	11527
727.150	11361
727.265	9816
727.380	11803
727.495	10585
727.610	8994
727.725	10198
727.841	10957
727.956	10665
728.071	11364
728.186	10681
728.301	9434
728.416	10726
728.531	10588
728.645	9812
728.760	11589
728.875	13055
728.990	10985
729.105	10941
729.220	11448
729.335	11042
729.449	10145
729.564	8614
729.679	9090
729.794	8761
729.908	10700
730.023	9981
730.138	8092
730.253	9108
730.367	9072
730.482	9088
730.596	10476
730.711	10195
730.826	10591
730.940	10033
731.055	10589
731.169	9259
731.284	7965
731.398	8844
731.513	12397
731.627	10899
731.742	11721
731.856	12546
731.970	11104
732.085	14539
732.199	17798
732.313	28759
732.428	68430
732.542	189940
732.656	101095
732.771	21693
732.885	13799
732.999	12005
733.113	11432
733.227	11030
733.342	10473
733.456	9732
733.570	9940
733.684	8793
733.798	9596
733.912	8450
734.026	8280
734.140	8645
734.254	10421
734.368	17374
734.482	19591
734.596	8693
734.710	8654
734.824	8366
734.938	9065
735.052	9163
735.166	10716
735.280	9152
735.393	9393
735.507	9113
735.621	12757
735.735	20658
735.849	10342
735.962	8787
736.076	8938
736.190	8987
736.303	12572
736.417	15059
736.531	9155
736.644	8316
736.758	7765
736.872	7255
736.985	7804
737.099	8289
737.212	6992
737.326	6790
737.439	8452
737.553	7354
737.666	8164
737.780	6544
737.893	7480
738.007	7122
738.120	7511
738.233	7958
738.347	7125
738.460	8339
738.573	8776
738.687	7320
738.800	8831
738.913	12700
739.026	8932
739.140	7533
739.253	7166
739.366	7107
739.479	6094
739.592	6621
739.705	7193
739.818	7133
739.932	6235
740.045	8243
740.158	6992
740.271	7383
740.384	6748
740.497	7189
740.610	7903
740.723	7009
740.836	8937
740.949	9863
741.062	12678
741.174	10202
741.287	7802
741.400	6781
741.513	7724
741.626	9785
741.739	8856
741.851	7784
741.964	6655
742.077	7136
742.189	7970
742.302	8748
742.415	8762
742.527	5879
742.640	6979
742.753	6477
742.865	6611
742.978	5156
743.090	7398
743.203	7034
743.316	6264
743.428	6317
743.541	6517
743.653	5374
743.766	6329
743.878	6208
743.990	9844
744.103	8590
744.215	6467
744.327	6539
744.440	9826
744.552	15671
744.664	8216
744.777	6044
744.889	5464
745.001	6968
745.113	5013
745.226	5096
745.338	6370
745.450	5116
745.562	4861
745.674	5194
745.786	5500
745.898	6492
746.010	5855
746.122	6551
746.234	6718
746.347	5552
746.459	6158
746.570	5054
746.682	5967
746.794	6644
746.906	6128
747.018	5161
747.130	5275
747.242	4489
747.354	6065
747.466	5881
747.577	5973
747.689	5313
747.801	5822
747.913	4568
748.024	5327
748.136	4605
748.248	4860
748.359	5646
748.471	5549
748.583	5334
748.694	4750
748.806	6194
748.918	7717
749.029	5793
749.141	7345
749.252	6965
749.364	8022
749.475	19197
749.587	10343
749.698	6076
749.809	5850
749.921	5205
750.032	4624
750.144	4255
750.255	5187
750.366	4458
750.478	4916
750.589	4904
750.700	6060
750.811	6692
750.923	8966
751.034	22159
751.145	20158
751.256	5376
751.367	4979
751.479	3856
751.590	5199
751.701	4261
751.812	3821
751.923	4371
752.034	5354
752.145	4417
752.256	5147
752.367	4403
752.478	3810
752.589	5136
752.700	4158
752.811	4461
752.922	4697
753.032	6004
753.143	7544
753.254	4311
753.365	5230
753.476	3574
753.586	4626
753.697	4215
753.808	4640
753.919	4261
754.029	4089
754.140	4321
754.251	3991
754.361	3843
754.472	4553
754.582	4843
754.693	4648
754.804	4158
754.914	3993
755.025	4106
755.135	4383
755.246	4260
755.356	3759
755.466	4045
755.577	4667
755.687	3709
755.798	4520
755.908	4537
756.018	4737
756.129	3706
756.239	4370
756.349	4420
756.460	4424
756.570	4888
756.680	4932
756.790	4207
756.900	6292
757.011	4165
757.121	3593
757.231	4184
757.341	5008
757.451	2789
757.561	3525
757.671	3410
757.781	3855
757.891	4901
758.001	4123
758.111	4877
758.221	5431
758.331	5843
758.441	6524
758.551	9305
758.661	8141
758.771	4916
758.880	4830
758.990	4647
759.100	4058
759.210	4848
759.320	5090
759.429	4072
759.539	5330
759.649	4281
759.758	5781
759.868	5525
759.978	5283
760.087	6517
760.197	6514
760.307	5137
760.416	5235
760.526	5045
760.635	5834
760.745	5531
760.854	6025
760.964	5821
761.073	5952
761.182	6319
761.292	6049
761.401	6017
761.511	5296
761.620	4901
761.729	4357
761.839	4361
761.948	5436
762.057	5898
762.166	4735
762.276	3512
762.385	5816
762.494	4279
762.603	4413
762.712	4217
762.822	4042
762.931	4582
763.040	3959
763.149	3805
763.258	3794
763.367	4296
763.476	4219
763.585	4439
763.694	4336
763.803	4880
763.912	5163
764.021	4077
764.130	3836
764.238	4582
764.347	4081
764.456	4580
764.565	4840
764.674	4591
764.783	4666
764.891	4219
765.000	5393
765.109	4860
765.217	5521
765.326	6856
765.435	8592
765.543	7816
765.652	7714
765.761	8704
765.869	12638
765.978	17490
766.086	30168
766.195	58334
766.303	162232
766.412	495120
766.520	399182
766.629	87952
766.737	33184
766.846	18275
766.954	13322
767.062	11493
767.171	9092
767.279	8004
767.387	6136
767.496	7169
767.604	6356
767.712	5622
767.820	5684
767.928	5374
768.037	5250
768.145	5227
768.253	6362
768.361	4501
768.469	5610
768.577	5347
768.685	5008
768.793	5379
768.901	5090
769.009	5255
769.117	6684
769.225	6990
769.333	9412
769.441	13034
769.549	22887
769.657	55005
769.765	191923
769.873	415708
769.981	125994
770.088	24849
770.196	13289
770.304	10379
770.412	8346
770.519	7748
770.627	6102
770.735	6172
770.842	5135
770.950	6106
771.058	5429
771.165	4966
771.273	4359
771.380	5940
771.488	5509
771.595	4033
771.703	5135
771.810	5417
771.918	4283
772.025	4850
772.133	4619
772.240	4706
772.348	5481
772.455	5575
772.562	5407
772.670	4500
772.777	5835
772.884	4452
772.991	3963
773.099	4379
773.206	4199
773.313	5209
773.420	4901
773.528	3164
773.635	4443
773.742	5360
773.849	4787
773.956	4573
774.063	4581
774.170	4759
774.277	4942
774.384	3884
774.491	4080
774.598	5216
774.705	5563
774.812	6613
774.919	5261
775.026	4560
775.133	4762
775.239	4716
775.346	4127
775.453	3161
775.560	4231
775.667	3915
775.773	3414
775.880	5298
775.987	4290
776.093	4174
776.200	4439
776.307	5059
776.413	4609
776.520	4507
776.627	4231
776.733	4200
776.840	2961
776.946	5439
777.053	4937
777.159	7206
777.266	4459
777.372	7354
777.478	6201
777.585	5318
777.691	4611
777.798	4344
777.904	5857
778.010	8177
778.117	7911
778.223	4240
778.329	4047
778.435	3315
778.542	4929
778.648	3238
778.754	3475
778.860	3565
778.966	3758
779.072	3444
779.178	4340
779.284	3809
779.391	2455
779.497	2650
779.603	4842
779.708	3616
779.815	5241
779.920	7306
780.026	11667
780.132	5190
780.238	4349
780.344	3489
780.450	4463
780.556	3134
780.661	3276
780.767	3529
780.873	3647
780.979	3860
781.085	3674
781.190	3409
781.296	3328
781.402	3742
781.507	2955
781.613	3326
781.719	3271
781.824	3719
781.930	3307
782.035	3534
782.141	3351
782.246	3365
782.352	4159
782.457	3178
782.563	3807
782.668	3671
782.773	3885
782.879	3264
782.984	3369
783.090	5889
783.195	8591
783.300	5319
783.405	4113
783.511	3371
783.616	4300
783.721	3123
783.826	4046
783.932	3823
784.037	4057
784.142	3091
784.247	3451
784.352	2972
784.457	3368
784.562	3721
784.667	3371
784.772	2954
784.877	2908
784.982	3549
785.087	3429
785.192	3954
785.297	3094
785.402	2831
785.507	3701
785.611	3237
785.716	3442
785.821	3707
785.926	3171
786.031	2765
786.135	3763
786.240	3420
786.345	2364
786.450	3256
786.554	3416
786.659	2024
786.763	1619
786.868	3599
786.973	3303
787.077	2669
787.182	2575
787.286	3031
787.391	2759
787.495	2709
787.600	2283
787.704	2057
787.809	3185
787.913	2332
788.017	2805
788.122	3075
788.226	3182
788.330	2300
788.435	2362
788.539	2598
788.643	2673
788.747	2392
788.852	1946
788.956	1413
789.060	3173
789.164	2264
789.268	2663
789.372	2775
789.476	2138
789.580	1955
789.684	2038
789.788	3113
789.892	2302
789.996	2661
790.100	2158
790.204	2762
790.308	3418
790.412	3113
790.516	2392
790.620	1678
790.724	2661
790.828	2079
790.931	1829
791.035	3771
791.139	2696
791.242	2481
791.346	2931
791.450	2375
791.554	2642
791.657	2347
791.761	3480
791.864	2703
791.968	2333
792.072	3224
792.175	2947
792.279	2590
792.382	2855
792.486	2945
792.589	3059
792.693	3088
792.796	1046
792.899	3283
793.003	3600
793.106	1694
793.209	2219
793.313	4255
793.416	1575
793.519	3733
793.623	6100
793.726	9778
793.829	4477
793.932	3187
794.035	1885
794.138	3256
794.242	4040
794.345	3131
794.448	5922
794.551	7652
794.654	9167
794.757	7285
794.860	4337
794.963	3174
795.066	1927
795.169	3229
795.272	2144
795.375	2653
795.477	2292
795.580	2468
795.683	1069
795.786	1497
795.889	941
795.991	2988
796.094	3610
796.197	1566
796.300	3177
796.402	2806
796.505	1197
796.608	2179
796.710	3004
796.813	2059
796.915	2068
797.018	2848
797.120	2355
797.223	870
797.326	2502
797.428	1527
797.530	2822
797.633	2525
797.735	3033
797.838	5747
797.940	5890
798.042	2084
798.145	2533
798.247	2774
798.349	1485
798.452	2602
798.554	1839
798.656	741
798.758	3523
798.860	2145
798.962	1214
799.065	2369
799.167	2141
799.269	3707
799.371	3210
799.473	2959
799.575	2624
799.677	4065
799.779	5184
799.881	6354
799.983	4634
800.085	1964
800.187	2283
800.289	1494
800.390	2486
800.492	1645
800.594	2887
800.696	1544
800.798	2033
800.899	2171
801.001	2351
801.103	2259
801.205	1991
801.306	2009
801.408	1016
801.509	2320
801.611	2617
801.713	1615
801.814	2011
801.916	2180
802.017	2339
802.119	1737
802.220	1939
802.322	663
802.423	3953
802.525	2059
802.626	2814
802.727	2031
802.829	2981
802.930	229
803.031	3012
803.133	1325
803.234	1605
803.335	1797
803.436	1292
803.538	1527
803.639	429
803.740	2048
803.841	1356
803.942	1652
804.043	1461
804.144	1198
804.245	2952
804.346	1409
804.447	1865
804.548	4055
804.649	5494
804.750	2435
804.851	1131
804.952	1897
805.053	1680
805.154	1672
805.255	2437
805.355	1391
805.456	1796
805.557	1334
805.658	1533
805.758	1945
805.859	1686
805.960	1741
806.061	1119
806.161	1260
806.262	1943
806.362	2141
806.463	2416
806.564	2069
806.664	2287
806.765	2120
806.865	2703
806.966	2149
807.066	1522
807.166	2098
807.267	2245
807.367	1260
807.468	2542
807.568	436
807.668	2440
807.769	2556
807.869	1122
807.969	1332
808.069	2130
808.170	1933
808.270	1540
808.370	3077
808.470	4404
808.570	2897
808.670	2238
808.770	1621
808.870	464
808.970	2357
809.070	1784
809.170	1419
809.271	2848
809.370	1110
809.470	2904
809.570	1355
809.670	1256
809.770	2402
809.870	2486
809.970	1635
810.070	2110
810.169	1983
810.269	582
810.369	2558
810.469	1494
810.568	1278
810.668	1269
810.768	1268
810.867	1921
810.967	1732
811.066	2303
811.166	1332
811.265	2081
811.365	594
811.464	1675
811.564	2385
811.663	3019
811.763	300
811.862	2682
811.962	2625
812.061	1449
812.160	2304
812.260	2832
812.359	3342
812.458	5997
812.557	14819
812.657	23355
812.756	9061
812.855	3301
812.954	2041
813.053	2891
813.153	2470
813.252	1809
813.351	2072
813.450	2005
813.549	1604
813.648	2941
813.747	1785
813.846	2905
813.945	1980
814.044	2099
814.143	1839
814.242	2117
814.341	1735
814.439	1487
814.538	2702
814.637	2821
814.736	2168
814.835	3453
814.933	2589
815.032	3594
815.131	1623
815.229	2948
815.328	3470
815.427	2360
815.525	4134
815.624	4131
815.722	3464
815.821	3975
815.919	3259
816.018	3475
816.116	5756
816.215	4412
816.313	4917
816.412	4809
816.510	4911
816.609	7022
816.707	5854
816.805	6228
816.904	5824
817.002	7681
817.100	8937
817.198	10514
817.296	9889
817.395	12063
817.493	14975
817.591	17341
817.689	23943
817.787	30201
817.885	47491
817.983	80039
818.081	157215
818.179	333919
818.277	690768
818.375	639169
818.473	263811
818.571	121643
818.669	78496
818.767	63785
818.865	62682
818.963	72667
819.061	96377
819.158	154779
819.256	283160
819.354	558016
819.452	913521
819.549	716890
819.647	343904
819.745	168368
819.842	100305
819.940	67520
820.038	48317
820.135	36892
820.233	29475
820.330	24148
820.428	19502
820.525	17914
820.623	15875
820.720	13019
820.818	12226
820.915	11058
821.012	9810
821.110	7367
821.207	8721
821.304	7165
821.402	7812
821.499	7977
821.596	6735
821.693	6898
821.791	5889
821.888	7315
821.985	13860
822.082	11322
822.179	5812
822.276	4719
822.373	4768
822.470	3881
822.567	4279
822.664	2843
822.761	4800
822.858	3121
822.955	3857
823.052	3517
823.149	3452
823.246	4275
823.343	2930
823.440	3305
823.536	3082
823.633	2222
823.730	2811
823.827	3400
823.923	3113
824.020	3834
824.117	2767
824.213	1603
824.310	2856
824.407	1481
824.503	2299
824.600	3085
824.696	3007
824.793	3065
824.889	2476
824.986	1702
825.082	2205
825.179	2069
825.275	2468
825.371	1704
825.468	2096
825.564	915
825.660	1874
825.757	2590
825.853	1937
825.949	572
826.045	2052
826.142	1755
826.238	1268
826.334	1940
826.430	1105
826.526	1594
826.622	1233
826.718	2545
826.814	1325
826.910	2160
827.006	1230
827.102	1155
827.198	2389
827.294	1183
827.390	1371
827.486	1575
827.582	582
827.678	1049
827.774	2143
827.869	1582
827.965	2707
828.061	786
828.157	963
828.252	1428
828.348	1493
828.444	2210
828.539	1267
828.635	2064
828.731	1626
828.826	1228
828.922	1486
829.017	1469
829.113	1392
829.208	1358
829.304	644
829.399	2535
829.495	981
829.590	2032
829.685	338
829.781	1070
829.876	495
829.971	2056
830.066	787
830.162	645
830.257	630
830.352	1727
830.447	992
830.543	2817
830.638	1312
830.733	1689
830.828	861
830.923	1981
831.018	1459
831.113	1765
831.208	167
831.303	1288
831.398	1350
831.493	979
831.588	2042
831.683	284
831.778	598
831.873	555
831.967	1920
832.062	382
832.157	530
832.252	1858
832.346	1323
832.441	3144
832.536	3692
832.631	10525
832.725	7776
832.820	1743
832.914	1159
833.009	1715
833.104	1859
833.198	3360
833.293	429
833.387	1597
833.482	1308
833.576	1180
833.670	2167
833.765	1598
833.859	1892
833.954	2353
834.048	857
834.142	2072
834.237	886
834.331	782
834.425	402
834.519	940
834.613	1315
834.708	1062
834.802	1809
834.896	829
834.990	753
835.084	967
835.178	477
835.272	1167
835.366	595
835.460	1276
835.554	705
835.648	1027
835.742	795
835.836	946
835.930	-307
836.024	1406
836.117	1954
836.211	1266
836.305	1978
836.399	4057
836.493	445
836.586	1680
836.680	-234
836.774	338
836.867	1494
836.961	562
837.055	128
837.148	1104
837.242	1367
837.335	426
837.429	1339
837.522	1477
837.616	1763
837.709	3636
837.803	1908
837.896	1881
837.989	845
838.083	2373
838.176	4981
838.269	4295
838.363	1603
838.456	1613
838.549	3364
838.642	4832
838.735	11942
838.829	4461
838.922	275
839.015	722
839.108	351
839.201	566
839.294	834
839.387	2022
839.480	-118
839.573	1760
839.666	2278
839.759	543
839.852	134
839.945	1712
840.038	178
840.131	277
840.223	707
840.316	1966
840.409	139
840.502	32
840.594	898
840.687	-621
840.780	1094
840.873	523
840.965	976
841.058	1984
841.150	4043
841.243	2179
841.336	1989
841.428	839
841.521	629
841.613	304
841.706	909
841.798	1553
841.890	639
841.983	350
842.075	1462
842.167	681
842.260	924
842.352	2362
842.444	2301
842.537	4391
842.629	7057
842.721	1388
842.813	557
842.905	607
842.997	1402
843.090	1522
843.182	2629
843.274	4555
843.366	11814
843.458	22714
843.550	14179
843.642	2619
843.734	1545
843.826	1432
843.918	2046
844.009	1739
844.101	-94
844.193	880
844.285	473
844.377	936
844.469	1681
844.560	963
844.652	724
844.744	1391
844.835	721
844.927	1312
845.019	919
845.110	967
845.202	681
845.293	699
845.385	-67
845.476	1025
845.568	1051
845.659	1427
845.751	1230
845.842	873
845.934	320
846.025	1254
846.116	535
846.208	208
846.299	133
846.390	1242
846.482	1138
846.573	1532
846.664	2689
846.755	3656
846.846	3641
846.937	226
847.029	579
847.120	550
847.211	554
847.302	1482
847.393	-667
847.484	696
847.575	427
847.666	1454
847.757	-394
847.847	586
847.938	642
848.029	754
848.120	775
848.211	848
848.302	296
848.392	-503
848.483	1121
848.574	-215
848.664	508
848.755	516
848.846	660
848.936	409
849.027	932
849.118	875
849.208	109
849.299	2057
849.389	3564
849.480	7648
849.570	14766
849.661	28623
849.751	46987
849.841	16003
849.932	2131
850.022	1160
850.112	1172
850.203	552
850.293	-115
850.383	670
850.474	614
850.564	657
850.654	908
850.744	447
850.834	124
850.924	475
851.014	259
851.104	495
851.194	1249
851.284	2123
851.374	3148
851.464	1197
851.554	1002
851.644	657
851.734	2058
851.824	1409
851.914	767
852.004	1355
852.094	-96
852.183	939
852.273	632
852.363	724
852.452	473
852.542	950
852.632	543
852.721	827
852.811	1136
852.901	597
852.990	545
853.080	981
853.169	1055
853.259	1488
853.348	1708
853.438	2380
853.527	3388
853.617	5317
853.706	10520
853.795	20289
853.885	47435
853.974	89781
854.063	165180
854.152	254098
854.242	92764
854.331	15882
854.420	6337
854.509	3990
854.598	4516
854.687	3072
854.777	3375
854.866	2016
854.955	1293
855.044	745
855.133	907
855.222	677
855.311	-122
855.400	1133
855.488	279
855.577	725
855.666	863
855.755	791
855.844	623
855.933	401
856.021	796
856.110	883
856.199	818
856.288	968
856.376	424
856.465	-278
856.554	681
856.642	423
856.731	332
856.819	80
856.908	228
856.996	114
857.085	608
857.173	550
857.262	304
857.350	102
857.438	771
857.527	21
857.615	331
857.703	566
857.792	153
857.880	230
857.968	184
858.056	754
858.145	488
858.233	138
858.321	-266
858.409	502
858.497	-600
858.585	43
858.673	665
858.761	-73
858.849	-58
858.937	54
859.025	313
859.113	12
859.201	-253
859.289	742
859.377	-506
859.465	345
859.552	194
859.640	-375
859.728	735
859.816	597
859.903	-251
859.991	-611
860.079	131
860.166	-22
860.254	461
860.342	354
860.429	-427
860.517	239
860.604	292
860.692	285
860.779	-262
860.867	-5
860.954	979
861.042	860
861.129	1344
861.216	609
861.304	169
861.391	702
861.478	599
861.565	725
861.653	1795
861.740	-247
861.827	159
861.914	1074
862.001	373
862.089	119
862.176	-291
862.263	137
862.350	240
862.437	-42
862.524	-827
862.611	-292
862.698	214
862.785	555
862.871	615
862.958	546
863.045	-180
863.132	40
863.219	250
863.306	250
863.392	975
863.479	-44
863.566	692
863.652	614
863.739	845
863.826	959
863.912	853
863.999	-98
864.086	1098
864.172	926
864.259	-172
864.345	191
864.432	1001
864.518	362
864.604	795
864.691	436
864.777	1608
864.863	1022
864.950	1160
865.036	527
865.122	2259
865.209	2200
865.295	1962
865.381	2128
865.467	1761
865.553	3135
865.639	5294
865.726	9925
865.812	21380
865.898	43109
865.984	67536
866.070	125093
866.156	131797
866.242	33403
866.328	6900
866.414	3426
866.499	2423
866.585	2487
866.671	1727
866.757	2577
866.843	1769
866.928	1715
867.014	908
867.100	2038
867.186	642
867.271	2323
867.357	2908
867.442	3005
867.528	1233
867.614	1096
867.699	446
867.785	1793
867.870	904
867.956	2325
868.041	1533
868.127	1571
868.212	1288
868.297	1645
868.383	1803
868.468	2969
868.553	4220
868.639	5922
868.724	13731
868.809	11278
868.894	1892
868.979	215
869.065	218
869.150	637
869.235	1259
869.320	389
869.405	395
869.490	1024
869.575	316
869.660	450
869.745	1071
869.830	69
869.915	583
870.000	461
870.085	246
870.169	960
870.254	557
870.339	479
870.424	172
870.509	845
870.593	347
870.678	852
870.763	-111
870.847	1350
870.932	-15
871.016	759
871.101	-643
871.186	685
871.270	923
871.355	387
871.439	146
871.523	1079
871.608	22
871.692	249
871.777	550
871.861	1404
871.945	236
872.030	807
872.114	485
872.198	-27
872.282	-123
872.367	14
872.451	337
872.535	490
872.619	-3
872.703	417
872.787	158
872.871	516
872.955	238
873.039	84
873.123	515
873.207	772
873.291	76
873.375	608
873.459	494
873.543	-509
873.627	-652
873.711	-134
873.794	852
873.878	-345
873.962	138
874.045	409
874.129	579
874.137	554
874.213	308
874.245	225
874.296	90
874.352	110
874.380	119
874.460	43
874.464	40
874.547	-68
874.568	162
874.631	852
874.676	963
874.714	1043
874.784	-148
874.798	-374
874.881	1587
874.892	1412
874.965	152
874.999	420
875.048	814
875.107	323
875.131	113
875.215	524
875.215	523
875.298	216
875.323	15
875.381	-401
875.430	280
875.465	739
875.538	85
875.548	-5
875.631	475
875.646	365
875.714	-152
875.753	48
875.798	259
875.861	445
875.881	511
875.964	132
875.968	171
876.047	908
876.076	794
876.130	535
876.183	429
876.213	389
876.291	951
876.296	983
876.379	746
876.398	571
876.462	13
876.506	224
876.545	430
876.613	226
876.628	177
876.711	628
876.721	565
876.794	293
876.828	429
876.877	449
876.935	600
876.960	672
877.043	1114
877.043	1114
877.125	1139
877.150	1024
877.208	760
877.258	764
877.291	787
877.365	667
877.374	642
877.456	711
877.472	629
877.539	322
877.579	316
877.622	382
877.687	327
877.704	281
877.787	998
877.794	953
877.869	518
877.901	569
877.952	533
878.008	387
878.034	393
878.115	-73
878.117	-85
878.199	-61
878.222	-64
878.282	46
878.329	-61
878.364	-214
878.437	263
878.447	352
878.529	-58
878.544	4
878.611	97
878.651	294
878.694	625
878.758	384
878.776	305
878.858	533
878.865	538
878.941	257
878.972	81
879.023	106
879.078	510
879.105	628
879.185	381
879.187	379
879.269	123
879.292	120
879.351	49
879.399	306
879.433	395
879.506	81
879.516	81
879.598	210
879.613	157
879.680	-303
879.720	-88
879.762	332
879.827	348
879.844	266
879.926	617
879.933	624
880.007	999
880.040	1036
880.089	955
880.147	2082
880.171	2628
880.253	6097
880.254	6122
880.335	8888
880.360	9699
880.417	11762
880.467	17400
880.499	20946
880.574	23403
880.580	23421
880.662	7406
880.680	5958
880.744	1426
880.787	776
880.825	403
880.893	673
880.907	764
880.989	509
881.000	509
881.070	305
881.106	82
881.152	-86
881.213	397
881.233	498
881.315	146
881.319	142
881.396	218
881.426	350
881.478	621
881.532	645
881.559	561
881.639	-166
881.641	-180
881.722	215
881.745	169
881.803	197
881.852	161
881.885	-35
881.958	106
881.966	182
882.047	598
882.064	710
882.129	962
882.171	1302
882.210	1625
882.277	2753
882.291	2872
882.372	231
882.383	107
882.454	109
882.489	407
882.535	329
882.596	-26
882.616	-57
882.697	-314
882.702	-305
882.778	-82
882.808	-123
882.859	-263
882.914	-201
882.940	-107
883.020	169
883.021	173
883.102	358
883.127	498
883.183	486
883.233	373
883.264	395
883.339	205
883.345	168
883.426	-79
883.445	-112
883.507	-36
883.551	-137
883.587	-78
883.657	555
883.668	605
883.749	209
883.763	173
883.830	-52
883.869	-34
883.910	262
883.975	395
883.991	309
884.072	232
884.081	171
884.152	-411
884.187	-573
884.233	-552
884.292	-375
884.314	-257
884.394	63
884.398	79
884.475	-257
884.504	-485
884.555	-345
884.610	211
884.636	232
884.716	-111
884.716	-111
884.797	-21
884.821	34
884.877	261
884.927	315
884.958	109
885.033	-33
885.038	-4
885.118	29
885.139	67
885.199	-175
885.244	-341
885.279	-97
885.350	875
885.359	898
885.439	475
885.456	400
885.520	48
885.561	-126
885.600	-77
885.667	-114
885.680	-141
885.760	98
885.773	55
885.840	-226
885.878	-277
885.920	79
885.984	651
886.000	656
886.080	472
886.089	470
886.160	160
886.195	-4
886.240	209
886.300	410
886.320	392
886.400	584
886.406	598
886.480	541
886.511	374
886.560	514
886.616	637
886.640	460
886.720	65
886.722	56
886.800	-45
886.827	-106
886.879	-140
886.932	-124
886.959	202
887.038	988
887.039	982
887.119	270
887.143	5
887.198	-347
887.248	-540
887.278	-384
887.354	-145
887.358	-146
887.437	-196
887.459	-172
887.517	107
887.564	316
887.596	400
887.669	503
887.676	445
887.755	-165
887.774	-366
887.835	-584
887.880	-620
887.914	-454
887.985	-182
887.994	-171
888.073	-132
888.090	-109
888.153	-220
888.195	-287
888.232	-227
888.300	-170
888.311	-196
888.391	-384
888.405	-420
888.470	174
888.510	559
888.549	494
888.615	404
888.628	369
888.708	151
888.720	106
888.787	49
888.825	50
888.866	118
888.930	218
888.945	161
889.024	-198
889.035	-231
889.103	397
889.140	702
889.182	535
889.245	291
889.261	192
889.340	-248
889.349	-300
889.419	3
889.454	174
889.498	-173
889.559	-650
889.577	-511
889.656	119
889.664	185
889.735	561
889.768	739
889.814	308
889.873	-258
889.978	337
890.083	565
890.187	-797
890.292	445
890.397	-82
890.501	-189
890.606	175
890.710	126
890.815	280
890.919	61
891.024	4
891.128	151
891.233	327
891.337	113
891.442	665
891.546	-215
891.650	734
891.755	-565
891.859	1250
891.963	268
892.068	-215
892.172	-120
892.276	-124
892.380	46
892.484	743
892.589	93
892.693	283
892.797	477
892.901	472
893.005	-475
893.109	327
893.213	707
893.317	336
893.421	338
893.525	108
893.629	86
893.733	22
893.837	-357
893.941	469
894.045	95
894.148	235
894.252	611
894.356	14
894.460	-725
894.564	-34
894.667	74
894.771	105
894.875	-566
894.978	-173
895.082	23
895.186	139
895.289	181
895.393	564
895.496	154
895.600	-7
895.703	540
895.807	-67
895.910	-583
896.014	56
896.117	-648
896.221	293
896.324	624
896.427	212
896.531	669
896.634	-317
896.737	149
896.840	209
896.944	-759
897.047	-668
897.150	-771
897.253	-147
897.356	-19
897.460	-129
897.563	1
897.666	311
897.769	-990
897.872	158
897.975	-9
898.078	45
898.181	303
898.284	2
898.387	-820
898.490	188
898.593	-367
898.695	190
898.798	269
898.901	217
899.004	376
899.107	228
899.209	-87
899.312	567
899.415	-147
899.518	306
899.620	-76
899.723	-222
899.826	613
899.928	-222
900.031	-570
900.133	137
900.236	-47
900.338	-257
900.441	-572
900.543	21
900.646	-20
900.748	-77
900.851	-462
900.953	-574
901.055	350
901.158	-312
901.260	-509
901.362	-843
901.465	-389
901.567	-337
901.669	290
901.771	-161
901.873	226
901.976	-77
902.078	-474
902.180	604
902.282	307
902.384	80
902.486	-204
902.588	13
902.690	-802
902.792	366
902.894	-354
902.996	179
903.098	-26
903.200	252
903.302	-1064
903.404	-244
903.505	-698
903.607	407
903.709	-228
903.811	408
903.913	-900
904.014	404
904.116	-1250
904.218	-553
904.319	508
904.421	-28
904.523	-411
904.624	-54
904.726	-269
904.827	-374
904.929	-717
905.030	-398
905.132	-460
905.233	-11
905.335	-815
905.436	142
905.537	-296
905.639	-156
905.740	-249
905.841	317
905.943	3
906.044	428
906.145	-722
906.247	-590
906.348	245
906.449	7
906.550	-251
906.651	336
906.752	-209
906.854	-108
906.955	-424
907.056	-157
907.157	12
907.258	-479
907.359	-469
907.460	-796
907.561	-478
907.662	-430
907.762	-646
907.863	-189
907.964	742
908.065	309
908.166	-908
908.267	-83
908.367	-156
908.468	451
908.569	-162
908.670	491
908.770	-438
908.871	-375
908.971	103
909.072	275
909.173	-581
909.273	-278
909.374	-851
909.474	171
909.575	-565
909.675	-742
909.776	86
909.876	347
909.977	-21
910.077	143
910.177	-465
910.278	-97
910.378	28
910.478	-885
910.579	-382
910.679	-847
910.779	480
910.879	-273
910.980	-170
911.080	207
911.180	-1089
911.280	133
911.380	-381
911.480	259
911.580	-847
911.680	214
911.780	-424
911.880	-129
911.980	-306
912.080	-1222
912.180	-160
912.280	415
912.380	-283
912.480	-492
912.580	-1250
912.679	-750
912.779	-6
912.879	27
912.979	-182
913.078	-809
913.178	-174
913.278	-701
913.377	-241
913.477	93
913.577	-663
913.676	380
913.776	-735
913.875	-555
913.975	-712
914.074	18
914.174	-561
914.273	-798
914.373	600
914.472	-1229
914.572	-1512
914.671	-158
914.770	-32
914.870	-299
914.969	91
915.068	-205
915.167	129
915.267	-369
915.366	-860
915.465	57
915.564	-611
915.663	-245
915.763	-529
915.862	-221
915.961	87
916.060	-162
916.159	-555
916.258	-799
916.357	9
916.456	-508
916.555	109
916.654	-88
916.752	55
916.851	-372
916.950	164
917.049	-757
917.148	-714
917.247	-37
917.345	-3
917.444	-658
917.543	-598
917.642	-718
917.740	-959
917.839	-9
917.937	-721
918.036	258
918.135	-841
918.233	-871
918.332	37
918.430	-16
918.529	-186
918.627	239
918.726	-307
918.824	-491
918.923	-720
919.021	-821
919.119	-1313
919.218	-454
919.316	-189
919.414	-815
919.512	-655
919.611	-1528
919.709	-524
919.807	-1035
919.905	-328
920.003	-285
920.102	-534
920.200	-847
920.298	-91
920.396	-860
920.494	-10
920.592	-377
920.690	312
920.788	-418
920.886	238
920.984	-87
921.082	-1502
921.180	312
921.277	-323
921.375	-102
921.473	-445
921.571	224
921.669	-792
921.766	-221
921.864	394
921.962	322
922.060	-513
922.157	453
922.255	738
922.352	9
922.450	109
922.548	-842
922.645	-290
922.743	-638
922.840	-345
922.938	162
923.035	316
923.133	41
923.230	-133
923.327	-40
923.425	557
923.522	428
923.619	-112
923.717	75
923.814	179
923.911	-622
924.008	-267
924.106	302
924.203	-659
924.300	-429
924.397	-149
924.494	-360
924.591	569
924.688	-350
924.786	52
924.883	-115
924.979	-338
925.077	-60
925.173	-411
925.270	-778
925.367	-776
925.464	344
925.561	-527
925.658	5
925.755	257
925.852	324
925.948	-628
926.045	672
926.142	-311
926.239	389
926.335	-128
926.432	294
926.529	188
926.625	233
926.722	-407
926.818	-165
926.915	-89
927.011	48
927.108	-377
927.204	14
927.301	-489
927.397	-176
927.494	-77
927.590	-289
927.687	-634
927.783	-769
927.879	160
927.976	-119
928.072	-998
928.168	-711
928.264	-282
928.361	99
928.457	157
928.553	-441
928.649	-108
928.745	359
928.841	-20
928.937	391
929.033	103
929.129	-107
929.225	-565
929.321	-503
929.417	-430
929.513	-31
929.609	98
929.705	-22
929.801	-699
929.897	-638
929.993	-848
930.089	-77
930.184	-110
930.280	-47
930.376	50
930.471	101
930.567	-661
930.663	-283
930.758	-524
930.854	-692
930.950	-1184
931.045	45
931.141	-905
931.236	739
931.332	-653
931.427	-238
931.523	8
931.618	260
931.714	424
931.809	258
931.905	-293
932.000	-684
932.095	-233
932.191	-686
932.286	-781
932.381	61
932.476	124
932.572	-321
932.667	11
932.762	-37
932.857	-1050
932.952	-45
933.047	-680
933.142	-127
933.237	-274
933.332	-927
933.427	-607
933.522	-185
933.617	-276
933.712	-535
933.807	-611
933.902	-50
933.997	-380
934.092	-428
934.187	-388
934.282	-723
934.376	-922
934.471	-270
934.566	-1173
934.661	-662
934.755	-309
934.850	-473
934.945	206
935.039	-788
935.134	-150
935.228	-1073
935.323	-742
935.417	-589
935.512	1
935.606	-635
935.701	-748
935.795	-484
935.890	-1051
935.984	-256
936.079	-258
936.173	-749
936.267	-1053
936.362	-501
936.456	-645
936.550	-150
936.644	-695
936.738	-462
936.833	-556
936.927	-670
937.021	-245
937.115	-393
937.209	-1316
937.303	-47
937.397	-885
937.491	-531
937.585	-55
937.679	-535
937.773	-458
937.867	-917
937.961	-603
938.055	-732
938.149	-815
938.243	-996
938.337	-694
938.430	-55
938.524	-611
938.618	-477
938.712	-83
938.805	-167
938.899	21
938.993	-829
939.086	-656
939.180	-207
939.274	-55
939.367	-432
939.461	-839
939.554	-751
939.648	139
939.741	-312
939.835	-1572
939.928	360
940.022	-219
940.115	-720
940.208	-255
940.302	-101
940.395	-627
940.488	-1758
940.582	-1088
940.675	-789
940.768	-7
940.861	-742
940.954	519
941.048	-284
941.141	-546
941.234	-446
941.327	-425
941.420	-182
941.513	-549
941.606	-380
941.699	-184
941.792	-375
941.885	-542
941.978	-459
942.071	-1128
942.164	-1346
942.257	-1220
942.349	-858
942.442	-1070
942.535	-701
942.628	-476
942.721	-830
942.813	-1574
942.906	-370
942.999	-1229
943.091	-1879
943.184	-1141
943.277	-1121
943.369	-502
943.462	-1196
943.554	-834
943.647	-631
943.739	-827
943.832	-1262
943.924	-973
944.017	-437
944.109	-1016
944.201	-612
944.294	-596
944.386	-576
944.478	-1373
944.571	-511
944.663	-1025
944.755	-808
944.847	-704
944.940	-638
945.032	-1752
945.124	-889
945.216	898
945.308	-1648
945.400	-1102
945.492	-785
945.584	-1176
945.676	-295
945.768	-990
945.860	-552
945.952	-1033
946.044	-340
946.136	-1689
946.228	-633
946.320	-1028
946.412	-652
946.503	-902
946.595	-463
946.687	-944
946.779	-1767
946.870	-214
946.962	-617
947.054	-715
947.145	-1253
947.237	-819
947.329	-712
947.420	-1316
947.512	-595
947.603	-917
947.695	-665
947.786	-1324
947.878	-1092
947.969	101
948.061	-1636
948.152	-1054
948.243	-1130
948.335	-269
948.426	-1369
948.517	-698
948.609	-1185
948.700	-835
948.791	-1109
948.882	-612
948.973	-1263
949.065	-857
949.156	-657
949.247	-847
949.338	425
949.429	-1202
949.520	-184
949.611	-1748
949.702	-633
949.793	-156
949.884	-823
949.975	-959
950.066	-970
950.157	-1445
950.247	-1115
950.338	-1256
950.429	-1063
950.520	-307
950.611	-1236
950.701	-923
950.792	-1735
950.883	-1114
950.973	-436
951.064	-1685
951.155	-973
951.245	-1175
951.336	-804
951.427	-1590
951.517	-721
951.608	-1540
951.698	-395
951.788	-435
951.879	-575
951.969	-1345
952.060	-668
952.150	-399
952.240	-458
952.331	-1803
952.421	-166
952.511	-1119
952.602	-1006
952.692	-999
952.782	-1018
952.872	-1035
952.962	-1379
953.052	-929
953.143	-1035
953.233	-214
953.323	-855
953.413	-1368
953.503	-1064
953.593	-1239
953.683	-983
953.773	-2033
953.863	-1037
953.953	-931
954.042	-917
954.132	-379
954.222	-447
954.312	-678
954.402	-1329
954.492	-1058
954.581	-669
954.671	-698
954.761	-1355
954.850	-478
954.940	-726
955.030	-1940
955.119	-1010
955.209	-1220
955.298	-1896
955.388	-354
955.477	-698
955.567	-1519
955.656	-959
955.746	-742
955.835	-1204
955.925	-1243
956.014	-578
956.103	-1551
956.193	-456
956.282	-956
956.371	-998
956.461	-1008
956.550	-743
956.639	-620
956.728	-1273
956.817	-622
956.906	-1438
956.995	-694
957.085	-1130
957.174	-137
957.263	-1156
957.352	-725
957.441	-1474
957.530	-610
957.619	-787
957.708	-1327
957.796	-1351
957.885	-989
957.974	-1616
958.063	-420
958.152	-1927
958.241	-1589
958.329	-929
958.418	-1243
958.507	-1715
958.596	-613
958.684	-1363
958.773	-752
958.861	-1866
958.950	204
959.039	-744
959.127	-1376
959.216	-488
959.304	-722
959.393	-1049
959.481	-979
959.570	-586
959.658	-1210
959.746	-1309
959.835	-1537
959.923	-681
960.011	-1674
960.100	-528
960.188	-734
960.276	-819
960.365	-181
960.453	-998
960.541	-1193
960.629	-230
960.717	-1932
960.805	-1691
960.893	-1416
960.981	-1532
961.069	-407
961.158	-1384
961.245	-1025
961.333	-991
961.421	-982
961.509	-378
961.597	-854
961.685	-1052
961.773	-1202
961.861	-875
961.949	-364
962.036	-2373
962.124	-560
962.212	-605
962.299	-1968
962.387	-1384
962.475	-753
962.562	-1763
962.650	-995
962.738	-938
962.825	-1245
962.913	-1048
963.000	-1179
963.088	-1244
963.175	-1144
963.263	-1324
963.350	-773
963.438	-593
963.525	-1280
963.612	-212
963.700	-867
963.787	549
963.874	-515
963.962	-159
964.049	-450
964.136	-1043
964.223	-2148
964.310	-1222
964.398	-841
964.485	-1397
964.572	-806
964.659	-197
964.746	-551
964.833	-1337
964.920	-1304
965.007	-839
965.094	-193
965.181	-693
965.268	-1710
965.355	-1185
965.441	-135
965.528	-1741
965.615	-349
965.702	-273
965.789	-1378
965.875	-786
965.962	-1604
966.049	-1908
966.136	-728
966.222	-1634
966.309	-869
966.395	-1809
966.482	-791
966.569	-1526
966.655	-1555
966.742	-1703
966.828	-510
966.915	-722
967.001	-1653
967.087	-1769
967.174	-392
967.260	-946
967.347	-1291
967.433	-1409
967.519	311
967.605	-1572
967.692	-1762
967.778	-1499
967.864	-1814
967.950	-1152
968.036	-1979
968.123	-520
968.209	-1326
968.295	-1635
968.381	-306
968.467	-691
968.553	-1497
968.639	-58
968.725	-1441
968.811	-1059
968.897	-841
968.983	-277
969.069	-2027
969.154	-535
969.240	-219
969.326	-77
969.412	-1448
969.497	-1215
969.583	-1176
969.669	210
969.755	-735
969.840	-888
969.926	-1265
970.012	-902
970.097	-403
970.183	-968
970.268	-687
970.354	-261
970.439	-1279
970.525	-104
970.610	-1573
970.696	-804
970.781	-1430
970.866	-1698
970.952	-285
971.037	-2006
971.122	-1115
971.208	-486
971.293	-600
971.378	-1870
971.463	-1514
971.549	-1616
971.634	-779
971.719	-1716
971.804	-1174
971.889	-757
971.974	-1400
972.059	-995
972.144	-956
972.229	-1116
972.314	-1436
972.399	-471
972.484	-923
972.569	-1461
972.654	-2075
972.739	195
972.824	-1046
972.908	-532
972.993	-1618
973.078	-581
973.163	-727
973.247	-1027
973.332	-1217
973.417	-56
973.501	-1994
973.586	-902
973.671	-931
973.755	-1316
973.840	-275
973.924	-755
974.009	-1506
974.093	-1866
974.178	-204
974.262	-737
974.346	-1602
974.431	-61
974.515	-951
974.600	-1206
974.684	-962
974.768	-1547
974.852	-742
974.937	-2727
975.021	-956
975.105	-613
975.189	-1213
975.273	-287
975.358	-1652
975.442	-1063
975.526	-214
975.610	-2014
975.694	-1452
975.778	-686
975.862	-997
975.946	-2587
976.030	-440
976.114	-1803
976.198	-759
976.281	-1011
976.365	-491
976.449	-1422
976.533	-978
976.617	-1904
976.700	-1107
976.784	-981
976.868	-1424
976.951	-617
977.035	-1053
977.119	-279
977.202	-1400
977.286	-484
977.369	-1172
977.453	-1056
977.536	-1254
977.620	-2252
977.703	-784
977.787	-1627
977.870	-875
977.953	-128
978.037	-2245
978.120	-191
978.203	-1083
978.287	-903
978.370	-1264
978.453	-1225
978.536	-1116
978.620	-601
978.703	-683
978.786	-1414
978.869	-1817
978.952	-1923
979.035	-478
979.118	-1063
979.201	-1450
979.284	-632
979.367	-2533
979.450	-414
979.533	-1099
979.616	-1255
979.699	-1362
979.782	-786
979.865	-1471
979.948	-1190
980.030	-1598
980.113	-1032
980.196	-1918
980.279	-1440
980.361	-1066
980.444	-755
980.526	-1021
980.609	-962
980.692	-1345
980.774	-788
980.857	-2813
980.939	-1070
981.022	-1350
981.104	-580
981.187	-1841
981.269	-1098
981.352	-938
981.434	-1782
981.516	-2013
981.599	-105
981.681	-1099
981.763	-650
981.846	-1137
981.928	-1271
982.010	-1807
982.092	-1820
982.174	-699
982.256	-1477
982.339	-1220
982.421	-1200
982.503	-929
982.585	-1421
982.667	-1522
982.749	-643
982.831	-1263
982.913	-2477
982.995	-664
983.077	-1690
983.158	-1253
983.240	-2031
983.322	-1396
983.404	-515
983.486	-1674
983.568	-1047
983.649	-2083
983.731	-142
983.813	-1588
983.894	-1319
983.976	-1927
984.058	-1604
984.139	-559
984.221	-1825
984.302	-1061
984.384	-1311
984.465	-1605
984.547	-1444
984.628	-1959
984.710	-53
984.791	-1066
984.872	-1843
984.954	-793
985.035	-975
985.116	-2499
985.198	-1244
985.279	-270
985.360	-1735
985.441	-1759
985.522	-688
985.604	-1506
985.685	-3140
985.766	-1100
985.847	-666
985.928	-2361
986.009	-1918
986.090	-524
986.171	-738
986.252	-1619
986.333	-1055
986.414	-1275
986.495	-1512
986.576	-1983
986.656	-1338
986.737	-1421
986.818	-937
986.899	-2069
986.980	-1083
987.060	-146
987.141	-1804
987.222	-1452
987.302	-1642
987.383	-1706
987.464	-2013
987.544	-1029
987.625	-2156
987.705	-938
987.786	-944
987.866	-1807
987.947	-2239
988.027	-1362
988.108	-2281
988.188	-1316
988.268	-1015
988.349	-1571
988.429	-1835
988.509	-1710
988.589	-1110
988.670	-3194
988.750	-1412
988.830	-1402
988.910	-959
988.990	-2340
989.070	-1838
989.151	-1423
989.231	-1703
989.311	-1156
989.391	-1220
989.471	-1974
989.551	-1527
989.631	-1600
989.711	-831
989.791	-2977
989.870	-1076
989.950	-1266
990.030	-2031
990.110	-1595
990.190	-2231
990.269	-1060
990.349	-1673
990.429	-1310
990.509	-414
990.588	-2591
990.668	-1131
990.747	-1533
990.827	-1894
990.907	-1633
990.986	-1593
991.066	-1421
991.145	-1161
991.225	-1646
991.304	-1675
991.383	-981
991.463	-1691
991.542	-1421
991.622	-1512
991.701	-1922
991.780	-1852
991.859	-1232
991.939	-1577
992.018	-1308
992.097	-1260
992.176	-914
992.256	-1656
992.335	-2435
992.414	-939
992.493	-2396
992.572	-1623
992.651	-857
992.730	-1200
992.809	-980
992.888	-1194
992.967	-1440
993.046	-1950
993.125	-2359
993.203	-1751
993.282	-2219
993.361	-1401
993.440	-1004
993.519	-1521
993.597	-1339
993.676	-1767
993.755	-1869
993.834	-1868
993.912	-1292
993.991	-1078
994.069	-2574
994.148	-2061
994.226	-2645
994.305	-1198
994.384	-1759
994.462	-454
994.540	-1812
994.619	-1661
994.697	-1289
994.776	-2486
994.854	-1518
994.932	-1987
995.011	-1456
995.089	-2238
995.167	-1120
995.245	-1788
995.324	-2749
995.402	-1593
995.480	-2389
995.558	-1937
995.636	-2044
995.714	-2307
995.792	-849
995.870	-1699
995.948	-1438
996.026	-814
996.104	-2929
996.182	-1261
996.260	-2127
996.338	-1686
996.416	-2190
996.494	-2262
996.572	-1488
996.649	-1864
996.727	-2005
996.805	-1090
996.883	-1402
996.960	-1828
997.038	-1590
997.116	-319
997.193	-2354
997.271	-800
997.348	-2036
997.426	-1360
997.504	-2377
997.581	-1589
997.658	-202
997.736	-2179
997.813	-2757
997.891	-1245
997.968	-2260
998.046	-1613
998.123	-2112
998.200	-1367
998.277	-2049
998.355	-302
998.432	-1942
998.509	-1396
998.586	-1285
998.663	-1985
998.741	-1305
998.818	-1891
998.895	-2863
998.972	-686
999.049	-1628
999.126	-1992
999.203	-680
999.280	-2029
999.357	-1913
999.434	-2202
999.511	-2029
999.587	-1863
999.664	-2294
999.741	-1504
999.818	-784
999.895	-2619
999.971	-2643
1000.048	-1818
1000.125	-990
1000.202	-3171
1000.278	-1516
1000.355	-2089
1000.431	-2422
1000.508	-2488
1000.584	-1131
1000.661	-1615
1000.738	-2246
1000.814	-1017
1000.890	-1147
1000.967	-2229
1001.043	-1836
1001.120	-2682
1001.196	-841
1001.272	-2680
1001.349	-1859
1001.425	-699
1001.501	-2052
1001.577	-2037
1001.654	-1880
1001.730	-1496
1001.806	-1608
1001.882	-2674
1001.958	-1759
1002.034	-659
1002.110	-2030
1002.186	-1830
1002.262	-1293
1002.338	-2031
1002.414	-1489
1002.490	-1330
1002.566	-2107
1002.642	-1541
1002.718	-652
1002.794	-1711
1002.870	-2095
1002.945	-1976
1003.021	-1762
1003.097	-1672
1003.173	-761
1003.248	-2108
1003.324	-1690
1003.400	-1738
1003.475	-1644
1003.551	-1744
1003.626	-1952
1003.702	-2285
1003.777	-1349
1003.853	-1807
1003.928	-1853
1004.004	-1817
1004.079	-1208
1004.155	-1313
1004.230	-3275
1004.305	-1388
1004.381	-2319
1004.456	-1238
1004.531	-1611
1004.607	-1782
1004.682	-1424
1004.757	-1719
1004.832	-1772
1004.907	-1896
1004.982	-1887
1005.057	-1733
1005.133	-1715
1005.208	-2308
1005.283	-1775
1005.358	-943
1005.433	-2160
1005.508	-1017
1005.583	-2187
1005.657	-1990
1005.732	-804
1005.807	-2270
1005.882	-1169
1005.957	-1806
1006.032	-1965
1006.106	-1693
1006.181	-2042
1006.256	-1619
1006.331	-1835
1006.405	-1718
1006.480	-1381
1006.554	-1598
1006.629	-1013
1006.704	-1509
1006.778	-1036
1006.853	-805
1006.927	-1733
1007.002	-1562
1007.076	-1077
1007.150	-1898
1007.225	-1807
1007.299	-1634
1007.373	-2526
1007.448	-1217
1007.522	-346
1007.596	-1628
1007.671	-1238
1007.745	-844
1007.819	-1901
1007.893	-2158
1007.967	-495
1008.041	-2474
1008.115	-569
1008.190	-1891
1008.264	-2076
1008.338	-2370
1008.412	-1729
1008.486	-1746
1008.560	-1149
1008.633	-1700
1008.707	-1843
1008.781	-1589
1008.855	-1984
1008.929	-2185
1009.003	-2675
1009.076	-2340
1009.150	-2139
1009.224	-1804
1009.298	-1620
1009.371	-2340
1009.445	-1918
1009.519	-2430
1009.592	-3110
1009.666	-691
1009.739	-1954
1009.813	-2408
1009.886	-1561
1009.960	-2309
1010.033	-1289
1010.107	-1450
1010.180	-2080
1010.253	-1499
1010.327	-1924
1010.400	-1730
1010.473	-1719
1010.547	-952
1010.620	-2185
1010.693	-1918
1010.766	-2279
1010.840	-2169
1010.913	-1749
1010.986	-1821
1011.059	-2065
1011.132	-2362
1011.205	-1351
1011.278	-2077
1011.351	-1447
1011.424	-1620
1011.497	-2621
1011.570	-1649
1011.643	-1556
1011.716	-2221
1011.789	-1190
1011.862	-946
1011.934	-1117
1012.007	-2998
1012.080	-1737
1012.153	-1686
1012.225	-1156
1012.298	-1725
1012.371	-1800
1012.443	-1922
1012.516	-1760
1012.588	-1556
1012.661	-1947
1012.733	-2125
1012.806	-1213
1012.879	-1848
1012.951	-1362
1013.023	-2041
1013.096	-1295
1013.168	-2498
1013.241	-1979
1013.313	-1554
1013.385	-1334
1013.458	-1814
1013.530	-1955
1013.602	-2146
1013.674	-1292
1013.746	-2363
1013.819	-3051
1013.891	-1222
1013.963	-1803
1014.035	-1532
1014.107	-1332
1014.179	-2358
1014.251	-1628
1014.323	-1583
1014.395	-1666
1014.467	-2095
1014.539	-1948
1014.611	-1366
1014.683	-1936
1014.754	-1926
1014.826	-2353
1014.898	-1675
1014.970	-2797
1015.042	-1307
1015.113	-2092
1015.185	-540
1015.257	-2217
1015.328	-1806
1015.400	-2622
1015.471	-1816
1015.543	-2971
1015.615	-1735
1015.686	-1791
1015.757	-1969
1015.829	-1455
1015.901	-2043
1015.972	-1205
1016.043	-2115
1016.115	-2266
1016.186	-1788
1016.257	-2268
1016.328	-2026
1016.400	-1276
1016.471	-2529
1016.542	-2010
1016.613	-1680
1016.685	-2482
1016.756	-1803
1016.827	-2161
1016.898	-2252
1016.969	-1281
1017.040	-2459
1017.111	-2328
1017.182	-2623
1017.253	-1406
1017.324	-2436
1017.395	-1995
1017.466	-1654
1017.537	-2355
1017.608	-1134
1017.678	-2566
1017.749	-2653
1017.820	-1696
1017.891	-2586
1017.961	-2407
1018.032	-2169
1018.103	-1343
1018.173	-2026
1018.244	-2194
1018.315	-2509
1018.385	-2078
1018.456	-1376
1018.526	-2453
1018.597	-1122
1018.667	-1823
1018.738	-1528
1018.808	-2366
1018.878	-2036
1018.949	-2347
1019.019	-2524
1019.089	-1318
1019.160	-2157
1019.230	-3301
1019.300	-1358
1019.371	-2367
1019.441	-1706
1019.511	-1681
1019.581	-1529
1019.651	-1730
1019.721	-2393
1019.791	-2302
1019.861	-3070
1019.931	-2167
1020.001	-1162
1020.071	-1755
1020.141	-2216
1020.211	-2306
1020.281	-1849
1020.351	-3335
1020.421	-1329
1020.491	-1586
1020.560	-2914
1020.630	-2193
1020.700	-2020
1020.770	-2012
1020.839	-2086
1020.909	-2721
1020.979	-2637
1021.048	-1406
1021.118	-2908
1021.187	-1477
1021.257	-2018
1021.326	-2214
1021.396	-2384
1021.465	-2401
1021.535	-1750
1021.604	-1860
1021.674	-2119
1021.743	-2217
1021.812	-1620
1021.882	-2618
1021.951	-1583
1022.020	-1792
1022.089	-1313
1022.159	-2679
1022.228	-1652
1022.297	-1987
1022.366	-2785
1022.435	-2336
1022.504	-2161
1022.573	-2407
1022.642	-2157
1022.711	-2291
1022.781	-1968
1022.849	-2489
1022.918	-3021
1022.987	-1492
1023.056	-2278
1023.125	-2213
1023.194	-2762
1023.263	-2620
1023.331	-2204
1023.400	-1556
1023.469	-2630
1023.538	-1607
1023.606	-2763
1023.675	-1799
1023.744	-2652
1023.812	-2841
1023.881	-2826
1023.949	-2077
1024.018	-2178
1024.086	-2405
1024.155	-1925
1024.223	-2237
1024.292	-1779
1024.360	-2221
1024.429	-2386
1024.497	-2513
1024.565	-2475
1024.634	-2103
1024.702	-1624
1024.770	-1585
1024.838	-2211
1024.907	-1971
1024.975	-2310
1025.043	-2482
1025.111	-2593
1025.179	-2166
1025.247	-1703
1025.315	-1997
1025.383	-1871
1025.451	-1990
1025.519	-2165
1025.587	-2240
1025.655	-1746
1025.723	-2372
1025.791	-1216
1025.859	-1597
1025.927	-1945
1025.995	-1805
1026.062	-1582
1026.130	-3032
1026.198	-2121
1026.266	-1813
1026.333	-1894
1026.401	-1948
1026.469	-2197
1026.536	-2282
1026.604	-1934
1026.671	-2601
1026.739	-1895
1026.806	-1753
1026.874	-2559
1026.941	-2196
1027.009	-1904
1027.076	-2518
1027.144	-1478
1027.211	-2286
1027.278	-2020
1027.345	-2088
1027.413	-2421
1027.480	-2398
1027.547	-2311
1027.614	-2264
1027.682	-1894
1027.749	-2262
1027.816	-2236
1027.883	-2126
1027.950	-1782
1028.017	-2189
1028.084	-1496
1028.151	-3469
1028.218	-2623
1028.285	-1686
1028.352	-1986
1028.419	-2382
1028.486	-2063
1028.553	-1976
1028.619	-1356
1028.686	-2323
1028.753	-2158
1028.820	-2513
1028.886	-2363
1028.953	-1855
1029.020	-2217
1029.086	-1328
1029.153	-1922
1029.220	-2976
1029.286	-2252
1029.353	-1831
1029.419	-2634
1029.486	-2024
1029.552	-2300
1029.619	-2202
1029.685	-602
1029.751	-2435
1029.818	-1679
1029.884	-2098
1029.951	-1299
1030.017	-2371
1030.083	-2172
1030.149	-1515
1030.216	-1488
1030.282	-2634
1030.348	-2342
1030.414	-2344
1030.480	-2384
1030.546	-3074
1030.612	-1649
1030.678	-2810
1030.744	-1992
1030.810	-2202
1030.876	-2668
1030.942	-1633
1031.008	-2575
1031.074	-2265
1031.140	-2344
1031.206	-2062
1031.272	-2395
1031.337	-1713
1031.403	-2282
1031.469	-2181
1031.534	-1584
1031.600	-1591
1031.666	-1703
1031.731	-1833
1031.797	-1883
1031.863	-2409
1031.928	-1770
1031.994	-2399
1032.059	-1981
1032.125	-2943
1032.190	-2606
1032.256	-2296
1032.321	-2766
1032.386	-2368
1032.452	-1723
1032.517	-2460
1032.582	-2267
1032.647	-2102
1032.713	-2024
1032.778	-1914
1032.843	-1958
1032.908	-2377
1032.974	-1721
1033.039	-2102
1033.104	-1450
1033.169	-2796
1033.234	-1990
1033.299	-1273
1033.364	-1309
1033.429	-1313
1033.494	-1490
1033.559	-2466
1033.624	-1917
1033.688	-2266
1033.753	-2651
1033.818	-2135
1033.883	-2069
1033.948	-2207
1034.013	-1197
1034.077	-2556
1034.142	-1858
1034.207	-1564
1034.271	-1930
1034.336	-1182
1034.400	-2013
1034.465	-1947
1034.530	-2087
1034.594	-2020
1034.658	-2648
1034.723	-3056
1034.787	-2763
1034.852	-2296
1034.916	-2471
1034.981	-2846
1035.045	-1578
1035.109	-2207
1035.173	-1851
1035.238	-2627
1035.302	-2955
1035.366	-2603
1035.430	-1998
1035.495	-2358
1035.559	-1963
1035.623	-1166
1035.687	-2160
1035.751	-2225
1035.815	-2597
1035.879	-2610
1035.943	-2031
1036.007	-2042
1036.071	-1537
1036.135	-2852
1036.198	-1765
1036.262	-1897
1036.326	-1789
1036.390	-2282
1036.454	-2040
1036.517	-2493
1036.581	-1713
1036.645	-1618
1036.709	-1574
1036.772	-3091
1036.836	-1619
1036.900	-1636
1036.963	-1826
1037.026	-2107
1037.090	-2062
1037.154	-1177
1037.217	-1995
1037.280	-2251
1037.344	-2386
1037.407	-2324
1037.471	-2235
1037.534	-2806
1037.597	-1747
1037.661	-2065
1037.724	-2095
1037.787	-2414
1037.850	-2055
1037.913	-2517
1037.977	-1985
1038.040	-2423
1038.103	-2251
1038.166	-1889
1038.229	-2181
1038.292	-2055
1038.355	-1377
1038.418	-2243
1038.481	-1250
1038.544	-2010
1038.607	-3128
1038.670	-1928
1038.732	-1043
1038.795	-2308
1038.858	-2342
1038.921	-2077
1038.984	-2317
1039.046	-2677
1039.109	-2487
1039.172	-2230
1039.234	-2314
1039.297	-2759
1039.360	-2181
1039.422	-1953
1039.485	-2720
1039.547	-2993
1039.610	-1714
1039.672	-2347
1039.734	-2250
1039.797	-2125
1039.859	-2089
1039.922	-2330
1039.984	-2169
1040.046	-2385
1040.109	-2401
1040.171	-2905
1040.233	-2250
1040.295	-2989
1040.358	-2007
1040.420	-1602
1040.482	-2414
1040.544	-2154
1040.606	-1859
1040.668	-1927
1040.730	-2021
1040.792	-1882
1040.854	-1763
1040.916	-1687
1040.978	-2403
1041.040	-1544
1041.102	-2331
1041.164	-2712
1041.225	-2130
1041.287	-2005
1041.349	-2732
1041.411	-1853
1041.472	-1743
1041.534	-1553
1041.596	-2449
1041.657	-2439
1041.719	-1108
1041.781	-2701
1041.842	-2435
1041.904	-2778
1041.965	-1771
1042.027	-2234
1042.088	-2787
1042.150	-1840
1042.211	-1676
1042.272	-2039
1042.334	-1453
1042.395	-2358
1042.456	-2372
1042.518	-2240
1042.579	-2818
1042.640	-2421
1042.701	-2478
1042.763	-2778
1042.824	-1734
1042.885	-2352
1042.946	-2664
1043.007	-2505
1043.068	-2541
1043.129	-2389
1043.190	-2478
1043.251	-1899
1043.312	-2358
1043.373	-2008
1043.434	-1645
1043.495	-1602
1043.556	-1636
1043.616	-2635
1043.677	-2091
1043.738	-1725
1043.799	-2045
1043.859	-2264
1043.920	-1604
1043.981	-2390
1044.041	-2294
1044.102	-1903
1044.162	-2095
1044.223	-2893
1044.284	-2342
1044.344	-1650
1044.405	-2091
1044.465	-1938
1044.525	-2601
1044.586	-2307
1044.646	-1473
1044.707	-1197
1044.767	-1352
1044.827	-1821
1044.887	-2074
1044.948	-2375
1045.008	-2035
1045.068	-3038
1045.128	-1058
1045.188	-1866
1045.249	-1775
1045.309	-2266
1045.369	-1492
1045.429	-2568
1045.489	-2255
1045.549	-2414
1045.609	-2113
1045.669	-2802
1045.729	-2730
1045.789	-2915
1045.848	-1663
1045.908	-1437
1045.968	-2003
1046.028	-2309
1046.088	-1815
1046.147	-1441
1046.207	-1535
1046.267	-2108
1046.326	-1410
1046.386	-1171
1046.446	-1823
1046.505	-1242
1046.565	-657
1046.624	-1411
1046.684	-680
1046.743	-688
1046.803	-1083
1046.862	-1195
1046.922	0
