'Start Wavelength	183.907
'End Wavelength	1046.922
'Gate Delay	5.000
'Gate Width (ms)	1.050
'Laser Output Level	0.000
'X Position	0.000
'Y Position	0.000
'Z Position	0.000
'Grid Point Number	1.000
'Shot Number	100.000
183.907	962.000
183.977	121.000
184.047	644
184.116	283
184.186	116
184.256	-120
184.325	51
184.395	-466
184.465	1099
184.534	649
184.604	239
184.674	474
184.743	717
184.813	914
184.883	172
184.952	900
185.022	830
185.092	-172
185.161	1205
185.231	443
185.301	253
185.370	969
185.440	58
185.509	147
185.579	1326
185.649	624
185.718	1578
185.788	763
185.857	567
185.927	493
185.996	290
186.066	705
186.136	556
186.205	492
186.275	1179
186.344	584
186.414	279
186.483	138
186.553	1905
186.622	2581
186.692	704
186.761	440
186.831	610
186.900	-297
186.970	1454
187.039	1525
187.109	2676
187.178	1085
187.248	1310
187.317	1468
187.387	1842
187.456	1332
187.526	1196
187.595	613
187.664	1476
187.734	931
187.803	1681
187.873	1893
187.942	2860
188.012	1930
188.081	1324
188.150	1179
188.220	2403
188.289	2094
188.358	2098
188.428	1324
188.497	1061
188.567	1736
188.636	986
188.705	1542
188.775	1446
188.844	605
188.913	1954
188.983	1273
189.052	1515
189.121	692
189.191	1771
189.260	1624
189.329	2261
189.399	1122
189.468	1554
189.537	694
189.606	1676
189.676	1584
189.745	2268
189.814	2375
189.883	980
189.953	794
190.022	2416
190.091	3869
190.161	4775
190.230	2290
190.299	1671
190.368	1746
190.437	983
190.507	1728
190.576	1665
190.645	823
190.714	1535
190.783	892
190.853	1714
190.922	1792
190.991	1755
191.060	1266
191.129	793
191.198	1681
191.268	1135
191.337	436
191.406	1995
191.475	1493
191.544	1856
191.613	1770
191.682	1508
191.752	1565
191.821	1421
191.890	1216
191.959	2144
192.028	1716
192.097	1082
192.166	1257
192.235	1528
192.304	1858
192.373	1008
192.442	504
192.511	970
192.580	705
192.650	732
192.719	1123
192.788	2124
192.857	1292
192.926	1641
192.995	2045
193.064	2473
193.133	2820
193.202	3994
193.271	3678
193.340	3378
193.409	3337
193.478	3866
193.547	4846
193.615	5909
193.684	5618
193.753	4327
193.822	3137
193.891	2532
193.960	2163
194.029	2005
194.098	2618
194.167	2337
194.236	1652
194.305	1472
194.374	1685
194.443	2291
194.512	1762
194.580	2698
194.649	2892
194.718	4002
194.787	2126
194.856	2587
194.925	2410
194.994	2171
195.062	3247
195.131	3421
195.200	3983
195.269	4940
195.338	2641
195.407	2155
195.475	1495
195.544	3575
195.613	4023
195.682	2973
195.751	3572
195.819	4021
195.888	3633
195.957	4322
196.026	3753
196.094	4064
196.163	3772
196.232	4555
196.301	3711
196.369	4290
196.438	3455
196.507	2756
196.576	2557
196.644	2100
196.713	2395
196.782	2358
196.850	2549
196.919	1989
196.988	2466
197.056	2437
197.125	2767
197.194	2679
197.262	1858
197.331	1547
197.400	2463
197.468	2289
197.537	1685
197.606	3034
197.674	3765
197.743	6401
197.812	3168
197.880	4959
197.949	4673
198.017	5526
198.086	4276
198.155	3430
198.223	3452
198.292	6390
198.360	4576
198.429	2641
198.497	3123
198.566	4247
198.635	6769
198.703	3466
198.772	3242
198.840	6379
198.909	6511
198.977	2794
199.046	2561
199.114	3530
199.183	2809
199.251	2401
199.320	2577
199.388	2365
199.457	3227
199.525	2991
199.594	3656
199.662	2390
199.731	1943
199.799	3635
199.867	3495
199.936	3122
200.004	3018
200.073	2858
200.141	2581
200.210	2376
200.278	1186
200.346	3089
200.415	4270
200.483	4729
200.552	3719
200.620	3220
200.688	2520
200.757	3349
200.825	2290
200.893	3293
200.962	2477
201.030	2735
201.098	2132
201.167	3322
201.235	3153
201.303	3374
201.372	3328
201.440	3506
201.508	3628
201.577	4304
201.645	3880
201.713	2921
201.781	2937
201.850	4957
201.918	3689
201.986	4046
202.055	4103
202.123	3597
202.191	3080
202.259	3585
202.327	3649
202.396	3416
202.464	4437
202.532	4972
202.600	11442
202.669	8600
202.737	3973
202.805	3781
202.873	3763
202.941	3288
203.009	3255
203.078	3397
203.146	3035
203.214	3446
203.282	2692
203.350	3252
203.418	3005
203.487	4130
203.555	3131
203.623	2961
203.691	2939
203.759	3427
203.827	3455
203.895	3783
203.963	4521
204.031	4010
204.099	3061
204.168	3232
204.236	3412
204.304	4204
204.372	4088
204.440	3324
204.508	3009
204.576	3395
204.644	2864
204.712	3544
204.780	3698
204.848	4334
204.916	3330
204.984	3593
205.052	3996
205.120	3665
205.188	4092
205.256	4037
205.324	3139
205.392	3503
205.460	3531
205.528	3228
205.596	3413
205.664	3924
205.732	4581
205.799	7958
205.867	11505
205.935	4555
206.003	4648
206.071	3594
206.139	3567
206.207	3700
206.275	4638
206.343	3787
206.411	3689
206.478	4138
206.546	4299
206.614	3994
206.682	3116
206.750	3052
206.818	5803
206.885	6280
206.953	3159
207.021	5114
207.089	3745
207.157	3808
207.225	3786
207.292	4660
207.360	3988
207.428	4565
207.496	3759
207.563	3404
207.631	4363
207.699	3975
207.767	3711
207.834	4409
207.902	4972
207.970	5497
208.038	4505
208.105	4442
208.173	5007
208.241	5912
208.309	6348
208.376	6125
208.444	8444
208.512	7460
208.579	3960
208.647	5654
208.715	5465
208.782	4884
208.850	5011
208.918	4648
208.985	3788
209.053	5013
209.120	6247
209.188	4367
209.256	5720
209.323	4777
209.391	6992
209.459	6625
209.526	4731
209.594	4749
209.661	4709
209.729	4936
209.796	5393
209.864	6337
209.932	4663
209.999	7291
210.067	5818
210.134	6521
210.202	5870
210.269	8393
210.337	8050
210.404	6148
210.472	4827
210.539	5377
210.607	5740
210.674	7872
210.742	5536
210.809	6105
210.877	7158
210.944	7882
211.012	6199
211.079	7836
211.146	6349
211.214	6352
211.281	7067
211.349	8347
211.416	6322
211.484	8561
211.551	6372
211.618	6857
211.686	6126
211.753	5316
211.821	6470
211.888	6425
211.955	6133
212.023	6492
212.090	6151
212.157	5772
212.225	6838
212.292	9956
212.359	15189
212.427	30761
212.494	18371
212.561	9927
212.629	7568
212.696	7446
212.763	7794
212.831	6625
212.898	7087
212.965	6041
213.032	7190
213.100	7206
213.167	6678
213.234	8619
213.301	6334
213.369	6158
213.436	6134
213.503	6709
213.570	7359
213.638	8298
213.705	6425
213.772	6022
213.839	6942
213.906	9218
213.973	8352
214.041	7819
214.108	7384
214.175	7636
214.242	6720
214.309	7762
214.376	7426
214.444	7822
214.511	7998
214.578	8502
214.645	7898
214.712	8802
214.779	8593
214.846	7833
214.913	8580
214.980	9098
215.048	10306
215.115	11857
215.182	10325
215.249	9424
215.316	8269
215.383	8590
215.450	7811
215.517	7054
215.584	7547
215.651	7239
215.718	6980
215.785	8557
215.852	8441
215.919	10383
215.986	9887
216.053	8205
216.120	6377
216.187	8669
216.254	9924
216.321	7740
216.388	8013
216.455	10010
216.522	10148
216.589	11600
216.656	16020
216.722	16463
216.789	11477
216.856	12030
216.923	10040
216.990	10124
217.057	10762
217.124	12223
217.191	11309
217.258	12615
217.324	14947
217.391	14030
217.458	11463
217.525	9933
217.592	9335
217.659	8585
217.725	10310
217.792	11966
217.859	12301
217.926	9377
217.993	6971
218.059	7280
218.126	7113
218.193	7000
218.260	7104
218.327	7037
218.393	7896
218.460	7252
218.527	7379
218.594	7720
218.660	12246
218.727	13674
218.794	7097
218.860	7190
218.927	6905
218.994	6449
219.061	6682
219.127	8761
219.194	11766
219.261	7838
219.327	6039
219.394	5888
219.461	4430
219.527	6480
219.594	10295
219.661	7890
219.727	5561
219.794	6665
219.860	5935
219.927	8017
219.994	11505
220.060	17589
220.127	13519
220.193	10362
220.260	9166
220.326	12981
220.393	16988
220.460	20997
220.526	15305
220.593	11709
220.659	13152
220.726	11849
220.792	20869
220.859	22013
220.925	26145
220.992	33090
221.058	29766
221.125	29021
221.191	21746
221.258	13223
221.324	10040
221.391	9499
221.457	8265
221.524	8911
221.590	9877
221.657	22844
221.723	19320
221.789	17405
221.856	16613
221.922	10850
221.989	9121
222.055	8400
222.121	7458
222.188	11427
222.254	9441
222.321	8530
222.387	6561
222.453	7366
222.520	7386
222.586	6649
222.652	7169
222.719	6692
222.785	8364
222.851	6874
222.918	6609
222.984	7934
223.050	8751
223.116	6420
223.183	7700
223.249	5987
223.315	5758
223.382	6545
223.448	5981
223.514	4942
223.580	5069
223.647	5779
223.713	5732
223.779	6529
223.845	5903
223.911	7564
223.978	5885
224.044	6857
224.110	6490
224.176	6371
224.242	6252
224.309	5590
224.375	5076
224.441	5797
224.507	4948
224.573	5932
224.639	6031
224.705	5307
224.772	5525
224.838	6674
224.904	7627
224.970	6447
225.036	6655
225.102	7243
225.168	6279
225.234	7309
225.300	5707
225.366	5233
225.432	5749
225.499	5933
225.565	6747
225.631	8747
225.697	7800
225.763	9377
225.829	10128
225.895	10822
225.961	14461
226.027	13743
226.093	12621
226.159	14282
226.225	19680
226.291	34424
226.357	50509
226.423	33923
226.489	23326
226.554	16743
226.620	14805
226.686	19457
226.752	26965
226.818	35727
226.884	60245
226.950	56109
227.016	28569
227.082	19271
227.148	15952
227.214	16793
227.279	15372
227.345	12685
227.411	13181
227.477	13026
227.543	22578
227.609	25654
227.674	17470
227.740	12938
227.806	10664
227.872	9614
227.938	9539
228.003	16811
228.069	10285
228.135	6912
228.201	7347
228.267	8119
228.332	10379
228.398	12521
228.464	9569
228.530	7119
228.595	6578
228.661	7663
228.727	13068
228.792	12504
228.858	8465
228.924	8973
228.990	10896
229.055	10360
229.121	12545
229.187	8275
229.252	9623
229.318	8291
229.384	8306
229.449	11500
229.515	6008
229.581	6060
229.646	7927
229.712	9663
229.777	16802
229.843	20343
229.909	14891
229.974	16267
230.040	15102
230.105	11845
230.171	12940
230.236	14509
230.302	18917
230.368	17272
230.433	11011
230.499	11054
230.564	14013
230.630	11578
230.695	9596
230.761	9121
230.826	8646
230.892	14202
230.957	9672
231.023	8993
231.088	9148
231.154	9258
231.219	8797
231.284	11893
231.350	13511
231.415	8430
231.481	8332
231.546	8159
231.612	7372
231.677	6522
231.742	6903
231.808	9635
231.873	7537
231.939	6604
232.004	14364
232.069	14834
232.135	8889
232.200	9215
232.265	7397
232.331	7341
232.396	6500
232.461	7192
232.527	5903
232.592	7727
232.657	8241
232.723	12490
232.788	9326
232.853	7324
232.918	7540
232.984	7609
233.049	6805
233.114	9587
233.179	11385
233.245	13922
233.310	16686
233.375	7120
233.440	8598
233.506	7566
233.571	7060
233.636	7586
233.701	7310
233.766	11437
233.832	14932
233.897	9558
233.962	10413
234.027	12702
234.092	11026
234.157	10470
234.222	11464
234.288	13024
234.353	27381
234.418	27002
234.483	18680
234.548	16612
234.613	14447
234.678	14310
234.743	14714
234.808	30054
234.873	23175
234.938	14089
235.004	12149
235.069	11895
235.134	10133
235.199	11180
235.264	10365
235.329	8985
235.394	10487
235.459	12155
235.524	11539
235.589	10436
235.654	9201
235.719	8317
235.784	8806
235.849	10557
235.913	17087
235.978	18256
236.043	20822
236.108	12915
236.173	10477
236.238	12758
236.303	10168
236.368	9962
236.433	13712
236.498	22437
236.563	17509
236.627	29754
236.692	79685
236.757	73567
236.822	35130
236.887	26785
236.952	22715
237.017	18202
237.081	20201
237.146	25559
237.211	43805
237.276	79405
237.341	119663
237.405	71291
237.470	36090
237.535	25275
237.600	17936
237.664	16147
237.729	13810
237.794	18094
237.859	29291
237.923	22694
237.988	14400
238.053	18215
238.118	17883
238.182	36835
238.247	34383
238.312	20279
238.376	16449
238.441	14917
238.506	14065
238.570	9385
238.635	10192
238.700	9497
238.764	9457
238.829	17691
238.893	23568
238.958	15257
239.023	16730
239.087	11824
239.152	11698
239.216	10745
239.281	9949
239.346	10457
239.410	9969
239.475	12085
239.539	32650
239.604	29690
239.668	12815
239.733	11527
239.797	16457
239.862	37781
239.926	38899
239.991	18595
240.055	12078
240.120	11715
240.184	11075
240.249	10310
240.313	9474
240.378	11173
240.442	21928
240.507	33771
240.571	14218
240.635	18214
240.700	23646
240.764	13990
240.829	9731
240.893	7659
240.957	10034
241.022	20120
241.086	33605
241.151	20536
241.215	10890
241.279	13675
241.344	21113
241.408	15667
241.472	13636
241.537	15879
241.601	14595
241.665	12147
241.730	12508
241.794	14339
241.858	14167
241.922	13894
241.987	13488
242.051	11967
242.115	12616
242.179	12857
242.244	10914
242.308	12492
242.372	13237
242.436	16260
242.501	14379
242.565	11033
242.629	11051
242.693	11945
242.757	10732
242.822	12136
242.886	12376
242.950	11665
243.014	11581
243.078	14782
243.142	15384
243.206	12867
243.271	14149
243.335	13455
243.399	18178
243.463	44505
243.527	106911
243.591	43820
243.655	23792
243.719	15657
243.783	16963
243.847	23977
243.911	27652
243.975	36859
244.040	30474
244.104	18413
244.168	13840
244.232	22456
244.296	28628
244.360	27578
244.424	18404
244.488	14793
244.552	14142
244.615	10461
244.679	11206
244.743	15704
244.807	17908
244.871	12403
244.935	11741
244.999	10207
245.063	12908
245.127	15759
245.191	19770
245.255	20954
245.319	19024
245.383	18865
245.446	13534
245.510	12098
245.574	13594
245.638	15325
245.702	13024
245.766	29559
245.829	20325
245.893	15322
245.957	13289
246.021	16134
246.085	16772
246.149	20025
246.212	39204
246.276	61884
246.340	32664
246.404	22790
246.467	21120
246.531	31051
246.595	20694
246.659	19347
246.722	18228
246.786	25452
246.850	24195
246.913	28813
246.977	15750
247.041	15572
247.104	18689
247.168	18536
247.232	38561
247.295	76303
247.359	43181
247.423	21750
247.486	34703
247.550	24011
247.614	19855
247.677	27561
247.741	18852
247.804	15867
247.868	18935
247.932	36646
247.995	75501
248.059	34170
248.122	19516
248.186	24039
248.249	40871
248.313	109804
248.376	122589
248.440	87344
248.503	39215
248.567	31319
248.630	41052
248.694	57009
248.757	69260
248.821	121432
248.884	86933
248.948	74965
249.011	102376
249.075	138195
249.138	127106
249.202	60113
249.265	39075
249.328	39639
249.392	32599
249.455	29810
249.519	23367
249.582	29469
249.645	41228
249.709	33157
249.772	22859
249.835	22448
249.899	24722
249.962	22203
250.025	21911
250.089	48601
250.152	70156
250.215	38499
250.279	28465
250.342	27244
250.405	26519
250.468	24379
250.532	30816
250.595	41728
250.658	105793
250.721	170892
250.785	77835
250.848	44542
250.911	31363
250.974	28207
251.038	38785
251.101	75633
251.164	43283
251.227	42899
251.290	38522
251.354	49097
251.417	140848
251.480	154782
251.543	109980
251.606	237911
251.669	201129
251.732	96301
251.795	101909
251.859	99135
251.922	166707
251.985	114814
252.048	52715
252.111	42571
252.174	42886
252.237	74286
252.300	143604
252.363	141377
252.426	214326
252.489	113541
252.552	64321
252.615	47169
252.678	48848
252.741	106399
252.804	124960
252.867	217161
252.930	161136
252.993	98016
253.056	61470
253.119	48808
253.182	36389
253.245	53049
253.308	44895
253.371	47434
253.434	44063
253.497	40875
253.559	70431
253.622	56250
253.685	68232
253.748	77136
253.811	38399
253.874	39506
253.937	42401
254.000	34626
254.062	53916
254.125	80559
254.188	70798
254.251	64706
254.314	32794
254.376	53673
254.439	64576
254.502	59483
254.565	55960
254.628	93886
254.690	64928
254.753	38540
254.816	32533
254.878	34215
254.941	53882
255.004	60026
255.067	29750
255.129	33786
255.192	20646
255.255	19635
255.317	24450
255.380	17348
255.443	13213
255.505	14703
255.568	14967
255.631	16989
255.693	17448
255.756	14808
255.819	14773
255.881	14258
255.944	12862
256.006	12773
256.069	13398
256.132	12901
256.194	18588
256.257	35602
256.319	27631
256.382	27122
256.444	19648
256.507	17287
256.569	16555
256.632	17022
256.694	25083
256.757	51369
256.819	135879
256.882	67222
256.944	31988
257.007	27875
257.069	30068
257.132	21034
257.194	17981
257.257	17169
257.319	18581
257.381	20261
257.444	42203
257.506	145800
257.569	180500
257.631	97537
257.693	55915
257.756	29801
257.818	25663
257.880	20089
257.943	18410
258.005	17467
258.067	17623
258.130	17865
258.192	20524
258.254	41030
258.317	26122
258.379	18895
258.441	40609
258.503	39623
258.566	38403
258.628	51736
258.690	19010
258.753	20869
258.815	41665
258.877	27996
258.939	17782
259.001	16467
259.064	16034
259.126	19476
259.188	23555
259.250	18913
259.312	22578
259.375	45839
259.437	35897
259.499	18738
259.561	17524
259.623	19686
259.685	20030
259.747	18796
259.809	36084
259.872	67840
259.934	92275
259.996	104986
260.058	38330
260.120	19783
260.182	16806
260.244	14983
260.306	13764
260.368	15805
260.430	15155
260.492	33829
260.554	54185
260.616	38106
260.678	56003
260.740	73773
260.802	26367
260.864	22915
260.926	20434
260.988	19934
261.050	20343
261.112	45075
261.174	87765
261.236	59339
261.298	26444
261.359	34595
261.421	47605
261.483	21433
261.545	19123
261.607	14860
261.669	14624
261.731	23778
261.793	54485
261.854	34262
261.916	23995
261.978	21834
262.040	23447
262.102	15813
262.164	22366
262.225	21497
262.287	15600
262.349	39138
262.411	32539
262.472	17152
262.534	22354
262.596	45575
262.658	19094
262.719	14807
262.781	18827
262.843	42850
262.904	23437
262.966	19422
263.028	23020
263.090	70240
263.151	175630
263.213	75885
263.275	54970
263.336	24612
263.398	18224
263.459	14887
263.521	16337
263.583	36747
263.644	30068
263.706	15395
263.767	11233
263.829	11907
263.891	10377
263.952	10141
264.014	10925
264.075	22750
264.137	55357
264.198	29117
264.260	13287
264.321	13788
264.383	33101
264.444	80950
264.506	29529
264.567	20718
264.629	31273
264.690	69317
264.752	30476
264.813	20548
264.875	15118
264.936	16786
264.998	14068
265.059	12755
265.120	13957
265.182	22100
265.243	73607
265.305	81523
265.366	24911
265.427	17220
265.489	15069
265.550	12659
265.611	16666
265.673	17952
265.734	15391
265.795	11322
265.857	11278
265.918	14268
265.979	25906
266.040	111637
266.102	106765
266.163	38342
266.224	36182
266.286	21963
266.347	15613
266.408	15530
266.469	15530
266.530	14383
266.592	12427
266.653	26445
266.714	46296
266.775	19460
266.836	14637
266.898	13233
266.959	24507
267.020	20358
267.081	14779
267.142	12613
267.203	11645
267.264	11468
267.326	15415
267.387	13552
267.448	11892
267.509	13631
267.570	12370
267.631	11967
267.692	10356
267.753	11899
267.814	12498
267.875	23097
267.936	49672
267.997	32818
268.058	29510
268.119	18290
268.180	17857
268.241	14840
268.302	13290
268.363	12298
268.424	15107
268.485	14653
268.546	11910
268.607	10948
268.668	10531
268.729	11202
268.790	12411
268.851	15239
268.912	34885
268.972	43644
269.033	26816
269.094	14802
269.155	11054
269.216	11846
269.277	13826
269.338	11151
269.398	12176
269.459	17173
269.520	22804
269.581	29115
269.642	34279
269.702	26136
269.763	18316
269.824	15842
269.885	19665
269.945	31090
270.006	15471
270.067	11579
270.128	11512
270.188	11437
270.249	12858
270.310	11244
270.370	11312
270.431	12284
270.492	10725
270.553	12717
270.613	28293
270.674	51310
270.734	25123
270.795	16488
270.856	23532
270.916	21944
270.977	14265
271.038	17827
271.098	19868
271.159	28388
271.219	29116
271.280	14341
271.340	12594
271.401	15589
271.462	28777
271.522	22721
271.583	15736
271.643	16711
271.704	15792
271.764	20921
271.825	41592
271.885	117322
271.946	162508
272.006	65170
272.066	74283
272.127	124126
272.187	48399
272.248	29540
272.308	29574
272.369	78216
272.429	51659
272.489	41508
272.550	47850
272.610	44998
272.671	37047
272.731	26726
272.791	42911
272.852	31720
272.912	27466
272.972	17367
273.033	17162
273.093	25932
273.153	28564
273.214	20591
273.274	22756
273.334	61805
273.394	118432
273.455	61553
273.515	51974
273.575	105656
273.635	50719
273.696	56936
273.756	108812
273.816	55301
273.876	31439
273.936	46740
273.997	78260
274.057	30275
274.117	26856
274.177	38016
274.237	131601
274.297	120687
274.358	74503
274.418	89911
274.478	77376
274.538	34794
274.598	25599
274.658	59014
274.718	77056
274.778	37868
274.838	23612
274.898	38921
274.958	102107
275.018	106339
275.078	79563
275.138	37565
275.198	21968
275.258	18007
275.318	22646
275.378	41609
275.438	48559
275.498	30807
275.558	48281
275.618	100554
275.678	81078
275.738	55485
275.798	46880
275.858	29848
275.918	16875
275.978	21827
276.038	21687
276.098	17530
276.157	31675
276.217	86668
276.277	44854
276.337	35722
276.397	20795
276.457	26931
276.517	19550
276.576	15283
276.636	15970
276.696	27690
276.756	52415
276.815	43576
276.875	22003
276.935	24566
276.995	23802
277.055	15943
277.114	17277
277.174	22275
277.234	65133
277.293	35254
277.353	22364
277.413	17100
277.472	19621
277.532	20746
277.592	20055
277.651	52230
277.711	96940
277.771	40574
277.830	110629
277.890	98763
277.950	66002
278.009	164203
278.069	73913
278.128	70995
278.188	104092
278.248	53356
278.307	104897
278.367	70799
278.426	26966
278.486	20950
278.545	17219
278.605	17194
278.664	16046
278.724	20040
278.783	41982
278.843	102769
278.902	37290
278.962	25676
279.021	27895
279.081	28566
279.140	28688
279.199	28820
279.259	26587
279.318	27423
279.378	34443
279.437	56510
279.496	168008
279.556	368246
279.615	313381
279.675	104946
279.734	63349
279.793	88946
279.853	132385
279.912	59163
279.971	35487
280.031	32946
280.090	52577
280.149	95328
280.208	74399
280.268	250207
280.327	273071
280.386	83863
280.445	64897
280.505	64490
280.564	34234
280.623	29806
280.682	38414
280.742	58192
280.801	24330
280.860	20380
280.919	18698
280.978	18131
281.037	16156
281.097	14182
281.156	15274
281.215	15947
281.274	19442
281.333	63984
281.392	54315
281.451	18458
281.510	14746
281.569	15731
281.628	13314
281.688	13395
281.747	16993
281.806	18638
281.865	12780
281.924	12714
281.983	14593
282.042	11113
282.101	11821
282.160	12375
282.219	12493
282.278	14176
282.337	42753
282.396	34071
282.454	16668
282.513	21138
282.572	65861
282.631	45285
282.690	18083
282.749	15575
282.808	19949
282.867	20235
282.926	20427
282.985	12846
283.043	12107
283.102	13987
283.161	16434
283.220	31358
283.279	65822
283.338	26062
283.396	18116
283.455	17633
283.514	20727
283.573	31594
283.631	23853
283.690	19107
283.749	18105
283.808	34526
283.866	41121
283.925	20346
283.984	18470
284.043	26071
284.101	28137
284.160	20489
284.219	25353
284.277	25190
284.336	34363
284.395	89893
284.453	77485
284.512	37876
284.570	48606
284.629	47025
284.688	43039
284.746	47048
284.805	54210
284.863	68847
284.922	86897
284.981	106625
285.039	151776
285.098	242550
285.156	412219
285.215	460818
285.273	464545
285.332	443057
285.390	293930
285.449	191232
285.507	136505
285.566	101070
285.624	78437
285.683	62461
285.741	50584
285.799	45348
285.858	39624
285.916	38029
285.975	30268
286.033	26649
286.091	24852
286.150	22587
286.208	21186
286.267	25162
286.325	26164
286.383	38482
286.442	32629
286.500	19295
286.558	17336
286.616	17553
286.675	23973
286.733	22130
286.791	20219
286.850	22445
286.908	27578
286.966	45063
287.024	21279
287.083	17048
287.141	14652
287.199	16848
287.257	25999
287.315	19432
287.374	20408
287.432	44288
287.490	31744
287.548	21343
287.606	16998
287.664	16337
287.723	23120
287.781	29744
287.839	17869
287.897	20323
287.955	23201
288.013	32273
288.071	64469
288.129	195301
288.187	469657
288.245	252071
288.303	89487
288.361	54375
288.419	41748
288.477	31566
288.535	23838
288.593	20299
288.651	17697
288.709	14026
288.767	14151
288.825	15182
288.883	12147
288.941	13040
288.999	12340
289.057	12449
289.115	11635
289.173	13776
289.231	13236
289.289	14753
289.346	13131
289.404	17483
289.462	27021
289.520	28603
289.578	15851
289.636	11265
289.694	9722
289.751	9800
289.809	10342
289.867	12406
289.925	15486
289.983	20195
290.040	12281
290.098	10408
290.156	14924
290.214	17984
290.271	13403
290.329	9985
290.387	10194
290.444	10221
290.502	8528
290.560	10205
290.617	11142
290.675	11986
290.733	10781
290.790	14025
290.848	9601
290.906	13657
290.963	12788
291.021	13136
291.078	11762
291.136	15987
291.194	37335
291.251	81970
291.309	27566
291.366	14471
291.424	13162
291.481	15274
291.539	14520
291.596	13090
291.654	10003
291.711	9877
291.769	13262
291.826	28158
291.884	19842
291.941	12903
291.999	11469
292.056	14628
292.114	17346
292.171	12875
292.228	14332
292.286	18110
292.343	30390
292.401	39188
292.458	25260
292.515	16785
292.573	20864
292.630	19993
292.687	17959
292.745	15875
292.802	22316
292.859	50695
292.917	77920
292.974	51378
293.031	20715
293.089	15184
293.146	13440
293.203	13074
293.260	12282
293.318	15025
293.375	24480
293.432	17107
293.489	13261
293.546	13667
293.604	20954
293.661	46693
293.718	118155
293.775	71258
293.832	36839
293.889	28850
293.947	26909
294.004	22582
294.061	22330
294.118	40545
294.175	79028
294.232	97611
294.289	44861
294.346	24741
294.403	23205
294.460	19902
294.517	17773
294.574	15358
294.631	15709
294.688	21378
294.745	41829
294.802	126216
294.859	149668
294.916	61281
294.973	36045
295.030	32325
295.087	28857
295.144	21462
295.201	17908
295.258	16296
295.315	21171
295.372	49105
295.429	94113
295.486	48530
295.542	31115
295.599	62314
295.656	108623
295.713	75268
295.770	90047
295.827	41002
295.883	23798
295.940	23500
295.997	36660
296.054	37768
296.111	20669
296.167	16075
296.224	14396
296.281	13872
296.338	14237
296.394	14280
296.451	18968
296.508	42290
296.564	81594
296.621	63042
296.678	106046
296.734	159418
296.791	69263
296.848	37756
296.904	39420
296.961	80388
297.018	104298
297.074	81170
297.131	35631
297.187	28940
297.244	36841
297.301	90555
297.357	163886
297.414	67382
297.470	30715
297.527	23390
297.583	20557
297.640	21657
297.696	16917
297.753	15706
297.809	13795
297.866	11705
297.922	12467
297.979	13221
298.035	15248
298.092	25773
298.148	57607
298.204	62100
298.261	35977
298.317	53561
298.374	128248
298.430	83555
298.486	38882
298.543	29933
298.599	25995
298.656	30704
298.712	44823
298.768	93929
298.824	65012
298.881	27817
298.937	18752
298.993	18988
299.050	23689
299.106	22237
299.162	18148
299.218	19427
299.275	16334
299.331	21567
299.387	35377
299.443	106051
299.500	124955
299.556	55555
299.612	29361
299.668	28519
299.724	32818
299.780	37348
299.837	25449
299.893	33341
299.949	90843
300.005	117087
300.061	94915
300.117	153283
300.173	82978
300.229	42161
300.285	48729
300.341	58538
300.397	32385
300.453	22845
300.510	19450
300.566	22778
300.622	26267
300.678	60986
300.734	112573
300.790	95915
300.845	111023
300.901	76933
300.957	101810
301.013	83572
301.069	36193
301.125	27812
301.181	32372
301.237	25023
301.293	18647
301.349	16519
301.405	14140
301.461	16337
301.516	19533
301.572	22159
301.628	38927
301.684	35905
301.740	42703
301.796	70482
301.851	50085
301.907	79463
301.963	85776
302.019	114479
302.074	269394
302.130	287877
302.186	140682
302.242	62658
302.297	43779
302.353	42303
302.409	67243
302.464	63989
302.520	52692
302.576	111508
302.631	130590
302.687	83187
302.743	38273
302.798	24600
302.854	21317
302.910	22139
302.965	27261
303.021	44620
303.076	43411
303.132	53751
303.187	66229
303.243	36111
303.299	21254
303.354	18060
303.410	16220
303.465	16347
303.521	16291
303.576	17840
303.632	22248
303.687	34997
303.743	92888
303.798	88378
303.853	38920
303.909	24730
303.964	23628
304.020	33287
304.075	53031
304.130	45323
304.186	78838
304.241	83018
304.297	65399
304.352	38405
304.358	37094
304.407	26452
304.449	24638
304.463	24039
304.518	26384
304.539	25376
304.573	23750
304.629	23358
304.630	23564
304.684	34278
304.720	60391
304.739	73202
304.794	116422
304.811	100607
304.850	62027
304.902	32904
304.905	31104
304.960	23377
304.992	23083
305.015	22922
305.071	22557
305.083	22234
305.126	20688
305.173	15492
305.181	14724
305.236	15067
305.264	15904
305.292	17005
305.347	22785
305.354	23123
305.402	24738
305.445	24627
305.457	24671
305.512	29140
305.535	30534
305.567	32157
305.622	32484
305.626	33202
305.678	54612
305.716	90664
305.733	101608
305.788	122543
305.807	107653
305.843	84140
305.897	102137
305.898	102243
305.953	105805
305.988	73388
306.008	56488
306.063	40768
306.078	37315
306.118	28960
306.168	21204
306.173	20648
306.228	17071
306.259	16017
306.283	15508
306.338	14834
306.349	15208
306.393	17309
306.440	20007
306.448	20412
306.503	21250
306.530	23397
306.558	33650
306.613	67831
306.620	73178
306.668	100766
306.711	119933
306.723	119334
306.778	93826
306.801	72606
306.833	50087
306.888	27960
306.892	26927
306.943	21266
306.982	19618
306.997	19355
307.052	18573
307.072	18721
307.107	21818
307.162	28499
307.163	28602
307.217	44237
307.253	52989
307.272	53519
307.327	54775
307.343	51650
307.381	44999
307.434	39750
307.436	41068
307.491	79791
307.524	113148
307.546	116699
307.600	110361
307.614	98892
307.655	63421
307.704	34289
307.710	33971
307.765	43965
307.795	52624
307.819	62356
307.874	95237
307.885	97039
307.929	76671
307.975	53163
307.984	54007
308.038	71226
308.065	84891
308.093	140921
308.148	275514
308.156	302327
308.202	432553
308.246	526212
308.257	511122
308.312	308485
308.336	228220
308.366	181076
308.421	122015
308.426	115778
308.475	77188
308.517	53894
308.530	50887
308.585	45034
308.607	43316
308.639	45687
308.694	51134
308.697	51626
308.748	92176
308.787	130669
308.803	127361
308.857	98704
308.877	84451
308.912	76038
308.967	72964
308.967	72867
309.021	100013
309.058	123224
309.076	153680
309.130	257531
309.148	295418
309.185	444476
309.238	676930
309.239	679267
309.293	727948
309.328	703882
309.348	624591
309.402	357790
309.418	287630
309.457	217454
309.508	145061
309.511	144392
309.566	142754
309.598	145437
309.620	171530
309.674	245321
309.688	264755
309.729	256601
309.778	226267
309.783	221557
309.837	159366
309.868	126233
309.892	142049
309.946	188150
309.959	201858
310.001	244453
310.049	283121
310.055	273217
310.109	162831
310.139	100577
310.163	83262
310.218	55421
310.229	50484
310.272	42381
310.319	34349
310.326	33759
310.381	30619
310.409	28968
310.435	28497
310.489	27607
310.499	27515
310.543	29333
310.589	31159
310.598	31208
310.652	31633
310.679	31415
310.706	28073
310.760	21121
310.769	20045
310.814	18722
310.859	17401
310.868	17713
310.923	19425
310.948	20423
310.977	23994
311.031	30880
311.038	31779
311.085	29513
311.128	26580
311.139	26181
311.193	24284
311.218	23306
311.247	21791
311.301	18887
311.308	18516
311.356	20276
311.398	21882
311.410	21480
311.464	19245
311.488	18148
311.518	19078
311.572	21005
311.578	21194
311.626	31507
311.668	40757
311.680	40620
311.734	38817
311.758	38054
311.788	37754
311.842	36987
311.847	36820
311.896	49523
311.937	60541
311.950	59657
312.004	54911
312.027	52579
312.058	43849
312.112	28148
312.117	26526
312.165	24852
312.207	23348
312.297	40781
312.386	30804
312.476	31078
312.566	68751
312.656	32099
312.745	19419
312.835	23516
312.925	29630
313.015	25923
313.104	28566
313.194	19925
313.284	23856
313.374	34683
313.463	29908
313.553	22413
313.643	20286
313.732	17991
313.822	17850
313.912	22402
314.001	28588
314.091	33351
314.180	47591
314.270	39826
314.360	44718
314.449	37764
314.539	22665
314.628	20071
314.718	27756
314.808	35871
314.897	21506
314.987	22382
315.076	32347
315.166	42569
315.255	38392
315.345	40645
315.434	38822
315.524	34049
315.613	43286
315.703	55031
315.792	73868
315.881	184118
315.971	77132
316.060	80715
316.150	113384
316.239	113952
316.328	42196
316.418	23461
316.507	26164
316.597	38969
316.686	33395
316.775	52000
316.865	113402
316.954	27618
317.043	19195
317.133	25285
317.222	21631
317.311	21538
317.400	22942
317.490	36803
317.579	44138
317.668	31813
317.757	51928
317.847	104970
317.936	324440
318.025	156445
318.114	88567
318.203	60226
318.293	79406
318.382	156991
318.471	111083
318.560	140795
318.649	218983
318.738	54078
318.828	47554
318.917	50535
319.006	54938
319.095	133537
319.184	277696
319.273	177793
319.362	103130
319.451	41858
319.540	39311
319.629	91795
319.718	149212
319.807	64588
319.896	107450
319.985	337299
320.074	141818
320.163	47426
320.252	79382
320.341	63792
320.430	58218
320.519	81389
320.608	47083
320.697	37467
320.786	39790
320.875	52582
320.964	70005
321.053	111831
321.142	157820
321.230	162413
321.319	117944
321.408	267434
321.497	108331
321.586	109827
321.675	124871
321.764	119127
321.852	81782
321.941	162455
322.030	106171
322.119	117488
322.207	275046
322.296	178480
322.385	98879
322.474	112613
322.562	329938
322.651	163947
322.740	123442
322.829	168975
322.917	167599
323.006	102849
323.095	87281
323.183	63302
323.272	96834
323.361	148256
323.449	367809
323.538	131297
323.626	281760
323.715	166038
323.804	80216
323.892	273074
323.981	161741
324.069	54508
324.158	146230
324.246	133549
324.335	62802
324.424	100417
324.512	38931
324.601	58208
324.689	127188
324.778	228461
324.866	128539
324.954	38931
325.043	40583
325.131	77657
325.220	122312
325.308	142341
325.397	108180
325.485	64821
325.574	24437
325.662	23789
325.750	31602
325.839	23402
325.927	21066
326.015	36478
326.104	54221
326.192	75060
326.280	25277
326.369	25741
326.457	42483
326.545	79782
326.634	33536
326.722	18656
326.810	22862
326.898	22041
326.987	29423
327.075	77184
327.163	77358
327.251	44762
327.340	94510
327.428	134061
327.516	28089
327.604	27035
327.692	26652
327.781	33377
327.869	59782
327.957	38762
328.045	38344
328.133	18448
328.221	31666
328.309	27422
328.397	22876
328.485	34595
328.574	49338
328.662	167179
328.750	92315
328.838	37855
328.926	23186
329.014	22248
329.102	39598
329.190	100431
329.278	66255
329.366	18429
329.454	17034
329.542	19695
329.630	18928
329.718	20838
329.806	31548
329.893	29858
329.981	32342
330.069	45496
330.157	143037
330.245	364016
330.333	187493
330.421	47037
330.509	57909
330.597	208555
330.684	133629
330.772	48837
330.860	67938
330.948	86535
331.036	38852
331.123	17153
331.211	19412
331.299	31215
331.387	73770
331.475	128624
331.562	41380
331.650	21434
331.738	27706
331.825	38370
331.913	21157
332.001	19158
332.089	31600
332.176	69706
332.264	151626
332.352	116430
332.439	40994
332.527	30960
332.614	25699
332.702	35476
332.790	28762
332.877	75818
332.965	149972
333.052	50677
333.140	53012
333.228	125337
333.315	40968
333.403	33698
333.490	93500
333.578	90564
333.665	149201
333.753	77082
333.840	30732
333.928	36982
334.015	97519
334.103	123913
334.190	320851
334.278	92092
334.365	50035
334.452	36124
334.540	28526
334.627	39740
334.715	58041
334.802	104297
334.889	449285
334.977	389805
335.064	65867
335.151	38393
335.239	36804
335.326	49896
335.413	165098
335.501	204716
335.588	45536
335.675	34526
335.762	46123
335.850	75599
335.937	58856
336.024	127387
336.111	454202
336.199	189673
336.286	48315
336.373	29359
336.460	23743
336.547	23863
336.635	32850
336.722	30741
336.809	26478
336.896	47954
336.983	130295
337.070	273576
337.157	323562
337.245	285849
337.332	191420
337.419	35568
337.506	24761
337.593	33082
337.680	96138
337.767	262113
337.854	89593
337.941	105674
338.028	130548
338.115	48053
338.202	54921
338.289	93899
338.376	304033
338.463	98960
338.550	161566
338.637	155844
338.724	71074
338.811	107216
338.898	27463
338.984	21586
339.071	32043
339.158	38614
339.245	104963
339.332	62710
339.419	79771
339.506	70200
339.593	18289
339.679	21102
339.766	21242
339.853	34232
339.940	74480
340.027	26058
340.113	26368
340.200	40779
340.287	29495
340.374	39841
340.460	66314
340.547	31687
340.634	52813
340.720	177834
340.807	99902
340.894	20390
340.980	25028
341.067	24035
341.154	28184
341.240	44329
341.327	98084
341.414	32833
341.500	37618
341.587	26199
341.674	24109
341.760	67177
341.847	80805
341.933	26034
342.020	13021
342.106	13723
342.193	27934
342.279	53337
342.366	41374
342.452	68614
342.539	39289
342.625	87530
342.712	196696
342.798	84759
342.885	36375
342.971	14051
343.058	13715
343.144	16893
343.230	16978
343.317	20151
343.403	17878
343.490	13659
343.576	14363
343.662	19315
343.749	25761
343.835	33085
343.921	56569
344.008	253992
344.094	510699
344.180	124296
344.267	63198
344.353	167114
344.439	183269
344.525	99774
344.612	39883
344.698	35696
344.784	24824
344.870	18197
344.957	23067
345.043	39354
345.129	31488
345.215	63208
345.301	36546
345.387	23817
345.474	14641
345.560	17875
345.646	25223
345.732	22570
345.818	29531
345.904	25743
345.990	30097
346.076	29079
346.162	58637
346.249	25487
346.335	17762
346.421	21446
346.507	69552
346.593	207235
346.679	56327
346.765	23458
346.851	23524
346.937	25714
347.023	19554
347.108	26741
347.194	23281
347.280	20809
347.366	28984
347.452	76023
347.538	262183
347.624	199931
347.710	169119
347.796	35316
347.882	22394
347.967	19388
348.053	33279
348.139	23750
348.225	19704
348.311	20687
348.397	17498
348.482	26885
348.568	32580
348.654	17246
348.740	24982
348.825	29715
348.911	40729
348.997	131551
349.083	226252
349.168	47077
349.254	25454
349.340	25738
349.425	17121
349.511	32965
349.597	37219
349.682	68639
349.768	175238
349.854	77595
349.939	23252
350.025	18092
350.110	16043
350.196	15152
350.282	13937
350.367	14947
350.453	38854
350.538	40818
350.624	34132
350.709	30409
350.795	19144
350.880	21991
350.966	24664
351.051	39942
351.137	28450
351.222	23740
351.308	66143
351.393	166373
351.479	48518
351.564	22142
351.649	21410
351.735	16222
351.820	14910
351.906	19586
351.991	31959
352.076	113742
352.162	154694
352.247	38086
352.332	30007
352.418	61965
352.503	72256
352.588	255637
352.673	217247
352.759	56701
352.844	30582
352.929	35010
353.014	47504
353.100	30070
353.185	53234
353.270	85905
353.355	79335
353.441	25775
353.526	32570
353.611	75960
353.696	86187
353.781	47886
353.866	25834
353.952	27312
354.037	75975
354.122	164281
354.207	147502
354.292	55527
354.377	25611
354.462	22140
354.547	34637
354.632	30485
354.717	45956
354.802	58665
354.887	24902
354.972	16984
355.057	15543
355.142	16173
355.227	27552
355.312	49681
355.397	113284
355.482	255189
355.567	122375
355.652	87206
355.737	86447
355.822	201775
355.907	152942
355.991	32267
356.076	21909
356.161	18098
356.246	17969
356.331	22208
356.416	53339
356.501	285810
356.585	284687
356.670	60142
356.755	40054
356.840	63522
356.924	252629
357.009	723225
357.094	287179
357.179	89300
357.263	59448
357.348	58001
357.433	60335
357.517	54400
357.602	42389
357.687	34594
357.771	51407
357.856	131142
357.941	86093
358.025	184098
358.110	654489
358.195	322515
358.279	71464
358.364	54103
358.448	180088
358.533	417107
358.617	309399
358.702	282909
358.787	113954
358.871	78875
358.956	64162
359.040	23959
359.125	18860
359.209	22920
359.294	63662
359.378	105514
359.462	65063
359.547	37249
359.631	27504
359.716	20111
359.800	24174
359.885	39005
359.969	29336
360.053	23356
360.138	25965
360.222	42884
360.306	79588
360.391	58877
360.475	94563
360.559	199589
360.644	182750
360.728	128910
360.812	174036
360.896	413467
360.981	230760
361.065	139106
361.149	41596
361.233	42096
361.318	35546
361.402	39121
361.486	33583
361.570	26114
361.654	39382
361.739	97937
361.823	313072
361.907	406726
361.991	92643
362.075	71406
362.159	156351
362.243	108414
362.327	102452
362.411	99399
362.495	63454
362.580	39533
362.664	29162
362.748	30527
362.832	41335
362.916	70204
363.000	174888
363.084	405336
363.168	504409
363.252	150085
363.336	68374
363.420	85674
363.503	235452
363.587	246636
363.671	64675
363.755	56424
363.839	77217
363.923	41390
364.007	85762
364.091	95073
364.175	116777
364.258	359776
364.342	295509
364.426	305349
364.510	173922
364.594	102867
364.677	110473
364.761	373502
364.845	251622
364.929	132053
365.013	110336
365.096	90217
365.180	104999
365.264	103753
365.347	322294
365.431	149174
365.515	58540
365.598	34794
365.682	28136
365.766	57869
365.849	66415
365.933	40810
366.017	47950
366.100	38498
366.184	20761
366.267	24162
366.351	23983
366.435	21026
366.518	17965
366.602	17410
366.685	22944
366.769	29804
366.852	53101
366.936	94973
367.019	55513
367.103	44599
367.186	70842
367.270	26035
367.353	18356
367.436	22048
367.520	21105
367.603	32423
367.687	53792
367.770	93848
367.853	49008
367.937	120983
368.020	184592
368.104	59880
368.187	70582
368.270	94619
368.353	80468
368.437	110659
368.520	229047
368.603	145721
368.687	162422
368.770	269607
368.853	80722
368.936	91796
369.020	85494
369.103	36308
369.186	26222
369.269	31302
369.352	64825
369.436	90883
369.519	57605
369.602	31321
369.685	30002
369.768	37507
369.851	28175
369.934	21642
370.018	35680
370.101	83515
370.184	57719
370.267	43315
370.350	80051
370.433	113661
370.516	212096
370.599	249062
370.682	112170
370.765	189158
370.848	197222
370.931	312118
371.014	127897
371.097	39550
371.180	27280
371.263	17459
371.346	15506
371.429	19082
371.511	23986
371.594	52738
371.677	77791
371.760	80068
371.843	67296
371.926	260594
372.009	532374
372.091	185615
372.174	141011
372.257	264036
372.340	109352
372.423	121075
372.505	133108
372.588	59232
372.671	120303
372.754	318628
372.836	151816
372.919	125962
373.002	224539
373.085	81874
373.167	70697
373.250	162234
373.332	283534
373.415	383592
373.498	726794
373.580	297158
373.663	388683
373.746	473917
373.828	137337
373.911	68257
373.993	73322
374.076	220146
374.159	198898
374.241	106358
374.324	290307
374.406	186564
374.489	224899
374.571	561664
374.654	236253
374.736	135671
374.819	362918
374.901	522214
374.983	503852
375.066	105753
375.148	50975
375.231	173401
375.313	310615
375.395	137318
375.478	37640
375.560	28151
375.643	42344
375.725	131660
375.807	458386
375.890	381035
375.972	206988
376.054	122454
376.136	185160
376.219	81758
376.301	143606
376.383	378829
376.465	153050
376.548	139528
376.630	143603
376.712	331597
376.794	147372
376.877	28345
376.959	21834
377.041	28407
377.123	61657
377.205	68477
377.287	18954
377.369	18422
377.452	24925
377.534	21092
377.616	22044
377.698	22307
377.780	19223
377.862	25484
377.944	23872
378.026	15972
378.108	17653
378.190	18479
378.272	15623
378.354	13246
378.436	16179
378.518	41483
378.600	138185
378.682	107280
378.764	202642
378.846	149821
378.928	59087
379.010	82901
379.091	43412
379.173	23269
379.255	21699
379.337	36112
379.419	107229
379.501	267850
379.583	107946
379.664	40034
379.746	96034
379.828	214501
379.910	269480
379.991	216677
380.073	45492
380.155	37201
380.237	28611
380.318	21090
380.400	25220
380.482	62879
380.564	95048
380.645	93194
380.727	84000
380.809	47831
380.890	37224
380.972	29562
381.053	26347
381.135	33598
381.217	82041
381.298	218477
381.380	113489
381.461	98077
381.543	353445
381.624	404473
381.706	91089
381.787	61141
381.869	64400
381.951	172625
382.032	551239
382.113	363246
382.195	114196
382.276	75034
382.358	145051
382.439	321298
382.521	349106
382.602	507441
382.684	282235
382.765	528868
382.846	692301
382.928	1043190
383.009	608418
383.090	508566
383.172	1392676
383.253	1742220
383.334	703419
383.416	564682
383.497	319829
383.578	246380
383.659	465014
383.741	1266228
383.822	2279139
383.903	1268920
383.984	536678
384.066	658559
384.147	408574
384.228	117354
384.309	99591
384.390	76730
384.471	57166
384.553	62482
384.634	85389
384.715	83143
384.796	47757
384.877	58721
384.958	190883
385.039	228866
385.120	94238
385.201	50228
385.282	66748
385.363	68699
385.444	62759
385.525	97669
385.606	252628
385.687	196462
385.768	70985
385.849	93876
385.930	290083
386.011	430110
386.092	130141
386.173	46432
386.254	37549
386.335	40333
386.416	48552
386.496	138145
386.577	206534
386.658	87704
386.739	65529
386.820	56115
386.901	48598
386.981	42051
387.062	30529
387.143	59493
387.224	202554
387.304	181583
387.385	79878
387.466	59539
387.547	68353
387.627	48314
387.708	83594
387.789	323883
387.869	364228
387.950	100069
388.031	31054
388.111	39464
388.192	88721
388.273	123436
388.353	73106
388.434	43782
388.514	78159
388.595	273059
388.676	355857
388.756	197868
388.837	213133
388.917	128665
388.998	36870
389.078	32676
389.159	30046
389.239	30721
389.320	49535
389.400	48436
389.480	83714
389.561	194244
389.641	91457
389.722	49033
389.802	81050
389.883	92268
389.963	213549
390.043	147516
390.124	65611
390.204	87241
390.284	247120
390.365	156593
390.445	191642
390.525	434765
390.605	363319
390.686	129178
390.766	50203
390.846	30087
390.927	24458
391.007	29681
391.087	34000
391.167	36764
391.247	30480
391.328	51541
391.408	74172
391.488	50243
391.568	25189
391.648	41541
391.728	55141
391.808	52842
391.888	61590
391.969	116486
392.049	176259
392.129	87136
392.209	98924
392.289	211359
392.369	123655
392.449	126494
392.529	85971
392.609	72442
392.689	84613
392.769	217470
392.849	188322
392.929	159444
393.009	333094
393.089	267305
393.169	287401
393.248	772855
393.328	1888789
393.408	1861409
393.488	740967
393.568	271563
393.648	142410
393.728	93415
393.807	68982
393.887	56916
393.967	50879
394.047	57008
394.127	66676
394.206	94564
394.286	273865
394.366	973037
394.446	998114
394.525	282899
394.605	89623
394.685	79679
394.764	168529
394.844	264643
394.924	181176
395.003	68801
395.083	48545
395.163	43098
395.242	41213
395.322	41890
395.402	32278
395.481	42350
395.561	116952
395.640	298394
395.720	232791
395.799	287522
395.879	211533
395.958	134175
396.038	399042
396.117	1247733
396.197	1309021
396.276	497758
396.356	203703
396.435	160277
396.515	115859
396.594	146748
396.673	259446
396.753	751668
396.832	1732951
396.912	1360008
396.991	436575
397.070	145773
397.150	86541
397.229	60257
397.308	74749
397.388	116296
397.467	66100
397.546	34936
397.625	32482
397.705	42434
397.784	47209
397.863	27802
397.942	21021
398.022	25504
398.101	91335
398.180	241626
398.259	132218
398.338	42909
398.417	35814
398.497	27101
398.576	26700
398.655	20922
398.734	17312
398.813	22386
398.892	79842
398.971	247046
399.050	118351
399.129	22199
399.208	15872
399.287	16601
399.366	15543
399.445	16706
399.524	18146
399.603	20650
399.682	43830
399.761	105961
399.840	262492
399.919	183017
399.998	33295
400.077	16600
400.156	15239
400.235	21085
400.313	19414
400.392	30148
400.471	120838
400.550	185710
400.629	54881
400.708	29218
400.786	31270
400.865	76871
400.944	85209
401.023	38066
401.102	12601
401.180	12724
401.259	16938
401.338	23761
401.416	32711
401.495	30325
401.574	22529
401.652	23097
401.731	31207
401.810	29002
401.888	16193
401.967	12224
402.046	18995
402.124	28803
402.203	41588
402.281	23308
402.360	34410
402.438	93416
402.517	67523
402.596	26412
402.674	25758
402.753	18104
402.831	14463
402.910	21237
402.988	78421
403.066	226754
403.145	121798
403.223	77743
403.302	186427
403.380	132722
403.459	135637
403.537	58651
403.615	28293
403.694	11679
403.772	9968
403.850	11490
403.929	11739
404.007	14983
404.085	34324
404.164	41372
404.242	16714
404.320	18116
404.398	32877
404.477	101405
404.555	419292
404.633	337971
404.711	56478
404.789	21261
404.868	21020
404.946	14698
405.024	10164
405.102	11294
405.180	10977
405.258	11314
405.336	12472
405.415	16310
405.493	39854
405.571	34209
405.649	13101
405.727	15701
405.805	24927
405.883	24095
405.961	25644
406.039	34268
406.117	18448
406.195	30949
406.273	118975
406.351	374802
406.429	214374
406.507	50137
406.585	22322
406.663	22852
406.740	32962
406.818	29282
406.896	17034
406.974	16924
407.052	45085
407.130	237135
407.208	302359
407.285	62657
407.363	19166
407.441	18505
407.519	16565
407.596	22746
407.674	50468
407.752	123963
407.830	128876
407.907	61283
407.985	25992
408.063	15104
408.141	13296
408.218	29324
408.296	32007
408.373	24278
408.451	25308
408.529	24846
408.606	12619
408.684	9592
408.762	8546
408.839	7447
408.917	8740
408.994	11472
409.072	13192
409.149	13666
409.227	21987
409.304	27060
409.382	20470
409.459	23316
409.537	30959
409.614	31365
409.692	23688
409.769	25186
409.846	35064
409.924	45504
410.001	40552
410.079	27240
410.156	22237
410.233	22557
410.311	19562
410.388	16100
410.465	21941
410.543	23600
410.620	14461
410.697	19670
410.775	26104
410.852	13220
410.929	23484
411.006	31238
411.083	20291
411.161	49357
411.238	50446
411.315	26463
411.392	14569
411.469	27001
411.547	29544
411.624	17086
411.701	14869
411.778	21538
411.855	50926
411.932	27677
412.009	14169
412.086	14049
412.163	18859
412.240	23706
412.317	28626
412.394	26303
412.471	10923
412.548	11325
412.625	13947
412.702	21972
412.779	43220
412.856	27485
412.933	12069
413.010	10630
413.087	22147
413.164	119201
413.241	159080
413.318	44031
413.395	28953
413.471	47752
413.548	19961
413.625	13414
413.702	22668
413.779	16787
413.855	7171
413.932	8407
414.009	8386
414.086	8622
414.162	10578
414.239	26119
414.316	116561
414.393	232521
414.469	80130
414.546	12942
414.623	9114
414.699	11362
414.776	18031
414.853	11704
414.929	13353
415.006	14712
415.082	19629
415.159	15088
415.236	11817
415.312	14701
415.389	33189
415.465	47624
415.542	24604
415.618	17769
415.695	30104
415.771	20713
415.848	19558
415.924	18037
416.000	14476
416.077	9777
416.153	6590
416.230	5757
416.306	7410
416.383	10132
416.459	9112
416.535	6876
416.612	8548
416.688	9361
416.764	9918
416.841	10003
416.917	12320
416.993	12386
417.069	16980
417.146	23987
417.222	27250
417.298	18226
417.374	12425
417.451	15315
417.527	22376
417.603	25605
417.679	16922
417.755	14095
417.831	9180
417.908	7353
417.984	7998
418.060	10778
418.136	39058
418.212	51868
418.288	18545
418.364	10931
418.440	14569
418.516	24561
418.592	34916
418.668	63952
418.744	93132
418.820	65745
418.896	19019
418.972	9256
419.048	13383
419.124	41045
419.200	34673
419.276	11034
419.352	6364
419.428	7901
419.504	14480
419.579	21093
419.655	15430
419.731	17986
419.807	59662
419.883	110454
419.959	70084
420.034	21683
420.110	40658
420.186	147544
420.262	105232
420.337	24703
420.413	22136
420.489	12563
420.565	10444
420.640	10798
420.716	12583
420.792	9680
420.867	12212
420.943	13231
421.019	29116
421.094	24612
421.170	12679
421.245	9777
421.321	12502
421.397	15298
421.472	25990
421.548	64174
421.623	47477
421.699	23705
421.774	24153
421.850	23032
421.925	40682
422.001	36495
422.076	28231
422.152	35217
422.227	57020
422.302	61832
422.378	88227
422.453	158772
422.529	353929
422.604	796460
422.679	996111
422.755	787156
422.830	360019
422.905	152235
422.981	87029
423.056	58579
423.131	42096
423.207	35298
423.282	38996
423.357	67151
423.432	45870
423.508	44153
423.583	97804
423.658	68658
423.733	27124
423.808	31613
423.883	35610
423.959	30959
424.034	23753
424.109	17796
424.184	13540
424.259	11541
424.334	11068
424.409	10479
424.484	12262
424.559	16262
424.634	14226
424.709	23190
424.784	27132
424.859	18535
424.934	31654
425.009	118665
425.084	178045
425.159	62285
425.234	14210
425.309	9490
425.384	29950
425.459	49565
425.534	18647
425.609	14449
425.683	11431
425.758	10476
425.833	12908
425.908	19926
425.983	77833
426.058	198743
426.132	85522
426.207	22078
426.282	30554
426.357	29166
426.431	11021
426.506	10459
426.581	13575
426.655	12495
426.730	10589
426.805	12703
426.879	13306
426.954	13993
427.029	35660
427.103	163511
427.178	332820
427.253	134151
427.327	24403
427.402	33323
427.476	70912
427.551	32845
427.625	17838
427.700	17277
427.774	13181
427.849	16369
427.923	11836
427.998	12126
428.072	16068
428.147	36739
428.221	133096
428.296	310500
428.370	142597
428.444	30988
428.519	41254
428.593	75678
428.667	60350
428.742	75173
428.816	72676
428.890	223357
428.965	305553
429.039	110343
429.113	85832
429.188	32430
429.262	13542
429.336	30839
429.410	91001
429.485	56943
429.559	62844
429.633	46567
429.707	20104
429.781	55413
429.855	262803
429.930	358444
430.004	209071
430.078	298304
430.152	249521
430.226	378031
430.300	330819
430.374	62877
430.448	31079
430.522	101081
430.596	257493
430.670	155239
430.744	343750
430.818	436089
430.892	93698
430.966	24039
431.040	13794
431.114	9661
431.188	9866
431.262	10390
431.336	12004
431.410	35837
431.484	96919
431.557	57594
431.631	13443
431.705	15869
431.779	67352
431.853	255604
431.927	161672
432.000	24060
432.074	11923
432.148	18142
432.222	16359
432.295	8684
432.369	10254
432.443	24082
432.516	139362
432.590	305837
432.664	109958
432.737	20061
432.811	7444
432.885	6100
432.958	5572
433.032	6627
433.106	4784
433.179	4820
433.253	6185
433.326	5894
433.400	4353
433.473	5383
433.547	4356
433.620	8610
433.694	24100
433.767	21476
433.841	10128
433.914	6557
433.988	5607
434.061	7985
434.134	7557
434.208	4669
434.281	4179
434.355	6317
434.428	8006
434.501	5970
434.575	6852
434.648	8263
434.721	5507
434.795	5280
434.868	4941
434.941	4886
435.014	4604
435.088	7652
435.161	13113
435.234	24991
435.307	30656
435.381	15134
435.454	13621
435.527	15685
435.600	15722
435.673	12459
435.746	10309
435.819	9764
435.892	8833
435.966	7588
436.039	8738
436.112	8299
436.185	5100
436.258	3933
436.331	3866
436.404	4780
436.477	3803
436.550	4275
436.623	4739
436.696	5813
436.769	8892
436.842	8253
436.915	10765
436.987	17301
437.060	8545
437.133	5369
437.206	5261
437.279	6630
437.352	5849
437.425	6516
437.498	9591
437.570	23065
437.643	21167
437.716	6468
437.789	5851
437.861	23787
437.934	62658
438.007	26868
438.080	8363
438.152	10181
438.225	25800
438.298	163446
438.370	388852
438.443	162520
438.516	53471
438.588	13507
438.661	6919
438.734	7340
438.806	12521
438.879	12895
438.951	19401
439.024	32009
439.096	12614
439.169	6676
439.241	5580
439.314	6905
439.386	15925
439.459	25274
439.531	38329
439.604	14351
439.676	5453
439.749	5111
439.821	3611
439.893	4757
439.966	7320
440.038	12954
440.110	13374
440.183	7977
440.255	6620
440.327	15809
440.400	78889
440.472	279602
440.544	158464
440.617	26804
440.689	23434
440.761	32985
440.833	51182
440.905	31071
440.978	6992
441.050	4994
441.122	5335
441.194	5254
441.266	6158
441.338	7328
441.411	18165
441.483	107722
441.555	139390
441.627	31061
441.699	23090
441.771	22711
441.843	9023
441.915	5779
441.987	6239
442.059	7016
442.131	13046
442.203	20799
442.275	25323
442.347	21691
442.419	32049
442.491	142121
442.563	299484
442.635	126670
442.706	93469
442.778	62460
442.850	16053
442.922	10301
442.994	14970
443.066	23934
443.137	17197
443.209	15998
443.281	24829
443.353	54213
443.425	189011
443.496	536979
443.568	477605
443.640	170205
443.711	41746
443.783	20672
443.855	13336
443.926	9499
443.998	12241
444.070	17192
444.141	16044
444.213	24803
444.285	28357
444.356	26806
444.428	20498
444.499	10808
444.571	6271
444.642	7891
444.714	11847
444.785	22188
444.857	29248
444.928	64308
445.000	34620
445.071	46058
445.143	50009
445.214	32658
445.285	57784
445.357	153885
445.428	397816
445.500	732635
445.571	474496
445.642	244302
445.714	114300
445.785	101156
445.856	33024
445.928	33476
445.999	27330
446.070	21085
446.141	21926
446.213	25359
446.284	15086
446.355	16943
446.426	11002
446.497	10889
446.569	24007
446.640	34630
446.711	23524
446.782	9550
446.853	16547
446.924	17478
446.995	13463
447.066	13379
447.138	24608
447.209	11382
447.280	4308
447.351	4270
447.422	5417
447.493	11980
447.564	16899
447.635	22971
447.706	9453
447.777	4669
447.847	4786
447.918	5167
447.989	13520
448.060	18747
448.131	44089
448.202	35272
448.273	24852
448.344	10993
448.414	7638
448.485	6644
448.556	4998
448.627	4238
448.698	4349
448.768	4915
448.839	8444
448.910	22764
448.981	17824
449.051	8414
449.122	4776
449.193	3944
449.263	5564
449.334	5414
449.405	11090
449.475	31340
449.546	19524
449.616	25799
449.687	18249
449.758	7460
449.828	5876
449.899	5198
449.969	4815
450.040	5386
450.110	10182
450.181	12416
450.251	6048
450.322	4367
450.392	7087
450.463	5923
450.533	4952
450.604	5670
450.674	5939
450.744	6240
450.815	5585
450.885	5544
450.955	5209
451.026	5570
451.096	6729
451.166	9161
451.237	27822
451.307	59876
451.377	19430
451.447	7065
451.518	5386
451.588	5620
451.658	6627
451.728	16045
451.799	66349
451.869	62145
451.939	13872
452.009	6669
452.079	5442
452.149	7395
452.219	20321
452.289	75284
452.360	43664
452.430	10299
452.500	11604
452.570	14207
452.640	20558
452.710	59206
452.780	76239
452.850	55579
452.920	51126
452.990	16317
453.060	11999
453.129	19706
453.199	22637
453.269	78811
453.339	137641
453.409	196528
453.479	232750
453.549	324224
453.619	339110
453.688	107939
453.758	19611
453.828	10176
453.898	8734
453.968	7886
454.037	6071
454.087	6851
454.107	7145
454.168	5721
454.177	5482
454.247	5504
454.249	5523
454.316	5295
454.330	6342
454.386	10070
454.411	20846
454.456	38105
454.492	42830
454.525	47070
454.574	23332
454.595	13114
454.655	7649
454.665	6879
454.734	10224
454.736	10674
454.804	23737
454.817	32430
454.873	65518
454.898	65705
454.943	64957
454.979	43701
455.013	25166
455.060	14985
455.082	11428
455.141	15976
455.152	16152
455.221	47954
455.222	48495
455.291	73998
455.303	65339
455.360	26863
455.384	25475
455.430	25297
455.465	28845
455.499	30510
455.546	51213
455.569	59379
455.627	35337
455.638	31265
455.707	8628
455.708	8651
455.777	7265
455.789	7267
455.846	7121
455.869	6834
455.916	6335
455.950	7013
455.985	7435
456.031	7450
456.054	7350
456.112	6447
456.124	6355
456.193	5615
456.193	5577
456.262	8252
456.274	8975
456.332	11207
456.355	12222
456.401	13535
456.436	11032
456.470	8546
456.516	6448
456.540	5646
456.597	5276
456.609	5149
456.678	5814
456.678	5792
456.747	4800
456.759	4678
456.817	4447
456.840	4864
456.886	5288
456.920	5249
456.955	5570
457.001	6454
457.024	7270
457.082	10620
457.093	11094
457.162	15510
457.163	15575
457.232	19040
457.243	17805
457.301	10643
457.324	8597
457.370	6194
457.405	6241
457.439	6405
457.485	6939
457.508	7288
457.566	8777
457.577	9109
457.646	10389
457.647	10456
457.715	17356
457.727	18824
457.784	27037
457.808	33748
457.853	43404
457.889	50115
457.922	50739
457.969	36237
457.991	35534
458.050	43231
458.060	44237
458.129	69010
458.130	69714
458.198	75668
458.211	69134
458.267	38908
458.292	28216
458.336	18760
458.372	17993
458.405	22529
458.453	31316
458.474	38601
458.533	68133
458.543	70838
458.611	117532
458.614	118025
458.680	80602
458.694	66403
458.749	31321
458.775	23017
458.818	15027
458.855	12525
458.887	11098
458.936	10313
458.955	10044
459.016	10191
459.024	10213
459.093	10721
459.097	10701
459.162	10940
459.177	11569
459.230	14223
459.257	15561
459.299	16540
459.338	16001
459.368	15710
459.418	18131
459.437	17726
459.499	12826
459.505	12618
459.574	11008
459.579	10893
459.643	9036
459.659	8796
459.711	9419
459.740	10252
459.780	11541
459.820	12640
459.849	12868
459.900	13663
459.917	13813
459.981	13790
459.986	13725
460.054	12032
460.061	11952
460.123	13081
460.141	13535
460.191	16875
460.222	19370
460.260	21351
460.302	24922
460.328	23650
460.382	16397
460.397	15593
460.462	13129
460.465	13237
460.534	18204
460.543	18797
460.602	42002
460.623	51355
460.671	74351
460.703	98004
460.739	96140
460.783	78818
460.808	64804
460.864	18728
460.876	15197
460.944	12027
460.945	11986
461.013	12015
461.024	11941
461.081	12444
461.104	13340
461.150	13392
461.184	12622
461.218	12138
461.264	10970
461.286	10998
461.345	11961
461.355	11890
461.423	11742
461.425	11714
461.491	12645
461.505	13132
461.559	25458
461.585	31344
461.628	50050
461.665	69598
461.696	79040
461.745	103051
461.764	93231
461.825	29047
461.832	26780
461.901	15244
461.905	15044
461.969	14862
461.985	14514
462.037	13009
462.065	12331
462.105	14382
462.145	16830
462.173	24611
462.225	39737
462.241	43435
462.305	64075
462.310	62766
462.378	37815
462.385	33675
462.446	17571
462.465	14731
462.514	14348
462.545	14758
462.582	14381
462.625	13757
462.650	13368
462.705	12497
462.718	12973
462.785	15456
462.786	15592
462.854	23541
462.865	25133
462.922	32367
462.945	35281
462.990	26680
463.025	17187
463.058	14443
463.104	12079
463.126	11991
463.184	12631
463.194	12783
463.262	14108
463.264	14154
463.330	15073
463.344	15113
463.398	16048
463.424	16623
463.466	17394
463.504	18369
463.533	18310
463.583	17486
463.601	18239
463.663	20839
463.669	21377
463.737	28261
463.743	28948
463.805	45984
463.823	50585
463.873	72896
463.903	88099
463.940	95661
463.982	106008
464.008	87157
464.062	35857
464.076	31964
464.142	15075
464.144	14941
464.211	14082
464.221	14048
464.279	15590
464.301	16328
464.347	19103
464.381	21044
464.414	23112
464.461	25749
464.482	26795
464.540	30726
464.550	29784
464.617	20951
464.620	20630
464.685	22563
464.699	23101
464.753	25122
464.779	26160
464.820	26851
464.859	27149
464.888	27832
464.938	29162
464.956	29770
465.018	32316
465.023	31763
465.091	22988
465.098	22070
465.158	21542
465.177	21484
465.226	21797
465.257	21931
465.293	24011
465.336	26255
465.361	28387
465.416	33224
465.428	35960
465.495	51285
465.496	51557
465.563	82080
465.575	87566
465.631	108305
465.654	117519
465.698	74877
465.734	35756
465.765	29229
465.813	20999
465.833	20568
465.893	20609
465.900	20766
465.968	21768
465.972	21818
466.035	21246
466.052	21019
466.102	22551
466.131	23371
466.170	23148
466.210	22863
466.237	23514
466.290	24702
466.304	25121
466.369	26715
466.372	26810
466.439	28456
466.449	28617
466.506	32306
466.528	33712
466.573	47373
466.607	57478
466.641	86658
466.687	127190
466.708	140812
466.766	178999
466.775	166151
466.842	65843
466.845	60966
466.909	40967
466.925	36454
466.977	34172
467.004	32957
467.044	33427
467.083	33855
467.111	35453
467.163	38257
467.178	39135
467.242	42487
467.245	42491
467.312	40977
467.321	40706
467.379	39784
467.400	39331
467.446	42341
467.480	44380
467.559	39831
467.638	32849
467.717	34821
467.796	40381
467.875	44783
467.955	41217
468.034	61581
468.113	144786
468.192	209203
468.271	62899
468.350	35604
468.429	40589
468.508	40652
468.588	34553
468.667	33428
468.746	37223
468.825	35189
468.904	29024
468.983	36294
469.062	59701
469.141	74311
469.220	32672
469.299	28238
469.378	31713
469.456	33105
469.535	31562
469.614	30978
469.693	34914
469.772	47966
469.851	64373
469.930	48758
470.009	31100
470.088	31748
470.166	40096
470.245	58617
470.324	73295
470.403	55247
470.482	39033
470.560	32708
470.639	35756
470.718	42079
470.797	34404
470.875	38621
470.954	56904
471.033	63281
471.111	27368
471.190	24487
471.269	23080
471.347	24315
471.426	27267
471.505	30256
471.583	31737
471.662	29826
471.740	26480
471.819	26555
471.898	24928
471.976	24963
472.055	24665
472.133	30605
472.212	41998
472.290	45471
472.369	30449
472.447	23900
472.526	22474
472.604	25445
472.683	26943
472.761	31693
472.839	29119
472.918	27229
472.996	27585
473.075	33371
473.153	32656
473.231	26744
473.310	33060
473.388	33789
473.466	28672
473.545	33346
473.623	47578
473.701	49175
473.780	28404
473.858	26409
473.936	31727
474.014	27448
474.093	31990
474.171	49926
474.249	68539
474.327	51252
474.405	24395
474.484	24279
474.562	25658
474.640	26566
474.718	28390
474.796	29884
474.874	25273
474.952	23303
475.030	24975
475.108	26573
475.187	29978
475.265	33688
475.343	47683
475.421	53647
475.499	29398
475.577	27935
475.655	38144
475.733	85418
475.811	152283
475.889	136321
475.966	101481
476.044	29742
476.122	37931
476.200	48282
476.278	41070
476.356	26103
476.434	29471
476.512	36202
476.590	48727
476.667	43709
476.745	27033
476.823	28588
476.901	28749
476.979	28825
477.056	28284
477.134	29659
477.212	29702
477.290	27974
477.367	24529
477.445	24584
477.523	24190
477.601	25289
477.678	25985
477.756	33585
477.834	39086
477.911	25297
477.989	25814
478.066	25474
478.144	31409
478.222	37232
478.299	56838
478.377	56832
478.454	26225
478.532	23349
478.609	27548
478.687	30566
478.764	23998
478.842	27562
478.919	32491
478.997	31224
479.074	24240
479.152	31378
479.229	40996
479.307	29714
479.384	20809
479.461	21943
479.539	24587
479.616	31956
479.694	27673
479.771	28216
479.848	32510
479.926	44764
480.003	51996
480.080	25389
480.157	22327
480.235	24367
480.312	24538
480.389	28013
480.467	50689
480.544	66056
480.621	35505
480.698	31076
480.775	35316
480.853	35427
480.930	27926
481.007	28700
481.084	33481
481.161	35915
481.238	35555
481.315	25143
481.392	23084
481.470	25963
481.547	28272
481.624	25635
481.701	24944
481.778	27359
481.855	30661
481.932	49827
482.009	84227
482.086	68770
482.163	29970
482.240	43192
482.317	74102
482.393	66801
482.470	31092
482.547	28832
482.624	27192
482.701	29176
482.778	29166
482.855	22843
482.932	22967
483.009	23338
483.085	28301
483.162	36726
483.239	35559
483.316	25689
483.393	26899
483.469	26719
483.546	32132
483.623	35289
483.699	25728
483.776	27065
483.853	32537
483.930	46023
484.006	129456
484.083	217369
484.160	101632
484.236	96584
484.313	80497
484.389	63578
484.466	57618
484.543	53911
484.619	57193
484.696	60268
484.772	65192
484.849	70305
484.925	55505
485.002	51964
485.078	58367
485.155	61746
485.231	50793
485.308	49004
485.384	52199
485.461	65935
485.537	126114
485.614	165775
485.690	60971
485.766	49536
485.843	55239
485.919	85084
485.995	98220
486.072	49518
486.148	45330
486.224	45466
486.301	49197
486.377	62556
486.453	66173
486.530	58050
486.606	62995
486.682	74650
486.758	104832
486.835	131437
486.911	100469
486.987	164031
487.063	205459
487.139	250162
487.215	174672
487.292	77892
487.368	56114
487.444	64848
487.520	85244
487.596	83373
487.672	103906
487.748	264489
487.824	420514
487.900	189866
487.976	77585
488.052	72790
488.128	91609
488.204	75683
488.280	55137
488.356	67041
488.432	151590
488.508	250440
488.584	95863
488.660	53445
488.736	51290
488.812	54341
488.888	71065
488.964	95855
489.039	229258
489.115	385772
489.191	254290
489.267	60055
489.343	51902
489.418	42319
489.494	40233
489.570	38624
489.646	42860
489.722	41040
489.797	45031
489.873	72848
489.949	176321
490.024	176448
490.100	47297
490.176	42593
490.251	57748
490.327	80441
490.403	51376
490.478	39268
490.554	32578
490.629	35005
490.705	35103
490.781	39187
490.856	41377
490.932	48617
491.007	50606
491.083	45675
491.158	41784
491.234	56852
491.309	134147
491.385	161857
491.460	49865
491.536	47980
491.611	42675
491.686	46933
491.762	67453
491.837	151500
491.913	271124
491.988	371894
492.063	507439
492.139	157572
492.214	80945
492.289	36347
492.365	35913
492.440	44221
492.515	46708
492.590	44270
492.666	35377
492.741	49924
492.816	81955
492.891	51716
492.967	31760
493.042	29297
493.117	29465
493.192	28837
493.267	35202
493.342	53078
493.418	60669
493.493	32525
493.568	28271
493.643	30007
493.718	41669
493.793	71762
493.868	87921
493.943	56126
494.018	37289
494.093	33058
494.168	33039
494.243	29131
494.318	27316
494.393	27028
494.468	27657
494.543	28303
494.618	37098
494.693	34010
494.768	29901
494.842	33463
494.917	28065
494.992	30837
495.067	30048
495.142	27507
495.217	31683
495.292	34208
495.366	40216
495.441	50985
495.516	63686
495.591	89219
495.665	321559
495.740	812153
495.815	441609
495.890	67140
495.964	45912
496.039	43677
496.114	42584
496.188	45869
496.263	46936
496.338	41139
496.412	45950
496.487	56191
496.561	59879
496.636	66006
496.710	46803
496.785	53242
496.860	62540
496.934	50822
497.009	48729
497.083	48166
497.158	49500
497.232	60473
497.307	75154
497.381	62051
497.455	71208
497.530	96619
497.604	69797
497.679	69244
497.753	107122
497.827	148515
497.902	126413
497.976	130729
498.050	262593
498.125	986191
498.199	1204892
498.273	238668
498.348	156018
498.422	122297
498.496	113210
498.570	106639
498.645	78353
498.719	74296
498.793	86300
498.867	128662
498.941	171658
499.016	412807
499.090	1140213
499.164	554865
499.238	68340
499.312	54772
499.386	68093
499.460	66258
499.534	57827
499.609	70433
499.683	103346
499.757	99888
499.831	179467
499.905	740723
499.979	863739
500.053	152999
500.127	145646
500.201	105871
500.275	65542
500.349	57548
500.422	64511
500.496	94367
500.570	198252
500.644	468323
500.718	878723
500.792	276009
500.866	59563
500.940	73121
501.013	66946
501.087	61798
501.161	109245
501.235	149144
501.309	262930
501.382	759601
501.456	806886
501.530	180451
501.603	272531
501.677	140224
501.751	46347
501.825	53836
501.898	101189
501.972	314894
502.046	260490
502.119	62051
502.193	135678
502.266	353354
502.340	222246
502.413	146201
502.487	322210
502.561	212848
502.634	76027
502.708	48673
502.781	44584
502.855	36660
502.928	31946
503.002	32910
503.075	32148
503.149	36573
503.222	37766
503.295	41538
503.369	50370
503.442	66873
503.516	219517
503.589	629485
503.662	496504
503.736	141068
503.809	277168
503.882	281784
503.956	312347
504.029	358791
504.102	207916
504.175	261554
504.249	117646
504.322	66627
504.395	59538
504.468	39405
504.542	39719
504.615	30288
504.688	28370
504.761	28919
504.834	38034
504.907	50288
504.980	85643
505.053	49647
505.127	54177
505.200	65357
505.273	58023
505.346	41793
505.419	29985
505.492	27934
505.565	21811
505.638	22347
505.711	23992
505.784	23357
505.857	23449
505.930	26299
506.003	25266
506.076	29537
506.149	39894
506.221	56936
506.294	46043
506.367	112588
506.440	414460
506.513	301906
506.586	61926
506.659	39201
506.731	29717
506.804	36558
506.877	60954
506.950	44052
507.022	26896
507.095	38383
507.168	52382
507.241	32908
507.313	25134
507.386	31014
507.459	46556
507.531	32799
507.604	25387
507.677	24626
507.749	21993
507.822	32012
507.894	61286
507.967	70510
508.040	37796
508.112	30801
508.185	30682
508.257	32759
508.330	52415
508.402	35392
508.475	31671
508.547	33921
508.620	34682
508.692	58329
508.765	41170
508.837	24598
508.909	24451
508.982	25574
509.054	31382
509.127	27319
509.199	23719
509.271	21766
509.344	22434
509.416	21807
509.488	23576
509.560	24487
509.633	28422
509.705	35639
509.777	32390
509.849	49937
509.922	38024
509.994	23234
510.066	23650
510.138	26198
510.210	43014
510.283	41540
510.355	36637
510.427	32888
510.499	33830
510.571	36170
510.643	32418
510.715	57566
510.787	61797
510.859	34282
510.931	42789
511.003	59768
511.076	58316
511.148	29003
511.219	29501
511.291	50037
511.363	74227
511.435	31835
511.507	23449
511.579	26388
511.651	25977
511.723	25464
511.795	25480
511.867	26838
511.939	35369
512.010	82966
512.082	82458
512.154	32619
512.226	31982
512.298	40794
512.369	64993
512.441	51408
512.513	52283
512.585	41513
512.656	40166
512.728	47724
512.800	35133
512.871	31941
512.943	32964
513.015	28016
513.086	31076
513.158	37507
513.230	39520
513.301	61981
513.373	76258
513.444	43741
513.516	31401
513.588	32386
513.659	36568
513.731	48676
513.802	46122
513.874	90622
513.945	191578
514.016	77576
514.088	33917
514.159	37914
514.231	52054
514.302	65785
514.374	44210
514.445	42591
514.516	90246
514.588	84675
514.659	44185
514.730	86681
514.802	76160
514.873	50685
514.944	48493
515.016	44163
515.087	52338
515.158	64296
515.229	97641
515.301	55251
515.372	61008
515.443	44750
515.514	37852
515.585	31424
515.656	31697
515.728	30738
515.799	30552
515.870	34776
515.941	36530
516.012	36201
516.083	44461
516.154	53683
516.225	74582
516.296	74849
516.367	66539
516.438	74726
516.509	96020
516.580	132965
516.651	388777
516.722	1499691
516.793	945360
516.864	164157
516.935	138784
517.006	142629
517.077	189881
517.148	415218
517.219	1400993
517.289	2632150
517.360	891068
517.431	298719
517.502	81110
517.573	66489
517.643	61141
517.714	64863
517.785	67831
517.856	74960
517.926	89536
517.997	106500
518.068	134859
518.138	172104
518.209	254173
518.280	876285
518.350	3212789
518.421	1834986
518.492	258931
518.562	122095
518.633	103556
518.703	95210
518.774	135954
518.845	287319
518.915	317850
518.986	137258
519.056	98056
519.127	154619
519.197	237994
519.268	510663
519.338	395200
519.408	93245
519.479	108841
519.549	87331
519.620	51227
519.690	40386
519.760	38709
519.831	41568
519.901	45815
519.971	34763
520.042	40080
520.112	49246
520.182	55680
520.253	65303
520.323	41915
520.393	47471
520.463	69786
520.534	52700
520.604	97777
520.674	61617
520.744	56034
520.814	106457
520.885	119069
520.955	138939
521.025	545946
521.095	302101
521.165	48476
521.235	43329
521.305	37242
521.375	33993
521.445	39435
521.515	56038
521.585	66702
521.655	71101
521.725	51505
521.795	49037
521.865	35525
521.935	53245
522.005	56621
522.075	33511
522.145	36078
522.215	42493
522.285	65104
522.355	85616
522.424	170092
522.494	170575
522.564	81279
522.634	130666
522.704	430325
522.774	222713
522.843	47157
522.913	42265
522.983	56300
523.053	46646
523.122	41751
523.192	58310
523.262	217943
523.331	282227
523.401	57056
523.471	32114
523.540	33634
523.610	27774
523.680	25731
523.749	28546
523.819	37679
523.888	43874
523.958	28161
524.027	30111
524.097	34305
524.166	30898
524.236	37036
524.305	36714
524.375	30439
524.444	27338
524.514	30927
524.583	31591
524.653	42988
524.722	50058
524.791	36733
524.861	30692
524.930	28316
524.999	32155
525.069	50711
525.138	40866
525.207	50777
525.277	35662
525.346	35715
525.415	33143
525.484	34075
525.554	43174
525.623	45329
525.692	36959
525.761	42285
525.830	43909
525.900	51531
525.969	73908
526.038	112313
526.107	189562
526.176	573930
526.245	570177
526.314	205036
526.383	305638
526.452	457754
526.522	641490
526.591	843421
526.660	320306
526.729	158566
526.797	128413
526.867	244323
526.935	1043756
527.004	1724099
527.073	1113947
527.142	140298
527.211	59608
527.280	54379
527.349	59662
527.418	33192
527.487	29571
527.555	28528
527.624	26771
527.693	24226
527.762	27174
527.831	25892
527.899	26046
527.968	27391
528.037	27958
528.106	37051
528.174	73072
528.243	64978
528.312	80842
528.380	132739
528.449	45962
528.518	27204
528.586	20660
528.655	22406
528.723	22891
528.792	22890
528.861	27318
528.929	24872
528.998	22598
529.066	21668
529.135	21299
529.203	22281
529.272	23270
529.340	25085
529.409	26582
529.477	25013
529.545	35352
529.614	41089
529.682	40129
529.751	55956
529.819	46927
529.887	40813
529.956	27344
530.024	29814
530.092	24663
530.161	31662
530.229	58877
530.297	39158
530.365	25620
530.434	23029
530.502	23302
530.570	23446
530.638	22557
530.707	26827
530.775	30452
530.843	23720
530.911	23505
530.979	23253
531.047	23097
531.115	25181
531.183	23586
531.252	24408
531.320	25224
531.388	25000
531.456	25436
531.524	23467
531.592	26636
531.660	29304
531.728	26375
531.796	25487
531.864	25502
531.932	26374
532.000	29130
532.067	29656
532.135	33508
532.203	37621
532.271	38756
532.339	64221
532.407	193282
532.475	146115
532.542	54967
532.610	55810
532.678	71251
532.746	263987
532.814	827339
532.881	272866
532.949	48214
533.017	34715
533.084	29656
533.152	27596
533.220	28126
533.287	36493
533.355	29818
533.423	26555
533.490	26139
533.558	27994
533.625	28794
533.693	31313
533.761	30954
533.828	32725
533.896	32225
533.963	61001
534.031	86090
534.098	118806
534.166	66070
534.233	30070
534.300	30121
534.368	30077
534.435	30799
534.503	31744
534.570	34362
534.637	35438
534.705	37643
534.772	42355
534.840	62346
534.907	247365
534.974	418162
535.041	77558
535.109	48667
535.176	35626
535.243	27832
535.310	30593
535.378	31150
535.445	25343
535.512	24113
535.579	26547
535.646	26679
535.714	27218
535.781	30895
535.848	30873
535.915	30197
535.982	28829
536.049	29547
536.116	32157
536.183	30117
536.250	31357
536.317	34444
536.384	39816
536.451	61353
536.518	68384
536.585	50588
536.652	55386
536.719	84040
536.786	76284
536.853	53816
536.920	73265
536.987	124236
537.053	113487
537.120	385930
537.187	432165
537.254	55800
537.321	35368
537.388	36105
537.454	29210
537.521	28574
537.588	28964
537.654	32432
537.721	35892
537.788	37061
537.855	30343
537.921	32604
537.988	34476
538.055	32706
538.121	33467
538.188	37122
538.254	57958
538.321	126940
538.388	86845
538.454	39364
538.521	35479
538.587	30041
538.654	30227
538.720	28659
538.787	29630
538.853	32020
538.920	45106
538.986	48408
539.053	39775
539.119	38316
539.185	38844
539.252	42617
539.318	75661
539.385	55784
539.451	45957
539.517	44231
539.583	48051
539.650	111106
539.716	348162
539.782	123583
539.849	41941
539.915	37346
539.981	40213
540.047	50330
540.114	46279
540.180	44278
540.246	45885
540.312	60869
540.378	122707
540.444	133222
540.510	120221
540.576	376598
540.643	155746
540.709	41714
540.775	37585
540.841	36242
540.907	46078
540.973	74470
541.039	66957
541.105	78005
541.171	45183
541.237	37756
541.303	39409
541.369	43950
541.435	59458
541.500	110845
541.566	80095
541.632	38253
541.698	32789
541.764	33650
541.830	32187
541.896	32589
541.961	34862
542.027	36549
542.093	37150
542.159	38011
542.224	43507
542.290	60846
542.356	105072
542.421	135635
542.487	62157
542.553	41975
542.618	45725
542.684	42551
542.750	41422
542.815	47791
542.881	81522
542.947	309636
543.012	283819
543.078	46653
543.143	37568
543.209	39137
543.274	42714
543.340	45500
543.405	107700
543.471	223266
543.536	58037
543.602	36419
543.667	35112
543.732	33558
543.798	31233
543.863	33842
543.928	31401
543.994	29931
544.059	32258
544.124	32056
544.190	33289
544.255	35470
544.320	37101
544.386	40892
544.451	55806
544.516	68149
544.581	63730
544.646	178560
544.712	355293
544.777	79118
544.842	48235
544.907	51496
544.972	44519
545.037	41391
545.102	45408
545.168	46029
545.233	49640
545.298	51272
545.363	60997
545.428	66704
545.493	109510
545.558	278829
545.623	138122
545.688	52316
545.753	45353
545.818	43999
545.883	45738
545.947	44636
546.012	49220
546.077	54754
546.142	49986
546.207	51308
546.272	68557
546.337	74955
546.401	56571
546.466	51948
546.531	50016
546.596	53754
546.661	57365
546.725	53180
546.790	49682
546.855	52150
546.919	53798
546.984	58348
547.049	64218
547.113	75142
547.178	72614
547.243	79073
547.307	89668
547.372	102613
547.436	115439
547.501	92630
547.565	97360
547.630	110546
547.695	112153
547.759	113057
547.823	108015
547.888	89611
547.952	88969
548.017	92175
548.081	105545
548.146	126710
548.210	122752
548.274	101291
548.339	97794
548.403	90900
548.468	84858
548.532	85366
548.596	87128
548.660	89797
548.725	96910
548.789	116687
548.853	118218
548.917	101346
548.982	120827
549.046	126571
549.110	84731
549.174	81241
549.238	90123
549.303	93958
549.367	98026
549.431	94546
549.495	90522
549.559	89649
549.623	99181
549.687	116476
549.751	145928
549.815	135974
549.879	126759
549.943	118786
550.007	127236
550.071	129263
550.135	140368
550.199	126733
550.263	111761
550.327	112898
550.391	141892
550.455	127643
550.519	122261
550.582	130672
550.646	168532
550.710	180799
550.774	144107
550.838	144223
550.901	147528
550.965	156767
551.029	165139
551.093	181620
551.156	213129
551.220	315159
551.284	390023
551.347	231378
551.411	300402
551.475	368248
551.538	172596
551.602	144363
551.666	135342
551.729	125568
551.793	121069
551.856	120870
551.920	117685
551.983	117438
552.047	118935
552.110	116794
552.174	118765
552.237	120855
552.301	115177
552.364	108386
552.428	108526
552.491	111960
552.554	116996
552.618	118196
552.681	124969
552.745	129537
552.808	174599
552.871	243207
552.934	179368
552.998	134177
553.061	123858
553.124	115308
553.187	108764
553.251	113062
553.314	113103
553.377	110677
553.440	117261
553.503	131655
553.567	144373
553.630	119330
553.693	114159
553.756	116049
553.819	111553
553.882	108819
553.945	108274
554.008	107690
554.071	108601
554.134	108653
554.197	104813
554.260	101592
554.323	108707
554.386	108190
554.449	111467
554.512	108484
554.575	105407
554.638	107198
554.701	106547
554.764	102487
554.827	99239
554.889	96702
554.952	90452
555.015	89619
555.078	91408
555.141	92338
555.203	90819
555.266	91068
555.329	92459
555.391	90141
555.454	93250
555.517	93761
555.580	85335
555.642	80901
555.705	81406
555.768	80117
555.830	81011
555.893	75977
555.955	74369
556.018	75073
556.080	76083
556.143	75950
556.206	77619
556.268	79975
556.330	82225
556.393	80262
556.455	76808
556.518	101792
556.580	112946
556.643	73282
556.705	69333
556.767	68744
556.830	71810
556.892	76294
556.955	114014
557.017	94081
557.079	71215
557.142	67682
557.204	77308
557.266	140927
557.328	137830
557.391	67068
557.453	60394
557.515	61561
557.577	75434
557.639	83844
557.701	62935
557.764	60523
557.826	63805
557.888	69485
557.950	71944
558.012	73318
558.074	89281
558.136	178396
558.198	497966
558.260	234013
558.322	90250
558.384	88639
558.446	96841
558.508	110100
558.570	136011
558.632	203534
558.694	314720
558.756	283292
558.818	738991
558.880	2091193
558.942	840010
559.003	537356
559.065	324822
559.127	122071
559.189	114763
559.251	124328
559.312	158037
559.374	358805
559.436	1324070
559.498	840984
559.559	152328
559.621	116758
559.683	124124
559.744	192521
559.806	590740
559.868	1076580
559.929	261444
559.991	125097
560.052	163992
560.114	456151
560.176	358985
560.237	255069
560.299	495090
560.360	149199
560.422	66669
560.483	57873
560.545	52855
560.606	50868
560.667	49696
560.729	48432
560.790	46974
560.852	47589
560.913	47383
560.974	45520
561.036	47658
561.097	47021
561.158	47688
561.220	49892
561.281	50559
561.342	51427
561.403	57962
561.465	73061
561.526	167838
561.587	265283
561.648	85609
561.709	51592
561.771	48078
561.832	46261
561.893	47318
561.954	45505
562.015	44453
562.076	44179
562.137	44042
562.198	46489
562.259	45517
562.320	46332
562.381	52031
562.442	77530
562.503	68068
562.564	45856
562.625	45290
562.686	44255
562.747	53606
562.808	48904
562.869	44909
562.930	55005
562.991	54844
563.051	51084
563.112	47075
563.173	45672
563.234	43486
563.294	43203
563.355	45242
563.416	46989
563.477	44463
563.537	46390
563.598	48906
563.659	47980
563.720	48046
563.780	49649
563.841	52496
563.901	46197
563.962	44806
564.023	44847
564.083	46624
564.144	48374
564.204	46110
564.265	46431
564.325	55264
564.386	104197
564.446	109872
564.507	48642
564.567	43882
564.628	45270
564.688	43800
564.749	44621
564.809	49622
564.869	63468
564.930	48847
564.990	43267
565.050	42946
565.111	43499
565.171	40868
565.231	42287
565.292	42007
565.352	41285
565.412	44893
565.472	46420
565.532	49395
565.593	46569
565.653	43804
565.713	46015
565.773	50935
565.833	59922
565.893	77465
565.953	53540
566.013	45800
566.074	49481
566.134	61458
566.194	97628
566.254	112758
566.314	73385
566.374	52744
566.434	49806
566.494	50651
566.554	49577
566.614	49736
566.673	51765
566.733	53570
566.793	57991
566.853	59750
566.913	57098
566.973	59970
567.033	62128
567.092	66278
567.152	59980
567.212	61342
567.272	59607
567.331	64198
567.391	64228
567.451	66984
567.511	86238
567.570	93437
567.630	62661
567.690	58362
567.749	59202
567.809	61886
567.868	68477
567.928	74656
567.988	86380
568.047	93039
568.107	103655
568.166	133071
568.226	201984
568.285	281973
568.345	247524
568.404	199086
568.464	174792
568.523	160908
568.582	160711
568.642	175094
568.701	209606
568.761	294075
568.820	461632
568.879	459257
568.939	359047
568.998	266006
569.057	201563
569.116	164797
569.176	135133
569.235	114278
569.294	100912
569.353	90444
569.413	82811
569.472	77991
569.531	70543
569.590	64842
569.649	62453
569.708	59300
569.767	58755
569.827	71944
569.886	64291
569.945	52180
570.004	52130
570.063	51068
570.122	52616
570.181	58047
570.240	60146
570.299	62100
570.358	64024
570.417	50264
570.475	44997
570.534	47105
570.593	49085
570.652	50407
570.711	55099
570.770	47903
570.829	51255
570.887	49525
570.946	57584
571.005	44417
571.064	43627
571.122	50471
571.181	56239
571.240	46541
571.299	39234
571.357	43211
571.416	47484
571.475	50913
571.533	55990
571.592	43354
571.650	46423
571.709	40538
571.768	41731
571.826	41425
571.885	38669
571.943	36988
572.002	38778
572.060	41004
572.119	36778
572.177	34566
572.236	33879
572.294	33916
572.352	34696
572.411	36577
572.469	35440
572.528	35624
572.586	36089
572.644	42054
572.703	58251
572.761	44281
572.819	35905
572.877	34348
572.936	33044
572.994	32940
573.052	33055
573.110	37922
573.169	37153
573.227	33729
573.285	32985
573.343	32843
573.401	33672
573.459	34134
573.517	32791
573.576	33184
573.634	33932
573.692	37162
573.750	35686
573.808	34186
573.866	36606
573.924	46994
573.982	47055
574.040	36506
574.098	33243
574.155	31733
574.213	30829
574.271	30869
574.329	34873
574.387	31942
574.445	30851
574.503	30194
574.560	28505
574.618	28686
574.676	28461
574.734	29135
574.792	30088
574.849	30020
574.907	26886
574.965	29127
575.022	27344
575.080	27916
575.138	29928
575.195	30940
575.253	32275
575.311	36448
575.368	29809
575.426	28158
575.483	29459
575.541	28864
575.598	28204
575.656	30913
575.713	30294
575.771	29925
575.828	29159
575.886	29625
575.943	31209
576.001	31610
576.058	32372
576.115	33847
576.173	39227
576.230	45013
576.287	51106
576.345	42152
576.402	33101
576.459	33980
576.517	34457
576.574	37272
576.631	36963
576.688	33681
576.746	31611
576.803	31329
576.860	29704
576.917	30016
576.974	30978
577.031	30825
577.089	30798
577.146	31669
577.203	31806
577.260	34933
577.317	34687
577.374	40172
577.431	38379
577.488	34877
577.545	31761
577.602	30157
577.659	29464
577.716	28410
577.773	28511
577.830	28989
577.886	29593
577.943	28288
578.000	29181
578.057	32190
578.114	31291
578.171	28981
578.227	31147
578.284	29599
578.341	30830
578.398	32675
578.454	34175
578.511	37867
578.568	41982
578.625	36360
578.681	31956
578.738	28726
578.794	29831
578.851	28858
578.908	30365
578.964	32387
579.021	32210
579.077	32465
579.134	29751
579.190	29417
579.247	28740
579.303	28747
579.360	28777
579.416	28306
579.473	28119
579.529	28448
579.586	27279
579.642	28850
579.698	30516
579.755	30981
579.811	29585
579.867	29885
579.924	27917
579.980	28886
580.036	29509
580.093	28982
580.149	28659
580.205	30654
580.261	30524
580.317	32030
580.374	33468
580.430	39087
580.486	37793
580.542	33320
580.598	33480
580.619	33375
580.654	33229
580.692	32602
580.710	32338
580.765	31793
580.767	31807
580.823	32837
580.838	32385
580.879	31286
580.911	30787
580.935	30470
580.984	30439
580.991	30467
581.047	31301
581.057	31160
581.103	30648
581.130	30936
581.159	31287
581.203	32077
581.215	32315
581.270	32158
581.276	32032
581.326	31002
581.349	31463
581.382	32308
581.422	32837
581.438	33052
581.494	34254
581.494	34217
581.550	32356
581.567	33064
581.606	34548
581.640	34307
581.661	34191
581.713	33014
581.717	32952
581.773	32468
581.786	32561
581.829	32880
581.859	32707
581.885	32554
581.932	32371
581.940	32360
581.996	33476
582.004	33343
582.052	32703
582.077	32979
582.107	33289
582.150	32437
582.163	32168
582.219	32830
582.223	32831
582.274	33349
582.296	34090
582.330	35106
582.368	35087
582.386	35102
582.441	32973
582.441	32976
582.497	32108
582.514	32172
582.552	32485
582.587	32626
582.608	32694
582.659	33383
582.663	33439
582.719	33268
582.732	33543
582.774	34568
582.805	34172
582.830	33775
582.877	34433
582.885	34551
582.941	33904
582.950	33922
582.996	34033
583.023	34658
583.052	35462
583.095	35572
583.107	35578
583.162	35345
583.168	35403
583.218	35706
583.240	35241
583.273	34674
583.313	34640
583.328	34641
583.384	35386
583.385	35361
583.439	34696
583.458	34811
583.494	34735
583.531	34814
583.549	34995
583.603	34720
583.605	34702
583.660	34695
583.676	34826
583.715	35440
583.748	35815
583.770	36044
583.820	36457
583.825	36490
583.881	37005
583.893	36697
583.936	35465
583.965	35465
583.991	35539
584.038	35780
584.046	35831
584.101	36864
584.110	36981
584.156	37652
584.183	37678
584.211	37598
584.255	37263
584.266	37080
584.321	35933
584.328	35948
584.376	36887
584.400	37464
584.431	38126
584.472	37693
584.486	37478
584.541	38560
584.545	38582
584.596	39019
584.617	39540
584.651	40788
584.689	41838
584.706	42223
584.761	42771
584.762	42771
584.816	42918
584.834	43214
584.871	43696
584.906	43494
584.926	43497
584.978	44720
584.980	44788
585.035	47145
585.051	47919
585.090	50078
585.123	51599
585.145	52793
585.195	55664
585.200	55925
585.254	58824
585.267	59924
585.309	63940
585.340	67308
585.364	70156
585.412	74440
585.419	75248
585.473	83533
585.484	86093
585.528	101722
585.556	117235
585.583	147267
585.628	219505
585.637	247020
585.692	489428
585.700	537077
585.747	718435
585.772	630542
585.801	426209
585.845	179322
585.856	145664
585.910	92242
585.917	87354
585.965	75878
585.989	71076
586.019	67464
586.061	65790
586.074	65660
586.128	65887
586.133	65951
586.183	68212
586.205	69195
586.237	69507
586.277	68230
586.292	67970
586.346	67196
586.349	67217
586.401	68790
586.421	69357
586.455	71038
586.493	74747
586.509	79365
586.564	98374
586.565	99206
586.618	145430
586.637	148974
586.672	127454
586.709	96040
586.727	86797
586.781	81578
586.781	81607
586.835	78203
586.853	77298
586.889	75967
586.925	75468
586.944	75822
586.996	76808
586.998	76903
587.052	80008
587.068	80476
587.106	81500
587.140	82857
587.161	83672
587.212	86207
587.215	86466
587.269	90933
587.284	91898
587.323	93496
587.356	95019
587.377	96466
587.427	99972
587.431	100297
587.485	104006
587.499	104886
587.539	108355
587.571	111757
587.593	114818
587.643	121128
587.648	121756
587.702	128785
587.715	130315
587.755	136435
587.786	141064
587.810	144390
587.858	151510
587.864	152933
587.917	168260
587.930	171561
587.971	183866
588.001	193461
588.025	200498
588.073	213865
588.079	216444
588.133	240793
588.145	246469
588.187	269178
588.217	286192
588.241	304167
588.288	341217
588.295	346957
588.348	398049
588.360	409042
588.402	459033
588.431	497141
588.456	536508
588.503	618243
588.510	632974
588.564	758214
588.575	786490
588.617	930782
588.646	1040668
588.671	1181137
588.718	1477052
588.725	1546597
588.778	2131162
588.789	2260239
588.832	2889164
588.861	3319799
588.886	3484956
588.932	3580644
588.939	3547873
588.993	3102745
589.004	3090572
589.047	3444428
589.075	3523824
589.100	3176820
589.147	2386410
589.154	2304158
589.207	1738621
589.218	1635118
589.261	1487595
589.290	1415083
589.314	1457040
589.361	1576742
589.368	1631000
589.421	2126610
589.433	2244288
589.475	2834674
589.504	3237171
589.528	3302366
589.576	3184500
589.582	3165720
589.635	3125395
589.647	3070804
589.689	2362494
589.718	1829016
589.742	1526207
589.790	994923
589.795	965247
589.849	726422
589.861	675896
589.902	586558
589.932	521329
589.955	475879
590.004	382841
590.009	377498
590.062	325620
590.075	313316
590.115	286419
590.146	266105
590.168	255840
590.218	233784
590.222	232743
590.275	217911
590.289	213898
590.328	203525
590.360	194547
590.381	188917
590.431	176149
590.435	175830
590.488	167325
590.503	165059
590.541	160826
590.574	156637
590.594	153318
590.645	144485
590.647	144452
590.700	139058
590.716	137476
590.753	133840
590.787	130055
590.806	129131
590.859	126474
590.859	126595
590.912	123922
590.930	123041
590.965	121286
591.001	119012
591.018	118419
591.071	116346
591.072	116157
591.124	114031
591.143	113105
591.177	112488
591.214	111522
591.230	112017
591.283	113441
591.285	113320
591.336	114287
591.356	114400
591.389	112353
591.427	109263
591.442	108327
591.495	104311
591.498	103871
591.547	101756
591.569	100491
591.600	100166
591.640	99438
591.653	99394
591.706	98500
591.711	98262
591.759	102463
591.782	104455
591.811	107070
591.853	110406
591.864	108883
591.917	99462
591.924	97994
591.969	96718
591.995	95771
592.022	96655
592.066	97765
592.075	98984
592.127	105503
592.137	106590
592.180	112942
592.208	116459
592.233	110328
592.279	97889
592.285	97614
592.338	94216
592.350	93277
592.390	92586
592.421	91803
592.443	92079
592.491	92152
592.495	92392
592.548	93338
592.562	93426
592.600	92070
592.633	90573
592.653	90702
592.704	90107
592.705	90638
592.775	91357
592.846	92772
592.916	95306
592.987	98672
593.058	94907
593.128	90356
593.199	88003
593.270	87802
593.341	87538
593.411	90461
593.482	90807
593.553	88163
593.623	87468
593.694	91004
593.764	96419
593.835	88876
593.906	87931
593.976	88383
594.047	93790
594.117	103634
594.188	104006
594.258	88146
594.329	88135
594.399	89465
594.470	88696
594.540	90789
594.611	91589
594.681	91520
594.751	92267
594.822	95823
594.892	99878
594.963	101368
595.033	100701
595.103	103339
595.174	108495
595.244	137995
595.314	160626
595.384	106134
595.455	102361
595.525	104020
595.595	108474
595.665	107927
595.736	104785
595.806	105916
595.876	106747
595.946	105921
596.016	107684
596.087	109872
596.157	110476
596.227	111364
596.297	116616
596.367	121028
596.437	131118
596.507	151307
596.577	169084
596.647	130283
596.717	128287
596.787	129014
596.857	127473
596.927	129925
596.997	129028
597.067	129362
597.137	132132
597.207	133628
597.277	134197
597.347	131794
597.417	128808
597.487	129362
597.557	132202
597.626	135867
597.696	141193
597.766	152030
597.836	169806
597.906	130788
597.975	121242
598.045	121741
598.115	124014
598.185	131005
598.254	143358
598.324	154852
598.394	156342
598.464	152824
598.533	147126
598.603	137899
598.672	137397
598.742	137470
598.812	137101
598.881	140148
598.951	137194
599.020	137333
599.090	141398
599.159	143367
599.229	138449
599.299	135020
599.368	139117
599.437	137169
599.507	129902
599.576	130013
599.646	126198
599.715	124291
599.785	126791
599.854	129872
599.924	131833
599.993	126836
600.062	123306
600.132	124393
600.201	133041
600.270	150222
600.340	152560
600.409	147219
600.478	144792
600.547	147758
600.617	140202
600.686	119357
600.755	114334
600.824	113294
600.894	108640
600.963	105430
601.032	103608
601.101	102894
601.170	99019
601.239	100221
601.308	103070
601.378	102730
601.447	99066
601.516	99605
601.585	103438
601.654	110010
601.723	104475
601.792	105538
601.861	107783
601.930	115252
601.999	121190
602.068	113984
602.137	120937
602.206	120823
602.275	117060
602.343	130324
602.412	127491
602.481	115076
602.550	114112
602.619	116886
602.688	120969
602.756	116219
602.825	115732
602.894	117869
602.963	120181
603.032	121909
603.100	121112
603.169	119658
603.238	121834
603.307	120558
603.375	121801
603.444	124409
603.513	123818
603.581	127115
603.650	128655
603.719	124537
603.787	124986
603.856	130315
603.924	132880
603.993	136050
604.061	137908
604.130	143493
604.198	145771
604.267	146103
604.335	147666
604.404	149498
604.472	152476
604.541	153133
604.609	153687
604.678	155715
604.746	155985
604.815	160376
604.883	160721
604.951	160353
605.020	162530
605.088	163186
605.156	165714
605.225	168595
605.293	167149
605.361	168710
605.429	170965
605.498	176826
605.566	180563
605.634	185341
605.702	190909
605.771	194223
605.839	191285
605.907	188627
605.975	182835
606.043	179769
606.111	178747
606.180	179107
606.248	177364
606.316	178235
606.384	183882
606.452	193154
606.520	203452
606.588	186963
606.656	179323
606.724	177819
606.792	166095
606.860	152460
606.928	139742
606.996	134029
607.064	133343
607.132	136282
607.200	146569
607.267	148736
607.335	151624
607.403	154056
607.471	147260
607.539	145898
607.607	144776
607.674	132562
607.742	133887
607.810	135168
607.878	134079
607.946	133626
608.013	139575
608.081	144363
608.149	143801
608.216	145835
608.284	150496
608.352	150537
608.419	152053
608.487	167216
608.555	152017
608.622	146002
608.690	155110
608.757	168157
608.825	172160
608.893	171793
608.960	173038
609.028	175914
609.095	180790
609.163	156502
609.230	141771
609.298	131870
609.365	135269
609.432	146881
609.500	157011
609.567	177814
609.635	200505
609.702	208862
609.769	201929
609.837	170558
609.904	151046
609.971	155980
610.039	185402
610.106	253657
610.173	491160
610.241	1099148
610.308	744592
610.375	321879
610.442	178273
610.509	153002
610.577	148243
610.644	147422
610.711	149519
610.778	154362
610.845	158509
610.912	166384
610.980	172407
611.047	173545
611.114	171336
611.181	165307
611.248	161401
611.315	171053
611.382	174584
611.449	180311
611.516	182482
611.583	182051
611.650	184242
611.717	187266
611.784	195353
611.851	210361
611.918	240287
611.984	289962
612.051	428724
612.118	883257
612.185	2114323
612.252	1301699
612.319	341193
612.386	255553
612.452	229265
612.519	220500
612.586	231924
612.653	217578
612.719	215176
612.786	205117
612.853	187459
612.919	183556
612.986	185173
613.053	174897
613.120	164101
613.186	160298
613.253	163088
613.319	161233
613.386	164461
613.453	169517
613.519	177097
613.586	192516
613.652	220715
613.719	200645
613.785	188916
613.852	170876
613.918	165478
613.985	167137
614.051	176123
614.118	180447
614.184	173962
614.250	165009
614.317	167897
614.383	165012
614.449	167178
614.516	168696
614.582	170745
614.648	165227
614.715	163961
614.781	164892
614.847	165549
614.914	166781
614.980	162444
615.046	160343
615.112	165736
615.179	166868
615.245	173020
615.311	182519
615.377	216619
615.443	225133
615.509	193591
615.575	186959
615.642	184719
615.708	191726
615.774	209456
615.840	230356
615.906	270311
615.972	367075
616.038	610063
616.104	1177761
616.170	2565434
616.236	2105715
616.302	529912
616.368	352506
616.434	259924
616.500	236146
616.565	254977
616.631	311454
616.697	266241
616.763	273093
616.829	404631
616.895	697915
616.961	664576
617.026	306546
617.092	204262
617.158	187187
617.224	178491
617.289	165803
617.355	159987
617.421	158449
617.487	156043
617.552	146990
617.618	144516
617.684	143460
617.749	145141
617.815	138235
617.880	135483
617.946	136830
618.012	141427
618.077	142342
618.143	136625
618.208	138996
618.274	147647
618.339	148122
618.405	126155
618.470	127145
618.536	128085
618.601	131889
618.667	122611
618.732	114713
618.798	113510
618.863	114466
618.928	112776
618.994	119993
619.059	127251
619.124	153585
619.190	126123
619.255	114713
619.320	115175
619.386	112805
619.451	111680
619.516	108541
619.581	110827
619.647	112159
619.712	109733
619.777	107001
619.842	110323
619.907	113388
619.972	112905
620.038	113788
620.103	106762
620.168	106782
620.233	107377
620.298	108831
620.363	108715
620.428	110093
620.493	114185
620.558	114251
620.623	115028
620.688	114176
620.753	111980
620.818	115304
620.883	115101
620.948	116410
621.013	115894
621.078	115873
621.143	118636
621.207	121896
621.272	121192
621.337	123563
621.402	124238
621.467	138027
621.532	139704
621.596	126797
621.661	118233
621.726	113107
621.791	115125
621.855	120444
621.920	122138
621.985	126780
622.049	134859
622.114	131403
622.179	125063
622.243	127352
622.308	127821
622.373	133066
622.437	128718
622.502	121234
622.566	121674
622.631	122232
622.695	124023
622.760	123807
622.824	122240
622.889	126319
622.953	135807
623.018	172717
623.082	164764
623.147	129969
623.211	127054
623.276	128315
623.340	119921
623.404	116497
623.469	115957
623.533	115299
623.597	114575
623.662	114589
623.726	106698
623.790	102667
623.854	103186
623.919	105427
623.983	104800
624.047	107330
624.111	106677
624.176	108441
624.240	117008
624.304	122704
624.368	108188
624.432	107637
624.496	112209
624.560	120990
624.625	129537
624.689	114647
624.753	116354
624.817	110757
624.881	108170
624.945	102406
625.009	100202
625.073	102308
625.137	113175
625.201	130396
625.265	125927
625.329	106083
625.393	111927
625.456	110346
625.520	114698
625.584	121697
625.648	137504
625.712	179643
625.776	317261
625.839	335899
625.903	156075
625.967	110748
626.031	153476
626.095	213696
626.158	114860
626.222	84922
626.286	80099
626.349	79066
626.413	75763
626.477	80112
626.540	76357
626.604	75570
626.668	73909
626.731	72224
626.795	76189
626.858	76821
626.922	73771
626.986	72874
627.049	71576
627.113	74271
627.176	72588
627.240	70423
627.303	70952
627.366	71121
627.430	73477
627.493	72101
627.557	70280
627.620	71836
627.684	71863
627.747	72436
627.810	67921
627.874	65007
627.937	62999
628.000	67191
628.064	65005
628.127	57949
628.190	59081
628.253	60134
628.317	56447
628.380	55271
628.443	56037
628.506	57900
628.569	53476
628.632	51083
628.696	51113
628.759	49823
628.822	48958
628.885	48675
628.948	48695
629.011	49771
629.074	49194
629.137	46498
629.200	47337
629.263	51516
629.326	45701
629.389	46382
629.452	47022
629.515	47408
629.578	47284
629.641	51001
629.704	48868
629.767	49482
629.830	44821
629.892	45065
629.955	45185
630.018	49024
630.081	54003
630.144	62603
630.207	51305
630.269	51070
630.332	52512
630.395	46079
630.458	42619
630.520	41517
630.583	42090
630.646	41646
630.708	41099
630.771	42605
630.834	42546
630.896	41337
630.959	41648
631.021	42777
631.084	43072
631.146	47504
631.209	52716
631.272	43615
631.334	42187
631.397	43005
631.459	43902
631.522	46844
631.584	46573
631.646	49223
631.709	53167
631.771	64090
631.834	51319
631.896	46197
631.958	41669
632.021	43133
632.083	41652
632.145	42221
632.208	42280
632.270	42600
632.332	39075
632.395	38439
632.457	41333
632.519	39796
632.581	39411
632.643	38223
632.706	39497
632.768	36255
632.830	39045
632.892	38077
632.954	38038
633.016	40033
633.078	38159
633.141	38471
633.203	38200
633.265	39540
633.327	38263
633.389	39512
633.451	44159
633.513	50824
633.575	49905
633.637	50752
633.698	47044
633.760	42201
633.822	41903
633.884	43983
633.946	42548
634.008	43282
634.070	43605
634.132	46654
634.193	49140
634.255	52596
634.317	53685
634.379	54092
634.441	47832
634.502	45499
634.564	42393
634.626	40127
634.687	38730
634.749	38326
634.811	38617
634.873	36043
634.934	37147
634.996	38305
635.057	37056
635.119	35986
635.181	37629
635.242	39321
635.304	36889
635.365	39713
635.427	38726
635.488	39458
635.550	37930
635.611	38535
635.673	38077
635.734	43710
635.796	44266
635.857	48708
635.918	48621
635.980	52325
636.041	53501
636.102	56245
636.164	56944
636.225	55955
636.286	49495
636.348	45868
636.409	42149
636.470	38979
636.531	39370
636.593	41983
636.654	39575
636.715	33442
636.776	32935
636.838	32193
636.899	33627
636.960	32763
637.021	31663
637.082	32376
637.143	32165
637.204	30093
637.265	29389
637.326	31273
637.387	29915
637.448	29998
637.509	30819
637.570	30318
637.631	30168
637.692	27098
637.753	27138
637.814	29550
637.875	28722
637.936	31262
637.997	28380
638.058	30956
638.119	31872
638.179	29266
638.240	28105
638.301	27830
638.362	27224
638.423	28379
638.483	28814
638.544	26486
638.605	27845
638.666	25502
638.726	27302
638.787	27101
638.848	26060
638.908	26117
638.969	26274
639.030	26695
639.090	25758
639.151	27538
639.211	30258
639.272	37630
639.332	58912
639.393	35696
639.453	29456
639.514	29504
639.574	26891
639.635	25104
639.695	26890
639.756	26142
639.816	29104
639.877	35570
639.937	55380
639.997	68106
640.058	31566
640.118	24620
640.178	25682
640.239	24683
640.299	25185
640.359	24157
640.420	27201
640.480	28474
640.540	31591
640.600	31968
640.661	29826
640.721	30948
640.781	38108
640.841	30130
640.901	27841
640.961	26600
641.021	30334
641.082	35853
641.142	47072
641.202	33128
641.262	23214
641.322	24986
641.382	22946
641.442	25426
641.502	23056
641.562	24891
641.622	24321
641.682	26173
641.742	28098
641.802	28093
641.861	28228
641.921	27573
641.981	30790
642.041	30901
642.101	36308
642.161	25844
642.221	21855
642.280	22602
642.340	22914
642.400	22246
642.460	23266
642.519	23256
642.579	23929
642.639	24996
642.698	20602
642.758	25940
642.818	24568
642.877	23399
642.937	25997
642.997	31245
643.056	41937
643.116	27702
643.175	26301
643.235	24753
643.294	25829
643.354	28411
643.414	31429
643.473	38880
643.532	47352
643.592	65390
643.651	100794
643.711	169861
643.770	328578
643.830	780492
643.889	1551295
643.948	377762
644.008	72598
644.067	46845
644.126	36910
644.186	31785
644.245	29089
644.304	25217
644.363	26504
644.423	24019
644.482	25796
644.541	27628
644.600	26951
644.659	34154
644.719	42484
644.778	59037
644.837	96269
644.896	190657
644.955	421644
645.014	141539
645.073	37988
645.132	30540
645.191	28536
645.250	26974
645.309	28186
645.368	29256
645.427	36438
645.486	55069
645.545	86490
645.604	33359
645.663	26531
645.722	26144
645.781	29099
645.840	34382
645.898	42850
645.957	61356
646.016	91902
646.075	161228
646.134	306821
646.192	808609
646.251	1134739
646.310	178230
646.369	53081
646.427	41692
646.486	32421
646.545	27334
646.603	24704
646.662	23666
646.721	24216
646.779	22809
646.838	24516
646.896	32119
646.955	38252
647.014	57680
647.072	105980
647.131	269297
647.189	129990
647.248	28107
647.306	22596
647.365	20558
647.423	17269
647.481	20135
647.540	17311
647.598	18571
647.657	17916
647.715	17891
647.773	16831
647.832	18785
647.890	16732
647.948	17049
648.007	18480
648.065	15657
648.123	16828
648.181	18583
648.240	16453
648.298	15908
648.356	16633
648.414	17369
648.472	16822
648.531	16461
648.589	16057
648.647	16328
648.705	17352
648.763	17629
648.821	18939
648.879	18768
648.937	22501
648.995	26106
649.053	34656
649.111	50389
649.169	78069
649.227	129988
649.285	264439
649.343	720471
649.401	348829
649.459	96155
649.516	56066
649.574	30200
649.632	31942
649.690	32910
649.748	34694
649.806	45152
649.863	74750
649.921	189226
649.979	125849
650.037	24772
650.094	17275
650.152	17868
650.210	16756
650.268	16203
650.325	16414
650.383	16238
650.440	14099
650.498	15604
650.556	14738
650.613	13782
650.671	15003
650.728	15238
650.786	16309
650.843	17507
650.901	13435
650.958	13980
651.016	12482
651.073	13128
651.131	13012
651.188	12448
651.246	14209
651.303	13126
651.360	13229
651.418	12541
651.475	13158
651.532	12588
651.590	13404
651.647	11930
651.704	13182
651.762	12760
651.819	14124
651.876	13301
651.933	12737
651.990	12718
652.048	11337
652.105	12464
652.162	12621
652.219	11873
652.276	12339
652.333	12157
652.390	10596
652.448	12912
652.505	12631
652.562	11994
652.619	11785
652.676	12602
652.733	12624
652.790	11913
652.847	9669
652.904	11854
652.961	10470
653.017	11488
653.074	12804
653.131	12847
653.188	10335
653.245	11636
653.302	12002
653.359	12057
653.415	11871
653.472	10432
653.529	12097
653.586	10944
653.642	11581
653.699	11817
653.756	10952
653.813	10994
653.869	11605
653.926	11419
653.983	10544
654.039	12076
654.096	10579
654.152	12626
654.209	11333
654.266	12863
654.322	11878
654.379	14343
654.435	14745
654.492	15998
654.548	21427
654.605	32896
654.661	17027
654.717	12436
654.774	13106
654.830	12570
654.887	12085
654.943	13248
655.000	13612
655.056	12433
655.112	13032
655.168	12009
655.225	12772
655.281	15089
655.337	18480
655.394	29032
655.450	22155
655.506	19512
655.562	28736
655.618	24724
655.675	11910
655.731	11416
655.787	10958
655.843	12073
655.899	11221
655.955	12325
656.011	11936
656.067	11150
656.123	12389
656.179	12974
656.235	13345
656.291	11336
656.347	13326
656.403	12813
656.459	13285
656.515	14073
656.571	14897
656.627	13624
656.683	12866
656.739	13228
656.795	12978
656.850	13923
656.906	15734
656.962	13992
657.018	11240
657.074	12491
657.129	15245
657.185	16973
657.241	28727
657.297	19989
657.352	13254
657.408	11308
657.464	13519
657.519	11611
657.575	10278
657.630	11096
657.686	11205
657.742	9779
657.797	10782
657.853	10051
657.908	12167
657.964	10653
658.019	10734
658.075	10569
658.130	11090
658.186	9684
658.241	10283
658.297	11017
658.352	10559
658.407	11097
658.463	10144
658.518	11108
658.573	11519
658.629	9893
658.684	10584
658.739	11531
658.795	9368
658.850	10251
658.905	9892
658.960	10539
659.016	9166
659.071	11402
659.126	12458
659.181	13749
659.236	21919
659.291	22438
659.346	14527
659.401	13416
659.457	11548
659.512	10755
659.567	11757
659.622	11088
659.677	11103
659.732	10651
659.787	11538
659.842	13363
659.897	16038
659.952	11190
660.007	9965
660.061	11195
660.116	10279
660.171	9403
660.226	10145
660.281	10568
660.336	9113
660.391	10587
660.445	10309
660.500	10548
660.555	11038
660.610	10893
660.664	10470
660.719	9992
660.774	10937
660.828	10576
660.883	10948
660.938	10608
660.992	9726
661.047	10576
661.101	9723
661.156	10414
661.211	9660
661.265	9523
661.320	11001
661.374	9846
661.429	9750
661.483	10813
661.538	10364
661.592	10626
661.647	10549
661.701	11817
661.755	10863
661.810	11042
661.864	9994
661.919	9236
661.973	10604
662.027	10116
662.081	10728
662.136	10417
662.190	11030
662.244	11548
662.299	10717
662.353	10448
662.407	10386
662.461	11698
662.515	11521
662.569	10914
662.624	11795
662.678	11354
662.732	10610
662.786	10610
662.840	11168
662.894	11679
662.948	10591
663.002	9937
663.056	10147
663.110	9853
663.164	9926
663.218	11006
663.272	11228
663.326	12415
663.380	11302
663.434	12050
663.488	10912
663.542	10366
663.595	11514
663.649	11535
663.703	11361
663.757	9982
663.811	10475
663.864	10285
663.918	10706
663.972	10789
664.026	10128
664.079	10431
664.133	11727
664.187	10119
664.240	10528
664.294	9948
664.348	10399
664.401	10701
664.455	10085
664.508	9571
664.562	10472
664.615	11206
664.669	9323
664.722	11074
664.776	10454
664.829	11057
664.883	11077
664.936	10872
664.990	11652
665.043	11686
665.097	12300
665.150	13822
665.203	11493
665.257	11479
665.310	11596
665.363	11881
665.417	12267
665.470	11881
665.523	11002
665.576	11633
665.630	11561
665.683	11544
665.736	12281
665.789	12227
665.842	11816
665.895	12620
665.949	11304
666.002	11152
666.055	11557
666.108	13226
666.161	12277
666.214	13137
666.267	12944
666.320	15072
666.373	13019
666.426	12391
666.479	13080
666.532	13884
666.585	15056
666.638	16379
666.691	15273
666.744	15594
666.796	16284
666.849	14958
666.902	13002
666.955	12276
667.008	11120
667.060	11651
667.113	9815
667.166	11696
667.219	12221
667.271	11748
667.324	11059
667.377	11896
667.430	11248
667.482	12071
667.535	12426
667.587	12719
667.640	14478
667.693	16715
667.745	25055
667.798	23801
667.850	13827
667.903	12728
667.955	12287
668.008	12811
668.060	14440
668.113	14456
668.165	12884
668.218	14721
668.270	12633
668.322	13174
668.375	12532
668.427	13439
668.479	11743
668.532	12803
668.584	13176
668.636	12026
668.689	12124
668.741	12935
668.793	12607
668.845	13115
668.898	12450
668.950	11945
669.002	12430
669.054	12587
669.106	13450
669.158	13378
669.211	12688
669.263	12801
669.315	14311
669.367	13569
669.419	13539
669.471	15496
669.523	15675
669.575	17516
669.627	16809
669.679	14821
669.731	13825
669.783	15507
669.835	15855
669.886	15215
669.938	14653
669.990	14987
670.042	13413
670.094	16400
670.146	16851
670.197	18831
670.249	23341
670.301	28604
670.353	37377
670.404	50201
670.456	69913
670.508	103981
670.560	153188
670.611	237365
670.663	396938
670.715	890135
670.766	1370261
670.818	531358
670.869	107489
670.921	53836
670.972	38552
671.024	28614
671.075	25438
671.127	22090
671.178	19920
671.230	19549
671.281	19102
671.333	18482
671.384	18915
671.436	22851
671.487	23822
671.538	28366
671.590	34925
671.641	47920
671.692	72583
671.744	124808
671.795	94181
671.846	41207
671.897	25426
671.949	20878
672.000	18680
672.051	16557
672.102	17038
672.153	15305
672.204	15754
672.256	14794
672.307	15018
672.358	14915
672.409	14524
672.460	13014
672.511	13554
672.562	13233
672.613	12856
672.664	13167
672.715	13192
672.766	12920
672.817	11509
672.868	12385
672.919	12201
672.970	12394
673.021	12276
673.071	11207
673.122	11641
673.173	11205
673.224	12398
673.275	12945
673.326	11139
673.376	11762
673.427	11707
673.478	11587
673.528	12684
673.579	12126
673.630	11397
673.680	12805
673.731	11348
673.782	11713
673.832	11943
673.883	12912
673.934	11972
673.984	11305
674.035	11925
674.085	12051
674.136	13125
674.186	14446
674.237	16065
674.287	21901
674.338	15623
674.388	12240
674.438	12690
674.489	13296
674.539	13664
674.589	13276
674.640	12782
674.690	12427
674.740	12296
674.791	13951
674.841	12424
674.891	13366
674.942	13320
674.992	11912
675.042	12401
675.092	12014
675.142	11001
675.193	11745
675.243	11326
675.293	11755
675.343	12760
675.393	11814
675.443	11881
675.493	11019
675.543	11153
675.593	12081
675.643	11590
675.693	11334
675.743	10740
675.793	10547
675.843	10102
675.893	10957
675.943	10927
675.993	11118
676.043	10685
676.093	10652
676.142	10315
676.192	11460
676.242	10627
676.292	9932
676.341	11464
676.391	11652
676.441	9709
676.491	10646
676.540	10114
676.590	10475
676.640	10943
676.689	9812
676.739	9261
676.789	9657
676.838	9893
676.888	9559
676.937	10602
676.987	8665
677.037	9128
677.086	9778
677.136	9604
677.185	9105
677.235	8127
677.284	9745
677.333	9575
677.383	8923
677.432	8982
677.482	9231
677.531	8419
677.580	9880
677.630	9444
677.679	8776
677.728	9545
677.778	9724
677.827	9612
677.876	8868
677.925	9443
677.975	9156
678.024	9719
678.073	9294
678.122	10895
678.171	10206
678.220	10845
678.269	11689
678.319	12215
678.368	11293
678.417	12062
678.466	10842
678.515	10357
678.564	11726
678.613	11174
678.662	10150
678.711	10557
678.760	9797
678.809	9447
678.857	10246
678.906	10154
678.955	10447
679.004	10513
679.053	10004
679.102	10557
679.151	11289
679.199	9859
679.248	9699
679.297	10233
679.346	10238
679.394	9839
679.443	10552
679.492	9637
679.540	9813
679.589	10826
679.638	9824
679.686	9700
679.735	10109
679.784	10139
679.832	10725
679.881	9025
679.929	9837
679.978	8919
680.026	9410
680.075	9435
680.123	8720
680.172	9110
680.220	8448
680.268	8385
680.317	8612
680.365	8822
680.414	8425
680.462	8826
680.510	9199
680.559	8791
680.607	8700
680.655	8878
680.703	9245
680.752	8793
680.800	8199
680.848	7775
680.896	8093
680.945	8172
680.993	9274
681.041	9308
681.089	8235
681.137	8548
681.185	8709
681.233	8278
681.258	8166
681.281	8035
681.329	7188
681.377	9485
681.380	9495
681.425	9243
681.473	10353
681.502	10003
681.521	9703
681.569	9223
681.617	8940
681.624	9028
681.665	9406
681.713	9754
681.745	9536
681.761	9396
681.809	8274
681.857	9899
681.867	9853
681.904	9597
681.952	9845
681.989	9655
682.000	9569
682.048	10052
682.096	9508
682.111	9497
682.143	9373
682.191	9041
682.233	10142
682.239	10278
682.286	8782
682.334	9332
682.354	8992
682.382	8488
682.430	9334
682.476	9539
682.477	9521
682.525	8923
682.572	9090
682.598	9250
682.620	9346
682.667	9169
682.715	9671
682.720	9809
682.763	10801
682.810	9858
682.841	10058
682.857	10143
682.905	9116
682.952	10241
682.963	10083
683.000	9382
683.047	9252
683.085	10176
683.095	10400
683.142	9744
683.190	10048
683.206	9834
683.237	9427
683.284	9669
683.328	10000
683.332	10007
683.379	10199
683.426	9778
683.449	9985
683.473	10149
683.521	9818
683.568	9961
683.571	9992
683.615	10137
683.662	9588
683.693	9871
683.709	9991
683.757	9555
683.804	10599
683.814	10545
683.851	10345
683.898	10849
683.936	10422
683.945	10280
683.992	10232
684.039	10960
684.057	11109
684.086	11401
684.133	10496
684.179	11201
684.180	11195
684.227	11722
684.274	11385
684.300	11358
684.321	11330
684.368	10899
684.415	11619
684.422	11568
684.462	11060
684.509	10720
684.543	10985
684.556	11090
684.603	10796
684.649	10727
684.665	10782
684.696	10998
684.743	11103
684.786	11996
684.790	12055
684.837	11413
684.883	12462
684.908	12579
684.930	12557
684.977	13765
685.023	12787
685.029	12717
685.070	12099
685.117	12432
685.150	12229
685.164	12167
685.210	12759
685.257	13833
685.272	13791
685.303	13629
685.350	12887
685.393	13584
685.396	13637
685.443	14289
685.490	14379
685.514	14158
685.536	13756
685.583	14014
685.629	13486
685.636	13432
685.675	13097
685.722	12666
685.757	12533
685.768	12527
685.815	13668
685.861	13716
685.878	13956
685.908	14332
685.954	13779
686.000	14334
686.000	14343
686.047	15774
686.093	17158
686.121	16977
686.139	16417
686.185	15281
686.232	13743
686.242	13713
686.278	13624
686.324	13243
686.363	12196
686.370	12087
686.416	12809
686.463	13484
686.484	13520
686.509	13526
686.555	13083
686.601	13336
686.606	13323
686.647	13043
686.693	12989
686.727	13077
686.739	13159
686.785	13900
686.831	13343
686.848	13413
686.877	13318
686.923	12438
686.969	12585
686.969	12587
687.015	13071
687.061	13946
687.090	14084
687.107	14008
687.153	13592
687.199	13655
687.211	13388
687.245	12933
687.291	13461
687.332	14072
687.336	14123
687.382	14350
687.428	14194
687.453	14060
687.474	13810
687.520	14132
687.565	13834
687.574	13603
687.611	13017
687.657	13527
687.695	13996
687.702	14118
687.748	14783
687.794	15354
687.816	15470
687.839	15133
687.885	13881
687.931	13527
687.937	13514
687.976	14029
688.022	14149
688.058	14420
688.067	14447
688.113	14448
688.158	14032
688.179	13876
688.204	13882
688.249	14605
688.295	15245
688.300	15216
688.340	14905
688.386	15581
688.421	15228
688.431	15093
688.477	14712
688.522	15268
688.542	15118
688.567	15061
688.613	15069
688.658	15291
688.663	15292
688.703	15401
688.749	15121
688.784	15483
688.794	15534
688.839	15469
688.884	15227
688.905	15025
688.930	14869
688.975	14867
689.020	15334
689.026	15280
689.065	15049
689.110	14910
689.146	15092
689.155	15100
689.201	14394
689.246	14338
689.267	14383
689.291	14606
689.336	14604
689.381	14417
689.388	14433
689.426	14539
689.471	15273
689.509	14710
689.516	14619
689.561	14643
689.606	14714
689.630	14660
689.651	14687
689.696	14614
689.741	15296
689.750	15336
689.785	15356
689.830	14839
689.871	14568
689.875	14556
689.920	14512
689.965	14750
689.992	14295
690.010	14155
690.054	14698
690.099	15381
690.112	15450
690.144	15560
690.189	15566
690.233	15113
690.233	15124
690.278	15199
690.323	14444
690.354	14388
690.367	14531
690.412	15038
690.457	15317
690.474	15330
690.501	15195
690.546	14818
690.590	14451
690.595	14468
690.635	14886
690.680	14515
690.716	14319
690.724	14303
690.769	14914
690.813	14822
690.836	14692
690.857	14780
690.902	15110
690.946	15648
690.957	15734
690.991	16083
691.035	16299
691.077	16723
691.080	16750
691.124	16827
691.168	17177
691.198	17105
691.213	17044
691.257	17323
691.301	16938
691.318	16794
691.346	16690
691.390	16414
691.434	16115
691.439	16106
691.478	16016
691.522	15849
691.559	15586
691.567	15681
691.611	16553
691.655	16644
691.680	16903
691.699	16801
691.743	16454
691.787	16079
691.800	15974
691.831	16404
691.875	16990
691.919	17879
691.921	17865
691.964	17761
692.008	18115
692.041	17898
692.052	17866
692.096	17864
692.139	18176
692.162	18182
692.183	18079
692.227	17577
692.271	17451
692.282	17270
692.315	17090
692.359	17674
692.402	17609
692.403	17634
692.447	17343
692.490	17614
692.523	17761
692.534	17921
692.578	17925
692.622	18338
692.643	18306
692.666	17791
692.709	17281
692.753	16247
692.763	16102
692.797	16495
692.840	16496
692.884	16591
692.884	16619
692.928	17190
692.971	17160
693.004	17352
693.015	17451
693.059	17211
693.102	17490
693.124	17350
693.146	17324
693.189	17768
693.233	18215
693.245	18310
693.276	18504
693.320	18236
693.363	18351
693.365	18310
693.407	18096
693.450	18126
693.485	18186
693.493	18310
693.537	18847
693.580	19223
693.605	19400
693.624	19237
693.667	18796
693.710	18018
693.725	17935
693.753	18682
693.797	19524
693.840	20337
693.845	20401
693.883	19906
693.926	19037
693.966	18358
693.970	18349
694.013	17977
694.056	17624
694.086	17387
694.099	17592
694.142	18270
694.185	18596
694.206	18855
694.229	19123
694.272	19404
694.315	19732
694.326	19756
694.358	19891
694.401	20221
694.444	20506
694.446	20484
694.487	20251
694.530	19604
694.566	19096
694.573	18981
694.616	18197
694.659	17373
694.686	16922
694.702	16972
694.745	16972
694.787	16708
694.806	16645
694.830	16923
694.873	17404
694.916	17792
694.926	17852
694.959	17983
695.002	18025
695.044	18177
695.046	18150
695.087	18529
695.130	18982
695.166	18987
695.172	18994
695.215	18909
695.258	19054
695.286	18937
695.301	18869
695.343	18758
695.386	18371
695.406	18146
695.428	18178
695.471	18488
695.514	18700
695.526	18703
695.556	18792
695.599	19066
695.641	18981
695.646	18972
695.684	19128
695.726	18762
695.766	18829
695.769	18869
695.811	18770
695.854	18410
695.886	18375
695.896	18516
695.938	18898
695.981	19041
696.005	19109
696.023	19224
696.065	19538
696.108	19765
696.125	19866
696.150	20077
696.192	20240
696.235	20520
696.245	20486
696.277	20247
696.319	19908
696.361	19841
696.365	19774
696.404	19421
696.446	19036
696.485	18730
696.488	18811
696.530	19153
696.572	19637
696.604	20025
696.614	20001
696.656	19507
696.698	19254
696.724	18915
696.740	18933
696.783	18917
696.825	19054
696.844	19001
696.867	19203
696.909	19603
696.951	19898
696.964	19972
696.992	19894
697.034	19724
697.076	19398
697.083	19329
697.118	19814
697.160	20350
697.202	20722
697.203	20686
697.244	20537
697.286	20489
697.323	20198
697.327	20266
697.369	20681
697.411	20977
697.442	21122
697.453	21181
697.494	21255
697.536	21384
697.562	21386
697.578	21546
697.620	21867
697.661	22091
697.682	22204
697.703	22524
697.744	23014
697.786	23627
697.801	23729
697.828	23651
697.869	23525
697.911	23303
697.921	23214
697.952	22546
697.994	21618
698.035	20655
698.040	20492
698.077	20672
698.118	20781
698.160	20889
698.160	20840
698.201	21097
698.243	21224
698.279	21315
698.284	21375
698.325	21483
698.367	21567
698.399	21558
698.408	21580
698.449	21479
698.491	21375
698.518	21262
698.532	21345
698.573	21456
698.614	21539
698.638	21541
698.656	21723
698.697	22016
698.738	22330
698.757	22423
698.779	22605
698.820	22849
698.862	23091
698.877	23130
698.903	23258
698.944	23363
698.985	23478
698.996	23458
699.026	23300
699.067	22999
699.116	22592
699.235	21832
699.354	21036
699.474	22130
699.593	24507
699.713	23155
699.832	23770
699.951	24770
700.070	21890
700.190	21005
700.309	23016
700.428	23563
700.547	21192
700.667	22876
700.786	23738
700.905	21432
701.024	23725
701.143	20616
701.262	19909
701.381	21414
701.500	21631
701.619	23228
701.738	20794
701.857	20705
701.976	19409
702.095	19760
702.214	23045
702.333	22789
702.452	21064
702.571	20993
702.690	20195
702.809	19291
702.928	19098
703.047	19705
703.165	19553
703.284	18948
703.403	20187
703.522	21610
703.640	20727
703.759	25446
703.878	29381
703.997	20027
704.115	19233
704.234	18833
704.353	18520
704.471	18170
704.590	17331
704.708	18040
704.827	17656
704.946	18292
705.064	19426
705.183	19178
705.301	22712
705.420	31883
705.538	27053
705.656	22068
705.775	22558
705.893	25568
706.012	25230
706.130	23357
706.249	24189
706.367	24837
706.485	26231
706.604	24706
706.722	25847
706.840	29772
706.958	28839
707.077	23053
707.195	23102
707.313	22554
707.431	22140
707.549	22313
707.668	21952
707.786	22460
707.904	22640
708.022	21891
708.140	21273
708.258	20116
708.376	22543
708.494	22377
708.612	26014
708.730	35589
708.848	30827
708.966	29535
709.084	26830
709.202	26627
709.320	28202
709.438	27407
709.556	28203
709.674	26700
709.791	27328
709.909	26787
710.027	26137
710.145	24383
710.263	26780
710.380	25966
710.498	25135
710.616	25033
710.733	24959
710.851	26548
710.969	25684
711.086	25262
711.204	24308
711.322	25314
711.439	25906
711.557	24757
711.674	24067
711.792	24260
711.909	23823
712.027	22893
712.144	23426
712.262	25116
712.379	29439
712.497	39516
712.614	36481
712.732	31199
712.849	30115
712.966	33241
713.084	37376
713.201	32101
713.318	31969
713.436	31237
713.553	31241
713.670	32137
713.787	35226
713.905	33894
714.022	30108
714.139	31529
714.256	35579
714.373	44624
714.490	69300
714.608	176172
714.725	693536
714.842	455301
714.959	48476
715.076	33810
715.193	31277
715.310	30676
715.427	27779
715.544	26400
715.661	27869
715.778	27714
715.895	29748
716.011	29509
716.128	27528
716.245	28188
716.362	32115
716.479	29669
716.596	27005
716.713	25787
716.829	26885
716.946	25530
717.063	23667
717.180	24933
717.296	23484
717.413	24041
717.530	25960
717.646	24186
717.763	22572
717.880	23778
717.996	23925
718.113	23771
718.229	22805
718.346	22369
718.462	23940
718.579	30370
718.695	45418
718.812	34046
718.928	31948
719.045	23655
719.161	21627
719.277	21946
719.394	21654
719.510	22167
719.626	23748
719.743	29688
719.859	35020
719.975	59926
720.092	219683
720.208	325512
720.324	42079
720.440	26210
720.557	28327
720.673	40533
720.789	53791
720.905	89038
721.021	29207
721.137	21997
721.253	21909
721.369	22408
721.486	26668
721.602	31255
721.718	20889
721.834	19268
721.950	19743
722.066	20012
722.181	19048
722.297	20042
722.413	19743
722.529	19902
722.645	17149
722.761	18166
722.877	18751
722.993	18649
723.108	19879
723.224	18496
723.340	19005
723.456	16625
723.571	18218
723.687	16852
723.803	17795
723.918	16425
724.034	17941
724.150	17604
724.265	21941
724.381	43326
724.497	37700
724.612	17237
724.728	16156
724.843	16865
724.959	21025
725.074	42234
725.190	33367
725.305	18751
725.421	16123
725.536	15886
725.651	15421
725.767	15245
725.882	15214
725.997	15012
726.113	15468
726.228	15333
726.343	13896
726.459	14619
726.574	16261
726.689	14371
726.804	14736
726.920	15007
727.035	15826
727.150	15522
727.265	14916
727.380	16509
727.495	14386
727.610	12946
727.725	14174
727.841	13340
727.956	15431
728.071	16767
728.186	14048
728.301	12976
728.416	15924
728.531	13363
728.645	13215
728.760	14455
728.875	15716
728.990	15163
729.105	14254
729.220	14349
729.335	13627
729.449	12532
729.564	11921
729.679	12380
729.794	13427
729.908	14645
730.023	13142
730.138	11928
730.253	11511
730.367	11244
730.482	12295
730.596	12491
730.711	14002
730.826	13873
730.940	12801
731.055	14711
731.169	12765
731.284	12993
731.398	13263
731.513	15060
731.627	14027
731.742	17795
731.856	16184
731.970	15058
732.085	17896
732.199	21419
732.313	34091
732.428	85946
732.542	230848
732.656	89973
732.771	22038
732.885	16872
732.999	17561
733.113	17490
733.227	17186
733.342	14928
733.456	14786
733.570	13315
733.684	14342
733.798	13966
733.912	13800
734.026	11847
734.140	14780
734.254	15506
734.368	28620
734.482	23867
734.596	13081
734.710	13281
734.824	12671
734.938	12974
735.052	14549
735.166	15692
735.280	13238
735.393	12688
735.507	14470
735.621	19828
735.735	27746
735.849	13641
735.962	13230
736.076	14337
736.190	14448
736.303	20522
736.417	19669
736.531	12843
736.644	12478
736.758	11224
736.872	11761
736.985	11535
737.099	10775
737.212	11733
737.326	11486
737.439	12655
737.553	11154
737.666	11781
737.780	10178
737.893	10483
738.007	10654
738.120	10880
738.233	11254
738.347	10455
738.460	11860
738.573	11555
738.687	12421
738.800	12704
738.913	15124
739.026	10719
739.140	10878
739.253	10541
739.366	10262
739.479	9513
739.592	10225
739.705	9322
739.818	10899
739.932	9858
740.045	11089
740.158	11191
740.271	11389
740.384	10507
740.497	10449
740.610	11908
740.723	11117
740.836	11635
740.949	12324
741.062	16293
741.174	12702
741.287	9898
741.400	9499
741.513	11348
741.626	12624
741.739	11089
741.851	10503
741.964	10159
742.077	11150
742.189	10534
742.302	12812
742.415	12043
742.527	10151
742.640	8852
742.753	9831
742.865	9096
742.978	8982
743.090	9165
743.203	8910
743.316	8526
743.428	9264
743.541	8400
743.653	8833
743.766	9316
743.878	10354
743.990	12722
744.103	11442
744.215	10374
744.327	9371
744.440	13623
744.552	16975
744.664	9333
744.777	8389
744.889	7123
745.001	8813
745.113	7662
745.226	8542
745.338	8171
745.450	9264
745.562	8262
745.674	7804
745.786	7596
745.898	7579
746.010	8026
746.122	8251
746.234	7290
746.347	7992
746.459	7475
746.570	7700
746.682	8236
746.794	9363
746.906	7579
747.018	7759
747.130	7990
747.242	7820
747.354	7524
747.466	8702
747.577	6915
747.689	8657
747.801	7596
747.913	6420
748.024	7260
748.136	6997
748.248	6952
748.359	7195
748.471	7568
748.583	7115
748.694	7139
748.806	9242
748.918	10016
749.029	8700
749.141	8444
749.252	9294
749.364	11419
749.475	20273
749.587	11237
749.698	7673
749.809	7213
749.921	7168
750.032	6701
750.144	6411
750.255	5464
750.366	7033
750.478	6663
750.589	8047
750.700	7794
750.811	8463
750.923	10631
751.034	23445
751.145	17108
751.256	6340
751.367	6787
751.479	6451
751.590	6018
751.701	7210
751.812	5833
751.923	6679
752.034	7095
752.145	6400
752.256	5824
752.367	6887
752.478	5870
752.589	6440
752.700	5332
752.811	6528
752.922	6384
753.032	7767
753.143	7925
753.254	5614
753.365	6732
753.476	6441
753.586	5765
753.697	5647
753.808	5054
753.919	5559
754.029	5588
754.140	6017
754.251	6866
754.361	6239
754.472	6429
754.582	6011
754.693	5895
754.804	6838
754.914	5036
755.025	5172
755.135	5189
755.246	5580
755.356	6068
755.466	6233
755.577	5753
755.687	5920
755.798	5825
755.908	6512
756.018	5489
756.129	5259
756.239	6259
756.349	6146
756.460	5911
756.570	6783
756.680	5797
756.790	6401
756.900	7430
757.011	5847
757.121	5420
757.231	5397
757.341	6449
757.451	4589
757.561	4967
757.671	4722
757.781	5492
757.891	6432
758.001	5659
758.111	5470
758.221	6730
758.331	8863
758.441	7635
758.551	11712
758.661	8551
758.771	7151
758.880	7244
758.990	7156
759.100	6065
759.210	6412
759.320	6887
759.429	6930
759.539	7059
759.649	6211
759.758	7916
759.868	8351
759.978	6926
760.087	8877
760.197	8865
760.307	8151
760.416	6629
760.526	7002
760.635	7046
760.745	7646
760.854	7729
760.964	8562
761.073	8078
761.182	7678
761.292	6578
761.401	8109
761.511	6170
761.620	7348
761.729	7373
761.839	6327
761.948	7133
762.057	7132
762.166	5798
762.276	5600
762.385	6803
762.494	6017
762.603	6356
762.712	7667
762.822	7014
762.931	6299
763.040	5267
763.149	5439
763.258	5497
763.367	6422
763.476	6656
763.585	5667
763.694	6664
763.803	6385
763.912	7742
764.021	6678
764.130	6390
764.238	7119
764.347	6683
764.456	6925
764.565	6699
764.674	6549
764.783	5589
764.891	6003
765.000	6848
765.109	7406
765.217	6785
765.326	9077
765.435	9074
765.543	9095
765.652	8038
765.761	10273
765.869	12879
765.978	17312
766.086	31138
766.195	61951
766.303	191255
766.412	629110
766.520	359101
766.629	54709
766.737	24141
766.846	16715
766.954	12828
767.062	13252
767.171	10912
767.279	9782
767.387	9103
767.496	8511
767.604	8270
767.712	8199
767.820	7660
767.928	8106
768.037	7437
768.145	7835
768.253	8076
768.361	7962
768.469	6773
768.577	7706
768.685	8885
768.793	7802
768.901	6632
769.009	8632
769.117	7135
769.225	9020
769.333	11975
769.441	17305
769.549	27681
769.657	68104
769.765	257035
769.873	460797
769.981	87556
770.088	19612
770.196	13591
770.304	11874
770.412	11016
770.519	9659
770.627	9332
770.735	8413
770.842	7254
770.950	8432
771.058	7219
771.165	8979
771.273	7744
771.380	9165
771.488	9309
771.595	8860
771.703	8963
771.810	9378
771.918	8505
772.025	10399
772.133	9700
772.240	9784
772.348	10632
772.455	10309
772.562	8844
772.670	8532
772.777	10244
772.884	8766
772.991	9076
773.099	9385
773.206	8003
773.313	9590
773.420	8266
773.528	7871
773.635	7874
773.742	8350
773.849	9038
773.956	8656
774.063	8806
774.170	8225
774.277	9841
774.384	8882
774.491	8276
774.598	8859
774.705	9425
774.812	11393
774.919	10194
775.026	9330
775.133	8335
775.239	8580
775.346	7484
775.453	8821
775.560	7979
775.667	7930
775.773	7111
775.880	8710
775.987	7486
776.093	8898
776.200	7975
776.307	7262
776.413	7560
776.520	8901
776.627	8171
776.733	7988
776.840	7089
776.946	10360
777.053	8835
777.159	13293
777.266	9273
777.372	11657
777.478	11720
777.585	8882
777.691	6574
777.798	8810
777.904	8723
778.010	12892
778.117	9520
778.223	8273
778.329	7364
778.435	7855
778.542	7727
778.648	6488
778.754	6328
778.860	8128
778.966	7697
779.072	7870
779.178	6678
779.284	6641
779.391	6939
779.497	6500
779.603	8249
779.708	6400
779.815	8155
779.920	9777
780.026	11191
780.132	8024
780.238	7027
780.344	7170
780.450	8296
780.556	6116
780.661	7268
780.767	7269
780.873	6532
780.979	7906
781.085	7485
781.190	5497
781.296	6397
781.402	6870
781.507	5368
781.613	6818
781.719	6091
781.824	6824
781.930	7456
782.035	6991
782.141	6571
782.246	5904
782.352	6581
782.457	6363
782.563	6262
782.668	7157
782.773	6408
782.879	6471
782.984	7292
783.090	8587
783.195	11532
783.300	8540
783.405	7026
783.511	6809
783.616	7823
783.721	6627
783.826	5625
783.932	7449
784.037	6499
784.142	7044
784.247	6078
784.352	6430
784.457	5923
784.562	6518
784.667	5754
784.772	6086
784.877	4738
784.982	6716
785.087	5913
785.192	6261
785.297	5161
785.402	6037
785.507	5145
785.611	6036
785.716	5915
785.821	5247
785.926	4993
786.031	6269
786.135	5836
786.240	5232
786.345	3470
786.450	5313
786.554	4939
786.659	5163
786.763	4583
786.868	6182
786.973	5990
787.077	5133
787.182	4956
787.286	4992
787.391	4983
787.495	3937
787.600	4463
787.704	5060
787.809	5122
787.913	4879
788.017	5640
788.122	6080
788.226	5045
788.330	3644
788.435	4499
788.539	4961
788.643	4325
788.747	4093
788.852	3959
788.956	4317
789.060	4802
789.164	5145
789.268	3657
789.372	4468
789.476	4320
789.580	3926
789.684	4128
789.788	5661
789.892	5435
789.996	4623
790.100	3939
790.204	5146
790.308	5244
790.412	3620
790.516	4668
790.620	4718
790.724	4481
790.828	3640
790.931	3531
791.035	6240
791.139	4370
791.242	3966
791.346	6065
791.450	4564
791.554	3598
791.657	3518
791.761	6151
791.864	5567
791.968	5056
792.072	4909
792.175	4161
792.279	4073
792.382	4498
792.486	5201
792.589	4875
792.693	4897
792.796	3680
792.899	5604
793.003	5123
793.106	3388
793.209	4085
793.313	5011
793.416	2828
793.519	6669
793.623	7863
793.726	10376
793.829	4226
793.932	4609
794.035	3941
794.138	4845
794.242	5898
794.345	5588
794.448	5746
794.551	8909
794.654	9291
794.757	7010
794.860	6518
794.963	4281
795.066	2703
795.169	4747
795.272	3698
795.375	4258
795.477	2923
795.580	2990
795.683	2184
795.786	4210
795.889	3268
795.991	4464
796.094	5063
796.197	3488
796.300	5013
796.402	3073
796.505	3019
796.608	3269
796.710	4119
796.813	3363
796.915	3433
797.018	3342
797.120	3905
797.223	2590
797.326	4593
797.428	3021
797.530	2951
797.633	3749
797.735	4838
797.838	8200
797.940	5982
798.042	2165
798.145	3546
798.247	4080
798.349	1593
798.452	3468
798.554	3205
798.656	2434
798.758	4693
798.860	3066
798.962	2782
799.065	2574
799.167	1846
799.269	4069
799.371	5020
799.473	5327
799.575	4455
799.677	4378
799.779	5925
799.881	7020
799.983	4699
800.085	3755
800.187	3447
800.289	3267
800.390	2654
800.492	3496
800.594	3768
800.696	1784
800.798	2187
800.899	3465
801.001	3365
801.103	2773
801.205	1930
801.306	2939
801.408	2330
801.509	1943
801.611	2622
801.713	3105
801.814	1906
801.916	2570
802.017	2166
802.119	1933
802.220	2303
802.322	2022
802.423	5167
802.525	2360
802.626	3083
802.727	3341
802.829	3613
802.930	1330
803.031	3979
803.133	2043
803.234	2883
803.335	2434
803.436	1729
803.538	3102
803.639	1347
803.740	3143
803.841	1421
803.942	3019
804.043	2843
804.144	2094
804.245	1869
804.346	2027
804.447	3049
804.548	4706
804.649	5004
804.750	3407
804.851	1887
804.952	2436
805.053	2499
805.154	791
805.255	3008
805.355	2174
805.456	2743
805.557	1933
805.658	592
805.758	3153
805.859	1829
805.960	2990
806.061	1049
806.161	2020
806.262	2412
806.362	2775
806.463	1760
806.564	2360
806.664	2095
806.765	4165
806.865	3285
806.966	2832
807.066	2081
807.166	1830
807.267	2196
807.367	1788
807.468	3020
807.568	1333
807.668	2376
807.769	3269
807.869	2222
807.969	3004
808.069	2462
808.170	2394
808.270	1750
808.370	2893
808.470	4254
808.570	1566
808.670	1880
808.770	2390
808.870	1826
808.970	2671
809.070	1721
809.170	1551
809.271	2774
809.370	2175
809.470	1750
809.570	1925
809.670	992
809.770	1961
809.870	2396
809.970	1807
810.070	1559
810.169	2220
810.269	291
810.369	2794
810.469	2064
810.568	1633
810.668	1784
810.768	1314
810.867	2229
810.967	1244
811.066	1432
811.166	1533
811.265	2691
811.365	2159
811.464	1719
811.564	2162
811.663	2737
811.763	919
811.862	3071
811.962	2787
812.061	1113
812.160	2077
812.260	2370
812.359	3260
812.458	4128
812.557	11125
812.657	11658
812.756	3070
812.855	1720
812.954	1546
813.053	2408
813.153	2600
813.252	1172
813.351	2650
813.450	1837
813.549	2207
813.648	2786
813.747	1741
813.846	2254
813.945	1174
814.044	1777
814.143	2430
814.242	2934
814.341	1868
814.439	2663
814.538	2695
814.637	1907
814.736	1697
814.835	3182
814.933	2230
815.032	3723
815.131	3642
815.229	3910
815.328	5624
815.427	3496
815.525	4060
815.624	4011
815.722	3917
815.821	4492
815.919	5024
816.018	3707
816.116	5112
816.215	4528
816.313	5204
816.412	5180
816.510	6247
816.609	6821
816.707	6817
816.805	5561
816.904	5892
817.002	6697
817.100	6837
817.198	8600
817.296	7150
817.395	8590
817.493	9865
817.591	10140
817.689	14602
817.787	18395
817.885	31731
817.983	57766
818.081	129367
818.179	313448
818.277	679018
818.375	412374
818.473	104877
818.571	46578
818.669	33275
818.767	29813
818.865	31257
818.963	38380
819.061	59905
819.158	109672
819.256	243582
819.354	570740
819.452	980643
819.549	490793
819.647	140843
819.745	61900
819.842	40566
819.940	28552
820.038	21411
820.135	16676
820.233	15198
820.330	12145
820.428	9806
820.525	11317
820.623	8009
820.720	7478
820.818	7903
820.915	6138
821.012	6615
821.110	4667
821.207	6824
821.304	5723
821.402	5772
821.499	6907
821.596	6939
821.693	5885
821.791	5553
821.888	7307
821.985	12861
822.082	7635
822.179	6023
822.276	4094
822.373	4462
822.470	3334
822.567	3870
822.664	2877
822.761	4312
822.858	2914
822.955	4216
823.052	2469
823.149	3661
823.246	4096
823.343	3260
823.440	3686
823.536	3273
823.633	2907
823.730	3898
823.827	3953
823.923	3450
824.020	3526
824.117	3118
824.213	2612
824.310	3552
824.407	2385
824.503	3399
824.600	2579
824.696	3800
824.793	4031
824.889	2540
824.986	2568
825.082	3137
825.179	3531
825.275	2327
825.371	3170
825.468	3043
825.564	845
825.660	3553
825.757	3061
825.853	3566
825.949	2226
826.045	2327
826.142	2104
826.238	2269
826.334	2772
826.430	2448
826.526	2245
826.622	1845
826.718	2327
826.814	2457
826.910	2934
827.006	2079
827.102	1066
827.198	3590
827.294	2255
827.390	3315
827.486	2121
827.582	156
827.678	1228
827.774	4099
827.869	1092
827.965	3057
828.061	1819
828.157	2138
828.252	1934
828.348	893
828.444	2267
828.539	1604
828.635	1844
828.731	2651
828.826	1177
828.922	3262
829.017	1633
829.113	2244
829.208	921
829.304	2882
829.399	3392
829.495	1217
829.590	2063
829.685	1487
829.781	1519
829.876	2388
829.971	1274
830.066	1759
830.162	1584
830.257	2528
830.352	1095
830.447	2802
830.543	2297
830.638	1476
830.733	3305
830.828	1666
830.923	2707
831.018	2864
831.113	2224
831.208	721
831.303	1469
831.398	1483
831.493	1330
831.588	2608
831.683	439
831.778	1315
831.873	1430
831.967	2893
832.062	1345
832.157	1670
832.252	2776
832.346	2010
832.441	2842
832.536	4944
832.631	10115
832.725	6471
832.820	1627
832.914	2329
833.009	1841
833.104	3475
833.198	3380
833.293	1944
833.387	2279
833.482	2787
833.576	837
833.670	1745
833.765	1880
833.859	2559
833.954	2548
834.048	1890
834.142	1880
834.237	724
834.331	1845
834.425	1691
834.519	1116
834.613	2510
834.708	1267
834.802	1457
834.896	1017
834.990	984
835.084	1582
835.178	1630
835.272	1401
835.366	697
835.460	2148
835.554	1831
835.648	1835
835.742	826
835.836	1413
835.930	1452
836.024	1589
836.117	2776
836.211	1575
836.305	3378
836.399	3577
836.493	829
836.586	1802
836.680	1355
836.774	674
836.867	1535
836.961	535
837.055	859
837.148	1325
837.242	1521
837.335	1293
837.429	2293
837.522	1152
837.616	2928
837.709	4920
837.803	2546
837.896	2484
837.989	2393
838.083	3791
838.176	7347
838.269	4113
838.363	2393
838.456	2061
838.549	4456
838.642	5538
838.735	10504
838.829	3271
838.922	1037
839.015	1014
839.108	987
839.201	1900
839.294	1678
839.387	1422
839.480	2136
839.573	3677
839.666	3445
839.759	1567
839.852	422
839.945	1560
840.038	1067
840.131	889
840.223	1093
840.316	858
840.409	1368
840.502	1172
840.594	1489
840.687	-327
840.780	1597
840.873	531
840.965	2207
841.058	3094
841.150	6660
841.243	2727
841.336	2166
841.428	1025
841.521	686
841.613	1961
841.706	1911
841.798	691
841.890	1047
841.983	363
842.075	2044
842.167	1709
842.260	2053
842.352	3057
842.444	4201
842.537	7895
842.629	7859
842.721	2411
842.813	803
842.905	774
842.997	1986
843.090	1455
843.182	4155
843.274	8164
843.366	18624
843.458	28961
843.550	13961
843.642	2379
843.734	2214
843.826	1919
843.918	1932
844.009	1662
844.101	1189
844.193	1244
844.285	1466
844.377	1059
844.469	1898
844.560	1822
844.652	2394
844.744	1252
844.835	1596
844.927	2107
845.019	2263
845.110	784
845.202	1399
845.293	1458
845.385	619
845.476	776
845.568	1097
845.659	521
845.751	1417
845.842	924
845.934	623
846.025	406
846.116	742
846.208	1450
846.299	674
846.390	1204
846.482	1404
846.573	2310
846.664	3155
846.755	4570
846.846	3122
846.937	75
847.029	429
847.120	592
847.211	564
847.302	2047
847.393	259
847.484	1513
847.575	221
847.666	640
847.757	1567
847.847	-51
847.938	2010
848.029	1713
848.120	856
848.211	1189
848.302	288
848.392	386
848.483	920
848.574	50
848.664	1285
848.755	846
848.846	1434
848.936	856
849.027	1751
849.118	944
849.208	483
849.299	2642
849.389	5311
849.480	9637
849.570	18676
849.661	36389
849.751	52356
849.841	15074
849.932	2012
850.022	1124
850.112	1017
850.203	1009
850.293	1449
850.383	1328
850.474	1285
850.564	744
850.654	1979
850.744	698
850.834	1212
850.924	251
851.014	2253
851.104	826
851.194	1447
851.284	1603
851.374	1895
851.464	1308
851.554	2244
851.644	1388
851.734	2935
851.824	1260
851.914	261
852.004	1192
852.094	801
852.183	579
852.273	665
852.363	241
852.452	736
852.542	1221
852.632	1305
852.721	823
852.811	660
852.901	1616
852.990	529
853.080	1430
853.169	1660
853.259	1248
853.348	1945
853.438	2675
853.527	4797
853.617	6511
853.706	13091
853.795	25996
853.885	60355
853.974	108131
854.063	203801
854.152	273822
854.242	81909
854.331	13090
854.420	6487
854.509	3808
854.598	4348
854.687	3993
854.777	3419
854.866	1937
854.955	2312
855.044	1244
855.133	1240
855.222	445
855.311	1037
855.400	973
855.488	1677
855.577	224
855.666	1172
855.755	847
855.844	1252
855.933	676
856.021	979
856.110	669
856.199	806
856.288	811
856.376	721
856.465	-591
856.554	1974
856.642	1070
856.731	1771
856.819	143
856.908	1749
856.996	51
857.085	913
857.173	849
857.262	1527
857.350	981
857.438	1350
857.527	763
857.615	561
857.703	66
857.792	794
857.880	4
857.968	-102
858.056	769
858.145	1178
858.233	392
858.321	-74
858.409	1409
858.497	455
858.585	-251
858.673	526
858.761	-307
858.849	223
858.937	182
859.025	980
859.113	404
859.201	956
859.289	1994
859.377	533
859.465	798
859.552	782
859.640	942
859.728	1261
859.816	597
859.903	1902
859.991	533
860.079	622
860.166	404
860.254	513
860.342	51
860.429	-87
860.517	-267
860.604	1419
860.692	320
860.779	830
860.867	78
860.954	1461
861.042	759
861.129	2322
861.216	1416
861.304	1007
861.391	262
861.478	650
861.565	687
861.653	1233
861.740	667
861.827	636
861.914	540
862.001	391
862.089	-64
862.176	1040
862.263	-269
862.350	1683
862.437	268
862.524	318
862.611	-29
862.698	691
862.785	263
862.871	1269
862.958	441
863.045	484
863.132	1177
863.219	636
863.306	630
863.392	1092
863.479	260
863.566	511
863.652	573
863.739	455
863.826	407
863.912	978
863.999	728
864.086	1474
864.172	1256
864.259	497
864.345	936
864.432	873
864.518	242
864.604	1143
864.691	1217
864.777	1954
864.863	1232
864.950	2791
865.036	3060
865.122	4739
865.209	4674
865.295	3595
865.381	3314
865.467	4421
865.553	5125
865.639	8267
865.726	14412
865.812	29875
865.898	54415
865.984	79629
866.070	154168
866.156	136119
866.242	30748
866.328	6979
866.414	4857
866.499	5183
866.585	3564
866.671	3184
866.757	3911
866.843	3118
866.928	1968
867.014	2839
867.100	2791
867.186	2971
867.271	3959
867.357	4721
867.442	4396
867.528	3571
867.614	2749
867.699	3204
867.785	3620
867.870	4021
867.956	3647
868.041	4136
868.127	2931
868.212	4085
868.297	3836
868.383	3519
868.468	3841
868.553	7087
868.639	7434
868.724	13834
868.809	10008
868.894	3600
868.979	2549
869.065	2471
869.150	2278
869.235	2634
869.320	1917
869.405	1646
869.490	1632
869.575	2368
869.660	1871
869.745	2516
869.830	1767
869.915	1988
870.000	1450
870.085	1740
870.169	2718
870.254	3090
870.339	1420
870.424	1907
870.509	1367
870.593	1945
870.678	2207
870.763	1674
870.847	1045
870.932	1835
871.016	1696
871.101	2149
871.186	1208
871.270	1742
871.355	1218
871.439	1669
871.523	1169
871.608	1322
871.692	1601
871.777	2749
871.861	1444
871.945	1283
872.030	2528
872.114	1472
872.198	1504
872.282	1779
872.367	1125
872.451	1441
872.535	1146
872.619	1389
872.703	1086
872.787	932
872.871	1692
872.955	684
873.039	871
873.123	1810
873.207	1885
873.291	1351
873.375	621
873.459	1690
873.543	1272
873.627	1104
873.711	142
873.794	1664
873.878	769
873.962	966
874.045	855
874.129	1445
874.137	1455
874.213	1550
874.245	1568
874.296	1598
874.352	587
874.380	89
874.460	977
874.464	1013
874.547	1275
874.568	1354
874.631	1540
874.676	1467
874.714	1443
874.784	1626
874.798	1647
874.881	1446
874.892	1414
874.965	1292
874.999	1232
875.048	1095
875.107	1179
875.131	1218
875.215	867
875.215	867
875.298	739
875.323	805
875.381	955
875.430	1548
875.465	1949
875.538	1082
875.548	959
875.631	681
875.646	742
875.714	1127
875.753	1286
875.798	1438
875.861	1549
875.881	1575
875.964	1944
875.968	1916
876.047	1548
876.076	1829
876.130	2297
876.183	1825
876.213	1548
876.291	2143
876.296	2184
876.379	1582
876.398	1716
876.462	2152
876.506	1703
876.545	1306
876.613	1772
876.628	1903
876.711	1605
876.721	1685
876.794	2017
876.828	1693
876.877	1280
876.935	1671
876.960	1876
877.043	2020
877.043	2021
877.125	2505
877.150	2634
877.208	2764
877.258	2768
877.291	2742
877.365	2211
877.374	2148
877.456	2054
877.472	2145
877.539	2587
877.579	2332
877.622	2184
877.687	2623
877.704	2688
877.787	2798
877.794	2721
877.869	1918
877.901	2064
877.952	2316
878.008	2180
878.034	2042
878.115	1028
878.117	1015
878.199	1541
878.222	1682
878.282	2245
878.329	2472
878.364	2535
878.437	2643
878.447	2644
878.529	1486
878.544	1519
878.611	1774
878.651	1751
878.694	1756
878.758	2223
878.776	2359
878.858	1992
878.865	2037
878.941	2379
878.972	2173
879.023	1987
879.078	2347
879.105	2615
879.185	3472
879.187	3483
879.269	2888
879.292	2636
879.351	2060
879.399	1976
879.433	1972
879.506	2411
879.516	2472
879.598	2342
879.613	2373
879.680	2269
879.720	2465
879.762	3050
879.827	2822
879.844	2640
879.926	2578
879.933	2612
880.007	2849
880.040	2882
880.089	3319
880.147	3904
880.171	4241
880.253	7175
880.254	7186
880.335	9623
880.360	10389
880.417	14585
880.467	21469
880.499	25395
880.574	27649
880.580	26929
880.662	9845
880.680	7400
880.744	3869
880.787	2495
880.825	2103
880.893	2425
880.907	2440
880.989	1891
881.000	1925
881.070	2854
881.106	2822
881.152	2312
881.213	1698
881.233	1671
881.315	2140
881.319	2163
881.396	2478
881.426	2393
881.478	2164
881.532	2242
881.559	2410
881.639	2153
881.641	2140
881.722	2225
881.745	2090
881.803	2260
881.852	2443
881.885	2405
881.958	2621
881.966	2675
882.047	3507
882.064	3460
882.129	3791
882.171	4680
882.210	6109
882.277	7736
882.291	7477
882.372	4562
882.383	4351
882.454	3385
882.489	2595
882.535	2259
882.596	2398
882.616	2510
882.697	2459
882.702	2495
882.778	3061
882.808	2918
882.859	2452
882.914	2168
882.940	2190
883.020	2471
883.021	2484
883.102	3082
883.127	3229
883.183	3145
883.233	2996
883.264	2858
883.339	2274
883.345	2247
883.426	2028
883.445	2033
883.507	2643
883.551	2759
883.587	2676
883.657	3024
883.668	3145
883.749	3520
883.763	3613
883.830	3115
883.869	2698
883.910	2621
883.975	2608
883.991	2677
884.072	3072
884.081	3094
884.152	3244
884.187	3345
884.233	3416
884.292	3121
884.314	2830
884.394	2170
884.398	2122
884.475	2330
884.504	2373
884.555	2227
884.610	2079
884.636	2123
884.716	2640
884.716	2656
884.797	3524
884.821	3754
884.877	3440
884.927	3243
884.958	2985
885.033	2058
885.038	2060
885.118	2288
885.139	2261
885.199	2428
885.244	2821
885.279	3045
885.350	3168
885.359	3242
885.439	3875
885.456	3954
885.520	3565
885.561	3484
885.600	3303
885.667	2643
885.680	2715
885.760	3214
885.773	3289
885.840	2753
885.878	2533
885.920	2816
885.984	2995
886.000	3090
886.080	3650
886.089	3680
886.160	3315
886.195	3178
886.240	3307
886.300	3438
886.320	3553
886.400	4180
886.406	4199
886.480	4220
886.511	4193
886.560	4485
886.616	4787
886.640	4523
886.720	3443
886.722	3409
886.800	3723
886.827	3786
886.879	3641
886.932	3721
886.959	4005
887.038	4390
887.039	4393
887.119	3618
887.143	3373
887.198	3986
887.248	4557
887.278	4262
887.354	3314
887.358	3321
887.437	3305
887.459	3276
887.517	3760
887.564	4191
887.596	4010
887.669	3528
887.676	3488
887.755	2791
887.774	2630
887.835	2799
887.880	2944
887.914	3211
887.985	3622
887.994	3639
888.073	3702
888.090	3720
888.153	4070
888.195	4208
888.232	3792
888.300	3143
888.311	3234
888.391	3691
888.405	3762
888.470	3410
888.510	3146
888.549	3165
888.615	3310
888.628	3491
888.708	4380
888.720	4531
888.787	4022
888.825	3601
888.866	3268
888.930	2830
888.945	2948
889.024	3522
889.035	3583
889.103	4204
889.140	4533
889.182	4364
889.245	4106
889.261	4155
889.340	4291
889.349	4295
889.419	3680
889.454	3362
889.498	3276
889.559	3142
889.577	3346
889.656	4193
889.664	4268
889.735	4080
889.768	3973
889.814	4308
889.873	4724
889.978	3871
890.083	3752
890.187	4767
890.292	4161
890.397	4271
890.501	4361
890.606	4229
890.710	4546
890.815	4439
890.919	3849
891.024	3890
891.128	3488
891.233	4129
891.337	4908
891.442	4486
891.546	4300
891.650	4170
891.755	3539
891.859	5213
891.963	5251
892.068	4752
892.172	4702
892.276	3766
892.380	4312
892.484	4506
892.589	4575
892.693	3864
892.797	3153
892.901	3043
893.005	3302
893.109	4753
893.213	4155
893.317	4225
893.421	3598
893.525	3387
893.629	2989
893.733	4085
893.837	3938
893.941	2559
894.045	4082
894.148	3060
894.252	3902
894.356	4958
894.460	4998
894.564	4360
894.667	3531
894.771	3525
894.875	3502
894.978	3809
895.082	4286
895.186	3135
895.289	4107
895.393	3887
895.496	3639
895.600	2828
895.703	3114
895.807	1969
895.910	3479
896.014	4550
896.117	3260
896.221	4603
896.324	4086
896.427	3119
896.531	3648
896.634	3979
896.737	3851
896.840	3455
896.944	4098
897.047	4200
897.150	3173
897.253	3741
897.356	3596
897.460	4054
897.563	3267
897.666	4154
897.769	3827
897.872	3566
897.975	3652
898.078	3157
898.181	3476
898.284	2551
898.387	4576
898.490	4419
898.593	3721
898.695	3938
898.798	3928
898.901	3832
899.004	3609
899.107	3916
899.209	3566
899.312	4114
899.415	3137
899.518	3406
899.620	3433
899.723	4110
899.826	7555
899.928	7781
900.031	3928
900.133	3230
900.236	2419
900.338	2527
900.441	3697
900.543	3096
900.646	3152
900.748	2844
900.851	3659
900.953	3651
901.055	3664
901.158	3864
901.260	2928
901.362	2961
901.465	3645
901.567	3198
901.669	3940
901.771	3071
901.873	3838
901.976	2766
902.078	3916
902.180	2971
902.282	3361
902.384	3780
902.486	3357
902.588	4890
902.690	3524
902.792	2416
902.894	3860
902.996	3546
903.098	3352
903.200	2822
903.302	3755
903.404	3618
903.505	2634
903.607	2866
903.709	4658
903.811	3783
903.913	3504
904.014	1955
904.116	3131
904.218	3895
904.319	3528
904.421	3892
904.523	3880
904.624	2527
904.726	2603
904.827	2364
904.929	2835
905.030	3672
905.132	3457
905.233	3659
905.335	2655
905.436	1729
905.537	2844
905.639	3163
905.740	3271
905.841	3780
905.943	3895
906.044	3354
906.145	3087
906.247	2736
906.348	2885
906.449	3648
906.550	2520
906.651	3210
906.752	3304
906.854	1908
906.955	2976
907.056	2199
907.157	3909
907.258	3156
907.359	3166
907.460	2841
907.561	3034
907.662	3237
907.762	3356
907.863	3253
907.964	4217
908.065	3893
908.166	2781
908.267	3078
908.367	2970
908.468	2682
908.569	3314
908.670	4350
908.770	5327
908.871	4802
908.971	5291
909.072	4739
909.173	3547
909.273	3174
909.374	4090
909.474	3429
909.575	3114
909.675	2865
909.776	4067
909.876	3242
909.977	3806
910.077	3932
910.177	2831
910.278	3132
910.378	3111
910.478	2192
910.579	3808
910.679	3018
910.779	3985
910.879	2691
910.980	3864
911.080	2755
911.180	3012
911.280	3339
911.380	2678
911.480	2554
911.580	3836
911.680	3239
911.780	4177
911.880	4766
911.980	3493
912.080	3855
912.180	3114
912.280	2986
912.380	2796
912.480	2093
912.580	2446
912.679	3230
912.779	3677
912.879	3318
912.979	2814
913.078	2690
913.178	2743
913.278	3183
913.377	2496
913.477	2168
913.577	3520
913.676	2991
913.776	3446
913.875	2120
913.975	2866
914.074	3565
914.174	3227
914.273	1971
914.373	3523
914.472	2816
914.572	2842
914.671	2846
914.770	3769
914.870	2115
914.969	2587
915.068	3433
915.167	3831
915.267	2586
915.366	2396
915.465	4084
915.564	3409
915.663	2684
915.763	3210
915.862	3984
915.961	4161
916.060	2869
916.159	2728
916.258	2188
916.357	2970
916.456	2946
916.555	3107
916.654	3528
916.752	4050
916.851	3094
916.950	3320
917.049	2924
917.148	2902
917.247	2743
917.345	2557
917.444	2246
917.543	3348
917.642	2686
917.740	3476
917.839	2833
917.937	3893
918.036	2984
918.135	2674
918.233	2706
918.332	2269
918.430	2234
918.529	2888
918.627	3329
918.726	3206
918.824	3273
918.923	3181
919.021	2348
919.119	2895
919.218	3131
919.316	4127
919.414	2832
919.512	4252
919.611	2735
919.709	3904
919.807	3710
919.905	4123
920.003	3168
920.102	3750
920.200	3495
920.298	3990
920.396	3464
920.494	3328
920.592	3253
920.690	4529
920.788	3241
920.886	3825
920.984	3466
921.082	3723
921.180	4283
921.277	3757
921.375	4243
921.473	5332
921.571	4174
921.669	5724
921.766	5071
921.864	5547
921.962	4547
922.060	4463
922.157	4969
922.255	4517
922.352	4541
922.450	6145
922.548	4715
922.645	5834
922.743	7136
922.840	9078
922.938	9332
923.035	9175
923.133	8664
923.230	10567
923.327	10683
923.425	11012
923.522	10931
923.619	9184
923.717	9610
923.814	8086
923.911	8496
924.008	9126
924.106	8938
924.203	8007
924.300	8501
924.397	8671
924.494	9481
924.591	8795
924.688	8295
924.786	8430
924.883	8332
924.979	9170
925.077	8233
925.173	8228
925.270	7859
925.367	8694
925.464	8911
925.561	9711
925.658	8953
925.755	9300
925.852	10105
925.948	8650
926.045	8277
926.142	9231
926.239	7403
926.335	7900
926.432	8900
926.529	8786
926.625	9447
926.722	6763
926.818	6151
926.915	7806
927.011	8434
927.108	8518
927.204	7422
927.301	7357
927.397	8760
927.494	8792
927.590	7014
927.687	7241
927.783	8620
927.879	8648
927.976	7845
928.072	7462
928.168	7590
928.264	7333
928.361	7730
928.457	8574
928.553	6748
928.649	8278
928.745	7490
928.841	6860
928.937	7502
929.033	7360
929.129	7728
929.225	8312
929.321	7233
929.417	7266
929.513	6985
929.609	6761
929.705	7946
929.801	7634
929.897	6215
929.993	7845
930.089	6489
930.184	6903
930.280	7427
930.376	8099
930.471	5873
930.567	6703
930.663	6496
930.758	5901
930.854	7045
930.950	7055
931.045	6241
931.141	7107
931.236	8403
931.332	5871
931.427	6442
931.523	8347
931.618	6382
931.714	5001
931.809	6909
931.905	7288
932.000	5599
932.095	5232
932.191	6696
932.286	6889
932.381	5095
932.476	5233
932.572	5675
932.667	5461
932.762	5640
932.857	6127
932.952	7205
933.047	5644
933.142	4815
933.237	5759
933.332	6525
933.427	7277
933.522	5444
933.617	5827
933.712	6698
933.807	7196
933.902	7187
933.997	7153
934.092	5343
934.187	6400
934.282	5811
934.376	6625
934.471	6248
934.566	5508
934.661	6319
934.755	6121
934.850	5772
934.945	5121
935.039	5855
935.134	5473
935.228	5407
935.323	7243
935.417	5372
935.512	3827
935.606	4852
935.701	6101
935.795	6410
935.890	5433
935.984	4817
936.079	5420
936.173	5802
936.267	4926
936.362	4895
936.456	6221
936.550	7077
936.644	6020
936.738	4963
936.833	4884
936.927	4689
937.021	5205
937.115	5829
937.209	4996
937.303	5741
937.397	4985
937.491	5254
937.585	5763
937.679	5218
937.773	5642
937.867	3860
937.961	4812
938.055	5875
938.149	5871
938.243	3282
938.337	4706
938.430	4822
938.524	5572
938.618	5156
938.712	4578
938.805	5509
938.899	6156
938.993	5192
939.086	3669
939.180	3106
939.274	4766
939.367	5573
939.461	5273
939.554	4615
939.648	4145
939.741	4756
939.835	5199
939.928	5576
940.022	5415
940.115	5086
940.208	5886
940.302	6423
940.395	6262
940.488	4278
940.582	5773
940.675	3761
940.768	4267
940.861	5846
940.954	6025
941.048	4021
941.141	4355
941.234	5071
941.327	7005
941.420	6839
941.513	5848
941.606	4166
941.699	4865
941.792	5356
941.885	4099
941.978	4314
942.071	6022
942.164	3670
942.257	3567
942.349	5201
942.442	4261
942.535	4059
942.628	4037
942.721	4048
942.813	4180
942.906	5072
942.999	4853
943.091	5501
943.184	5112
943.277	3827
943.369	3931
943.462	3699
943.554	4060
943.647	4736
943.739	5721
943.832	4385
943.924	3350
944.017	3162
944.109	3591
944.201	4284
944.294	4292
944.386	3916
944.478	3646
944.571	4011
944.663	3735
944.755	4694
944.847	4864
944.940	4646
945.032	2870
945.124	3480
945.216	4551
945.308	4397
945.400	4355
945.492	4390
945.584	4198
945.676	4448
945.768	4675
945.860	4812
945.952	4521
946.044	3500
946.136	3331
946.228	4203
946.320	2985
946.412	3890
946.503	5023
946.595	3768
946.687	2736
946.779	3111
946.870	3292
946.962	3098
947.054	3733
947.145	4865
947.237	3334
947.329	4694
947.420	3454
947.512	3832
947.603	3094
947.695	2962
947.786	3470
947.878	3013
947.969	3780
948.061	3776
948.152	3478
948.243	2947
948.335	3538
948.426	2530
948.517	3565
948.609	2944
948.700	4289
948.791	2847
948.882	2979
948.973	3593
949.065	4337
949.156	3408
949.247	3103
949.338	2854
949.429	2342
949.520	2475
949.611	2999
949.702	3887
949.793	3519
949.884	2958
949.975	3191
950.066	1975
950.157	2418
950.247	3438
950.338	3661
950.429	3055
950.520	4029
950.611	3745
950.701	4406
950.792	4533
950.883	4080
950.973	3481
951.064	3701
951.155	3884
951.245	4123
951.336	3748
951.427	3227
951.517	4957
951.608	3324
951.698	1610
951.788	2977
951.879	2492
951.969	2157
952.060	3127
952.150	3735
952.240	3708
952.331	2591
952.421	4648
952.511	2474
952.602	2755
952.692	2110
952.782	2409
952.872	2764
952.962	3598
953.052	3081
953.143	2883
953.233	2837
953.323	4038
953.413	3366
953.503	3103
953.593	3787
953.683	2692
953.773	2741
953.863	2821
953.953	2748
954.042	2637
954.132	2956
954.222	3256
954.312	2531
954.402	3848
954.492	4965
954.581	6345
954.671	3775
954.761	2830
954.850	3400
954.940	1919
955.030	2625
955.119	2414
955.209	2540
955.298	1650
955.388	3038
955.477	3189
955.567	1774
955.656	2409
955.746	2615
955.835	2685
955.925	2219
956.014	2899
956.103	4192
956.193	3525
956.282	2771
956.371	2461
956.461	3062
956.550	2967
956.639	3044
956.728	2350
956.817	1894
956.906	2933
956.995	3648
957.085	2415
957.174	2902
957.263	2142
957.352	2313
957.441	2918
957.530	2629
957.619	2638
957.708	2491
957.796	2086
957.885	2723
957.974	1651
958.063	2642
958.152	1425
958.241	1523
958.329	2088
958.418	1734
958.507	1675
958.596	3198
958.684	2197
958.773	3122
958.861	2568
958.950	2121
959.039	2430
959.127	3100
959.216	2987
959.304	2203
959.393	3439
959.481	2142
959.570	1920
959.658	2658
959.746	2362
959.835	6206
959.923	6411
960.011	3561
960.100	3313
960.188	3503
960.276	1085
960.365	1748
960.453	1997
960.541	1679
960.629	2598
960.717	2632
960.805	2145
960.893	1955
960.981	2343
961.069	3295
961.158	2933
961.245	3632
961.333	2576
961.421	2596
961.509	2662
961.597	3032
961.685	1685
961.773	2225
961.861	1764
961.949	2970
962.036	820
962.124	2725
962.212	2219
962.299	1822
962.387	1863
962.475	2195
962.562	1583
962.650	2826
962.738	2399
962.825	1934
962.913	1996
963.000	2373
963.088	2289
963.175	2164
963.263	2380
963.350	2692
963.438	2521
963.525	4555
963.612	8586
963.700	17558
963.787	27335
963.874	11496
963.962	2592
964.049	2118
964.136	2168
964.223	1331
964.310	1783
964.398	2223
964.485	1648
964.572	4144
964.659	5605
964.746	4616
964.833	2407
964.920	1907
965.007	1922
965.094	2107
965.181	2430
965.268	2854
965.355	2670
965.441	1536
965.528	1913
965.615	4124
965.702	2629
965.789	2287
965.875	2727
965.962	2414
966.049	2087
966.136	2474
966.222	2352
966.309	2848
966.395	2526
966.482	2768
966.569	2085
966.655	2603
966.742	1564
966.828	1929
966.915	1375
967.001	2475
967.087	1968
967.174	2089
967.260	3432
967.347	5989
967.433	13162
967.519	17947
967.605	6274
967.692	2673
967.778	1584
967.864	2002
967.950	1565
968.036	2184
968.123	1967
968.209	1874
968.295	1497
968.381	3075
968.467	1552
968.553	1606
968.639	2691
968.725	2719
968.811	4915
968.897	3946
968.983	2130
969.069	1731
969.154	1682
969.240	1776
969.326	1742
969.412	1180
969.497	2082
969.583	1732
969.669	2768
969.755	2531
969.840	1739
969.926	3537
970.012	3242
970.097	5184
970.183	3402
970.268	3211
970.354	4501
970.439	7670
970.525	11441
970.610	3662
970.696	2510
970.781	1260
970.866	1186
970.952	2283
971.037	1509
971.122	1757
971.208	1534
971.293	1219
971.378	773
971.463	1805
971.549	2183
971.634	1978
971.719	2036
971.804	3092
971.889	2484
971.974	1674
972.059	1928
972.144	1762
972.229	1576
972.314	1613
972.399	2485
972.484	1688
972.569	2155
972.654	2712
972.739	6983
972.824	5864
972.908	2654
972.993	1856
973.078	366
973.163	1561
973.247	1549
973.332	-228
973.417	1827
973.501	1170
973.586	1832
973.671	1138
973.755	2187
973.840	3189
973.924	2615
974.009	2421
974.093	1885
974.178	5342
974.262	6122
974.346	5373
974.431	2947
974.515	1618
974.600	1760
974.684	1718
974.768	1567
974.852	2302
974.937	577
975.021	1972
975.105	826
975.189	1493
975.273	1783
975.358	712
975.442	833
975.526	1800
975.610	1526
975.694	1460
975.778	1624
975.862	1413
975.946	-907
976.030	2264
976.114	1124
976.198	1761
976.281	620
976.365	2871
976.449	1196
976.533	1426
976.617	574
976.700	1771
976.784	1338
976.868	2366
976.951	4247
977.035	2519
977.119	1438
977.202	971
977.286	1565
977.369	2638
977.453	3057
977.536	2266
977.620	995
977.703	1772
977.787	872
977.870	2285
977.953	2058
978.037	1545
978.120	3397
978.203	5960
978.287	6228
978.370	3461
978.453	714
978.536	2430
978.620	3753
978.703	3963
978.786	2287
978.869	618
978.952	727
979.035	2579
979.118	1017
979.201	691
979.284	1491
979.367	1248
979.450	1806
979.533	994
979.616	1733
979.699	1633
979.782	1737
979.865	658
979.948	913
980.030	1183
980.113	542
980.196	547
980.279	1281
980.361	1045
980.444	647
980.526	2104
980.609	1986
980.692	1706
980.774	1179
980.857	445
980.939	2624
981.022	1679
981.104	1347
981.187	1584
981.269	1192
981.352	1468
981.434	774
981.516	470
981.599	1876
981.681	2072
981.763	1225
981.846	381
981.928	1399
982.010	1331
982.092	215
982.174	1578
982.256	679
982.339	988
982.421	588
982.503	1370
982.585	760
982.667	1326
982.749	1341
982.831	1031
982.913	779
982.995	2325
983.077	1026
983.158	2628
983.240	1297
983.322	1825
983.404	2551
983.486	1669
983.568	942
983.649	1122
983.731	1782
983.813	975
983.894	1569
983.976	862
984.058	945
984.139	2166
984.221	-101
984.302	2166
984.384	1875
984.465	501
984.547	1568
984.628	570
984.710	1616
984.791	1065
984.872	1636
984.954	758
985.035	1121
985.116	978
985.198	1830
985.279	2223
985.360	566
985.441	1440
985.522	2068
985.604	882
985.685	-76
985.766	1699
985.847	2825
985.928	888
986.009	1762
986.090	1158
986.171	1672
986.252	1783
986.333	923
986.414	1556
986.495	2012
986.576	1350
986.656	1109
986.737	1969
986.818	1629
986.899	1051
986.980	1107
987.060	2115
987.141	1023
987.222	1913
987.302	2268
987.383	1917
987.464	1357
987.544	1772
987.625	1392
987.705	2195
987.786	1592
987.866	2128
987.947	1569
988.027	1776
988.108	350
988.188	1831
988.268	1906
988.349	1776
988.429	1498
988.509	2216
988.589	1036
988.670	133
988.750	2251
988.830	1333
988.910	1647
988.990	1195
989.070	1324
989.151	1301
989.231	291
989.311	1145
989.391	1178
989.471	549
989.551	1091
989.631	617
989.711	1759
989.791	753
989.870	1253
989.950	1247
990.030	967
990.110	1201
990.190	116
990.269	587
990.349	481
990.429	940
990.509	968
990.588	158
990.668	1623
990.747	1319
990.827	774
990.907	1817
990.986	419
991.066	1634
991.145	656
991.225	1185
991.304	187
991.383	1598
991.463	217
991.542	923
991.622	627
991.701	977
991.780	-31
991.859	619
991.939	208
992.018	1373
992.097	651
992.176	1795
992.256	1116
992.335	1100
992.414	1896
992.493	1098
992.572	421
992.651	1405
992.730	145
992.809	1457
992.888	66
992.967	869
993.046	648
993.125	-971
993.203	221
993.282	139
993.361	456
993.440	1385
993.519	-607
993.597	425
993.676	-244
993.755	1161
993.834	227
993.912	40
993.991	1198
994.069	-584
994.148	-350
994.226	-195
994.305	366
994.384	112
994.462	1182
994.540	-431
994.619	-384
994.697	453
994.776	110
994.854	1344
994.932	-263
995.011	738
995.089	-124
995.167	369
995.245	133
995.324	-474
995.402	524
995.480	181
995.558	-117
995.636	-1073
995.714	-170
995.792	318
995.870	-673
995.948	50
996.026	413
996.104	-343
996.182	326
996.260	174
996.338	157
996.416	-446
996.494	-594
996.572	683
996.649	-583
996.727	-409
996.805	-451
996.883	-949
996.960	-172
997.038	821
997.116	-18
997.193	-907
997.271	-228
997.348	248
997.426	-562
997.504	248
997.581	245
997.658	239
997.736	-946
997.813	-359
997.891	311
997.968	-524
998.046	-27
998.123	171
998.200	249
998.277	-1283
998.355	-272
998.432	-1340
998.509	409
998.586	769
998.663	-960
998.741	-79
998.818	-718
998.895	-440
998.972	-240
999.049	-667
999.126	-1300
999.203	15
999.280	-326
999.357	-516
999.434	43
999.511	185
999.587	91
999.664	403
999.741	-707
999.818	717
999.895	-1148
999.971	-971
1000.048	-464
1000.125	304
1000.202	-641
1000.278	-218
1000.355	-33
1000.431	-651
1000.508	-1090
1000.584	-99
1000.661	8
1000.738	-1186
1000.814	-259
1000.890	208
1000.967	-1082
1001.043	75
1001.120	-1479
1001.196	-120
1001.272	-1212
1001.349	-853
1001.425	259
1001.501	-311
1001.577	-1198
1001.654	-185
1001.730	-1264
1001.806	-673
1001.882	-1887
1001.958	251
1002.034	-92
1002.110	-539
1002.186	-849
1002.262	-1283
1002.338	-934
1002.414	-35
1002.490	379
1002.566	-481
1002.642	-703
1002.718	1505
1002.794	-90
1002.870	-353
1002.945	-684
1003.021	-743
1003.097	-724
1003.173	72
1003.248	-496
1003.324	75
1003.400	-426
1003.475	-636
1003.551	-1055
1003.626	-386
1003.702	-1300
1003.777	-33
1003.853	-1477
1003.928	-486
1004.004	-824
1004.079	-115
1004.155	209
1004.230	-1808
1004.305	409
1004.381	-755
1004.456	-508
1004.531	-237
1004.607	-432
1004.682	6
1004.757	-638
1004.832	-473
1004.907	-1374
1004.982	-412
1005.057	-955
1005.133	-1011
1005.208	-637
1005.283	-1029
1005.358	-389
1005.433	-1151
1005.508	-1102
1005.583	-1767
1005.657	-1040
1005.732	-733
1005.807	-820
1005.882	37
1005.957	-563
1006.032	-739
1006.106	-1267
1006.181	-687
1006.256	-1224
1006.331	-1591
1006.405	-962
1006.480	-320
1006.554	-1333
1006.629	-259
1006.704	-1869
1006.778	-1890
1006.853	2
1006.927	-413
1007.002	-1759
1007.076	-131
1007.150	-1168
1007.225	-997
1007.299	-966
1007.373	-534
1007.448	-1024
1007.522	150
1007.596	-1121
1007.671	-510
1007.745	-927
1007.819	-1041
1007.893	-1190
1007.967	-1047
1008.041	-1462
1008.115	-713
1008.190	-809
1008.264	-330
1008.338	-1974
1008.412	-1062
1008.486	-1226
1008.560	-465
1008.633	-1774
1008.707	-970
1008.781	-610
1008.855	-963
1008.929	-1384
1009.003	-1499
1009.076	-984
1009.150	-695
1009.224	-1650
1009.298	-885
1009.371	-2406
1009.445	-479
1009.519	-1219
1009.592	-1563
1009.666	-1504
1009.739	-30
1009.813	-1447
1009.886	115
1009.960	-2084
1010.033	-6
1010.107	-527
1010.180	-1454
1010.253	-879
1010.327	-1839
1010.400	-886
1010.473	-1512
1010.547	-233
1010.620	-1492
1010.693	-1048
1010.766	-1964
1010.840	-1284
1010.913	-640
1010.986	-1872
1011.059	-1478
1011.132	-751
1011.205	-360
1011.278	-1738
1011.351	-720
1011.424	-741
1011.497	-1462
1011.570	-1869
1011.643	-802
1011.716	-1545
1011.789	-861
1011.862	-1542
1011.934	-219
1012.007	-2325
1012.080	-532
1012.153	-1721
1012.225	-475
1012.298	-1319
1012.371	-1012
1012.443	-873
1012.516	-1679
1012.588	-1217
1012.661	-183
1012.733	-2986
1012.806	-661
1012.879	-1303
1012.951	-1086
1013.023	-1504
1013.096	-1243
1013.168	-2208
1013.241	-660
1013.313	-1300
1013.385	-1113
1013.458	-833
1013.530	-1179
1013.602	-1847
1013.674	-563
1013.746	-1367
1013.819	-1635
1013.891	-1262
1013.963	-1688
1014.035	-1253
1014.107	-625
1014.179	-936
1014.251	-2603
1014.323	-1188
1014.395	-1259
1014.467	-565
1014.539	-573
1014.611	-1874
1014.683	-625
1014.754	-1947
1014.826	-1717
1014.898	-1294
1014.970	-2356
1015.042	-698
1015.113	-644
1015.185	-845
1015.257	-1577
1015.328	-1279
1015.400	-1347
1015.471	-1320
1015.543	-1524
1015.615	-1087
1015.686	-1810
1015.757	-1789
1015.829	-945
1015.901	-1202
1015.972	-1486
1016.043	-1821
1016.115	-1350
1016.186	-2432
1016.257	-1915
1016.328	-621
1016.400	-756
1016.471	-1392
1016.542	-1778
1016.613	-1638
1016.685	-1629
1016.756	-1484
1016.827	-1158
1016.898	-1866
1016.969	-449
1017.040	-942
1017.111	-2630
1017.182	-1555
1017.253	-1631
1017.324	-894
1017.395	-1043
1017.466	-1551
1017.537	-1976
1017.608	-961
1017.678	-841
1017.749	-1669
1017.820	-1223
1017.891	-1988
1017.961	-1601
1018.032	-1196
1018.103	-1358
1018.173	-2395
1018.244	-898
1018.315	-1149
1018.385	-1107
1018.456	-1328
1018.526	-1572
1018.597	-1505
1018.667	-1521
1018.738	-2141
1018.808	-2018
1018.878	-1859
1018.949	-1663
1019.019	-1075
1019.089	-1247
1019.160	-2241
1019.230	-1791
1019.300	-516
1019.371	-2225
1019.441	-1592
1019.511	-1091
1019.581	-1284
1019.651	-1601
1019.721	-1373
1019.791	-983
1019.861	-1360
1019.931	-1601
1020.001	-2027
1020.071	-1790
1020.141	-1807
1020.211	-1848
1020.281	-1698
1020.351	-1628
1020.421	-1891
1020.491	-1407
1020.560	-2114
1020.630	-1187
1020.700	-1191
1020.770	-1713
1020.839	-1912
1020.909	-1419
1020.979	-1872
1021.048	-1102
1021.118	-1620
1021.187	-1834
1021.257	-1687
1021.326	-1404
1021.396	-2774
1021.465	-1277
1021.535	-689
1021.604	-1247
1021.674	-1145
1021.743	-1162
1021.812	-1569
1021.882	-1026
1021.951	-1490
1022.020	-1386
1022.089	-1527
1022.159	-1159
1022.228	-1495
1022.297	-2224
1022.366	-1604
1022.435	-931
1022.504	-1726
1022.573	-1757
1022.642	-1940
1022.711	-2103
1022.781	-1218
1022.849	-599
1022.918	-1521
1022.987	-1727
1023.056	-1806
1023.125	-1092
1023.194	-1677
1023.263	-796
1023.331	-1461
1023.400	-1776
1023.469	-1779
1023.538	-1510
1023.606	-1984
1023.675	-380
1023.744	-2066
1023.812	-1500
1023.881	-2040
1023.949	-1249
1024.018	-1461
1024.086	-1376
1024.155	-1074
1024.223	-1308
1024.292	-1892
1024.360	-1994
1024.429	-1507
1024.497	-1392
1024.565	-2008
1024.634	-1804
1024.702	-1463
1024.770	-1225
1024.838	-2436
1024.907	-2378
1024.975	-2654
1025.043	-1824
1025.111	-1791
1025.179	-918
1025.247	-1995
1025.315	-1703
1025.383	-1867
1025.451	-1618
1025.519	-1414
1025.587	-1213
1025.655	-1352
1025.723	-1360
1025.791	-1709
1025.859	-1663
1025.927	-2080
1025.995	-1577
1026.062	-1863
1026.130	-1208
1026.198	-1520
1026.266	-2068
1026.333	-1609
1026.401	-1776
1026.469	-2024
1026.536	-1627
1026.604	-1914
1026.671	-2399
1026.739	-1612
1026.806	-1977
1026.874	-1826
1026.941	-1624
1027.009	-1562
1027.076	-1789
1027.144	-1303
1027.211	-1485
1027.278	-1901
1027.345	-1236
1027.413	-1169
1027.480	-2061
1027.547	-897
1027.614	-2343
1027.682	-1370
1027.749	-2192
1027.816	-2292
1027.883	-1615
1027.950	-1675
1028.017	-2373
1028.084	-1961
1028.151	-2294
1028.218	-1364
1028.285	-832
1028.352	-1534
1028.419	-1289
1028.486	-2084
1028.553	-1630
1028.619	-1348
1028.686	-1438
1028.753	-2205
1028.820	-1388
1028.886	-2031
1028.953	-971
1029.020	-1786
1029.086	-1725
1029.153	-2300
1029.220	-2482
1029.286	-1762
1029.353	-1530
1029.419	-2148
1029.486	-1554
1029.552	-2025
1029.619	-1600
1029.685	-2650
1029.751	-2394
1029.818	-1515
1029.884	-1932
1029.951	-1057
1030.017	-1995
1030.083	-1680
1030.149	-2287
1030.216	-2308
1030.282	-1089
1030.348	-2124
1030.414	-1629
1030.480	-1609
1030.546	-1011
1030.612	-1556
1030.678	-2959
1030.744	-2510
1030.810	-2065
1030.876	-2015
1030.942	-1483
1031.008	-1112
1031.074	-2157
1031.140	-2203
1031.206	-1014
1031.272	-2110
1031.337	-1709
1031.403	-1878
1031.469	-1721
1031.534	-1639
1031.600	-1113
1031.666	-1262
1031.731	-2306
1031.797	-1680
1031.863	-2106
1031.928	-1785
1031.994	-1314
1032.059	-2006
1032.125	-1909
1032.190	-2012
1032.256	-1728
1032.321	-2149
1032.386	-1764
1032.452	-1400
1032.517	-2053
1032.582	-1183
1032.647	-2115
1032.713	-1478
1032.778	-929
1032.843	-2131
1032.908	-2052
1032.974	-1843
1033.039	-1878
1033.104	-2246
1033.169	-1280
1033.234	-1822
1033.299	-1817
1033.364	-1600
1033.429	-1513
1033.494	-1931
1033.559	-1843
1033.624	-1545
1033.688	-1495
1033.753	-1991
1033.818	-1329
1033.883	-2611
1033.948	-1425
1034.013	-892
1034.077	-1230
1034.142	-864
1034.207	-643
1034.271	825
1034.336	2083
1034.400	1655
1034.465	520
1034.530	-995
1034.594	-1718
1034.658	-1553
1034.723	-1710
1034.787	-1607
1034.852	-2388
1034.916	-2681
1034.981	-1608
1035.045	-1413
1035.109	-2241
1035.173	-2017
1035.238	-2373
1035.302	-1981
1035.366	-1679
1035.430	-2290
1035.495	-2550
1035.559	-1724
1035.623	-1132
1035.687	-1522
1035.751	-1338
1035.815	-2607
1035.879	-1616
1035.943	-1425
1036.007	-2214
1036.071	-2382
1036.135	-1362
1036.198	-2056
1036.262	-1044
1036.326	-1692
1036.390	-1708
1036.454	-1246
1036.517	-781
1036.581	-1240
1036.645	-399
1036.709	-517
1036.772	-2095
1036.836	-1456
1036.900	-1794
1036.963	-1988
1037.026	-1717
1037.090	-1907
1037.154	-1923
1037.217	-2260
1037.280	-2545
1037.344	-2256
1037.407	-1678
1037.471	-2227
1037.534	-2408
1037.597	-2281
1037.661	-1861
1037.724	-1689
1037.787	-2027
1037.850	-1943
1037.913	-2074
1037.977	-1627
1038.040	-2138
1038.103	-1507
1038.166	-1620
1038.229	-2420
1038.292	-2050
1038.355	-2690
1038.418	-1884
1038.481	-1200
1038.544	-1938
1038.607	-2010
1038.670	-1801
1038.732	-1880
1038.795	-1881
1038.858	-2619
1038.921	-1573
1038.984	-1420
1039.046	-2553
1039.109	-2066
1039.172	-2443
1039.234	-2425
1039.297	-2242
1039.360	-2503
1039.422	-2066
1039.485	-2378
1039.547	-2138
1039.610	-2605
1039.672	-2332
1039.734	-1663
1039.797	-2549
1039.859	-1793
1039.922	-2373
1039.984	-1729
1040.046	-1124
1040.109	-2209
1040.171	-3214
1040.233	-2093
1040.295	-1986
1040.358	-1514
1040.420	-1443
1040.482	-1796
1040.544	-2186
1040.606	-2249
1040.668	-2379
1040.730	-2677
1040.792	-1850
1040.854	-2249
1040.916	-1766
1040.978	-2060
1041.040	-1467
1041.102	-2032
1041.164	-1657
1041.225	-1824
1041.287	-2857
1041.349	-1799
1041.411	-1540
1041.472	-2053
1041.534	-2586
1041.596	-2422
1041.657	-1892
1041.719	-2563
1041.781	-1953
1041.842	-2511
1041.904	-2381
1041.965	-1797
1042.027	-1456
1042.088	-2834
1042.150	-2138
1042.211	-1721
1042.272	-1628
1042.334	-1871
1042.395	-2079
1042.456	-2217
1042.518	-2732
1042.579	-2090
1042.640	-2024
1042.701	-2317
1042.763	-2499
1042.824	-2503
1042.885	-2342
1042.946	-2285
1043.007	-1908
1043.068	-1986
1043.129	-2012
1043.190	-2038
1043.251	-1677
1043.312	-2291
1043.373	-1552
1043.434	-2424
1043.495	-1766
1043.556	-1568
1043.616	-1519
1043.677	-2518
1043.738	-2073
1043.799	-2356
1043.859	-1558
1043.920	-1468
1043.981	-1760
1044.041	-1994
1044.102	-2270
1044.162	-2310
1044.223	-2826
1044.284	-2343
1044.344	-1644
1044.405	-2337
1044.465	-1860
1044.525	-1833
1044.586	-1838
1044.646	-1944
1044.707	-2025
1044.767	-2030
1044.827	-1788
1044.887	-1939
1044.948	-1828
1045.008	-1963
1045.068	-1756
1045.128	-2090
1045.188	-1335
1045.249	-1326
1045.309	-1679
1045.369	-2033
1045.429	-953
1045.489	-1731
1045.549	-1215
1045.609	-1656
1045.669	-1787
1045.729	-1944
1045.789	-1992
1045.848	-2160
1045.908	-1634
1045.968	-2065
1046.028	-1725
1046.088	-2231
1046.147	-415
1046.207	-2131
1046.267	-1807
1046.326	-1142
1046.386	-2168
1046.446	-697
1046.505	-1063
1046.565	-1159
1046.624	-576
1046.684	-683
1046.743	-938
1046.803	-463
1046.862	-203
1046.922	0
