'Start Wavelength	183.907
'End Wavelength	1046.922
'Gate Delay	5.000
'Gate Width (ms)	1.050
'Laser Output Level	0.000
'X Position	0.000
'Y Position	0.000
'Z Position	0.000
'Grid Point Number	1.000
'Shot Number	100.000
183.907	-110.000
183.977	-122.000
184.047	727
184.116	34
184.186	318
184.256	28
184.325	-311
184.395	-926
184.465	954
184.534	354
184.604	897
184.674	-375
184.743	-287
184.813	-146
184.883	215
184.952	612
185.022	-196
185.092	814
185.161	650
185.231	-622
185.301	604
185.370	953
185.440	183
185.509	-641
185.579	85
185.649	-284
185.718	18
185.788	725
185.857	123
185.927	62
185.996	538
186.066	231
186.136	-373
186.205	-251
186.275	-399
186.344	-249
186.414	218
186.483	-821
186.553	550
186.622	1629
186.692	-576
186.761	-170
186.831	78
186.900	-159
186.970	725
187.039	1109
187.109	854
187.178	375
187.248	123
187.317	268
187.387	-465
187.456	430
187.526	261
187.595	1002
187.664	19
187.734	49
187.803	874
187.873	1120
187.942	1051
188.012	448
188.081	395
188.150	-253
188.220	1321
188.289	642
188.358	75
188.428	253
188.497	411
188.567	361
188.636	79
188.705	134
188.775	-26
188.844	292
188.913	898
188.983	253
189.052	969
189.121	405
189.191	557
189.260	1208
189.329	818
189.399	1529
189.468	540
189.537	762
189.606	395
189.676	398
189.745	555
189.814	939
189.883	304
189.953	240
190.022	1403
190.091	3818
190.161	4860
190.230	1487
190.299	1253
190.368	441
190.437	510
190.507	-19
190.576	523
190.645	-111
190.714	314
190.783	-65
190.853	1269
190.922	1246
190.991	862
191.060	814
191.129	-196
191.198	620
191.268	115
191.337	396
191.406	268
191.475	3
191.544	640
191.613	1068
191.682	186
191.752	152
191.821	19
191.890	-9
191.959	79
192.028	358
192.097	-314
192.166	385
192.235	-111
192.304	246
192.373	608
192.442	-420
192.511	33
192.580	-231
192.650	236
192.719	-170
192.788	267
192.857	140
192.926	430
192.995	982
193.064	558
193.133	1364
193.202	1291
193.271	1016
193.340	1165
193.409	391
193.478	1033
193.547	1763
193.615	2377
193.684	2310
193.753	1653
193.822	1618
193.891	273
193.960	401
194.029	827
194.098	135
194.167	652
194.236	459
194.305	-42
194.374	228
194.443	708
194.512	753
194.580	512
194.649	646
194.718	1617
194.787	794
194.856	639
194.925	834
194.994	381
195.062	644
195.131	1448
195.200	1115
195.269	2010
195.338	937
195.407	761
195.475	492
195.544	1997
195.613	1714
195.682	539
195.751	1232
195.819	1323
195.888	1242
195.957	1601
196.026	1575
196.094	1942
196.163	1682
196.232	1234
196.301	822
196.369	1857
196.438	369
196.507	525
196.576	473
196.644	272
196.713	140
196.782	618
196.850	1387
196.919	1584
196.988	602
197.056	38
197.125	943
197.194	435
197.262	201
197.331	95
197.400	707
197.468	883
197.537	876
197.606	712
197.674	1611
197.743	4539
197.812	1362
197.880	4635
197.949	3129
198.017	4001
198.086	2982
198.155	1259
198.223	2201
198.292	5575
198.360	2891
198.429	974
198.497	1430
198.566	3211
198.635	6131
198.703	2573
198.772	1803
198.840	6842
198.909	6802
198.977	1704
199.046	1359
199.114	997
199.183	738
199.251	413
199.320	1440
199.388	1052
199.457	692
199.525	1807
199.594	1475
199.662	482
199.731	1348
199.799	975
199.867	736
199.936	879
200.004	345
200.073	1752
200.141	1157
200.210	811
200.278	40
200.346	601
200.415	1081
200.483	1369
200.552	945
200.620	755
200.688	276
200.757	916
200.825	699
200.893	1064
200.962	803
201.030	405
201.098	1119
201.167	2066
201.235	801
201.303	1290
201.372	1236
201.440	969
201.508	1976
201.577	1376
201.645	1324
201.713	690
201.781	274
201.850	2582
201.918	704
201.986	1441
202.055	1438
202.123	1256
202.191	431
202.259	1121
202.327	886
202.396	1260
202.464	1315
202.532	2666
202.600	9361
202.669	5889
202.737	1648
202.805	2079
202.873	1738
202.941	1214
203.009	1708
203.078	246
203.146	585
203.214	270
203.282	428
203.350	1162
203.418	1262
203.487	1059
203.555	876
203.623	1130
203.691	946
203.759	829
203.827	642
203.895	747
203.963	1094
204.031	886
204.099	1639
204.168	578
204.236	242
204.304	1614
204.372	883
204.440	1074
204.508	917
204.576	264
204.644	795
204.712	792
204.780	730
204.848	1303
204.916	830
204.984	615
205.052	1390
205.120	878
205.188	1217
205.256	657
205.324	712
205.392	583
205.460	1627
205.528	1828
205.596	2322
205.664	1122
205.732	1656
205.799	5791
205.867	11947
205.935	3102
206.003	2189
206.071	809
206.139	1247
206.207	1885
206.275	934
206.343	996
206.411	1882
206.478	1237
206.546	1285
206.614	1418
206.682	990
206.750	675
206.818	2580
206.885	2970
206.953	62
207.021	2808
207.089	1789
207.157	691
207.225	1292
207.292	629
207.360	1493
207.428	1410
207.496	538
207.563	1514
207.631	983
207.699	1050
207.767	573
207.834	685
207.902	1719
207.970	831
208.038	787
208.105	1116
208.173	1519
208.241	2064
208.309	1740
208.376	1890
208.444	4777
208.512	2716
208.579	1341
208.647	1905
208.715	2930
208.782	1528
208.850	1480
208.918	1326
208.985	1231
209.053	1169
209.120	947
209.188	882
209.256	991
209.323	938
209.391	2427
209.459	1928
209.526	1124
209.594	1167
209.661	522
209.729	1883
209.796	1388
209.864	1221
209.932	299
209.999	2534
210.067	2233
210.134	2156
210.202	1426
210.269	3299
210.337	3309
210.404	1926
210.472	1819
210.539	1267
210.607	1249
210.674	2611
210.742	2284
210.809	1179
210.877	1815
210.944	3001
211.012	1466
211.079	3712
211.146	1716
211.214	2117
211.281	2581
211.349	3243
211.416	1734
211.484	2508
211.551	1894
211.618	2327
211.686	1828
211.753	1672
211.821	2453
211.888	1626
211.955	2164
212.023	1772
212.090	1649
212.157	2926
212.225	2067
212.292	5778
212.359	12334
212.427	40169
212.494	17421
212.561	5975
212.629	3739
212.696	2937
212.763	2431
212.831	1435
212.898	1849
212.965	1859
213.032	1955
213.100	2249
213.167	2050
213.234	3114
213.301	2694
213.369	1848
213.436	2214
213.503	2099
213.570	2211
213.638	2644
213.705	1703
213.772	1597
213.839	2342
213.906	4686
213.973	3119
214.041	2531
214.108	2786
214.175	2200
214.242	1752
214.309	2248
214.376	2578
214.444	2114
214.511	2140
214.578	2612
214.645	2077
214.712	3139
214.779	2169
214.846	1888
214.913	3838
214.980	2503
215.048	2855
215.115	4574
215.182	2662
215.249	3570
215.316	2182
215.383	3579
215.450	2334
215.517	1387
215.584	1632
215.651	1963
215.718	1719
215.785	3544
215.852	2472
215.919	2972
215.986	3340
216.053	2374
216.120	2011
216.187	2735
216.254	2385
216.321	2243
216.388	2299
216.455	2504
216.522	2609
216.589	3814
216.656	6871
216.722	7529
216.789	4342
216.856	3677
216.923	3048
216.990	2557
217.057	2485
217.124	4247
217.191	2726
217.258	4962
217.324	4797
217.391	4655
217.458	4672
217.525	3000
217.592	3129
217.659	2739
217.725	4471
217.792	5624
217.859	6552
217.926	2657
217.993	2088
218.059	2301
218.126	2187
218.193	1784
218.260	2236
218.327	1714
218.393	1725
218.460	2463
218.527	1596
218.594	1811
218.660	5479
218.727	7165
218.794	2618
218.860	2313
218.927	1886
218.994	2309
219.061	1970
219.127	3315
219.194	6357
219.261	3371
219.327	733
219.394	2148
219.461	1152
219.527	2009
219.594	3942
219.661	3370
219.727	1181
219.794	2749
219.860	1689
219.927	3329
219.994	4516
220.060	8986
220.127	5906
220.193	3207
220.260	3005
220.326	4186
220.393	5381
220.460	8233
220.526	5861
220.593	3211
220.659	4998
220.726	4605
220.792	16554
220.859	12993
220.925	10965
220.992	15010
221.058	19110
221.125	24138
221.191	18940
221.258	7867
221.324	4209
221.391	4478
221.457	2317
221.524	3277
221.590	5421
221.657	22419
221.723	16775
221.789	13866
221.856	12994
221.922	5560
221.989	3665
222.055	3094
222.121	2059
222.188	4802
222.254	3407
222.321	2771
222.387	2014
222.453	2324
222.520	1987
222.586	1419
222.652	2676
222.719	1455
222.785	2407
222.851	2030
222.918	1600
222.984	1330
223.050	1475
223.116	1240
223.183	2926
223.249	1301
223.315	1625
223.382	1707
223.448	1771
223.514	1362
223.580	503
223.647	1213
223.713	1577
223.779	1546
223.845	2192
223.911	1823
223.978	1302
224.044	2909
224.110	1366
224.176	1688
224.242	1542
224.309	1422
224.375	2437
224.441	1867
224.507	1561
224.573	530
224.639	2328
224.705	806
224.772	1875
224.838	1401
224.904	2270
224.970	2075
225.036	1050
225.102	1624
225.168	2047
225.234	1131
225.300	1921
225.366	1564
225.432	1842
225.499	1793
225.565	1825
225.631	2538
225.697	1509
225.763	2586
225.829	3307
225.895	2927
225.961	6595
226.027	5595
226.093	3987
226.159	5425
226.225	6329
226.291	13241
226.357	24574
226.423	12720
226.489	7319
226.554	5136
226.620	5116
226.686	5339
226.752	8817
226.818	12423
226.884	34097
226.950	32820
227.016	11699
227.082	6906
227.148	4930
227.214	5345
227.279	4529
227.345	3230
227.411	3327
227.477	4246
227.543	10370
227.609	11628
227.674	5754
227.740	3270
227.806	3603
227.872	3477
227.938	2646
228.003	6026
228.069	2534
228.135	1680
228.201	2357
228.267	1927
228.332	3236
228.398	4309
228.464	3274
228.530	2333
228.595	2510
228.661	2218
228.727	5485
228.792	4882
228.858	1888
228.924	1759
228.990	4754
229.055	2265
229.121	4556
229.187	2554
229.252	2687
229.318	2567
229.384	2424
229.449	3417
229.515	255
229.581	1152
229.646	3015
229.712	2885
229.777	8660
229.843	9854
229.909	5857
229.974	5689
230.040	5943
230.105	4142
230.171	4562
230.236	5612
230.302	9406
230.368	8224
230.433	3894
230.499	4347
230.564	4271
230.630	1912
230.695	2800
230.761	3081
230.826	1352
230.892	5970
230.957	3330
231.023	1552
231.088	2756
231.154	3664
231.219	3176
231.284	4619
231.350	4804
231.415	2631
231.481	1959
231.546	2065
231.612	2287
231.677	1473
231.742	1568
231.808	3816
231.873	1886
231.939	1149
232.004	6341
232.069	6544
232.135	3311
232.200	2248
232.265	3212
232.331	1748
232.396	1355
232.461	1370
232.527	1294
232.592	1750
232.657	2350
232.723	5879
232.788	4850
232.853	3137
232.918	1986
232.984	2199
233.049	2326
233.114	4972
233.179	5921
233.245	8233
233.310	13519
233.375	3189
233.440	2993
233.506	2256
233.571	1974
233.636	2257
233.701	2242
233.766	7051
233.832	10217
233.897	3516
233.962	1822
234.027	4963
234.092	3772
234.157	2883
234.222	3054
234.288	6823
234.353	26987
234.418	21949
234.483	11663
234.548	7024
234.613	4218
234.678	4931
234.743	6011
234.808	23410
234.873	16162
234.938	6271
235.004	2953
235.069	4262
235.134	3718
235.199	3579
235.264	3164
235.329	2352
235.394	4233
235.459	5386
235.524	4310
235.589	3667
235.654	2801
235.719	1277
235.784	3236
235.849	4591
235.913	12346
235.978	12657
236.043	15665
236.108	6094
236.173	4421
236.238	7000
236.303	3125
236.368	3420
236.433	7441
236.498	16022
236.563	8565
236.627	12598
236.692	45868
236.757	39720
236.822	14434
236.887	12340
236.952	9434
237.017	6508
237.081	8015
237.146	8077
237.211	17579
237.276	44790
237.341	88651
237.405	40855
237.470	15876
237.535	11842
237.600	8052
237.664	6141
237.729	4727
237.794	6387
237.859	11115
237.923	10775
237.988	6563
238.053	10439
238.118	11192
238.182	34061
238.247	34220
238.312	13336
238.376	8788
238.441	7016
238.506	6637
238.570	3013
238.635	4273
238.700	3441
238.764	3976
238.829	13580
238.893	20826
238.958	7845
239.023	6441
239.087	3847
239.152	4653
239.216	3041
239.281	4314
239.346	3936
239.410	4380
239.475	5176
239.539	31543
239.604	31158
239.668	7839
239.733	5088
239.797	7151
239.862	18902
239.926	29339
239.991	12729
240.055	5423
240.120	3730
240.184	4259
240.249	3125
240.313	4193
240.378	4121
240.442	17105
240.507	35383
240.571	10054
240.635	14072
240.700	19967
240.764	6127
240.829	4339
240.893	3366
240.957	4089
241.022	16110
241.086	33349
241.151	15219
241.215	4733
241.279	7539
241.344	16199
241.408	8182
241.472	4105
241.537	6047
241.601	4544
241.665	3400
241.730	3799
241.794	5922
241.858	3358
241.922	4324
241.987	4475
242.051	3541
242.115	2780
242.179	3639
242.244	3371
242.308	5195
242.372	4894
242.436	5223
242.501	4947
242.565	2912
242.629	2909
242.693	3286
242.757	2988
242.822	3703
242.886	3790
242.950	4822
243.014	4304
243.078	4953
243.142	5818
243.206	4506
243.271	5546
243.335	6697
243.399	9327
243.463	35661
243.527	113430
243.591	36498
243.655	12776
243.719	7833
243.783	7597
243.847	12398
243.911	15534
243.975	16616
244.040	11436
244.104	7449
244.168	5960
244.232	7268
244.296	11678
244.360	15130
244.424	7673
244.488	6325
244.552	6068
244.615	3086
244.679	5075
244.743	5241
244.807	6549
244.871	4421
244.935	3891
244.999	2991
245.063	3997
245.127	5333
245.191	9479
245.255	10272
245.319	6445
245.383	5579
245.446	6076
245.510	3731
245.574	4294
245.638	5766
245.702	4911
245.766	15480
245.829	9859
245.893	6223
245.957	4906
246.021	5599
246.085	5166
246.149	8067
246.212	20617
246.276	33918
246.340	12816
246.404	9396
246.467	9286
246.531	14732
246.595	9174
246.659	8807
246.722	6956
246.786	8732
246.850	9868
246.913	13346
246.977	5761
247.041	6490
247.104	6932
247.168	5756
247.232	18469
247.295	46828
247.359	21794
247.423	8698
247.486	16537
247.550	10143
247.614	6620
247.677	9708
247.741	6741
247.804	5807
247.868	7866
247.932	16272
247.995	43270
248.059	15713
248.122	7738
248.186	9338
248.249	16275
248.313	67408
248.376	71537
248.440	47334
248.503	15718
248.567	12701
248.630	15733
248.694	23838
248.757	28802
248.821	76107
248.884	40917
248.948	35819
249.011	56072
249.075	88757
249.138	76504
249.202	26615
249.265	15706
249.328	22033
249.392	15239
249.455	11897
249.519	8598
249.582	11518
249.645	18764
249.709	14850
249.772	9955
249.835	9523
249.899	11814
249.962	10182
250.025	8959
250.089	26768
250.152	37711
250.215	17280
250.279	11447
250.342	12633
250.405	12033
250.468	10284
250.532	13341
250.595	24343
250.658	97715
250.721	182141
250.785	57044
250.848	28313
250.911	17067
250.974	16273
251.038	20817
251.101	46276
251.164	23199
251.227	20809
251.290	19616
251.354	31299
251.417	142506
251.480	151518
251.543	86251
251.606	271167
251.669	206265
251.732	67640
251.795	66953
251.859	70879
251.922	170682
251.985	99332
252.048	31805
252.111	23102
252.174	21345
252.237	37256
252.300	93012
252.363	92507
252.426	223236
252.489	91055
252.552	40926
252.615	28102
252.678	27752
252.741	69452
252.804	90823
252.867	227618
252.930	124430
252.993	60073
253.056	34101
253.119	24849
253.182	19156
253.245	32406
253.308	24432
253.371	21857
253.434	19780
253.497	18818
253.559	39095
253.622	28227
253.685	28614
253.748	30436
253.811	15376
253.874	20759
253.937	20107
254.000	14098
254.062	25023
254.125	44788
254.188	31729
254.251	28586
254.314	14658
254.376	24880
254.439	28641
254.502	23029
254.565	25633
254.628	49803
254.690	25009
254.753	15911
254.816	12706
254.878	14086
254.941	28258
255.004	33533
255.067	12314
255.129	12061
255.192	7809
255.255	6381
255.317	7543
255.380	6386
255.443	5506
255.505	4525
255.568	4927
255.631	6079
255.693	6260
255.756	4731
255.819	5483
255.881	4189
255.944	5175
256.006	4776
256.069	4708
256.132	5208
256.194	7559
256.257	26311
256.319	19219
256.382	17401
256.444	8396
256.507	6263
256.569	5356
256.632	5941
256.694	11580
256.757	22047
256.819	69571
256.882	28368
256.944	11777
257.007	10439
257.069	11203
257.132	7944
257.194	5904
257.257	6505
257.319	6426
257.381	7459
257.444	17697
257.506	82397
257.569	94083
257.631	60947
257.693	29301
257.756	14208
257.818	13507
257.880	8422
257.943	7875
258.005	6493
258.067	5671
258.130	5811
258.192	7128
258.254	16730
258.317	10904
258.379	7760
258.441	21491
258.503	24225
258.566	31737
258.628	48378
258.690	10446
258.753	10045
258.815	16028
258.877	9215
258.939	6272
259.001	5332
259.064	5660
259.126	8275
259.188	12804
259.250	8133
259.312	11451
259.375	34252
259.437	21367
259.499	8596
259.561	6909
259.623	7463
259.685	5997
259.747	8444
259.809	30355
259.872	66111
259.934	90579
259.996	79099
260.058	19405
260.120	9700
260.182	8754
260.244	6925
260.306	5453
260.368	6088
260.430	4587
260.492	10659
260.554	25658
260.616	27225
260.678	39398
260.740	66292
260.802	16188
260.864	10635
260.926	8571
260.988	8352
261.050	7719
261.112	15087
261.174	54146
261.236	54660
261.298	14485
261.359	23818
261.421	40726
261.483	10999
261.545	7855
261.607	5230
261.669	6935
261.731	14894
261.793	37858
261.854	15392
261.916	9144
261.978	7112
262.040	8319
262.102	8106
262.164	13903
262.225	11873
262.287	7329
262.349	17440
262.411	14870
262.472	7760
262.534	15630
262.596	40473
262.658	12150
262.719	7404
262.781	10414
262.843	36908
262.904	17005
262.966	10590
263.028	14914
263.090	65107
263.151	181658
263.213	54803
263.275	22166
263.336	12210
263.398	8873
263.459	6488
263.521	7181
263.583	15974
263.644	12013
263.706	4939
263.767	3715
263.829	4445
263.891	3524
263.952	2911
264.014	3524
264.075	4820
264.137	12589
264.198	8132
264.260	3047
264.321	3426
264.383	10162
264.444	22026
264.506	7860
264.567	5823
264.629	7963
264.690	16650
264.752	8050
264.813	5550
264.875	3909
264.936	4087
264.998	4053
265.059	3416
265.120	3727
265.182	6682
265.243	27543
265.305	29996
265.366	7921
265.427	5446
265.489	4258
265.550	3516
265.611	5033
265.673	4813
265.734	3862
265.795	3055
265.857	2172
265.918	3885
265.979	8905
266.040	50830
266.102	44717
266.163	13103
266.224	9827
266.286	6829
266.347	5231
266.408	5301
266.469	6616
266.530	5175
266.592	4391
266.653	10877
266.714	17423
266.775	6517
266.836	4622
266.898	3807
266.959	5663
267.020	5669
267.081	4766
267.142	4232
267.203	4605
267.264	4065
267.326	5572
267.387	3820
267.448	3058
267.509	4432
267.570	3265
267.631	2474
267.692	4016
267.753	6670
267.814	3359
267.875	9740
267.936	23130
267.997	9063
268.058	8164
268.119	4772
268.180	5211
268.241	4006
268.302	4006
268.363	2183
268.424	3651
268.485	4619
268.546	2936
268.607	2573
268.668	2098
268.729	2721
268.790	3683
268.851	4492
268.912	12083
268.972	16182
269.033	7710
269.094	4207
269.155	4315
269.216	2662
269.277	4182
269.338	3136
269.398	3920
269.459	4106
269.520	5602
269.581	8116
269.642	10538
269.702	6298
269.763	4883
269.824	4121
269.885	6171
269.945	10508
270.006	4705
270.067	2831
270.128	3250
270.188	4538
270.249	3980
270.310	3093
270.370	4038
270.431	4370
270.492	2953
270.553	3884
270.613	8881
270.674	20401
270.734	9674
270.795	4576
270.856	7148
270.916	7226
270.977	4252
271.038	5738
271.098	5707
271.159	9033
271.219	10643
271.280	5335
271.340	4344
271.401	5848
271.462	17978
271.522	9183
271.583	5127
271.643	5711
271.704	5224
271.764	7348
271.825	14922
271.885	58042
271.946	88801
272.006	26390
272.066	35614
272.127	71249
272.187	20743
272.248	11332
272.308	12512
272.369	44456
272.429	26525
272.489	16139
272.550	16141
272.610	15488
272.671	13249
272.731	12861
272.791	23051
272.852	12133
272.912	10271
272.972	6051
273.033	7329
273.093	11113
273.153	11075
273.214	7620
273.274	9157
273.334	28180
273.394	64836
273.455	24572
273.515	22583
273.575	51288
273.635	24003
273.696	30973
273.756	68653
273.816	27983
273.876	16025
273.936	34579
273.997	65104
274.057	16908
274.117	11923
274.177	17046
274.237	71894
274.297	69080
274.358	48146
274.418	48764
274.478	35706
274.538	15589
274.598	13992
274.658	49387
274.718	66298
274.778	24829
274.838	13589
274.898	28302
274.958	94005
275.018	74394
275.078	46091
275.138	17826
275.198	10690
275.258	9472
275.318	10687
275.378	16571
275.438	16060
275.498	13176
275.558	38462
275.618	84889
275.678	46328
275.738	23506
275.798	18382
275.858	10283
275.918	7470
275.978	8495
276.038	8455
276.098	6317
276.157	12406
276.217	35180
276.277	17824
276.337	12455
276.397	7137
276.457	9219
276.517	6526
276.576	6181
276.636	6649
276.696	10941
276.756	22504
276.815	19023
276.875	8127
276.935	9479
276.995	8820
277.055	5848
277.114	6521
277.174	8925
277.234	29608
277.293	14373
277.353	8472
277.413	6767
277.472	6845
277.532	8401
277.592	11865
277.651	39653
277.711	84213
277.771	28783
277.830	82807
277.890	75248
277.950	53218
278.009	161191
278.069	62949
278.128	55426
278.188	86464
278.248	34951
278.307	87399
278.367	58717
278.426	19084
278.486	12491
278.545	10754
278.605	8670
278.664	8461
278.724	10047
278.783	23938
278.843	68339
278.902	21656
278.962	13990
279.021	15748
279.081	29812
279.140	30026
279.199	17029
279.259	16107
279.318	18620
279.378	26651
279.437	50776
279.496	160649
279.556	483674
279.615	430265
279.675	119849
279.734	66081
279.793	86110
279.853	131191
279.912	49604
279.971	28502
280.031	25049
280.090	41868
280.149	77210
280.208	74961
280.268	315796
280.327	364821
280.386	91864
280.445	51672
280.505	43441
280.564	23973
280.623	19060
280.682	22634
280.742	30519
280.801	13649
280.860	9463
280.919	9005
280.978	8482
281.037	8503
281.097	6949
281.156	8554
281.215	7811
281.274	10038
281.333	37374
281.392	33128
281.451	9930
281.510	7746
281.569	6902
281.628	6487
281.688	6107
281.747	7204
281.806	6922
281.865	5395
281.924	4898
281.983	5311
282.042	4686
282.101	4927
282.160	5037
282.219	5100
282.278	6551
282.337	18544
282.396	13818
282.454	7042
282.513	8240
282.572	27161
282.631	17458
282.690	6769
282.749	4822
282.808	7232
282.867	6722
282.926	6617
282.985	4331
283.043	4728
283.102	4859
283.161	6910
283.220	14768
283.279	35297
283.338	12743
283.396	7621
283.455	7080
283.514	7758
283.573	15020
283.631	10481
283.690	6684
283.749	6005
283.808	11932
283.866	15425
283.925	6936
283.984	8111
284.043	8849
284.101	10204
284.160	8133
284.219	10525
284.277	10985
284.336	16806
284.395	40496
284.453	38871
284.512	16152
284.570	18528
284.629	17927
284.688	18089
284.746	20117
284.805	24155
284.863	31441
284.922	36693
284.981	45432
285.039	66147
285.098	114663
285.156	259967
285.215	539267
285.273	531339
285.332	291410
285.390	151444
285.449	93408
285.507	65170
285.566	48407
285.624	37157
285.683	27383
285.741	22054
285.799	18966
285.858	16776
285.916	14550
285.975	12467
286.033	10425
286.091	9844
286.150	8998
286.208	8438
286.267	9183
286.325	9954
286.383	12782
286.442	11471
286.500	8358
286.558	7938
286.616	6503
286.675	8915
286.733	9073
286.791	7800
286.850	8021
286.908	10313
286.966	14991
287.024	7339
287.083	5667
287.141	5399
287.199	6844
287.257	8175
287.315	7369
287.374	8066
287.432	15383
287.490	11507
287.548	7109
287.606	6286
287.664	6732
287.723	8278
287.781	11558
287.839	7514
287.897	8360
287.955	11729
288.013	21017
288.071	48625
288.129	174182
288.187	511272
288.245	231981
288.303	69852
288.361	40182
288.419	28850
288.477	20859
288.535	14530
288.593	10358
288.651	9288
288.709	6870
288.767	6044
288.825	5979
288.883	4865
288.941	6033
288.999	5747
289.057	4842
289.115	4454
289.173	5332
289.231	4811
289.289	5907
289.346	5713
289.404	6035
289.462	8723
289.520	8864
289.578	5220
289.636	3544
289.694	3827
289.751	3131
289.809	2922
289.867	3790
289.925	4677
289.983	5264
290.040	3324
290.098	2889
290.156	3925
290.214	5239
290.271	2566
290.329	3331
290.387	3139
290.444	2067
290.502	2837
290.560	2323
290.617	2745
290.675	3504
290.733	3412
290.790	4173
290.848	3297
290.906	4777
290.963	4217
291.021	3101
291.078	3364
291.136	4441
291.194	10806
291.251	28778
291.309	9666
291.366	4184
291.424	3161
291.481	4673
291.539	4433
291.596	5350
291.654	2700
291.711	2903
291.769	2984
291.826	8742
291.884	6086
291.941	2913
291.999	2739
292.056	4042
292.114	4365
292.171	2735
292.228	3506
292.286	4978
292.343	9061
292.401	11858
292.458	8251
292.515	6280
292.573	6023
292.630	6020
292.687	6035
292.745	4565
292.802	5799
292.859	16025
292.917	33919
292.974	21450
293.031	6924
293.089	4522
293.146	3649
293.203	3501
293.260	3015
293.318	6486
293.375	7024
293.432	3998
293.489	3544
293.546	4885
293.604	9128
293.661	26552
293.718	69697
293.775	32067
293.832	15059
293.889	14351
293.947	14431
294.004	9464
294.061	8041
294.118	14738
294.175	28460
294.232	30275
294.289	13617
294.346	8005
294.403	6859
294.460	7165
294.517	5469
294.574	5453
294.631	4943
294.688	7281
294.745	17114
294.802	63667
294.859	58424
294.916	23990
294.973	17390
295.030	11507
295.087	9161
295.144	6932
295.201	5414
295.258	6083
295.315	8214
295.372	23481
295.429	52464
295.486	21538
295.542	10219
295.599	16965
295.656	32310
295.713	25488
295.770	42804
295.827	16840
295.883	7934
295.940	7446
295.997	11803
296.054	10834
296.111	6261
296.167	4822
296.224	3761
296.281	2907
296.338	4331
296.394	4416
296.451	6325
296.508	17192
296.564	35874
296.621	24743
296.678	51505
296.734	83270
296.791	30256
296.848	14749
296.904	13530
296.961	27859
297.018	49581
297.074	40424
297.131	15556
297.187	12758
297.244	17565
297.301	53156
297.357	109675
297.414	38449
297.470	14445
297.527	9222
297.583	9127
297.640	8581
297.696	5868
297.753	5033
297.809	3586
297.866	3920
297.922	3713
297.979	3716
298.035	5669
298.092	9710
298.148	27544
298.204	28493
298.261	14664
298.317	23176
298.374	69431
298.430	44019
298.486	18695
298.543	13518
298.599	14355
298.656	18734
298.712	23095
298.768	50313
298.824	41760
298.881	14052
298.937	8012
298.993	6702
299.050	8719
299.106	7960
299.162	6870
299.218	6802
299.275	5383
299.331	8173
299.387	15980
299.443	58954
299.500	68374
299.556	27216
299.612	12508
299.668	12257
299.724	14175
299.780	15879
299.837	10364
299.893	14643
299.949	43975
300.005	58146
300.061	44350
300.117	86225
300.173	43669
300.229	18772
300.285	19467
300.341	22204
300.397	12284
300.453	8171
300.510	7645
300.566	8469
300.622	10370
300.678	26517
300.734	49601
300.790	46368
300.845	61920
300.901	36633
300.957	46201
301.013	37947
301.069	14709
301.125	10256
301.181	11134
301.237	8368
301.293	6919
301.349	5736
301.405	6457
301.461	7420
301.516	13948
301.572	11431
301.628	13762
301.684	13732
301.740	19527
301.796	36285
301.851	22439
301.907	34192
301.963	39002
302.019	61092
302.074	173083
302.130	180646
302.186	85409
302.242	34687
302.297	21288
302.353	19739
302.409	33845
302.464	33451
302.520	25459
302.576	54820
302.631	67793
302.687	35337
302.743	15536
302.798	9352
302.854	6744
302.910	7542
302.965	9086
303.021	16867
303.076	17017
303.132	18349
303.187	22321
303.243	12597
303.299	6747
303.354	5492
303.410	5749
303.465	5168
303.521	5496
303.576	4944
303.632	8144
303.687	16569
303.743	53078
303.798	49435
303.853	18290
303.909	10030
303.964	8344
304.020	11235
304.075	17407
304.130	15326
304.186	25268
304.241	27377
304.297	20951
304.352	12195
304.358	11662
304.407	7326
304.449	7770
304.463	7925
304.518	7844
304.539	7619
304.573	7227
304.629	8404
304.630	8532
304.684	15250
304.720	30491
304.739	37854
304.794	68063
304.811	57977
304.850	33290
304.902	14190
304.905	13014
304.960	9013
304.992	8680
305.015	8461
305.071	7658
305.083	7575
305.126	7107
305.173	4993
305.181	4692
305.236	4672
305.264	5043
305.292	5543
305.347	7814
305.354	8117
305.402	9855
305.445	9775
305.457	9739
305.512	10641
305.535	10968
305.567	11431
305.622	12738
305.626	13094
305.678	25683
305.716	48419
305.733	55006
305.788	69612
305.807	60236
305.843	46306
305.897	60420
305.898	60500
305.953	62135
305.988	41104
306.008	30577
306.063	17742
306.078	15980
306.118	12065
306.168	8294
306.173	8041
306.228	6713
306.259	6335
306.283	6291
306.338	6092
306.349	6166
306.393	6630
306.440	8107
306.448	8333
306.503	9063
306.530	9716
306.558	14728
306.613	29551
306.620	32132
306.668	47769
306.711	63123
306.723	63049
306.778	49493
306.801	36847
306.833	24283
306.888	12378
306.892	11839
306.943	9528
306.982	8003
306.997	7575
307.052	7544
307.072	7588
307.107	9170
307.162	12063
307.163	12095
307.217	19207
307.253	23537
307.272	23619
307.327	24834
307.343	23435
307.381	20443
307.434	18478
307.436	19343
307.491	41615
307.524	59476
307.546	60281
307.600	57237
307.614	51598
307.655	33032
307.704	16236
307.710	16199
307.765	20913
307.795	25712
307.819	31173
307.874	47688
307.885	49028
307.929	38200
307.975	25353
307.984	26159
308.038	36399
308.065	44333
308.093	84289
308.148	175378
308.156	194562
308.202	291368
308.246	365820
308.257	352756
308.312	185976
308.336	123135
308.366	94140
308.421	62068
308.426	58590
308.475	37653
308.517	25790
308.530	24715
308.585	22017
308.607	21058
308.639	22197
308.694	25764
308.697	25980
308.748	50416
308.787	73528
308.803	70978
308.857	53235
308.877	44616
308.912	39653
308.967	36850
308.967	36771
309.021	53981
309.058	67453
309.076	85766
309.130	149425
309.148	171585
309.185	302939
309.238	514380
309.239	516104
309.293	559703
309.328	522096
309.348	448612
309.402	219848
309.418	161336
309.457	117645
309.508	75335
309.511	75181
309.566	78523
309.598	82878
309.620	102888
309.674	160064
309.688	174922
309.729	165097
309.778	136924
309.783	133653
309.837	90660
309.868	68635
309.892	77666
309.946	102859
309.959	110160
310.001	133488
310.049	157065
310.055	151278
310.109	87642
310.139	51726
310.163	42596
310.218	27789
310.229	25052
310.272	21258
310.319	17413
310.326	17092
310.381	15118
310.409	14087
310.435	13491
310.489	12317
310.499	12146
310.543	13397
310.589	14694
310.598	14705
310.652	14426
310.679	14193
310.706	12817
310.760	9973
310.769	9526
310.814	8965
310.859	8390
310.868	8547
310.923	9277
310.948	9650
310.977	11371
311.031	14684
311.038	15136
311.085	14137
311.128	12569
311.139	12431
311.193	11915
311.218	11571
311.247	10784
311.301	9262
311.308	9068
311.356	9662
311.398	10111
311.410	9963
311.464	9024
311.488	8595
311.518	8939
311.572	9596
311.578	9642
311.626	14728
311.668	19266
311.680	19106
311.734	17846
311.758	17242
311.788	17092
311.842	16814
311.847	16726
311.896	21717
311.937	25957
311.950	25778
312.004	24593
312.027	23964
312.058	20092
312.112	13042
312.117	12300
312.165	11362
312.207	10502
312.297	17635
312.386	14221
312.476	14995
312.566	33361
312.656	15215
312.745	8777
312.835	11404
312.925	13413
313.015	12078
313.104	13233
313.194	9227
313.284	11686
313.374	16491
313.463	14008
313.553	9964
313.643	9258
313.732	8722
313.822	8897
313.912	11420
314.001	13690
314.091	14275
314.180	20593
314.270	18700
314.360	21625
314.449	18022
314.539	10083
314.628	9973
314.718	12665
314.808	17154
314.897	10865
314.987	10462
315.076	16036
315.166	20707
315.255	19241
315.345	18681
315.434	18100
315.524	17315
315.613	21084
315.703	28675
315.792	47528
315.881	142953
315.971	48617
316.060	40579
316.150	55818
316.239	56273
316.328	20703
316.418	11854
316.507	12694
316.597	19795
316.686	16212
316.775	26664
316.865	59529
316.954	14152
317.043	8449
317.133	11917
317.222	10224
317.311	11118
317.400	11022
317.490	18299
317.579	22204
317.668	17484
317.757	30510
317.847	75848
317.936	251929
318.025	94282
318.114	57238
318.203	33411
318.293	39709
318.382	79797
318.471	56472
318.560	71443
318.649	124749
318.738	28519
318.828	23399
318.917	25587
319.006	28816
319.095	67765
319.184	156245
319.273	92172
319.362	50950
319.451	20356
319.540	17895
319.629	44059
319.718	72788
319.807	32315
319.896	53138
319.985	193265
320.074	72761
320.163	22403
320.252	37898
320.341	29036
320.430	24720
320.519	37535
320.608	21109
320.697	17168
320.786	18323
320.875	24273
320.964	33552
321.053	52027
321.142	74507
321.230	77259
321.319	54378
321.408	128132
321.497	51528
321.586	52146
321.675	59623
321.764	56481
321.852	37136
321.941	74138
322.030	49343
322.119	53396
322.207	134358
322.296	87398
322.385	47662
322.474	55048
322.562	163120
322.651	78355
322.740	60871
322.829	84803
322.917	82543
323.006	49807
323.095	40853
323.183	30958
323.272	48586
323.361	79984
323.449	230050
323.538	75651
323.626	165934
323.715	97196
323.804	41491
323.892	149824
323.981	82851
324.069	28171
324.158	80023
324.246	73384
324.335	29973
324.424	47579
324.512	17423
324.601	25586
324.689	53200
324.778	95932
324.866	63529
324.954	18195
325.043	18179
325.131	37196
325.220	60698
325.308	72690
325.397	52475
325.485	31464
325.574	12165
325.662	11995
325.750	13793
325.839	11545
325.927	10368
326.015	16831
326.104	27198
326.192	36304
326.280	11805
326.369	12223
326.457	19768
326.545	37414
326.634	16184
326.722	8898
326.810	10756
326.898	10852
326.987	14420
327.075	36566
327.163	35848
327.251	19228
327.340	35668
327.428	49295
327.516	12366
327.604	13611
327.692	13430
327.781	15061
327.869	28618
327.957	18199
328.045	17792
328.133	9501
328.221	15321
328.309	12124
328.397	11055
328.485	15708
328.574	23774
328.662	83917
328.750	45039
328.838	17415
328.926	10321
329.014	10001
329.102	17815
329.190	44803
329.278	29977
329.366	8914
329.454	8171
329.542	8658
329.630	7540
329.718	8878
329.806	14392
329.893	14394
329.981	14832
330.069	24126
330.157	79597
330.245	219489
330.333	112557
330.421	23996
330.509	27693
330.597	101365
330.684	63596
330.772	22090
330.860	29327
330.948	37297
331.036	16371
331.123	7995
331.211	8535
331.299	13692
331.387	30079
331.475	55084
331.562	18409
331.650	9074
331.738	12311
331.825	18149
331.913	8619
332.001	8591
332.089	14414
332.176	32230
332.264	77960
332.352	57404
332.439	18721
332.527	13635
332.614	12035
332.702	16616
332.790	13401
332.877	37418
332.965	78764
333.052	26641
333.140	28357
333.228	71986
333.315	20975
333.403	16044
333.490	47532
333.578	47448
333.665	89698
333.753	39525
333.840	14594
333.928	17315
334.015	50082
334.103	67940
334.190	200320
334.278	50417
334.365	26688
334.452	18820
334.540	14256
334.627	19376
334.715	29305
334.802	59586
334.889	276371
334.977	255431
335.064	38484
335.151	19517
335.239	16957
335.326	25402
335.413	94131
335.501	124454
335.588	21615
335.675	16362
335.762	20259
335.850	34942
335.937	30240
336.024	73665
336.111	282296
336.199	114174
336.286	27461
336.373	15183
336.460	10394
336.547	11517
336.635	15458
336.722	14701
336.809	12186
336.896	23587
336.983	64141
337.070	143761
337.157	198605
337.245	173525
337.332	117047
337.419	17578
337.506	12692
337.593	15454
337.680	45978
337.767	136230
337.854	42129
337.941	48711
338.028	64461
338.115	21501
338.202	25373
338.289	49212
338.376	176485
338.463	53567
338.550	80566
338.637	81350
338.724	35036
338.811	53666
338.898	12857
338.984	9590
339.071	14443
339.158	17785
339.245	48103
339.332	29062
339.419	40264
339.506	34438
339.593	8645
339.679	9967
339.766	9458
339.853	15970
339.940	35204
340.027	12887
340.113	12735
340.200	19400
340.287	13507
340.374	18127
340.460	31733
340.547	14680
340.634	25020
340.720	94683
340.807	53228
340.894	10261
340.980	11588
341.067	10047
341.154	12952
341.240	21532
341.327	48438
341.414	15914
341.500	17154
341.587	11530
341.674	11357
341.760	31832
341.847	37982
341.933	12360
342.020	5836
342.106	6653
342.193	13207
342.279	24863
342.366	19306
342.452	32690
342.539	18772
342.625	41909
342.712	103325
342.798	40220
342.885	16968
342.971	6322
343.058	6604
343.144	8129
343.230	7908
343.317	10157
343.403	9185
343.490	6733
343.576	5958
343.662	9589
343.749	12551
343.835	16276
343.921	32261
344.008	169054
344.094	358740
344.180	79806
344.267	34576
344.353	104390
344.439	107652
344.525	49240
344.612	18746
344.698	16075
344.784	11916
344.870	8116
344.957	10189
345.043	18760
345.129	13793
345.215	29350
345.301	16523
345.387	11050
345.474	7124
345.560	8419
345.646	11803
345.732	10049
345.818	13049
345.904	11784
345.990	14793
346.076	14124
346.162	28519
346.249	12343
346.335	8801
346.421	11583
346.507	42707
346.593	142398
346.679	33431
346.765	10489
346.851	10507
346.937	11371
347.023	9570
347.108	13278
347.194	10976
347.280	10612
347.366	16013
347.452	45371
347.538	175186
347.624	123516
347.710	102001
347.796	18832
347.882	10499
347.967	9214
348.053	14402
348.139	10723
348.225	8128
348.311	9337
348.397	7827
348.482	12380
348.568	15319
348.654	8733
348.740	13474
348.825	15423
348.911	21402
348.997	82488
349.083	152702
349.168	25469
349.254	12558
349.340	11490
349.425	8029
349.511	14988
349.597	16547
349.682	35271
349.768	104914
349.854	46084
349.939	10203
350.025	7835
350.110	7113
350.196	7518
350.282	6175
350.367	6627
350.453	18083
350.538	18485
350.624	15507
350.709	13945
350.795	7898
350.880	9327
350.966	11356
351.051	19592
351.137	14045
351.222	11719
351.308	35113
351.393	93575
351.479	24168
351.564	10671
351.649	9723
351.735	7778
351.820	6983
351.906	8846
351.991	15332
352.076	61744
352.162	86969
352.247	19079
352.332	14150
352.418	29273
352.503	33977
352.588	136509
352.673	109452
352.759	27089
352.844	13484
352.929	16001
353.014	21501
353.100	14762
353.185	29058
353.270	42087
353.355	37546
353.441	11827
353.526	14353
353.611	34653
353.696	40393
353.781	22110
353.866	10925
353.952	12454
354.037	34110
354.122	77052
354.207	70161
354.292	25759
354.377	11619
354.462	10008
354.547	15574
354.632	13987
354.717	22680
354.802	33524
354.887	12107
354.972	8017
355.057	6318
355.142	7039
355.227	11507
355.312	23188
355.397	52689
355.482	122784
355.567	57365
355.652	41566
355.737	43947
355.822	126156
355.907	94865
355.991	17984
356.076	10562
356.161	8856
356.246	8660
356.331	11230
356.416	30654
356.501	195417
356.585	189679
356.670	30677
356.755	21421
356.840	33966
356.924	151611
357.009	479857
357.094	172715
357.179	44385
357.263	29681
357.348	27724
357.433	27464
357.517	25726
357.602	20706
357.687	17220
357.771	36172
357.856	102138
357.941	57793
358.025	112858
358.110	448547
358.195	197071
358.279	34605
358.364	26678
358.448	93234
358.533	238040
358.617	170263
358.702	167142
358.787	60255
358.871	36677
358.956	30110
359.040	10931
359.125	9561
359.209	13566
359.294	50376
359.378	77782
359.462	34067
359.547	18753
359.631	12923
359.716	9167
359.800	10618
359.885	17757
359.969	12772
360.053	10557
360.138	11484
360.222	20392
360.306	38842
360.391	28572
360.475	61520
360.559	120687
360.644	100390
360.728	69715
360.812	110457
360.896	282745
360.981	122365
361.065	66609
361.149	19342
361.233	19376
361.318	16174
361.402	20320
361.486	15640
361.570	13325
361.654	19096
361.739	49145
361.823	196536
361.907	275524
361.991	52238
362.075	33499
362.159	75354
362.243	51641
362.327	51497
362.411	58042
362.495	33295
362.580	18060
362.664	13361
362.748	13170
362.832	18833
362.916	34459
363.000	98404
363.084	262012
363.168	337332
363.252	83325
363.336	33043
363.420	40934
363.503	132675
363.587	147324
363.671	31588
363.755	25779
363.839	36216
363.923	19258
364.007	42375
364.091	45516
364.175	60593
364.258	214221
364.342	168629
364.426	190906
364.510	104332
364.594	50890
364.677	60116
364.761	254461
364.845	167143
364.929	66048
365.013	51738
365.096	44096
365.180	53038
365.264	57369
365.347	200413
365.431	84170
365.515	25993
365.598	15603
365.682	12961
365.766	24999
365.849	28645
365.933	18211
366.017	20498
366.100	15901
366.184	8768
366.267	9850
366.351	10288
366.435	9852
366.518	7819
366.602	7834
366.685	10436
366.769	13009
366.852	23096
366.936	42484
367.019	25241
367.103	17928
367.186	31424
367.270	11419
367.353	7485
367.436	10475
367.520	8890
367.603	15475
367.687	24469
367.770	44043
367.853	24628
367.937	72643
368.020	116196
368.104	30837
368.187	33426
368.270	44783
368.353	37872
368.437	54845
368.520	121781
368.603	72749
368.687	93435
368.770	164103
368.853	41669
368.936	41835
369.020	38253
369.103	16777
369.186	11080
369.269	13864
369.352	29036
369.436	41939
369.519	25059
369.602	13096
369.685	14132
369.768	15979
369.851	12642
369.934	9554
370.018	15318
370.101	38452
370.184	26986
370.267	20528
370.350	38217
370.433	55820
370.516	135967
370.599	172967
370.682	61989
370.765	95413
370.848	110145
370.931	198151
371.014	70816
371.097	18442
371.180	12500
371.263	8716
371.346	7266
371.429	9145
371.511	11600
371.594	23871
371.677	36351
371.760	36921
371.843	35058
371.926	165395
372.009	354157
372.091	108673
372.174	79310
372.257	176543
372.340	66062
372.423	56063
372.505	59720
372.588	27359
372.671	64685
372.754	200431
372.836	95070
372.919	65138
373.002	121446
373.085	42423
373.167	35077
373.250	87694
373.332	179209
373.415	244570
373.498	487171
373.580	177924
373.663	269834
373.746	325311
373.828	76003
373.911	33776
373.993	34254
374.076	121117
374.159	110842
374.241	56918
374.324	173152
374.406	109586
374.489	143483
374.571	382218
374.654	151450
374.736	79734
374.819	239908
374.901	348648
374.983	341662
375.066	61833
375.148	25963
375.231	95522
375.313	179230
375.395	69996
375.478	18013
375.560	14713
375.643	21856
375.725	77199
375.807	310566
375.890	239073
375.972	110995
376.054	62249
376.136	96758
376.219	41805
376.301	91436
376.383	262165
376.465	96389
376.548	73162
376.630	81919
376.712	223289
376.794	96987
376.877	15164
376.959	10000
377.041	13557
377.123	27168
377.205	30244
377.287	8656
377.369	9378
377.452	10735
377.534	10319
377.616	10308
377.698	10238
377.780	8145
377.862	11786
377.944	11222
378.026	6859
378.108	8548
378.190	8384
378.272	8327
378.354	6699
378.436	6629
378.518	17775
378.600	61648
378.682	52220
378.764	120466
378.846	88359
378.928	27705
379.010	39061
379.091	20816
379.173	10711
379.255	10450
379.337	17534
379.419	60615
379.501	165000
379.583	62557
379.664	19969
379.746	47423
379.828	117389
379.910	157333
379.991	130783
380.073	24273
380.155	18494
380.237	13426
380.318	11199
380.400	12640
380.482	30382
380.564	45946
380.645	46838
380.727	44290
380.809	24358
380.890	17994
380.972	14123
381.053	13514
381.135	16613
381.217	43493
381.298	123031
381.380	60894
381.461	51915
381.543	234034
381.624	268989
381.706	52111
381.787	31447
381.869	33237
381.951	103944
382.032	373374
382.113	224361
382.195	56737
382.276	39993
382.358	84744
382.439	205221
382.521	228197
382.602	347063
382.684	168573
382.765	327898
382.846	430627
382.928	689894
383.009	375527
383.090	292260
383.172	964750
383.253	1283355
383.334	441720
383.416	362834
383.497	193441
383.578	128870
383.659	256547
383.741	850520
383.822	1791558
383.903	903709
383.984	319276
384.066	420282
384.147	253534
384.228	64035
384.309	50079
384.390	39198
384.471	28551
384.553	30844
384.634	40683
384.715	41708
384.796	23330
384.877	31986
384.958	112221
385.039	132769
385.120	49049
385.201	24669
385.282	30753
385.363	32133
385.444	31654
385.525	52326
385.606	160491
385.687	128285
385.768	35313
385.849	46365
385.930	177978
386.011	285168
386.092	76210
386.173	22847
386.254	17901
386.335	18974
386.416	22392
386.496	75602
386.577	116255
386.658	43710
386.739	27868
386.820	26216
386.901	21144
386.981	18849
387.062	14969
387.143	30107
387.224	116712
387.304	103630
387.385	38621
387.466	27718
387.547	32522
387.627	23771
387.708	45204
387.789	197764
387.869	231392
387.950	60090
388.031	15004
388.111	15225
388.192	37300
388.273	51494
388.353	32174
388.434	20053
388.514	42303
388.595	178706
388.676	226089
388.756	110950
388.837	113476
388.917	67796
388.998	17072
389.078	14710
389.159	13883
389.239	14307
389.320	23521
389.400	22295
389.480	43421
389.561	117455
389.641	55198
389.722	23255
389.802	38605
389.883	51760
389.963	134101
390.043	84593
390.124	29966
390.204	45464
390.284	138280
390.365	86545
390.445	102897
390.525	288132
390.605	239531
390.686	71954
390.766	28093
390.846	16233
390.927	11742
391.007	13392
391.087	16088
391.167	20283
391.247	15583
391.328	24919
391.408	33868
391.488	23607
391.568	12023
391.648	19799
391.728	26657
391.808	26511
391.888	30263
391.969	65674
392.049	104036
392.129	45940
392.209	54068
392.289	131495
392.369	71427
392.449	59624
392.529	42712
392.609	37717
392.689	46985
392.769	136454
392.849	115116
392.929	87542
393.009	196016
393.089	166436
393.169	179526
393.248	560337
393.328	1709117
393.408	1691856
393.488	525021
393.568	165343
393.648	81015
393.728	52940
393.807	38304
393.887	33104
393.967	28685
394.047	31526
394.127	34964
394.206	51211
394.286	162820
394.366	706035
394.446	720112
394.525	163633
394.605	45964
394.685	39338
394.764	78811
394.844	135419
394.924	94609
395.003	34118
395.083	25360
395.163	22199
395.242	20693
395.322	20877
395.402	15908
395.481	20958
395.561	58418
395.640	156462
395.720	121018
395.799	159625
395.879	118517
395.958	69507
396.038	236621
396.117	916292
396.197	957958
396.276	275782
396.356	100862
396.435	77523
396.515	60323
396.594	80616
396.673	158008
396.753	566384
396.832	1532766
396.912	1092081
396.991	284480
397.070	85614
397.150	48524
397.229	34186
397.308	43454
397.388	68665
397.467	36355
397.546	19216
397.625	15708
397.705	22336
397.784	23467
397.863	13866
397.942	10170
398.022	12950
398.101	45497
398.180	130648
398.259	67574
398.338	21297
398.417	16826
398.497	12026
398.576	12735
398.655	9208
398.734	8211
398.813	10773
398.892	40606
398.971	139243
399.050	66509
399.129	10954
399.208	6702
399.287	8583
399.366	7230
399.445	7498
399.524	8350
399.603	8331
399.682	19937
399.761	51154
399.840	150258
399.919	108909
399.998	16137
400.077	6733
400.156	6099
400.235	10307
400.313	7795
400.392	13429
400.471	63256
400.550	101065
400.629	27383
400.708	12645
400.786	12019
400.865	31857
400.944	36164
401.023	17729
401.102	5571
401.180	5651
401.259	6368
401.338	9466
401.416	13448
401.495	13077
401.574	9724
401.652	8937
401.731	13702
401.810	13452
401.888	7535
401.967	5339
402.046	8927
402.124	13159
402.203	17424
402.281	10135
402.360	16215
402.438	41670
402.517	29679
402.596	11045
402.674	10428
402.753	7163
402.831	6831
402.910	9934
402.988	44804
403.066	149680
403.145	80510
403.223	47254
403.302	121815
403.380	87214
403.459	90426
403.537	35017
403.615	15145
403.694	5204
403.772	4966
403.850	5001
403.929	4508
404.007	6765
404.085	18981
404.164	24227
404.242	8647
404.320	9571
404.398	19365
404.477	61515
404.555	278073
404.633	226103
404.711	33842
404.789	12710
404.868	11199
404.946	6471
405.024	5228
405.102	4895
405.180	5299
405.258	5057
405.336	5664
405.415	7603
405.493	18388
405.571	18265
405.649	6155
405.727	6274
405.805	11491
405.883	11486
405.961	12225
406.039	13303
406.117	7433
406.195	15601
406.273	68049
406.351	245025
406.429	134600
406.507	23132
406.585	9639
406.663	10028
406.740	14505
406.818	13233
406.896	6143
406.974	8740
407.052	22604
407.130	145005
407.208	196448
407.285	36624
407.363	8879
407.441	8231
407.519	6577
407.596	9514
407.674	22586
407.752	57527
407.830	57488
407.907	27439
407.985	10973
408.063	7137
408.141	4502
408.218	13474
408.296	14547
408.373	11467
408.451	11768
408.529	10637
408.606	5548
408.684	4246
408.762	3342
408.839	2935
408.917	3359
408.994	4843
409.072	5055
409.149	5964
409.227	10682
409.304	14650
409.382	10718
409.459	13005
409.537	18325
409.614	18146
409.692	11509
409.769	12298
409.846	18428
409.924	24226
410.001	19323
410.079	12964
410.156	10221
410.233	9665
410.311	7932
410.388	6689
410.465	9910
410.543	10546
410.620	6788
410.697	8420
410.775	11095
410.852	5326
410.929	12008
411.006	15154
411.083	8925
411.161	23752
411.238	23462
411.315	11997
411.392	6175
411.469	12768
411.547	13419
411.624	7480
411.701	7030
411.778	9775
411.855	24080
411.932	12633
412.009	5715
412.086	5537
412.163	6774
412.240	9659
412.317	11528
412.394	11391
412.471	4586
412.548	4651
412.625	5909
412.702	9294
412.779	18172
412.856	11995
412.933	4921
413.010	4605
413.087	10564
413.164	61945
413.241	83115
413.318	21144
413.395	12873
413.471	21121
413.548	9547
413.625	7290
413.702	8727
413.779	6528
413.855	2032
413.932	2835
414.009	2394
414.086	3726
414.162	4416
414.239	10990
414.316	57971
414.393	126815
414.469	42320
414.546	6365
414.623	4020
414.699	4506
414.776	6980
414.853	5073
414.929	5039
415.006	5337
415.082	7491
415.159	5855
415.236	5266
415.312	5862
415.389	15071
415.465	21204
415.542	9789
415.618	7977
415.695	12851
415.771	8759
415.848	8002
415.924	7355
416.000	4992
416.077	4150
416.153	1973
416.230	1375
416.306	1998
416.383	4663
416.459	3762
416.535	2558
416.612	2614
416.688	4264
416.764	4777
416.841	4559
416.917	4696
416.993	5028
417.069	7357
417.146	10177
417.222	12190
417.298	8701
417.374	4764
417.451	6251
417.527	9420
417.603	10915
417.679	7250
417.755	5671
417.831	2977
417.908	3816
417.984	2881
418.060	3835
418.136	16910
418.212	23349
418.288	7386
418.364	5261
418.440	5394
418.516	11304
418.592	14825
418.668	27554
418.744	42385
418.820	29548
418.896	7987
418.972	3543
419.048	6160
419.124	19494
419.200	14418
419.276	4438
419.352	2402
419.428	3350
419.504	5695
419.579	9511
419.655	6669
419.731	7315
419.807	27989
419.883	51571
419.959	33516
420.034	9410
420.110	19754
420.186	79745
420.262	57855
420.337	10977
420.413	9588
420.489	5678
420.565	4540
420.640	4689
420.716	5791
420.792	3338
420.867	6012
420.943	6093
421.019	12835
421.094	10531
421.170	5332
421.245	4552
421.321	5534
421.397	6603
421.472	12025
421.548	29949
421.623	23128
421.699	11122
421.774	11918
421.850	10860
421.925	19490
422.001	18060
422.076	13468
422.152	17820
422.227	29480
422.302	32032
422.378	47574
422.453	86125
422.529	207678
422.604	587161
422.679	890496
422.755	587448
422.830	216320
422.905	86150
422.981	47664
423.056	31578
423.131	22688
423.207	19050
423.282	19316
423.357	32578
423.432	22516
423.508	22263
423.583	46335
423.658	31731
423.733	12425
423.808	14935
423.883	15655
423.959	14813
424.034	11903
424.109	9164
424.184	5979
424.259	4384
424.334	5184
424.409	4229
424.484	5460
424.559	7237
424.634	6579
424.709	10597
424.784	12861
424.859	7781
424.934	14373
425.009	57631
425.084	91827
425.159	31720
425.234	6562
425.309	5920
425.384	27977
425.459	42869
425.534	11709
425.609	5671
425.683	4287
425.758	4642
425.833	5171
425.908	9428
425.983	36689
426.058	98817
426.132	40145
426.207	9154
426.282	13435
426.357	11636
426.431	4225
426.506	4769
426.581	5005
426.655	5981
426.730	3805
426.805	5196
426.879	5836
426.954	6162
427.029	16940
427.103	88730
427.178	205264
427.253	83367
427.327	11851
427.402	18902
427.476	49329
427.551	21744
427.625	7896
427.700	6347
427.774	3734
427.849	7286
427.923	4277
427.998	4700
428.072	6532
428.147	16941
428.221	75736
428.296	201933
428.370	94573
428.444	15396
428.519	16100
428.593	31220
428.667	25043
428.742	33087
428.816	33673
428.890	133510
428.965	202146
429.039	63459
429.113	36597
429.188	14298
429.262	5863
429.336	13543
429.410	43797
429.485	26969
429.559	26101
429.633	19253
429.707	8851
429.781	26117
429.855	143505
429.930	200950
430.004	100005
430.078	138799
430.152	132764
430.226	263568
430.300	238894
430.374	39066
430.448	14722
430.522	47064
430.596	130940
430.670	84731
430.744	225570
430.818	298873
430.892	58147
430.966	12513
431.040	6194
431.114	3885
431.188	3531
431.262	4633
431.336	4851
431.410	14685
431.484	41947
431.557	25796
431.631	4783
431.705	8577
431.779	41383
431.853	173694
431.927	109694
432.000	13391
432.074	5131
432.148	7925
432.222	6135
432.295	3476
432.369	4357
432.443	12176
432.516	83679
432.590	196640
432.664	65788
432.737	9333
432.811	3449
432.885	2284
432.958	3165
433.032	2367
433.106	1925
433.179	1052
433.253	1833
433.326	1835
433.400	956
433.473	1866
433.547	1002
433.620	3343
433.694	10338
433.767	10088
433.841	3121
433.914	2428
433.988	2437
434.061	2642
434.134	3238
434.208	1136
434.281	219
434.355	2533
434.428	3686
434.501	2743
434.575	1793
434.648	3019
434.721	2006
434.795	1600
434.868	1473
434.941	1205
435.014	2075
435.088	3814
435.161	7202
435.234	14480
435.307	15259
435.381	7261
435.454	6569
435.527	9175
435.600	8994
435.673	6858
435.746	5221
435.819	4328
435.892	3774
435.966	3454
436.039	2331
436.112	3341
436.185	1631
436.258	926
436.331	250
436.404	956
436.477	1355
436.550	894
436.623	1874
436.696	1844
436.769	3368
436.842	2764
436.915	3270
436.987	6288
437.060	3332
437.133	1069
437.206	1646
437.279	2322
437.352	1905
437.425	2315
437.498	4347
437.570	10838
437.643	8866
437.716	2486
437.789	1822
437.861	11436
437.934	30514
438.007	12682
438.080	3064
438.152	4843
438.225	14299
438.298	104190
438.370	264747
438.443	98993
438.516	27055
438.588	5827
438.661	2301
438.734	3156
438.806	4625
438.879	5931
438.951	8259
439.024	14592
439.096	5174
439.169	3058
439.241	1302
439.314	1524
439.386	6195
439.459	11109
439.531	17627
439.604	6065
439.676	2295
439.749	1484
439.821	1418
439.893	2523
439.966	3195
440.038	5383
440.110	5310
440.183	3017
440.255	3301
440.327	7260
440.400	44599
440.472	174383
440.544	98062
440.617	12948
440.689	10874
440.761	16030
440.833	24459
440.905	14969
440.978	2234
441.050	2260
441.122	1540
441.194	1521
441.266	951
441.338	2358
441.411	8744
441.483	58099
441.555	76658
441.627	15976
441.699	9624
441.771	8183
441.843	3129
441.915	2247
441.987	2423
442.059	2361
442.131	3975
442.203	9238
442.275	10498
442.347	9455
442.419	16432
442.491	85688
442.563	192097
442.635	75140
442.706	43416
442.778	28950
442.850	7160
442.922	3357
442.994	6172
443.066	11227
443.137	7673
443.209	7201
443.281	11494
443.353	27978
443.425	111364
443.496	361962
443.568	320667
443.640	109071
443.711	22439
443.783	9772
443.855	6550
443.926	4301
443.998	5323
444.070	7401
444.141	6471
444.213	11281
444.285	13077
444.356	11554
444.428	9745
444.499	3526
444.571	1685
444.642	3324
444.714	4901
444.785	10358
444.857	13012
444.928	26138
445.000	14082
445.071	18923
445.143	21972
445.214	16242
445.285	27068
445.357	76728
445.428	250936
445.500	518871
445.571	305754
445.642	154482
445.714	60315
445.785	45779
445.856	16557
445.928	15558
445.999	12365
446.070	10274
446.141	9756
446.213	13220
446.284	6036
446.355	6810
446.426	5225
446.497	4388
446.569	9869
446.640	14670
446.711	9845
446.782	3547
446.853	7376
446.924	7543
446.995	5155
447.066	5308
447.138	9703
447.209	4855
447.280	1299
447.351	984
447.422	1424
447.493	4272
447.564	7149
447.635	10360
447.706	3429
447.777	716
447.847	751
447.918	1635
447.989	5358
448.060	7451
448.131	16988
448.202	14784
448.273	11458
448.344	4409
448.414	1965
448.485	3545
448.556	1805
448.627	1251
448.698	1757
448.768	901
448.839	2806
448.910	8568
448.981	7500
449.051	3610
449.122	1822
449.193	2137
449.263	2294
449.334	2130
449.405	4800
449.475	13951
449.546	8071
449.616	10117
449.687	7896
449.758	2855
449.828	2082
449.899	2392
449.969	1204
450.040	1126
450.110	3393
450.181	5203
450.251	2791
450.322	1919
450.392	2394
450.463	1856
450.533	778
450.604	1629
450.674	1413
450.744	1298
450.815	1523
450.885	2861
450.955	2352
451.026	1316
451.096	2198
451.166	3762
451.237	10900
451.307	25725
451.377	7360
451.447	2457
451.518	1188
451.588	2189
451.658	2398
451.728	5922
451.799	27466
451.869	25977
451.939	4696
452.009	1740
452.079	1374
452.149	2820
452.219	7640
452.289	32053
452.360	19057
452.430	3537
452.500	4919
452.570	6952
452.640	9940
452.710	30261
452.780	38897
452.850	27924
452.920	24401
452.990	7874
453.060	5030
453.129	8368
453.199	10178
453.269	38019
453.339	68707
453.409	99438
453.479	112785
453.549	155493
453.619	160746
453.688	49919
453.758	8875
453.828	3312
453.898	3402
453.968	3064
454.037	3051
454.087	2794
454.107	2684
454.168	2088
454.177	1990
454.247	1758
454.249	1776
454.316	2148
454.330	2366
454.386	3173
454.411	7924
454.456	15909
454.492	17781
454.525	19526
454.574	10172
454.595	6104
454.655	3153
454.665	2682
454.734	3740
454.736	3867
454.804	8383
454.817	12009
454.873	27070
454.898	27550
454.943	28402
454.979	19014
455.013	10476
455.060	5514
455.082	3436
455.141	4622
455.152	4734
455.221	17948
455.222	18108
455.291	31472
455.303	27972
455.360	12047
455.384	11962
455.430	11699
455.465	10762
455.499	9682
455.546	19629
455.569	24320
455.627	15033
455.638	13310
455.707	2887
455.708	2887
455.777	2231
455.789	2146
455.846	1556
455.869	1520
455.916	1443
455.950	1815
455.985	2178
456.031	2563
456.054	2710
456.112	1997
456.124	1863
456.193	1814
456.193	1805
456.262	1655
456.274	2149
456.332	4386
456.355	4743
456.401	5331
456.436	4044
456.470	2695
456.516	1588
456.540	1130
456.597	1450
456.609	1469
456.678	1649
456.678	1640
456.747	777
456.759	759
456.817	939
456.840	1112
456.886	1263
456.920	1057
456.955	1072
457.001	1936
457.024	2395
457.082	3116
457.093	3159
457.162	4837
457.163	4852
457.232	6952
457.243	6369
457.301	3190
457.324	2467
457.370	1568
457.405	2047
457.439	2475
457.485	2121
457.508	1958
457.566	2436
457.577	2563
457.646	3276
457.647	3304
457.715	7504
457.727	8239
457.784	12685
457.808	17392
457.853	24278
457.889	28260
457.922	28806
457.969	19141
457.991	18204
458.050	21832
458.060	22299
458.129	39219
458.130	39632
458.198	44107
458.211	39488
458.267	20451
458.292	14666
458.336	9077
458.372	7783
458.405	9555
458.453	15321
458.474	19371
458.533	36396
458.543	37983
458.611	67163
458.614	67303
458.680	45026
458.694	36459
458.749	16061
458.775	11639
458.818	6292
458.855	4551
458.887	3403
458.936	3230
458.955	3271
459.016	3424
459.024	3458
459.093	4227
459.097	4219
459.162	3283
459.177	3372
459.230	4342
459.257	4891
459.299	5228
459.338	5069
459.368	5209
459.418	6220
459.437	6220
459.499	5105
459.505	5018
459.574	2985
459.579	2943
459.643	2650
459.659	2505
459.711	2355
459.740	2746
459.780	3456
459.820	3437
459.849	3314
459.900	4013
459.917	4187
459.981	4394
459.986	4406
460.054	4126
460.061	4156
460.123	4566
460.141	4594
460.191	5332
460.222	6177
460.260	6885
460.302	8151
460.328	7978
460.382	5690
460.397	5418
460.462	3536
460.465	3512
460.534	5057
460.543	5256
460.602	11247
460.623	13763
460.671	20184
460.703	28362
460.739	29996
460.783	26022
460.808	22995
460.864	7576
460.876	5770
460.944	3663
460.945	3639
461.013	3614
461.024	3588
461.081	3585
461.104	4029
461.150	4025
461.184	3258
461.218	3454
461.264	3776
461.286	3591
461.345	3650
461.355	3601
461.423	3445
461.425	3407
461.491	3000
461.505	3295
461.559	6590
461.585	7900
461.628	10718
461.665	14755
461.696	17023
461.745	24597
461.764	24601
461.825	10368
461.832	9526
461.901	4878
461.905	4840
461.969	4000
461.985	3848
462.037	4467
462.065	4390
462.105	3680
462.145	3513
462.173	5124
462.225	8611
462.241	9155
462.305	13361
462.310	13277
462.378	10372
462.385	9474
462.446	4668
462.465	4053
462.514	4258
462.545	4602
462.582	4552
462.625	4865
462.650	4612
462.705	3478
462.718	3503
462.785	4054
462.786	4081
462.854	5390
462.865	5790
462.922	7712
462.945	8442
462.990	7520
463.025	5423
463.058	4154
463.104	2889
463.126	2845
463.184	3929
463.194	4051
463.262	4067
463.264	4094
463.330	4435
463.344	4332
463.398	4281
463.424	4393
463.466	4394
463.504	4431
463.533	4511
463.583	4614
463.601	4837
463.663	5677
463.669	5791
463.737	6761
463.743	6913
463.805	9548
463.823	10254
463.873	14196
463.903	17122
463.940	18461
463.982	20985
464.008	18896
464.062	9514
464.076	8462
464.142	4382
464.144	4337
464.211	4028
464.221	4093
464.279	4496
464.301	4554
464.347	4741
464.381	5247
464.414	5860
464.461	6185
464.482	7036
464.540	9864
464.550	9952
464.617	10046
464.620	10037
464.685	8230
464.699	7827
464.753	7807
464.779	7881
464.820	7850
464.859	7580
464.888	7613
464.938	8027
464.956	8301
465.018	9013
465.023	9001
465.091	8604
465.098	8555
465.158	8930
465.177	9112
465.226	8450
465.257	7923
465.293	7552
465.336	7003
465.361	7633
465.416	9242
465.428	9622
465.495	11866
465.496	11912
465.563	16713
465.575	17656
465.631	21580
465.654	23578
465.698	16712
465.734	9209
465.765	7608
465.813	5884
465.833	5711
465.893	5824
465.900	5790
465.968	5505
465.972	5484
466.035	6220
466.052	6361
466.102	6439
466.131	6569
466.170	6708
466.210	6790
466.237	7017
466.290	7410
466.304	7484
466.369	7751
466.372	7783
466.439	8535
466.449	8623
466.506	9972
466.528	10494
466.573	12821
466.607	14489
466.641	19880
466.687	27507
466.708	30042
466.766	37515
466.775	35300
466.842	17703
466.845	16845
466.909	12847
466.925	12050
466.977	10866
467.004	10261
467.044	10322
467.083	10404
467.111	11096
467.163	12349
467.178	12358
467.242	12347
467.245	12280
467.312	10627
467.321	10402
467.379	10479
467.400	10482
467.446	10575
467.480	10620
467.559	11105
467.638	8572
467.717	8469
467.796	11632
467.875	12311
467.955	10705
468.034	13891
468.113	29206
468.192	40532
468.271	15207
468.350	11591
468.429	13907
468.508	15147
468.588	11159
468.667	7624
468.746	9083
468.825	9448
468.904	6981
468.983	9224
469.062	14184
469.141	15567
469.220	8341
469.299	7813
469.378	7998
469.456	9504
469.535	8343
469.614	7700
469.693	9408
469.772	11898
469.851	14259
469.930	11688
470.009	9224
470.088	10788
470.166	15709
470.245	28379
470.324	36118
470.403	20560
470.482	12050
470.560	10142
470.639	10291
470.718	11586
470.797	9818
470.875	10597
470.954	12821
471.033	12874
471.111	6913
471.190	6744
471.269	6184
471.347	6395
471.426	6530
471.505	7584
471.583	7951
471.662	7805
471.740	8048
471.819	8072
471.898	7193
471.976	6668
472.055	6084
472.133	6588
472.212	10561
472.290	8841
472.369	6715
472.447	6855
472.526	5790
472.604	6599
472.683	8221
472.761	9169
472.839	7632
472.918	6966
472.996	7764
473.075	8467
473.153	8264
473.231	5549
473.310	8224
473.388	7698
473.466	6980
473.545	8782
473.623	12442
473.701	13833
473.780	7790
473.858	5680
473.936	8675
474.014	7188
474.093	8205
474.171	10927
474.249	13977
474.327	10863
474.405	6550
474.484	7588
474.562	6907
474.640	7144
474.718	7191
474.796	8220
474.874	6838
474.952	6328
475.030	6163
475.108	7677
475.187	8719
475.265	10387
475.343	15542
475.421	18478
475.499	7588
475.577	8211
475.655	10262
475.733	16675
475.811	27503
475.889	24155
475.966	18057
476.044	7623
476.122	10775
476.200	16042
476.278	11124
476.356	6527
476.434	8653
476.512	9766
476.590	15268
476.667	13438
476.745	7177
476.823	7272
476.901	6875
476.979	6623
477.056	6205
477.134	6266
477.212	6721
477.290	6786
477.367	6602
477.445	5552
477.523	4724
477.601	6048
477.678	5926
477.756	7295
477.834	8370
477.911	6160
477.989	6535
478.066	5927
478.144	7169
478.222	11535
478.299	19917
478.377	18334
478.454	6701
478.532	5707
478.609	7067
478.687	7901
478.764	5013
478.842	6884
478.919	7660
478.997	6886
479.074	5552
479.152	7176
479.229	9054
479.307	5731
479.384	5452
479.461	5574
479.539	5928
479.616	6669
479.694	6510
479.771	6506
479.848	6617
479.926	7871
480.003	11434
480.080	6750
480.157	6404
480.235	5695
480.312	5963
480.389	6049
480.467	9390
480.544	12484
480.621	7245
480.698	7578
480.775	7852
480.853	7333
480.930	5980
481.007	5712
481.084	7134
481.161	8287
481.238	7059
481.315	6048
481.392	4940
481.470	5883
481.547	5982
481.624	5956
481.701	5710
481.778	6486
481.855	6721
481.932	9928
482.009	14765
482.086	13172
482.163	7985
482.240	14324
482.317	26846
482.393	20537
482.470	7180
482.547	6545
482.624	6212
482.701	6677
482.778	5781
482.855	5884
482.932	6585
483.009	6071
483.085	7623
483.162	8795
483.239	9262
483.316	7533
483.393	7467
483.469	6373
483.546	7471
483.623	7073
483.699	4903
483.776	6980
483.853	8049
483.930	10160
484.006	23732
484.083	40263
484.160	22358
484.236	25386
484.313	20731
484.389	15546
484.466	15588
484.543	14005
484.619	14576
484.696	18597
484.772	15961
484.849	17325
484.925	14685
485.002	13193
485.078	14552
485.155	15594
485.231	12240
485.308	12433
485.384	13456
485.461	16338
485.537	24752
485.614	32010
485.690	13962
485.766	12751
485.843	13886
485.919	22457
485.995	22952
486.072	12339
486.148	11368
486.224	12099
486.301	12080
486.377	14534
486.453	15390
486.530	14114
486.606	17232
486.682	18627
486.758	22513
486.835	25480
486.911	20921
486.987	34642
487.063	47022
487.139	63379
487.215	42143
487.292	19421
487.368	15316
487.444	17938
487.520	24920
487.596	24672
487.672	40095
487.748	121184
487.824	188135
487.900	63268
487.976	20971
488.052	18401
488.128	23371
488.204	17497
488.280	13816
488.356	14502
488.432	29557
488.508	44985
488.584	19924
488.660	13850
488.736	13162
488.812	13953
488.888	18489
488.964	24200
489.039	57719
489.115	95990
489.191	59237
489.267	13601
489.343	11841
489.418	11103
489.494	9069
489.570	8158
489.646	10745
489.722	10121
489.797	10719
489.873	15081
489.949	32515
490.024	30334
490.100	10622
490.176	10090
490.251	13846
490.327	20818
490.403	11803
490.478	9542
490.554	8071
490.629	8401
490.705	8438
490.781	9532
490.856	9803
490.932	12005
491.007	13159
491.083	10293
491.158	10514
491.234	12212
491.309	24816
491.385	27863
491.460	10213
491.536	11715
491.611	10802
491.686	11582
491.762	17137
491.837	38858
491.913	66244
491.988	92777
492.063	123809
492.139	32291
492.214	17065
492.289	8077
492.365	7534
492.440	10976
492.515	10428
492.590	9832
492.666	7001
492.741	11103
492.816	15777
492.891	8894
492.967	7819
493.042	6850
493.117	6809
493.192	8060
493.267	9879
493.342	19820
493.418	25538
493.493	8941
493.568	7720
493.643	6905
493.718	10177
493.793	15960
493.868	19226
493.943	12845
494.018	8663
494.093	7874
494.168	7641
494.243	6669
494.318	7127
494.393	7506
494.468	7089
494.543	7954
494.618	8046
494.693	8020
494.768	6955
494.842	7938
494.917	7031
494.992	7850
495.067	6586
495.142	6437
495.217	7880
495.292	8424
495.366	9926
495.441	12503
495.516	16473
495.591	22215
495.665	85363
495.740	209581
495.815	100362
495.890	14411
495.964	9301
496.039	11196
496.114	8894
496.188	9870
496.263	11402
496.338	8504
496.412	9923
496.487	11861
496.561	13837
496.636	15256
496.710	10008
496.785	11641
496.860	13040
496.934	11607
497.009	12145
497.083	11214
497.158	12061
497.232	14406
497.307	17144
497.381	15263
497.455	16153
497.530	20755
497.604	16248
497.679	16399
497.753	26625
497.827	35700
497.902	34610
497.976	35749
498.050	68123
498.125	245950
498.199	294507
498.273	63892
498.348	46699
498.422	34581
498.496	31172
498.570	29714
498.645	20498
498.719	17325
498.793	20396
498.867	27354
498.941	35888
499.016	95101
499.090	262005
499.164	123126
499.238	15007
499.312	13177
499.386	15906
499.460	15755
499.534	13505
499.609	15675
499.683	21451
499.757	19641
499.831	39354
499.905	162260
499.979	178783
500.053	28655
500.127	27566
500.201	23880
500.275	14529
500.349	13486
500.422	14298
500.496	22869
500.570	47945
500.644	101392
500.718	177547
500.792	53729
500.866	12742
500.940	14299
501.013	12996
501.087	12103
501.161	23342
501.235	27844
501.309	49894
501.382	139463
501.456	146069
501.530	33024
501.603	45170
501.677	22988
501.751	7992
501.825	12550
501.898	18994
501.972	53579
502.046	41692
502.119	10613
502.193	25927
502.266	59525
502.340	36016
502.413	24831
502.487	52518
502.561	32603
502.634	13305
502.708	10684
502.781	8183
502.855	8375
502.928	6393
503.002	6286
503.075	5591
503.149	6063
503.222	6751
503.295	8316
503.369	9144
503.442	12279
503.516	39648
503.589	105222
503.662	78200
503.736	24490
503.809	47332
503.882	46954
503.956	58681
504.029	69729
504.102	73473
504.175	105166
504.249	38164
504.322	15619
504.395	11662
504.468	8131
504.542	7827
504.615	5194
504.688	5904
504.761	5079
504.834	8377
504.907	11100
504.980	19351
505.053	10207
505.127	10356
505.200	14485
505.273	9159
505.346	6113
505.419	5178
505.492	5013
505.565	4009
505.638	4844
505.711	3381
505.784	4418
505.857	3839
505.930	5783
506.003	3950
506.076	6626
506.149	6748
506.221	7973
506.294	8847
506.367	19777
506.440	72437
506.513	51383
506.586	10742
506.659	6525
506.731	6140
506.804	6945
506.877	11222
506.950	7900
507.022	5907
507.095	5547
507.168	10122
507.241	7475
507.313	4978
507.386	5612
507.459	12001
507.531	6153
507.604	4044
507.677	5376
507.749	4127
507.822	8240
507.894	14329
507.967	17104
508.040	8604
508.112	8467
508.185	7327
508.257	6621
508.330	12783
508.402	7130
508.475	6647
508.547	7159
508.620	6540
508.692	11028
508.765	7454
508.837	4615
508.909	5077
508.982	4851
509.054	7612
509.127	5674
509.199	5068
509.271	4262
509.344	4014
509.416	4537
509.488	5163
509.560	4924
509.633	6326
509.705	7327
509.777	7865
509.849	11700
509.922	7748
509.994	4638
510.066	6272
510.138	4747
510.210	12078
510.283	9200
510.355	8367
510.427	8126
510.499	8029
510.571	7906
510.643	7037
510.715	14428
510.787	11851
510.859	7853
510.931	7480
511.003	12626
511.076	12183
511.148	5229
511.219	5807
511.291	9949
511.363	12225
511.435	6251
511.507	5267
511.579	6476
511.651	6396
511.723	4946
511.795	6084
511.867	6107
511.939	6994
512.010	13671
512.082	14037
512.154	6638
512.226	6153
512.298	9946
512.369	15161
512.441	12303
512.513	12592
512.585	8552
512.656	9012
512.728	10302
512.800	7845
512.871	7681
512.943	7398
513.015	5267
513.086	7562
513.158	8650
513.230	8645
513.301	13596
513.373	18882
513.444	9768
513.516	6670
513.588	7548
513.659	8782
513.731	11421
513.802	9906
513.874	23252
513.945	44237
514.016	15841
514.088	7850
514.159	8080
514.231	12929
514.302	15027
514.374	10481
514.445	8216
514.516	19184
514.588	14847
514.659	9179
514.730	15077
514.802	16644
514.873	11883
514.944	13820
515.016	10428
515.087	11698
515.158	13075
515.229	19772
515.301	13794
515.372	18526
515.443	12037
515.514	8708
515.585	6694
515.656	9126
515.728	7540
515.799	6568
515.870	8326
515.941	10085
516.012	7844
516.083	12581
516.154	15247
516.225	23617
516.296	23370
516.367	21035
516.438	27185
516.509	34325
516.580	49071
516.651	174129
516.722	672142
516.793	335016
516.864	54255
516.935	48947
517.006	56798
517.077	74736
517.148	169839
517.219	760603
517.289	1334583
517.360	263060
517.431	67241
517.502	23677
517.573	20435
517.643	18827
517.714	19885
517.785	23419
517.856	25624
517.926	35600
517.997	45675
518.068	59637
518.138	82069
518.209	120336
518.280	488024
518.350	1900365
518.421	874353
518.492	88191
518.562	39581
518.633	31421
518.703	28867
518.774	49157
518.845	124796
518.915	134437
518.986	41435
519.056	25446
519.127	39238
519.197	53006
519.268	98525
519.338	69430
519.408	18928
519.479	24035
519.549	18939
519.620	12791
519.690	9296
519.760	8071
519.831	9706
519.901	10464
519.971	8098
520.042	8859
520.112	11459
520.182	14652
520.253	18133
520.323	13946
520.393	31314
520.463	61366
520.534	37965
520.604	92538
520.674	31486
520.744	25453
520.814	100104
520.885	78750
520.955	30253
521.025	99382
521.095	52280
521.165	10611
521.235	9270
521.305	8174
521.375	7394
521.445	9158
521.515	12420
521.585	15329
521.655	12986
521.725	11322
521.795	10343
521.865	5191
521.935	12181
522.005	9069
522.075	6464
522.145	8752
522.215	7749
522.285	12470
522.355	14721
522.424	29338
522.494	27047
522.564	16192
522.634	30955
522.704	102640
522.774	47293
522.843	10862
522.913	9192
522.983	12738
523.053	8609
523.122	9615
523.192	13213
523.262	54426
523.331	60981
523.401	11523
523.471	6978
523.540	7850
523.610	4738
523.680	6007
523.749	5905
523.819	8026
523.888	6822
523.958	5669
524.027	5454
524.097	7385
524.166	6470
524.236	6745
524.305	9018
524.375	5797
524.444	4965
524.514	7147
524.583	5960
524.653	7849
524.722	10062
524.791	6499
524.861	7655
524.930	4570
524.999	6699
525.069	11077
525.138	7502
525.207	8933
525.277	7948
525.346	7514
525.415	7194
525.484	8864
525.554	8893
525.623	10171
525.692	9358
525.761	11607
525.830	14198
525.900	16885
525.969	25003
526.038	40785
526.107	81708
526.176	259980
526.245	230566
526.314	70495
526.383	130439
526.452	188454
526.522	294153
526.591	333852
526.660	87459
526.729	46554
526.797	43124
526.867	79440
526.935	345242
527.004	707742
527.073	438844
527.142	44619
527.211	17303
527.280	15450
527.349	14514
527.418	7097
527.487	8383
527.555	6791
527.624	6168
527.693	5029
527.762	7152
527.831	4539
527.899	6636
527.968	4978
528.037	4947
528.106	8977
528.174	16864
528.243	13283
528.312	15793
528.380	25687
528.449	7975
528.518	5864
528.586	3143
528.655	5579
528.723	4948
528.792	3944
528.861	4676
528.929	3526
528.998	4940
529.066	4065
529.135	4620
529.203	3426
529.272	3928
529.340	5327
529.409	6714
529.477	4506
529.545	5239
529.614	9983
529.682	9339
529.751	11770
529.819	16003
529.887	9399
529.956	5573
530.024	6819
530.092	4903
530.161	6974
530.229	13011
530.297	8183
530.365	6262
530.434	5260
530.502	4205
530.570	4879
530.638	3265
530.707	6122
530.775	7044
530.843	4967
530.911	5511
530.979	4942
531.047	4581
531.115	5519
531.183	4968
531.252	6387
531.320	5369
531.388	4326
531.456	5352
531.524	4128
531.592	6803
531.660	8159
531.728	5547
531.796	4978
531.864	6187
531.932	6767
532.000	4877
532.067	6817
532.135	6720
532.203	9657
532.271	8816
532.339	16658
532.407	45760
532.475	31922
532.542	13205
532.610	13962
532.678	16985
532.746	72956
532.814	215859
532.881	63206
532.949	12566
533.017	9283
533.084	7632
533.152	6797
533.220	5968
533.287	7315
533.355	6697
533.423	6558
533.490	5626
533.558	6308
533.625	6010
533.693	7918
533.761	7778
533.828	7258
533.896	6390
533.963	15654
534.031	19618
534.098	27454
534.166	14240
534.233	7145
534.300	8224
534.368	8395
534.435	8201
534.503	9538
534.570	16317
534.637	13451
534.705	11422
534.772	15119
534.840	27257
534.907	113730
534.974	168660
535.041	23021
535.109	11051
535.176	7782
535.243	7469
535.310	7846
535.378	7071
535.445	6300
535.512	6057
535.579	6820
535.646	5891
535.714	7179
535.781	7901
535.848	8085
535.915	8247
535.982	6372
536.049	6501
536.116	8408
536.183	7155
536.250	7470
536.317	8007
536.384	9450
536.451	14784
536.518	17678
536.585	9394
536.652	13652
536.719	20911
536.786	17349
536.853	12668
536.920	17549
536.987	29848
537.053	27863
537.120	98476
537.187	100530
537.254	11526
537.321	8716
537.388	9421
537.454	6337
537.521	7651
537.588	6051
537.654	7982
537.721	8437
537.788	9602
537.855	7049
537.921	7537
537.988	7867
538.055	8835
538.121	7152
538.188	8568
538.254	13013
538.321	31755
538.388	20730
538.454	8776
538.521	8059
538.587	7418
538.654	6978
538.720	8038
538.787	7770
538.853	8190
538.920	9805
538.986	9632
539.053	9114
539.119	9258
539.185	9146
539.252	11308
539.318	18359
539.385	14207
539.451	10861
539.517	11623
539.583	12345
539.650	26656
539.716	77108
539.782	27104
539.849	10042
539.915	9192
539.981	8738
540.047	12915
540.114	11326
540.180	11168
540.246	10620
540.312	14393
540.378	29445
540.444	33313
540.510	30078
540.576	87578
540.643	33482
540.709	10071
540.775	9285
540.841	9566
540.907	12917
540.973	26233
541.039	20674
541.105	19340
541.171	10483
541.237	8858
541.303	10194
541.369	12213
541.435	14626
541.500	27622
541.566	18816
541.632	9213
541.698	7599
541.764	8314
541.830	8365
541.896	7578
541.961	9423
542.027	8904
542.093	8667
542.159	10018
542.224	10011
542.290	15269
542.356	25474
542.421	33921
542.487	15652
542.553	9942
542.618	10028
542.684	10037
542.750	9354
542.815	11639
542.881	18480
542.947	72447
543.012	62945
543.078	10676
543.143	8897
543.209	9847
543.274	10244
543.340	10942
543.405	26199
543.471	48234
543.536	13101
543.602	9700
543.667	7653
543.732	9109
543.798	6864
543.863	7993
543.928	7631
543.994	7423
544.059	8073
544.124	8442
544.190	7802
544.255	8612
544.320	9825
544.386	8780
544.451	14000
544.516	16835
544.581	16470
544.646	43217
544.712	78632
544.777	18112
544.842	10822
544.907	11601
544.972	10401
545.037	10358
545.102	11247
545.168	10925
545.233	11708
545.298	13095
545.363	13458
545.428	15336
545.493	26676
545.558	64288
545.623	29471
545.688	11886
545.753	11229
545.818	10385
545.883	12444
545.947	10805
546.012	11970
546.077	12172
546.142	13287
546.207	12907
546.272	18539
546.337	20328
546.401	14803
546.466	13787
546.531	13454
546.596	15553
546.661	16122
546.725	16563
546.790	15077
546.855	16561
546.919	16279
546.984	19201
547.049	20903
547.113	24021
547.178	24877
547.243	27755
547.307	32222
547.372	36879
547.436	37085
547.501	35253
547.565	38712
547.630	38322
547.695	38339
547.759	36886
547.823	37084
547.888	34455
547.952	34740
548.017	35637
548.081	38159
548.146	42004
548.210	41060
548.274	40034
548.339	40294
548.403	36091
548.468	34754
548.532	33395
548.596	33964
548.660	35177
548.725	38325
548.789	42845
548.853	43576
548.917	37754
548.982	40349
549.046	38706
549.110	29922
549.174	31257
549.238	35772
549.303	38315
549.367	40842
549.431	39142
549.495	36606
549.559	37209
549.623	42505
549.687	47282
549.751	52770
549.815	53658
549.879	53896
549.943	49324
550.007	53131
550.071	55212
550.135	54214
550.199	48458
550.263	45835
550.327	44342
550.391	48254
550.455	49379
550.519	50632
550.582	55607
550.646	66848
550.710	69414
550.774	62433
550.838	61273
550.901	63379
550.965	67136
551.029	70217
551.093	77239
551.156	85231
551.220	110622
551.284	135858
551.347	93597
551.411	90717
551.475	95811
551.538	68964
551.602	63104
551.666	57253
551.729	54989
551.793	53926
551.856	52061
551.920	51142
551.983	52648
552.047	51423
552.110	51901
552.174	51192
552.237	52772
552.301	49975
552.364	48414
552.428	47514
552.491	49547
552.554	52207
552.618	51784
552.681	54313
552.745	56523
552.808	82277
552.871	112214
552.934	72171
552.998	53764
553.061	51204
553.124	47912
553.187	46878
553.251	48709
553.314	49269
553.377	47713
553.440	50444
553.503	55780
553.567	62374
553.630	51880
553.693	49324
553.756	51313
553.819	49636
553.882	47721
553.945	48921
554.008	48073
554.071	47912
554.134	49409
554.197	46849
554.260	45120
554.323	48682
554.386	47890
554.449	48586
554.512	48950
554.575	47260
554.638	48182
554.701	46549
554.764	45506
554.827	44803
554.889	41556
554.952	41205
555.015	38615
555.078	40806
555.141	39902
555.203	39692
555.266	39984
555.329	39836
555.391	38250
555.454	38911
555.517	38791
555.580	35528
555.642	33683
555.705	34381
555.768	34690
555.830	33680
555.893	31315
555.955	31742
556.018	31269
556.080	29683
556.143	31689
556.206	31129
556.268	32260
556.330	31355
556.393	31473
556.455	29830
556.518	32718
556.580	34607
556.643	27381
556.705	26410
556.767	26001
556.830	27021
556.892	28748
556.955	37392
557.017	31435
557.079	24908
557.142	25479
557.204	27421
557.266	44123
557.328	39760
557.391	22916
557.453	21706
557.515	21652
557.577	26574
557.639	28050
557.701	23852
557.764	23139
557.826	24264
557.888	27328
557.950	26706
558.012	29442
558.074	36812
558.136	80787
558.198	216946
558.260	86427
558.322	33031
558.384	35019
558.446	39162
558.508	45286
558.570	56544
558.632	78874
558.694	110769
558.756	128204
558.818	385637
558.880	1047577
558.942	355810
559.003	234879
559.065	127376
559.127	49616
559.189	49646
559.251	53059
559.312	72881
559.374	175997
559.436	643510
559.498	350872
559.559	57468
559.621	47696
559.683	52640
559.744	82300
559.806	281439
559.868	468574
559.929	93797
559.991	47281
560.052	69691
560.114	206341
560.176	141165
560.237	113425
560.299	203304
560.360	48401
560.422	20799
560.483	17363
560.545	16395
560.606	14276
560.667	14417
560.729	13714
560.790	13003
560.852	14012
560.913	13079
560.974	12949
561.036	12760
561.097	12975
561.158	14209
561.220	13841
561.281	13915
561.342	15071
561.403	15969
561.465	20403
561.526	47044
561.587	64669
561.648	19805
561.709	13967
561.771	14086
561.832	12884
561.893	13094
561.954	13100
562.015	12580
562.076	12856
562.137	12471
562.198	12800
562.259	12203
562.320	12877
562.381	14106
562.442	20633
562.503	17724
562.564	13166
562.625	12452
562.686	12719
562.747	14672
562.808	12779
562.869	12731
562.930	14811
562.991	13210
563.051	12950
563.112	11495
563.173	12322
563.234	11623
563.294	11421
563.355	11780
563.416	12359
563.477	13141
563.537	12307
563.598	12715
563.659	12855
563.720	13172
563.780	12847
563.841	14109
563.901	13383
563.962	12221
564.023	11850
564.083	12440
564.144	12640
564.204	12268
564.265	12448
564.325	13853
564.386	22542
564.446	23338
564.507	12565
564.567	12305
564.628	13039
564.688	12330
564.749	11955
564.809	13314
564.869	15468
564.930	12736
564.990	11959
565.050	11805
565.111	11533
565.171	11898
565.231	11792
565.292	12208
565.352	11238
565.412	12533
565.472	12658
565.532	13190
565.593	12401
565.653	12895
565.713	12745
565.773	15116
565.833	16863
565.893	20841
565.953	14040
566.013	13353
566.074	14049
566.134	17011
566.194	22969
566.254	25817
566.314	17960
566.374	13975
566.434	14016
566.494	14175
566.554	14676
566.614	14293
566.673	15629
566.733	17305
566.793	16931
566.853	18160
566.913	18091
566.973	18071
567.033	19086
567.092	19597
567.152	18431
567.212	19366
567.272	17633
567.331	18914
567.391	20783
567.451	22401
567.511	25581
567.570	26160
567.630	19864
567.690	18920
567.749	19738
567.809	20959
567.868	23828
567.928	25873
567.988	28971
568.047	33875
568.107	39137
568.166	53489
568.226	85357
568.285	121782
568.345	100515
568.404	77526
568.464	68191
568.523	60816
568.582	62303
568.642	70771
568.701	86100
568.761	126114
568.820	205026
568.879	195129
568.939	138522
568.998	100889
569.057	75769
569.116	59725
569.176	48573
569.235	40203
569.294	34437
569.353	31515
569.413	28509
569.472	25792
569.531	22383
569.590	21873
569.649	20787
569.708	19859
569.767	20038
569.827	22805
569.886	20414
569.945	16574
570.004	17199
570.063	16837
570.122	16962
570.181	16317
570.240	17241
570.299	17593
570.358	20067
570.417	15743
570.475	14307
570.534	14848
570.593	14807
570.652	15800
570.711	17149
570.770	14687
570.829	15453
570.887	16136
570.946	17634
571.005	14622
571.064	14066
571.122	17084
571.181	16460
571.240	13234
571.299	12305
571.357	13499
571.416	14149
571.475	14506
571.533	15155
571.592	12957
571.650	13223
571.709	12986
571.768	13639
571.826	13543
571.885	12189
571.943	11749
572.002	13146
572.060	12724
572.119	10740
572.177	11557
572.236	11302
572.294	10705
572.352	11807
572.411	11292
572.469	10971
572.528	11596
572.586	11730
572.644	13813
572.703	18322
572.761	13833
572.819	10643
572.877	11152
572.936	10118
572.994	10347
573.052	10733
573.110	11580
573.169	11814
573.227	11186
573.285	10298
573.343	10967
573.401	10368
573.459	11111
573.517	11049
573.576	10527
573.634	10465
573.692	10962
573.750	11749
573.808	11133
573.866	12023
573.924	14050
573.982	13695
574.040	12007
574.098	11295
574.155	10514
574.213	10342
574.271	9924
574.329	11674
574.387	9414
574.445	9390
574.503	10229
574.560	9129
574.618	10067
574.676	8917
574.734	9463
574.792	9797
574.849	9943
574.907	9221
574.965	8619
575.022	9069
575.080	8538
575.138	10110
575.195	10203
575.253	9701
575.311	11116
575.368	9748
575.426	9745
575.483	9382
575.541	10251
575.598	8617
575.656	9078
575.713	9887
575.771	9483
575.828	10566
575.886	9971
575.943	10961
576.001	10156
576.058	10471
576.115	10010
576.173	13285
576.230	14172
576.287	15945
576.345	11909
576.402	10996
576.459	10844
576.517	10678
576.574	11174
576.631	11984
576.688	10752
576.746	10513
576.803	9491
576.860	10321
576.917	9896
576.974	9617
577.031	11184
577.089	10267
577.146	10542
577.203	9723
577.260	10872
577.317	11317
577.374	11985
577.431	12150
577.488	10993
577.545	9586
577.602	9932
577.659	10697
577.716	9867
577.773	11018
577.830	9798
577.886	10217
577.943	10088
578.000	10470
578.057	10735
578.114	10400
578.171	11411
578.227	10027
578.284	10101
578.341	10888
578.398	10331
578.454	12762
578.511	12151
578.568	14042
578.625	12152
578.681	10647
578.738	9908
578.794	10496
578.851	10402
578.908	9901
578.964	11689
579.021	11023
579.077	11025
579.134	10857
579.190	10612
579.247	10847
579.303	10694
579.360	10545
579.416	10537
579.473	9361
579.529	9265
579.586	10368
579.642	10988
579.698	9984
579.755	10971
579.811	10678
579.867	10252
579.924	10027
579.980	10770
580.036	10403
580.093	11115
580.149	11072
580.205	11109
580.261	11076
580.317	11352
580.374	11675
580.430	13853
580.486	13521
580.542	10715
580.598	11328
580.619	11359
580.654	11408
580.692	11431
580.710	11434
580.765	11242
580.767	11230
580.823	12094
580.838	12049
580.879	11874
580.911	11779
580.935	11716
580.984	12120
580.991	12175
581.047	12154
581.057	12110
581.103	11846
581.130	12055
581.159	12251
581.203	12673
581.215	12781
581.270	12614
581.276	12651
581.326	12843
581.349	12878
581.382	12950
581.422	13472
581.438	13669
581.494	14092
581.494	14098
581.550	13952
581.567	13775
581.606	13255
581.640	13741
581.661	14022
581.713	14731
581.717	14778
581.773	13126
581.786	13213
581.829	13532
581.859	13859
581.885	14123
581.932	13768
581.940	13700
581.996	14893
582.004	14825
582.052	14147
582.077	13990
582.107	13954
582.150	14721
582.163	14902
582.219	14913
582.223	14935
582.274	15376
582.296	15730
582.330	16077
582.368	15641
582.386	15404
582.441	15694
582.441	15686
582.497	15408
582.514	15803
582.552	16797
582.587	17139
582.608	17320
582.659	16444
582.663	16366
582.719	16792
582.732	16765
582.774	16851
582.805	17360
582.830	17642
582.877	17495
582.885	17461
582.941	17435
582.950	17554
582.996	18402
583.023	18780
583.052	19236
583.095	18867
583.107	18630
583.162	18956
583.168	18974
583.218	19454
583.240	19173
583.273	18597
583.313	19036
583.328	19336
583.384	20019
583.385	20013
583.439	19252
583.458	19416
583.494	19899
583.531	20246
583.549	20530
583.603	20871
583.605	20879
583.660	20592
583.676	20609
583.715	20742
583.748	21271
583.770	21717
583.820	22897
583.825	22982
583.881	23115
583.893	23048
583.936	22820
583.965	22814
583.991	23004
584.038	23031
584.046	23051
584.101	23510
584.110	23648
584.156	24210
584.183	24451
584.211	24705
584.255	25178
584.266	25302
584.321	23826
584.328	23925
584.376	25636
584.400	26104
584.431	26288
584.472	25995
584.486	26030
584.541	27257
584.545	27237
584.596	27705
584.617	28366
584.651	29430
584.689	29862
584.706	30058
584.761	30981
584.762	30951
584.816	30948
584.834	31398
584.871	32709
584.906	32969
584.926	32972
584.978	33402
584.980	33504
585.035	35668
585.051	36388
585.090	38233
585.123	39305
585.145	40393
585.195	43188
585.200	43502
585.254	46780
585.267	47775
585.309	51770
585.340	54560
585.364	57110
585.412	61303
585.419	62178
585.473	70360
585.484	72210
585.528	86219
585.556	98330
585.583	130519
585.628	199544
585.637	229296
585.692	455997
585.700	494687
585.747	614686
585.772	567526
585.801	380383
585.845	149752
585.856	128212
585.910	78658
585.917	73331
585.965	65599
585.989	61889
586.019	59698
586.061	57586
586.074	57583
586.128	57410
586.133	57420
586.183	60822
586.205	61717
586.237	61673
586.277	61221
586.292	61386
586.346	61940
586.349	61825
586.401	62836
586.421	63170
586.455	65740
586.493	68882
586.509	74338
586.564	93576
586.565	93902
586.618	127188
586.637	135275
586.672	113908
586.709	89102
586.727	85878
586.781	80581
586.781	80751
586.835	77609
586.853	76862
586.889	76837
586.925	76039
586.944	76916
586.996	79927
586.998	80223
587.052	83967
587.068	84875
587.106	86971
587.140	87930
587.161	89301
587.212	93631
587.215	94107
587.269	98216
587.284	99148
587.323	102121
587.356	104558
587.377	106946
587.427	111288
587.431	111948
587.485	117730
587.499	118979
587.539	124420
587.571	128252
587.593	132243
587.643	140281
587.648	141524
587.702	151841
587.715	153916
587.755	162518
587.786	168573
587.810	174104
587.858	184737
587.864	186933
587.917	204991
587.930	208458
587.971	225558
588.001	237737
588.025	249210
588.073	270504
588.079	274515
588.133	306166
588.145	312254
588.187	343348
588.217	365344
588.241	389559
588.288	435987
588.295	445119
588.348	514668
588.360	528518
588.402	598978
588.431	647230
588.456	701607
588.503	805299
588.510	827550
588.564	996136
588.575	1030086
588.617	1236442
588.646	1378273
588.671	1572636
588.718	1948153
588.725	2037688
588.778	2719800
588.789	2857655
588.832	3412171
588.861	3782124
588.886	3795214
588.932	3724903
588.939	3709240
588.993	3393422
589.004	3342634
589.047	3767784
589.075	3970078
589.100	3673579
589.147	3058523
589.154	2980950
589.207	2346711
589.218	2215685
589.261	2050425
589.290	1941901
589.314	2010189
589.361	2146720
589.368	2220336
589.421	2807508
589.433	2930810
589.475	3450278
589.504	3803856
589.528	3768616
589.576	3552242
589.582	3576135
589.635	3692588
589.647	3688512
589.689	3022524
589.718	2535072
589.742	2182588
589.790	1490066
589.795	1455976
589.849	1109772
589.861	1028260
589.902	890536
589.932	785008
589.955	722553
590.004	585891
590.009	580295
590.062	501067
590.075	480416
590.115	439348
590.146	404852
590.168	390535
590.218	355192
590.222	354236
590.275	326456
590.289	318039
590.328	302639
590.360	288352
590.381	280910
590.431	260212
590.435	260218
590.488	244601
590.503	239427
590.541	232394
590.574	224840
590.594	221060
590.645	208749
590.647	209157
590.700	199399
590.716	195864
590.753	191236
590.787	185520
590.806	183891
590.859	176918
590.859	177478
590.912	171045
590.930	168445
590.965	167204
591.001	164391
591.018	163760
591.071	160388
591.072	159745
591.124	155912
591.143	153674
591.177	153447
591.214	152231
591.230	152699
591.283	152252
591.285	151640
591.336	151346
591.356	150410
591.389	149466
591.427	147110
591.442	145544
591.495	137464
591.498	136330
591.547	133944
591.569	132219
591.600	131747
591.640	129613
591.653	130164
591.706	130631
591.711	130156
591.759	134516
591.782	135964
591.811	139008
591.853	142005
591.864	140498
591.917	129998
591.924	127938
591.969	125842
591.995	123916
592.022	124760
592.066	124739
592.075	127084
592.127	138448
592.137	140007
592.180	148255
592.208	152532
592.233	143949
592.279	125844
592.285	125776
592.338	120988
592.350	119403
592.390	118971
592.421	117790
592.443	118237
592.491	117706
592.495	118319
592.548	120092
592.562	120089
592.600	119111
592.633	117360
592.653	117262
592.704	115101
592.705	115798
592.775	117292
592.846	116798
592.916	119847
592.987	125442
593.058	119577
593.128	112226
593.199	110929
593.270	111093
593.341	110645
593.411	112375
593.482	113703
593.553	110722
593.623	110287
593.694	113739
593.764	119836
593.835	111093
593.906	110498
593.976	111713
594.047	116331
594.117	131329
594.188	133122
594.258	110365
594.329	109229
594.399	110500
594.470	110762
594.540	109790
594.611	111313
594.681	111705
594.751	112481
594.822	119006
594.892	121361
594.963	122372
595.033	121998
595.103	124267
595.174	135904
595.244	175438
595.314	203142
595.384	131558
595.455	126093
595.525	129423
595.595	132146
595.665	132509
595.736	130043
595.806	130674
595.876	129508
595.946	130394
596.016	132455
596.087	135239
596.157	134289
596.227	136119
596.297	141769
596.367	147965
596.437	161726
596.507	192189
596.577	216510
596.647	160238
596.717	156610
596.787	157396
596.857	157011
596.927	158064
596.997	156703
597.067	158027
597.137	162972
597.207	163808
597.277	163744
597.347	159150
597.417	155163
597.487	156715
597.557	160459
597.626	163523
597.696	172753
597.766	189894
597.836	216860
597.906	162132
597.975	147893
598.045	147896
598.115	151823
598.185	160784
598.254	175919
598.324	187890
598.394	191295
598.464	188336
598.533	180235
598.603	169456
598.672	168892
598.742	170169
598.812	170755
598.881	172250
598.951	170301
599.020	171257
599.090	175071
599.159	177650
599.229	172220
599.299	166603
599.368	173365
599.437	170017
599.507	162827
599.576	161880
599.646	157057
599.715	154723
599.785	156883
599.854	160131
599.924	167051
599.993	160367
600.062	152107
600.132	156207
600.201	166294
600.270	188790
600.340	190793
600.409	184152
600.478	182578
600.547	187020
600.617	176975
600.686	151093
600.755	142967
600.824	142204
600.894	137149
600.963	131971
601.032	132886
601.101	129247
601.170	127020
601.239	128488
601.308	134085
601.378	130218
601.447	126530
601.516	126612
601.585	132676
601.654	143632
601.723	134545
601.792	134729
601.861	137932
601.930	148304
601.999	152602
602.068	147293
602.137	157737
602.206	156327
602.275	151563
602.343	165155
602.412	164442
602.481	148156
602.550	146596
602.619	148856
602.688	154459
602.756	151206
602.825	150002
602.894	152598
602.963	155302
603.032	158791
603.100	156348
603.169	155170
603.238	159561
603.307	156223
603.375	156508
603.444	163017
603.513	160249
603.581	161825
603.650	168027
603.719	159115
603.787	160346
603.856	165070
603.924	171829
603.993	173577
604.061	176631
604.130	183548
604.198	187087
604.267	187910
604.335	190622
604.404	192531
604.472	193586
604.541	195989
604.609	198322
604.678	198432
604.746	201020
604.815	208323
604.883	208002
604.951	204638
605.020	210108
605.088	211077
605.156	213628
605.225	212898
605.293	214011
605.361	215703
605.429	215746
605.498	223793
605.566	225837
605.634	236595
605.702	240586
605.771	246643
605.839	248686
605.907	241378
605.975	235632
606.043	228129
606.111	228221
606.180	229166
606.248	226073
606.316	225069
606.384	233986
606.452	246814
606.520	259657
606.588	237529
606.656	230064
606.724	226080
606.792	210848
606.860	191247
606.928	175830
606.996	170042
607.064	166996
607.132	173557
607.200	181881
607.267	188110
607.335	190969
607.403	194394
607.471	190097
607.539	183261
607.607	183795
607.674	166514
607.742	171604
607.810	174078
607.878	168564
607.946	170961
608.013	176776
608.081	183315
608.149	183708
608.216	183203
608.284	189747
608.352	191049
608.419	194730
608.487	216556
608.555	191899
608.622	184665
608.690	194151
608.757	214902
608.825	219428
608.893	218509
608.960	223333
609.028	229152
609.095	236267
609.163	203681
609.230	180135
609.298	168847
609.365	171640
609.432	182251
609.500	199316
609.567	225613
609.635	257443
609.702	267929
609.769	259164
609.837	218789
609.904	192721
609.971	198017
610.039	233850
610.106	333741
610.173	685699
610.241	1585987
610.308	1149095
610.375	508790
610.442	251297
610.509	204878
610.577	193552
610.644	192254
610.711	192211
610.778	197526
610.845	203205
610.912	213324
610.980	219863
611.047	222645
611.114	219348
611.181	210375
611.248	208155
611.315	217610
611.382	222418
611.449	228249
611.516	233505
611.583	231672
611.650	233898
611.717	239891
611.784	248022
611.851	267227
611.918	298344
611.984	358505
612.051	553066
612.118	1204565
612.185	2958537
612.252	1812828
612.319	447787
612.386	328933
612.452	294509
612.519	283468
612.586	307816
612.653	279534
612.719	275924
612.786	261492
612.853	242027
612.919	238266
612.986	238745
613.053	226016
613.120	211895
613.186	206428
613.253	208238
613.319	207405
613.386	210261
613.453	218111
613.519	227345
613.586	245549
613.652	289000
613.719	257842
613.785	242684
613.852	217916
613.918	212087
613.985	213735
614.051	225751
614.118	228689
614.184	219718
614.250	211408
614.317	215595
614.383	212872
614.449	215049
614.516	216571
614.582	221091
614.648	213911
614.715	210932
614.781	206940
614.847	212613
614.914	213287
614.980	211300
615.046	205628
615.112	213033
615.179	213985
615.245	227545
615.311	246104
615.377	311193
615.443	334999
615.509	266517
615.575	247494
615.642	238883
615.708	250423
615.774	265496
615.840	293318
615.906	343881
615.972	486136
616.038	863353
616.104	1690170
616.170	3628952
616.236	2975685
616.302	716258
616.368	471361
616.434	344184
616.500	306855
616.565	333808
616.631	411803
616.697	341953
616.763	353133
616.829	531340
616.895	946166
616.961	908657
617.026	409983
617.092	269418
617.158	241734
617.224	229432
617.289	214021
617.355	205908
617.421	202790
617.487	200791
617.552	190079
617.618	189027
617.684	186060
617.749	187732
617.815	180006
617.880	177157
617.946	176651
618.012	182157
618.077	182523
618.143	174662
618.208	177787
618.274	189597
618.339	191219
618.405	162618
618.470	164527
618.536	165920
618.601	171173
618.667	157583
618.732	147037
618.798	147030
618.863	145758
618.928	144866
618.994	152673
619.059	164171
619.124	199483
619.190	162121
619.255	145361
619.320	145017
619.386	146193
619.451	140425
619.516	137684
619.581	138729
619.647	144758
619.712	142782
619.777	138687
619.842	142927
619.907	146714
619.972	146965
620.038	145147
620.103	140474
620.168	139307
620.233	140543
620.298	139537
620.363	142363
620.428	144997
620.493	147239
620.558	147359
620.623	148786
620.688	147932
620.753	145632
620.818	150098
620.883	151828
620.948	149125
621.013	149724
621.078	148631
621.143	152808
621.207	158168
621.272	157875
621.337	158788
621.402	160414
621.467	181288
621.532	183216
621.596	165714
621.661	153892
621.726	147555
621.791	149422
621.855	155338
621.920	161330
621.985	164274
622.049	177501
622.114	171509
622.179	161033
622.243	166702
622.308	166012
622.373	172177
622.437	168188
622.502	158377
622.566	158885
622.631	158326
622.695	159718
622.760	158800
622.824	158054
622.889	163053
622.953	175970
623.018	226840
623.082	216312
623.147	169875
623.211	165004
623.276	165344
623.340	155123
623.404	150218
623.469	149373
623.533	151743
623.597	147943
623.662	146741
623.726	138787
623.790	134080
623.854	132610
623.919	135025
623.983	137104
624.047	138584
624.111	136713
624.176	141417
624.240	153082
624.304	161511
624.368	140632
624.432	139692
624.496	145479
624.560	160019
624.625	168412
624.689	147956
624.753	150344
624.817	144742
624.881	140557
624.945	131942
625.009	129991
625.073	131530
625.137	146334
625.201	168299
625.265	164207
625.329	137306
625.393	145516
625.456	140450
625.520	145240
625.584	158241
625.648	178094
625.712	241194
625.776	451419
625.839	475992
625.903	205692
625.967	143809
626.031	210754
626.095	300963
626.158	150981
626.222	109528
626.286	103903
626.349	101690
626.413	98455
626.477	105459
626.540	99242
626.604	97616
626.668	96109
626.731	94982
626.795	99613
626.858	100667
626.922	95994
626.986	94309
627.049	91866
627.113	96574
627.176	92228
627.240	89314
627.303	91532
627.366	91880
627.430	95776
627.493	93383
627.557	93800
627.620	92838
627.684	95120
627.747	95071
627.810	89925
627.874	83394
627.937	83148
628.000	88311
628.064	86866
628.127	75716
628.190	77573
628.253	76492
628.317	74218
628.380	72018
628.443	74017
628.506	74130
628.569	68677
628.632	66228
628.696	65896
628.759	67290
628.822	64738
628.885	63695
628.948	63854
629.011	65626
629.074	64669
629.137	61817
629.200	63409
629.263	66800
629.326	59869
629.389	60466
629.452	61848
629.515	62292
629.578	62906
629.641	66474
629.704	62526
629.767	64687
629.830	58989
629.892	58214
629.955	58115
630.018	64395
630.081	69280
630.144	82475
630.207	67104
630.269	68193
630.332	69392
630.395	61934
630.458	56316
630.520	55527
630.583	56045
630.646	54815
630.708	53066
630.771	55467
630.834	56062
630.896	54555
630.959	54506
631.021	54892
631.084	57216
631.146	61949
631.209	68767
631.272	55344
631.334	55022
631.397	56086
631.459	57342
631.522	60536
631.584	61425
631.646	62891
631.709	69101
631.771	83958
631.834	67229
631.896	58901
631.958	54349
632.021	54797
632.083	53943
632.145	55796
632.208	54037
632.270	53775
632.332	50509
632.395	50892
632.457	54063
632.519	51325
632.581	51581
632.643	50254
632.706	51253
632.768	48061
632.830	49960
632.892	49330
632.954	51437
633.016	52353
633.078	50055
633.141	49593
633.203	50336
633.265	49608
633.327	50135
633.389	51008
633.451	59310
633.513	66935
633.575	67018
633.637	66876
633.698	61679
633.760	53709
633.822	53316
633.884	55162
633.946	54789
634.008	56957
634.070	57838
634.132	61416
634.193	65284
634.255	69075
634.317	70540
634.379	69575
634.441	62993
634.502	59866
634.564	55243
634.626	51339
634.687	50834
634.749	49744
634.811	48862
634.873	46430
634.934	47784
634.996	48440
635.057	48036
635.119	48299
635.181	49042
635.242	50549
635.304	46456
635.365	51181
635.427	48778
635.488	50955
635.550	49337
635.611	50139
635.673	50150
635.734	55429
635.796	56972
635.857	61908
635.918	62372
635.980	66472
636.041	69988
636.102	73453
636.164	72591
636.225	70124
636.286	63338
636.348	59960
636.409	53092
636.470	50725
636.531	51270
636.593	56481
636.654	51217
636.715	44067
636.776	43641
636.838	41359
636.899	43994
636.960	42789
637.021	40495
637.082	40854
637.143	41145
637.204	38484
637.265	38079
637.326	39034
637.387	40462
637.448	38089
637.509	40049
637.570	39052
637.631	39419
637.692	38295
637.753	36866
637.814	37373
637.875	37582
637.936	38879
637.997	39270
638.058	39535
638.119	41042
638.179	37760
638.240	36635
638.301	37220
638.362	36530
638.423	37084
638.483	37030
638.544	33939
638.605	35781
638.666	34163
638.726	35920
638.787	34970
638.848	35147
638.908	34250
638.969	33596
639.030	34914
639.090	33302
639.151	35848
639.211	39989
639.272	50179
639.332	78247
639.393	46857
639.453	39047
639.514	38542
639.574	35248
639.635	33214
639.695	35038
639.756	34335
639.816	37164
639.877	43395
639.937	71437
639.997	87881
640.058	39501
640.118	32707
640.178	32290
640.239	31290
640.299	31406
640.359	31305
640.420	33638
640.480	36144
640.540	40361
640.600	40123
640.661	38823
640.721	40208
640.781	47048
640.841	37959
640.901	33971
640.961	35911
641.021	38544
641.082	45677
641.142	58748
641.202	41049
641.262	30106
641.322	31403
641.382	29940
641.442	30724
641.502	30241
641.562	31807
641.622	31351
641.682	33567
641.742	37250
641.802	35992
641.861	35006
641.921	37033
641.981	38255
642.041	38105
642.101	47811
642.161	33498
642.221	29235
642.280	29285
642.340	28391
642.400	27914
642.460	30625
642.519	29313
642.579	29991
642.639	31297
642.698	28287
642.758	31428
642.818	30990
642.877	30193
642.937	33729
642.997	39626
643.056	54627
643.116	35201
643.175	33101
643.235	31703
643.294	31967
643.354	34431
643.414	38768
643.473	45071
643.532	56730
643.592	77970
643.651	121733
643.711	217655
643.770	439422
643.830	1102240
643.889	2156419
643.948	473874
644.008	93504
644.067	60151
644.126	46221
644.186	40634
644.245	35461
644.304	31730
644.363	34234
644.423	31078
644.482	31759
644.541	32584
644.600	33638
644.659	42358
644.719	51359
644.778	75696
644.837	125847
644.896	262978
644.955	587802
645.014	173657
645.073	47972
645.132	39771
645.191	36416
645.250	32486
645.309	35324
645.368	36564
645.427	46599
645.486	74636
645.545	117726
645.604	40763
645.663	32184
645.722	32705
645.781	34781
645.840	40210
645.898	49952
645.957	71503
646.016	111521
646.075	207726
646.134	412069
646.192	1150139
646.251	1534142
646.310	214518
646.369	66786
646.427	53791
646.486	40987
646.545	35190
646.603	32211
646.662	30320
646.721	30051
646.779	28636
646.838	31646
646.896	37990
646.955	48244
647.014	77327
647.072	143526
647.131	378010
647.189	162459
647.248	34414
647.306	27989
647.365	26064
647.423	24072
647.481	25916
647.540	22424
647.598	23607
647.657	22053
647.715	23685
647.773	21705
647.832	23140
647.890	21692
647.948	22113
648.007	22467
648.065	21011
648.123	22084
648.181	23835
648.240	21034
648.298	21495
648.356	21570
648.414	22554
648.472	22132
648.531	22538
648.589	21511
648.647	21259
648.705	22308
648.763	21467
648.821	23030
648.879	23677
648.937	26707
648.995	32301
649.053	39730
649.111	57953
649.169	94119
649.227	169108
649.285	362043
649.343	1012495
649.401	433087
649.459	126692
649.516	68683
649.574	36077
649.632	38199
649.690	39628
649.748	44841
649.806	57816
649.863	100165
649.921	264821
649.979	157658
650.037	31130
650.094	22809
650.152	23053
650.210	20122
650.268	21115
650.325	21021
650.383	21316
650.440	18060
650.498	18744
650.556	18472
650.613	17274
650.671	18065
650.728	20125
650.786	21832
650.843	24210
650.901	18811
650.958	17473
651.016	16712
651.073	17913
651.131	17191
651.188	16820
651.246	18534
651.303	16661
651.360	16644
651.418	16447
651.475	17190
651.532	15362
651.590	16224
651.647	16740
651.704	16301
651.762	16759
651.819	17806
651.876	16512
651.933	16895
651.990	16339
652.048	14686
652.105	14783
652.162	16098
652.219	14555
652.276	15588
652.333	15648
652.390	13984
652.448	16114
652.505	16195
652.562	15322
652.619	14546
652.676	14817
652.733	15089
652.790	14844
652.847	13403
652.904	15536
652.961	13743
653.017	13295
653.074	16248
653.131	16393
653.188	14540
653.245	14211
653.302	14800
653.359	15068
653.415	15233
653.472	14513
653.529	14027
653.586	14326
653.642	14655
653.699	14248
653.756	14177
653.813	14074
653.869	15886
653.926	13170
653.983	13725
654.039	13524
654.096	13998
654.152	14621
654.209	14285
654.266	16614
654.322	15058
654.379	17932
654.435	17373
654.492	20667
654.548	28913
654.605	43974
654.661	21450
654.717	15857
654.774	16561
654.830	15705
654.887	14902
654.943	15131
655.000	16329
655.056	15743
655.112	15522
655.168	15195
655.225	16583
655.281	19830
655.337	24572
655.394	39810
655.450	27437
655.506	25766
655.562	42493
655.618	29673
655.675	15131
655.731	15563
655.787	14889
655.843	15099
655.899	14219
655.955	15834
656.011	14517
656.067	13763
656.123	15001
656.179	15666
656.235	15874
656.291	15151
656.347	17073
656.403	15622
656.459	16588
656.515	18630
656.571	18517
656.627	14847
656.683	15651
656.739	15830
656.795	15725
656.850	16830
656.906	19547
656.962	16506
657.018	13446
657.074	15648
657.129	18270
657.185	22261
657.241	37300
657.297	23510
657.352	15683
657.408	14363
657.464	17195
657.519	15774
657.575	13213
657.630	13990
657.686	12457
657.742	12661
657.797	13441
657.853	14653
657.908	15343
657.964	12243
658.019	13232
658.075	14853
658.130	14111
658.186	12891
658.241	13730
658.297	12831
658.352	13662
658.407	13379
658.463	13346
658.518	13298
658.573	14136
658.629	12497
658.684	13113
658.739	13841
658.795	11698
658.850	12389
658.905	12981
658.960	12518
659.016	12333
659.071	13390
659.126	15548
659.181	16220
659.236	27021
659.291	27688
659.346	17826
659.401	16335
659.457	14147
659.512	12940
659.567	14995
659.622	13583
659.677	13839
659.732	12646
659.787	13795
659.842	17493
659.897	20941
659.952	14267
660.007	12953
660.061	13662
660.116	12878
660.171	12078
660.226	12862
660.281	13205
660.336	12056
660.391	12815
660.445	12003
660.500	12446
660.555	13262
660.610	12936
660.664	12793
660.719	12020
660.774	13404
660.828	13638
660.883	12923
660.938	13515
660.992	11876
661.047	12474
661.101	12209
661.156	12288
661.211	11974
661.265	12173
661.320	11745
661.374	12459
661.429	12326
661.483	13205
661.538	11482
661.592	12361
661.647	12290
661.701	13876
661.755	12939
661.810	13339
661.864	12275
661.919	11362
661.973	13258
662.027	13093
662.081	11593
662.136	13813
662.190	13270
662.244	14131
662.299	12494
662.353	12364
662.407	12974
662.461	14130
662.515	13703
662.569	13107
662.624	13911
662.678	13552
662.732	12671
662.786	12409
662.840	13851
662.894	13116
662.948	13282
663.002	11457
663.056	12429
663.110	11265
663.164	12497
663.218	12642
663.272	12729
663.326	13751
663.380	14151
663.434	14678
663.488	12611
663.542	13248
663.595	14003
663.649	13404
663.703	13481
663.757	12685
663.811	12421
663.864	12879
663.918	12658
663.972	12456
664.026	12093
664.079	12787
664.133	13037
664.187	11572
664.240	11665
664.294	12917
664.348	13088
664.401	12737
664.455	12460
664.508	12118
664.562	12449
664.615	12119
664.669	11904
664.722	12487
664.776	11713
664.829	12175
664.883	13023
664.936	12358
664.990	14209
665.043	13564
665.097	15559
665.150	15689
665.203	13690
665.257	13725
665.310	13479
665.363	14597
665.417	14510
665.470	14170
665.523	13822
665.576	14246
665.630	13635
665.683	13474
665.736	14698
665.789	13987
665.842	12820
665.895	13636
665.949	13640
666.002	13279
666.055	13606
666.108	15515
666.161	13836
666.214	15963
666.267	16189
666.320	17172
666.373	15472
666.426	14690
666.479	15210
666.532	15801
666.585	18345
666.638	18945
666.691	18415
666.744	18890
666.796	18737
666.849	16634
666.902	15342
666.955	13974
667.008	13958
667.060	13208
667.113	12113
667.166	13085
667.219	13664
667.271	13275
667.324	13207
667.377	12959
667.430	13282
667.482	13988
667.535	13823
667.587	15767
667.640	16968
667.693	20269
667.745	32005
667.798	29883
667.850	15274
667.903	14399
667.955	14690
668.008	14163
668.060	17076
668.113	15707
668.165	16184
668.218	15158
668.270	14957
668.322	14741
668.375	13900
668.427	15124
668.479	13710
668.532	15331
668.584	15253
668.636	13483
668.689	14614
668.741	14857
668.793	14768
668.845	13848
668.898	15336
668.950	14043
669.002	14479
669.054	14754
669.106	15107
669.158	14317
669.211	14427
669.263	14399
669.315	15841
669.367	15350
669.419	15592
669.471	17381
669.523	18588
669.575	21111
669.627	20321
669.679	16617
669.731	16503
669.783	16801
669.835	17883
669.886	17152
669.938	16835
669.990	16936
670.042	16793
670.094	17899
670.146	19475
670.197	21442
670.249	23774
670.301	29792
670.353	38629
670.404	54296
670.456	74190
670.508	116079
670.560	192015
670.611	327188
670.663	582836
670.715	1320599
670.766	1757298
670.818	563835
670.869	125458
670.921	66752
670.972	48146
671.024	37645
671.075	30782
671.127	25665
671.178	24517
671.230	22520
671.281	22215
671.333	20745
671.384	22163
671.436	23101
671.487	26613
671.538	32640
671.590	41620
671.641	59018
671.692	92407
671.744	158248
671.795	108719
671.846	46592
671.897	30506
671.949	23991
672.000	19405
672.051	18314
672.102	18203
672.153	17095
672.204	15800
672.256	16899
672.307	15764
672.358	16174
672.409	16540
672.460	15140
672.511	14653
672.562	15656
672.613	13986
672.664	14313
672.715	14467
672.766	14041
672.817	14405
672.868	13040
672.919	13811
672.970	13611
673.021	13240
673.071	12628
673.122	13387
673.173	12578
673.224	12938
673.275	13958
673.326	13922
673.376	12944
673.427	12781
673.478	12214
673.528	12945
673.579	12940
673.630	13041
673.680	13270
673.731	12450
673.782	12664
673.832	13073
673.883	12385
673.934	12232
673.984	12399
674.035	13026
674.085	12856
674.136	14726
674.186	15009
674.237	19044
674.287	25154
674.338	14448
674.388	13077
674.438	12842
674.489	14098
674.539	14783
674.589	13884
674.640	13945
674.690	13615
674.740	14105
674.791	14909
674.841	14184
674.891	13235
674.942	12747
674.992	13263
675.042	10970
675.092	11272
675.142	11617
675.193	11484
675.243	11793
675.293	12441
675.343	12220
675.393	13004
675.443	13103
675.493	11295
675.543	11304
675.593	12922
675.643	11916
675.693	11800
675.743	12689
675.793	11394
675.843	11195
675.893	10238
675.943	11313
675.993	11646
676.043	10940
676.093	12053
676.142	10239
676.192	11331
676.242	11308
676.292	10998
676.341	13005
676.391	11804
676.441	9786
676.491	10955
676.540	10906
676.590	10389
676.640	11188
676.689	10041
676.739	9625
676.789	9304
676.838	10307
676.888	10272
676.937	10931
676.987	9663
677.037	9003
677.086	9897
677.136	11032
677.185	10462
677.235	8887
677.284	10085
677.333	9073
677.383	9477
677.432	9136
677.482	8808
677.531	9598
677.580	10440
677.630	9412
677.679	8591
677.728	9533
677.778	9873
677.827	8472
677.876	9820
677.925	9032
677.975	9907
678.024	9343
678.073	10164
678.122	10901
678.171	11372
678.220	11255
678.269	12101
678.319	12410
678.368	11259
678.417	10885
678.466	10996
678.515	11757
678.564	11673
678.613	10289
678.662	10226
678.711	10592
678.760	9529
678.809	10267
678.857	10999
678.906	10149
678.955	10341
679.004	9493
679.053	9669
679.102	9993
679.151	10858
679.199	10078
679.248	9177
679.297	10909
679.346	10616
679.394	9976
679.443	9644
679.492	9814
679.540	9940
679.589	9824
679.638	9566
679.686	9653
679.735	8715
679.784	10741
679.832	10682
679.881	9367
679.929	9217
679.978	8740
680.026	9054
680.075	9624
680.123	8546
680.172	8622
680.220	8045
680.268	9607
680.317	8462
680.365	7831
680.414	9450
680.462	9645
680.510	8463
680.559	7962
680.607	9028
680.655	9676
680.703	8880
680.752	9405
680.800	8989
680.848	8439
680.896	7575
680.945	8678
680.993	8572
681.041	8450
681.089	9017
681.137	7653
681.185	8308
681.233	8576
681.258	8628
681.281	8623
681.329	8942
681.377	7311
681.380	7444
681.425	8876
681.473	9939
681.502	9639
681.521	9329
681.569	9667
681.617	8739
681.624	8829
681.665	8991
681.713	9613
681.745	9448
681.761	9286
681.809	9275
681.857	9457
681.867	9473
681.904	9292
681.952	10377
681.989	10213
682.000	10107
682.048	9945
682.096	10576
682.111	10564
682.143	10331
682.191	10237
682.233	11408
682.239	11535
682.286	10822
682.334	10120
682.354	10425
682.382	10707
682.430	10389
682.476	10517
682.477	10470
682.525	10485
682.572	10988
682.598	10457
682.620	9952
682.667	10861
682.715	12554
682.720	12518
682.763	11648
682.810	11591
682.841	11329
682.857	11119
682.905	11409
682.952	11695
682.963	11915
683.000	12535
683.047	11800
683.085	12649
683.095	12806
683.142	12246
683.190	11896
683.206	12003
683.237	12141
683.284	12086
683.328	12623
683.332	12614
683.379	12139
683.426	12618
683.449	12287
683.473	11960
683.521	12559
683.568	12922
683.571	12925
683.615	12288
683.662	12733
683.693	12993
683.709	13085
683.757	12977
683.804	13012
683.814	13026
683.851	12976
683.898	12410
683.936	13324
683.945	13511
683.992	14058
684.039	14219
684.057	14380
684.086	14556
684.133	14345
684.179	14063
684.180	14014
684.227	14876
684.274	15860
684.300	15796
684.321	15674
684.368	14345
684.415	15080
684.422	14921
684.462	13840
684.509	13991
684.543	14717
684.556	14935
684.603	14369
684.649	13608
684.665	14000
684.696	14816
684.743	14638
684.786	15437
684.790	15482
684.837	15647
684.883	16465
684.908	16952
684.930	17304
684.977	17414
685.023	17046
685.029	17016
685.070	16332
685.117	16478
685.150	16150
685.164	16154
685.210	17859
685.257	18676
685.272	18716
685.303	18271
685.350	17840
685.393	17595
685.396	17596
685.443	18953
685.490	19766
685.514	19583
685.536	19173
685.583	18372
685.629	18390
685.636	18322
685.675	17867
685.722	18291
685.757	18709
685.768	18834
685.815	18399
685.861	18962
685.878	18906
685.908	18870
685.954	19353
686.000	20282
686.000	20290
686.047	21033
686.093	24174
686.121	23237
686.139	22107
686.185	20522
686.232	20047
686.242	19958
686.278	19857
686.324	19087
686.363	18112
686.370	17979
686.416	19037
686.463	19750
686.484	19340
686.509	18760
686.555	18960
686.601	19108
686.606	19044
686.647	18693
686.693	19300
686.727	19563
686.739	19568
686.785	19155
686.831	18922
686.848	19043
686.877	19384
686.923	18990
686.969	18717
686.969	18714
687.015	19480
687.061	20377
687.090	20444
687.107	20304
687.153	20065
687.199	19345
687.211	19275
687.245	19402
687.291	20308
687.332	21191
687.336	21260
687.382	21584
687.428	20757
687.453	20795
687.474	20681
687.520	20122
687.565	19216
687.574	19189
687.611	19514
687.657	19704
687.695	20386
687.702	20532
687.748	21125
687.794	21925
687.816	21854
687.839	21483
687.885	21016
687.931	20962
687.937	20839
687.976	20522
688.022	21003
688.058	21295
688.067	21357
688.113	21355
688.158	20786
688.179	20974
688.204	21243
688.249	21451
688.295	21990
688.300	21992
688.340	22371
688.386	22639
688.421	22533
688.431	22388
688.477	22355
688.522	22708
688.542	22290
688.567	21917
688.613	22265
688.658	21955
688.663	21960
688.703	22283
688.749	22511
688.784	23093
688.794	23229
688.839	22264
688.884	22862
688.905	22668
688.930	22376
688.975	22190
689.020	22576
689.026	22493
689.065	22488
689.110	22514
689.146	22868
689.155	22851
689.201	22176
689.246	21910
689.267	21724
689.291	21848
689.336	22416
689.381	22385
689.388	22489
689.426	22936
689.471	22253
689.509	22144
689.516	22164
689.561	22039
689.606	22381
689.630	22266
689.651	22264
689.696	22776
689.741	22541
689.750	22677
689.785	23151
689.830	22769
689.871	22878
689.875	22895
689.920	22253
689.965	22604
689.992	22217
690.010	22136
690.054	22353
690.099	22802
690.112	22786
690.144	22678
690.189	22351
690.233	22011
690.233	22036
690.278	22302
690.323	22757
690.354	22577
690.367	22537
690.412	22540
690.457	22950
690.474	22860
690.501	22642
690.546	22294
690.590	22177
690.595	22130
690.635	22308
690.680	21955
690.716	22551
690.724	22756
690.769	23155
690.813	23760
690.836	23646
690.857	23598
690.902	24208
690.946	24449
690.957	24448
690.991	25197
691.035	26520
691.077	27866
691.080	27928
691.124	27888
691.168	28166
691.198	28370
691.213	28248
691.257	27360
691.301	26485
691.318	26239
691.346	25891
691.390	24187
691.434	24017
691.439	23903
691.478	24501
691.522	25109
691.559	25556
691.567	25587
691.611	25510
691.655	25292
691.680	25231
691.699	25381
691.743	25768
691.787	25922
691.800	25872
691.831	25928
691.875	26089
691.919	26890
691.921	26854
691.964	27193
692.008	27466
692.041	27516
692.052	27468
692.096	27625
692.139	27634
692.162	27443
692.183	27273
692.227	27199
692.271	26621
692.282	26526
692.315	26546
692.359	26421
692.402	26514
692.403	26561
692.447	26652
692.490	26711
692.523	27002
692.534	27231
692.578	27428
692.622	27668
692.643	27774
692.666	27520
692.709	27268
692.753	26417
692.763	26380
692.797	26803
692.840	26331
692.884	26439
692.884	26490
692.928	27047
692.971	26970
693.004	27204
693.015	27215
693.059	26803
693.102	26580
693.124	26348
693.146	26633
693.189	27178
693.233	28218
693.245	28255
693.276	28105
693.320	27991
693.363	27768
693.365	27723
693.407	28249
693.450	28686
693.485	28600
693.493	28607
693.537	28894
693.580	28675
693.605	28749
693.624	29186
693.667	29677
693.710	30563
693.725	30799
693.753	32415
693.797	34713
693.840	37334
693.845	37540
693.883	36243
693.926	34527
693.966	32933
693.970	32800
694.013	30742
694.056	28801
694.086	27673
694.099	27994
694.142	28327
694.185	29149
694.206	29338
694.229	29314
694.272	29097
694.315	29039
694.326	28882
694.358	29295
694.401	30130
694.444	31037
694.446	31002
694.487	30603
694.530	30215
694.566	29773
694.573	29676
694.616	28911
694.659	27868
694.686	27332
694.702	27383
694.745	27160
694.787	26981
694.806	26917
694.830	27171
694.873	27451
694.916	27487
694.926	27502
694.959	27396
695.002	27108
695.044	26760
695.046	26695
695.087	27678
695.130	28548
695.166	29092
695.172	29102
695.215	28990
695.258	28591
695.286	28550
695.301	28786
695.343	28841
695.386	29211
695.406	29144
695.428	28931
695.471	28783
695.514	28570
695.526	28385
695.556	28692
695.599	29404
695.641	29851
695.646	29824
695.684	29530
695.726	29183
695.766	29007
695.769	29094
695.811	29272
695.854	29572
695.886	29611
695.896	29509
695.938	28756
695.981	28062
696.005	27638
696.023	28131
696.065	29089
696.108	30437
696.125	30668
696.150	30601
696.192	30802
696.235	30747
696.245	30721
696.277	30696
696.319	30285
696.361	29988
696.365	29905
696.404	30199
696.446	30331
696.485	30233
696.488	30312
696.530	30621
696.572	30915
696.604	30950
696.614	30966
696.656	30866
696.698	30799
696.724	30541
696.740	30410
696.783	30139
696.825	29693
696.844	29454
696.867	29786
696.909	30252
696.951	30601
696.964	30714
696.992	30477
697.034	29877
697.076	29253
697.083	29091
697.118	29892
697.160	30694
697.202	31572
697.203	31518
697.244	31088
697.286	30646
697.323	30164
697.327	30242
697.369	30328
697.411	30339
697.442	30274
697.453	30490
697.494	31155
697.536	31730
697.562	32033
697.578	31998
697.620	31650
697.661	31352
697.682	31151
697.703	31828
697.744	32922
697.786	34161
697.801	34478
697.828	34518
697.869	34500
697.911	34404
697.921	34317
697.952	33483
697.994	32224
698.035	31015
698.040	30793
698.077	30929
698.118	30930
698.160	30972
698.160	30896
698.201	31080
698.243	31212
698.279	31237
698.284	31348
698.325	31650
698.367	31974
698.399	32112
698.408	32132
698.449	31874
698.491	31634
698.518	31382
698.532	31531
698.573	31755
698.614	31974
698.638	32022
698.656	32178
698.697	32345
698.738	32529
698.757	32528
698.779	32871
698.820	33358
698.862	33870
698.877	33972
698.903	34309
698.944	34705
698.985	35112
698.996	35138
699.026	34687
699.067	33941
699.116	32968
699.235	33320
699.354	32035
699.474	32783
699.593	34261
699.713	33717
699.832	32694
699.951	33951
700.070	32114
700.190	31825
700.309	31978
700.428	33233
700.547	31008
700.667	30826
700.786	31997
700.905	30135
701.024	31730
701.143	30059
701.262	29426
701.381	28688
701.500	30176
701.619	31343
701.738	28518
701.857	28985
701.976	28399
702.095	28566
702.214	30929
702.333	30539
702.452	28883
702.571	28323
702.690	27727
702.809	28274
702.928	27415
703.047	27568
703.165	27533
703.284	27237
703.403	27156
703.522	29616
703.640	28136
703.759	31637
703.878	37257
703.997	27801
704.115	26509
704.234	26500
704.353	25588
704.471	26606
704.590	24656
704.708	26033
704.827	24094
704.946	26107
705.064	26633
705.183	25807
705.301	30782
705.420	42676
705.538	36238
705.656	31920
705.775	30153
705.893	33457
706.012	35546
706.130	33278
706.249	32715
706.367	33252
706.485	34465
706.604	33224
706.722	33472
706.840	37576
706.958	36423
707.077	32644
707.195	31426
707.313	30808
707.431	29602
707.549	30006
707.668	29430
707.786	30854
707.904	29465
708.022	30430
708.140	28711
708.258	28865
708.376	28539
708.494	29108
708.612	32548
708.730	44236
708.848	41504
708.966	37785
709.084	35837
709.202	35384
709.320	34896
709.438	37028
709.556	36471
709.674	35845
709.791	35724
709.909	34840
710.027	34176
710.145	34361
710.263	35620
710.380	34609
710.498	33449
710.616	34379
710.733	32875
710.851	33811
710.969	33711
711.086	32994
711.204	32509
711.322	33790
711.439	31734
711.557	32536
711.674	31449
711.792	32035
711.909	30619
712.027	30336
712.144	29585
712.262	31554
712.379	35300
712.497	49266
712.614	46647
712.732	39742
712.849	37836
712.966	39896
713.084	45250
713.201	41456
713.318	40644
713.436	39459
713.553	38970
713.670	40946
713.787	43036
713.905	42182
714.022	38790
714.139	40306
714.256	43143
714.373	52192
714.490	76677
714.608	183848
714.725	715396
714.842	542358
714.959	59390
715.076	42080
715.193	37325
715.310	37133
715.427	34398
715.544	33700
715.661	33322
715.778	34723
715.895	37008
716.011	36110
716.128	33160
716.245	34563
716.362	36293
716.479	36953
716.596	30804
716.713	32111
716.829	31635
716.946	32337
717.063	30203
717.180	31010
717.296	29036
717.413	30998
717.530	29702
717.646	29503
717.763	28953
717.880	27576
717.996	28848
718.113	29264
718.229	28139
718.346	27582
718.462	27830
718.579	33421
718.695	43245
718.812	35836
718.928	34991
719.045	27658
719.161	26115
719.277	26339
719.394	25040
719.510	27410
719.626	27946
719.743	35706
719.859	40333
719.975	64442
720.092	217918
720.208	380446
720.324	54247
720.440	31967
720.557	32559
720.673	41358
720.789	50867
720.905	88883
721.021	35164
721.137	26553
721.253	26373
721.369	27175
721.486	29092
721.602	35222
721.718	24239
721.834	23857
721.950	24702
722.066	23004
722.181	22515
722.297	25025
722.413	22593
722.529	23529
722.645	21950
722.761	21674
722.877	21641
722.993	22756
723.108	24753
723.224	21550
723.340	21788
723.456	21175
723.571	21828
723.687	21057
723.803	21128
723.918	21014
724.034	20715
724.150	21656
724.265	23844
724.381	40888
724.497	41714
724.612	21172
724.728	19472
724.843	20250
724.959	23475
725.074	38407
725.190	37003
725.305	21226
725.421	20824
725.536	18431
725.651	18541
725.767	18224
725.882	18494
725.997	18383
726.113	17968
726.228	17940
726.343	17883
726.459	17229
726.574	19518
726.689	17073
726.804	17320
726.920	18374
727.035	17240
727.150	19075
727.265	17974
727.380	18165
727.495	17013
727.610	16244
727.725	17801
727.841	16712
727.956	17633
728.071	20387
728.186	16697
728.301	15301
728.416	17055
728.531	16509
728.645	14656
728.760	17169
728.875	17842
728.990	16642
729.105	16128
729.220	17111
729.335	17141
729.449	16637
729.564	15423
729.679	15478
729.794	16134
729.908	17434
730.023	15800
730.138	13749
730.253	15322
730.367	14574
730.482	14879
730.596	15049
730.711	15881
730.826	15991
730.940	15702
731.055	16109
731.169	13907
731.284	14529
731.398	14855
731.513	16351
731.627	16197
731.742	19440
731.856	18917
731.970	17732
732.085	20464
732.199	23612
732.313	35557
732.428	87018
732.542	230934
732.656	106112
732.771	26756
732.885	20215
732.999	19484
733.113	19258
733.227	18383
733.342	17951
733.456	17337
733.570	16557
733.684	16500
733.798	17582
733.912	17074
734.026	16063
734.140	15550
734.254	17156
734.368	25288
734.482	26634
734.596	16142
734.710	15332
734.824	15287
734.938	15775
735.052	16172
735.166	17234
735.280	15232
735.393	15350
735.507	15292
735.621	18701
735.735	27080
735.849	16278
735.962	14317
736.076	15869
736.190	14863
736.303	20240
736.417	21417
736.531	14484
736.644	15062
736.758	14177
736.872	13549
736.985	14825
737.099	13364
737.212	12795
737.326	13961
737.439	14120
737.553	13546
737.666	13532
737.780	12919
737.893	13047
738.007	12834
738.120	13954
738.233	12936
738.347	13047
738.460	12458
738.573	14204
738.687	11653
738.800	13744
738.913	15336
739.026	13322
739.140	12102
739.253	12043
739.366	11711
739.479	11764
739.592	11553
739.705	11921
739.818	11610
739.932	11143
740.045	13087
740.158	11688
740.271	12675
740.384	11482
740.497	11568
740.610	11534
740.723	11735
740.836	12480
740.949	12370
741.062	14823
741.174	12270
741.287	12081
741.400	10652
741.513	11898
741.626	12372
741.739	11416
741.851	11211
741.964	12171
742.077	11364
742.189	11731
742.302	12520
742.415	12099
742.527	11144
742.640	11701
742.753	10530
742.865	10792
742.978	10694
743.090	10794
743.203	10701
743.316	10403
743.428	10566
743.541	11605
743.653	9810
743.766	11480
743.878	10341
743.990	13257
744.103	11779
744.215	10855
744.327	10733
744.440	13674
744.552	15934
744.664	10459
744.777	9457
744.889	10432
745.001	10115
745.113	9612
745.226	10013
745.338	10297
745.450	10057
745.562	9715
745.674	10291
745.786	9142
745.898	9592
746.010	9845
746.122	10839
746.234	9869
746.347	9378
746.459	9826
746.570	8427
746.682	10813
746.794	10652
746.906	9552
747.018	9425
747.130	10379
747.242	9135
747.354	9523
747.466	10404
747.577	8914
747.689	8899
747.801	9363
747.913	8787
748.024	8789
748.136	8804
748.248	8978
748.359	8663
748.471	9103
748.583	8227
748.694	8626
748.806	9555
748.918	10900
749.029	9576
749.141	10514
749.252	8778
749.364	11402
749.475	17356
749.587	13158
749.698	8695
749.809	9761
749.921	8315
750.032	8830
750.144	7880
750.255	8476
750.366	8283
750.478	7775
750.589	8063
750.700	9702
750.811	9128
750.923	11182
751.034	19195
751.145	16248
751.256	8562
751.367	8872
751.479	9268
751.590	7722
751.701	8540
751.812	7881
751.923	8156
752.034	8681
752.145	7897
752.256	7488
752.367	6777
752.478	6820
752.589	8145
752.700	8462
752.811	7871
752.922	7134
753.032	8907
753.143	9256
753.254	7137
753.365	8622
753.476	7519
753.586	7479
753.697	6716
753.808	6896
753.919	7498
754.029	6367
754.140	7158
754.251	7702
754.361	6998
754.472	8006
754.582	8108
754.693	7909
754.804	7326
754.914	6666
755.025	6657
755.135	7076
755.246	8507
755.356	6992
755.466	7029
755.577	7628
755.687	6979
755.798	6992
755.908	7091
756.018	7007
756.129	7428
756.239	7046
756.349	7565
756.460	7492
756.570	7480
756.680	7151
756.790	8031
756.900	8293
757.011	7098
757.121	7448
757.231	6572
757.341	6855
757.451	6732
757.561	6643
757.671	5863
757.781	6636
757.891	7033
758.001	7366
758.111	7309
758.221	8024
758.331	7705
758.441	9323
758.551	10026
758.661	9216
758.771	7174
758.880	7987
758.990	8078
759.100	8017
759.210	8029
759.320	8854
759.429	7083
759.539	8518
759.649	8361
759.758	8104
759.868	8780
759.978	7952
760.087	9010
760.197	8829
760.307	9028
760.416	8426
760.526	7585
760.635	9342
760.745	7883
760.854	9119
760.964	9236
761.073	9116
761.182	7951
761.292	8370
761.401	9146
761.511	7238
761.620	7788
761.729	7199
761.839	7452
761.948	8316
762.057	7285
762.166	7738
762.276	6384
762.385	9158
762.494	6678
762.603	7900
762.712	8238
762.822	7805
762.931	8084
763.040	8201
763.149	7561
763.258	7683
763.367	8084
763.476	7220
763.585	7558
763.694	7895
763.803	9204
763.912	8342
764.021	7908
764.130	8076
764.238	8650
764.347	8385
764.456	7820
764.565	8659
764.674	9032
764.783	9056
764.891	8036
765.000	9509
765.109	9664
765.217	10232
765.326	12096
765.435	14028
765.543	13718
765.652	15044
765.761	17085
765.869	24670
765.978	36731
766.086	65100
766.195	129300
766.303	358705
766.412	977349
766.520	682675
766.629	164480
766.737	65446
766.846	39644
766.954	28936
767.062	23615
767.171	18821
767.279	16141
767.387	14318
767.496	12586
767.604	11981
767.712	11169
767.820	10819
767.928	10632
768.037	10831
768.145	11021
768.253	10769
768.361	9979
768.469	10000
768.577	9570
768.685	10651
768.793	9983
768.901	10926
769.009	11443
769.117	12340
769.225	14017
769.333	18373
769.441	29493
769.549	53080
769.657	126141
769.765	430028
769.873	766825
769.981	213519
770.088	51423
770.196	28624
770.304	21113
770.412	17269
770.519	15250
770.627	12846
770.735	11144
770.842	11658
770.950	10789
771.058	10615
771.165	10207
771.273	10037
771.380	10518
771.488	11700
771.595	10193
771.703	10491
771.810	10423
771.918	9420
772.025	11578
772.133	10750
772.240	10717
772.348	11581
772.455	11385
772.562	11250
772.670	9768
772.777	9677
772.884	9876
772.991	10140
773.099	9943
773.206	9089
773.313	10465
773.420	9834
773.528	8885
773.635	10193
773.742	9873
773.849	10340
773.956	8782
774.063	9346
774.170	8661
774.277	10510
774.384	9019
774.491	8776
774.598	9261
774.705	10684
774.812	11851
774.919	10208
775.026	9529
775.133	9949
775.239	8904
775.346	8873
775.453	8916
775.560	9116
775.667	8973
775.773	8940
775.880	9872
775.987	8751
776.093	9267
776.200	8918
776.307	8043
776.413	9164
776.520	9179
776.627	9013
776.733	9097
776.840	7710
776.946	10261
777.053	9900
777.159	11029
777.266	8968
777.372	11177
777.478	10867
777.585	9722
777.691	8637
777.798	8429
777.904	10223
778.010	10756
778.117	10549
778.223	7860
778.329	8431
778.435	7953
778.542	9069
778.648	7144
778.754	7544
778.860	8673
778.966	8361
779.072	6587
779.178	7816
779.284	7624
779.391	7972
779.497	6433
779.603	9472
779.708	7845
779.815	10779
779.920	21176
780.026	27413
780.132	9516
780.238	7394
780.344	7467
780.450	8699
780.556	6501
780.661	7746
780.767	7732
780.873	7084
780.979	6923
781.085	6688
781.190	6834
781.296	6660
781.402	6373
781.507	6748
781.613	6669
781.719	6826
781.824	6317
781.930	7875
782.035	6485
782.141	7143
782.246	6454
782.352	6489
782.457	6729
782.563	8011
782.668	7192
782.773	7262
782.879	6905
782.984	8056
783.090	7911
783.195	10290
783.300	8029
783.405	7763
783.511	6436
783.616	7630
783.721	7397
783.826	6113
783.932	6691
784.037	6744
784.142	6877
784.247	6757
784.352	7239
784.457	6577
784.562	7343
784.667	7485
784.772	5980
784.877	6124
784.982	7545
785.087	6450
785.192	7042
785.297	6241
785.402	6421
785.507	5454
785.611	5759
785.716	6719
785.821	6056
785.926	6202
786.031	6128
786.135	7000
786.240	5839
786.345	4874
786.450	5866
786.554	5559
786.659	5743
786.763	4921
786.868	6760
786.973	6803
787.077	6355
787.182	5202
787.286	6236
787.391	6143
787.495	5224
787.600	5181
787.704	4999
787.809	5967
787.913	4796
788.017	5761
788.122	5858
788.226	5284
788.330	4969
788.435	6429
788.539	5161
788.643	5135
788.747	5286
788.852	5745
788.956	3827
789.060	5612
789.164	4831
789.268	5603
789.372	5848
789.476	5231
789.580	4385
789.684	4985
789.788	5170
789.892	5454
789.996	5050
790.100	5208
790.204	5489
790.308	6155
790.412	4777
790.516	4941
790.620	4378
790.724	6614
790.828	5453
790.931	4291
791.035	5761
791.139	5327
791.242	4006
791.346	4845
791.450	4944
791.554	4339
791.657	3668
791.761	6039
791.864	5802
791.968	5572
792.072	4707
792.175	5212
792.279	4459
792.382	4917
792.486	4539
792.589	5462
792.693	5245
792.796	4225
792.899	4577
793.003	5106
793.106	2986
793.209	4356
793.313	5679
793.416	3663
793.519	6545
793.623	7363
793.726	8297
793.829	5478
793.932	4779
794.035	4334
794.138	4659
794.242	5737
794.345	4874
794.448	6303
794.551	7561
794.654	12487
794.757	14695
794.860	7556
794.963	5604
795.066	4325
795.169	5773
795.272	3798
795.375	4649
795.477	3736
795.580	5039
795.683	3506
795.786	4087
795.889	3537
795.991	5602
796.094	5074
796.197	3592
796.300	5834
796.402	4451
796.505	3633
796.608	3856
796.710	5067
796.813	4492
796.915	3584
797.018	4466
797.120	4562
797.223	2837
797.326	5645
797.428	4169
797.530	3845
797.633	4238
797.735	6008
797.838	7563
797.940	6822
798.042	3425
798.145	3955
798.247	4210
798.349	3456
798.452	4351
798.554	4253
798.656	3803
798.758	5704
798.860	4018
798.962	3785
799.065	3579
799.167	3309
799.269	5339
799.371	5895
799.473	4815
799.575	4882
799.677	4551
799.779	7005
799.881	5887
799.983	5490
800.085	3782
800.187	4061
800.289	2959
800.390	3607
800.492	3510
800.594	4682
800.696	3004
800.798	3622
800.899	3097
801.001	3506
801.103	3867
801.205	3633
801.306	3621
801.408	3606
801.509	4078
801.611	4009
801.713	3432
801.814	2712
801.916	3136
802.017	3079
802.119	2761
802.220	4126
802.322	1789
802.423	6759
802.525	3119
802.626	3666
802.727	3689
802.829	4322
802.930	2077
803.031	4525
803.133	2921
803.234	2901
803.335	3489
803.436	2745
803.538	2549
803.639	1592
803.740	3447
803.841	2675
803.942	2488
804.043	3809
804.144	2451
804.245	3264
804.346	1787
804.447	3153
804.548	5786
804.649	5851
804.750	3259
804.851	3138
804.952	2854
805.053	2772
805.154	1993
805.255	4111
805.355	2845
805.456	2791
805.557	2678
805.658	2049
805.758	3442
805.859	3386
805.960	2478
806.061	2653
806.161	2538
806.262	2835
806.362	2640
806.463	3001
806.564	2560
806.664	3121
806.765	4240
806.865	4069
806.966	2728
807.066	2061
807.166	2635
807.267	4124
807.367	2447
807.468	3946
807.568	2311
807.668	4085
807.769	3623
807.869	3581
807.969	3351
808.069	3297
808.170	2937
808.270	2376
808.370	3676
808.470	5048
808.570	3159
808.670	2480
808.770	2229
808.870	2472
808.970	2727
809.070	2164
809.170	2223
809.271	3496
809.370	2992
809.470	3511
809.570	2466
809.670	2380
809.770	2913
809.870	3155
809.970	2933
810.070	2093
810.169	2708
810.269	2005
810.369	3944
810.469	3460
810.568	2739
810.668	2776
810.768	2387
810.867	3731
810.967	2253
811.066	2608
811.166	2901
811.265	3336
811.365	2325
811.464	2792
811.564	3124
811.663	3935
811.763	2246
811.862	3249
811.962	2792
812.061	3442
812.160	2481
812.260	3399
812.359	3941
812.458	7149
812.557	15131
812.657	19729
812.756	7598
812.855	3907
812.954	2989
813.053	4221
813.153	3257
813.252	3370
813.351	3338
813.450	3436
813.549	2247
813.648	3332
813.747	2708
813.846	3273
813.945	2780
814.044	3266
814.143	4205
814.242	4469
814.341	3516
814.439	4200
814.538	2815
814.637	3191
814.736	3692
814.835	4213
814.933	3241
815.032	4387
815.131	4398
815.229	6304
815.328	5648
815.427	5566
815.525	5909
815.624	5554
815.722	4299
815.821	6449
815.919	5662
816.018	5415
816.116	6446
816.215	6379
816.313	6840
816.412	7522
816.510	7682
816.609	9256
816.707	8460
816.805	8412
816.904	8608
817.002	9939
817.100	10570
817.198	12300
817.296	11799
817.395	14348
817.493	16185
817.591	18641
817.689	25543
817.787	33811
817.885	50909
817.983	89325
818.081	179242
818.179	403597
818.277	820309
818.375	623242
818.473	237799
818.571	107271
818.669	70513
818.767	60729
818.865	59782
818.963	71935
819.061	100058
819.158	166458
819.256	327088
819.354	691393
819.452	1071140
819.549	698771
819.647	307303
819.745	148865
819.842	91033
819.940	63309
820.038	46392
820.135	34745
820.233	29471
820.330	23977
820.428	18960
820.525	19031
820.623	15412
820.720	13883
820.818	12819
820.915	12053
821.012	11161
821.110	9483
821.207	10169
821.304	8977
821.402	9333
821.499	9456
821.596	8536
821.693	8434
821.791	8938
821.888	9248
821.985	11352
822.082	10665
822.179	8225
822.276	6801
822.373	5366
822.470	5316
822.567	5599
822.664	5775
822.761	5919
822.858	4418
822.955	6174
823.052	5440
823.149	4256
823.246	5127
823.343	4400
823.440	4613
823.536	4010
823.633	4502
823.730	4123
823.827	4994
823.923	4666
824.020	5571
824.117	4196
824.213	3796
824.310	3887
824.407	4112
824.503	3501
824.600	4928
824.696	4140
824.793	5166
824.889	3777
824.986	2884
825.082	2041
825.179	4476
825.275	3260
825.371	3556
825.468	3132
825.564	2638
825.660	3979
825.757	4289
825.853	3916
825.949	2199
826.045	3800
826.142	2919
826.238	3130
826.334	3837
826.430	1806
826.526	3359
826.622	2351
826.718	3520
826.814	2728
826.910	3820
827.006	1351
827.102	2307
827.198	3119
827.294	3048
827.390	3402
827.486	3930
827.582	1792
827.678	2329
827.774	3143
827.869	2814
827.965	3346
828.061	2657
828.157	2943
828.252	3110
828.348	1479
828.444	2956
828.539	1931
828.635	2202
828.731	3710
828.826	1375
828.922	2727
829.017	3172
829.113	3641
829.208	2896
829.304	2457
829.399	4566
829.495	1469
829.590	2768
829.685	1708
829.781	2704
829.876	2361
829.971	1989
830.066	1879
830.162	2365
830.257	3119
830.352	2595
830.447	2590
830.543	3154
830.638	1847
830.733	3324
830.828	1978
830.923	2597
831.018	2881
831.113	3459
831.208	1586
831.303	1726
831.398	2867
831.493	2404
831.588	3399
831.683	2256
831.778	2950
831.873	2452
831.967	3155
832.062	1848
832.157	1831
832.252	3239
832.346	2466
832.441	3979
832.536	4719
832.631	10778
832.725	7026
832.820	2383
832.914	2320
833.009	1393
833.104	2819
833.198	3604
833.293	1663
833.387	2626
833.482	2442
833.576	2059
833.670	3539
833.765	3032
833.859	2318
833.954	3556
834.048	2531
834.142	2367
834.237	1723
834.331	1909
834.425	2618
834.519	1521
834.613	2126
834.708	2791
834.802	1681
834.896	2337
834.990	1614
835.084	1894
835.178	2082
835.272	2107
835.366	2352
835.460	2940
835.554	1712
835.648	1993
835.742	1471
835.836	2115
835.930	335
836.024	2748
836.117	2897
836.211	2442
836.305	2869
836.399	5657
836.493	2507
836.586	3055
836.680	125
836.774	1816
836.867	2666
836.961	1332
837.055	1081
837.148	1836
837.242	1845
837.335	1502
837.429	1800
837.522	2289
837.616	2841
837.709	5004
837.803	3507
837.896	2228
837.989	2592
838.083	4176
838.176	6630
838.269	4980
838.363	2407
838.456	2353
838.549	3841
838.642	5625
838.735	9762
838.829	4508
838.922	1661
839.015	1294
839.108	1023
839.201	2583
839.294	1895
839.387	2092
839.480	1552
839.573	4093
839.666	3825
839.759	1629
839.852	978
839.945	1664
840.038	706
840.131	778
840.223	1112
840.316	2789
840.409	1405
840.502	664
840.594	2221
840.687	941
840.780	1905
840.873	1562
840.965	2308
841.058	2957
841.150	6023
841.243	3349
841.336	1775
841.428	2364
841.521	1567
841.613	1535
841.706	2031
841.798	1950
841.890	2139
841.983	1026
842.075	2361
842.167	2025
842.260	1606
842.352	4316
842.444	3675
842.537	7383
842.629	8104
842.721	2477
842.813	1769
842.905	1184
842.997	2125
843.090	2427
843.182	3739
843.274	6916
843.366	14872
843.458	26672
843.550	15174
843.642	3273
843.734	2385
843.826	3104
843.918	2680
844.009	1854
844.101	897
844.193	2447
844.285	1382
844.377	2602
844.469	2134
844.560	1564
844.652	1684
844.744	2311
844.835	1866
844.927	2199
845.019	2522
845.110	2337
845.202	1825
845.293	1038
845.385	341
845.476	1536
845.568	1530
845.659	850
845.751	1371
845.842	1569
845.934	767
846.025	1004
846.116	1365
846.208	1542
846.299	656
846.390	1838
846.482	1193
846.573	2415
846.664	3314
846.755	4942
846.846	3932
846.937	996
847.029	913
847.120	1138
847.211	794
847.302	2815
847.393	224
847.484	1674
847.575	-138
847.666	1122
847.757	973
847.847	1602
847.938	1315
848.029	1518
848.120	336
848.211	1554
848.302	830
848.392	414
848.483	2233
848.574	290
848.664	534
848.755	1010
848.846	661
848.936	1563
849.027	711
849.118	1985
849.208	1048
849.299	2761
849.389	4152
849.480	7553
849.570	13465
849.661	27451
849.751	37361
849.841	11425
849.932	2321
850.022	1546
850.112	2112
850.203	1258
850.293	794
850.383	1213
850.474	499
850.564	785
850.654	1586
850.744	878
850.834	1101
850.924	1472
851.014	1693
851.104	1605
851.194	1613
851.284	2193
851.374	2835
851.464	1918
851.554	1830
851.644	1882
851.734	2436
851.824	1777
851.914	420
852.004	1868
852.094	323
852.183	362
852.273	1038
852.363	1288
852.452	345
852.542	1064
852.632	927
852.721	696
852.811	1082
852.901	1365
852.990	1771
853.080	1079
853.169	1209
853.259	1033
853.348	1414
853.438	3018
853.527	3707
853.617	5276
853.706	10442
853.795	19214
853.885	44358
853.974	81439
854.063	156372
854.152	204597
854.242	61698
854.331	10744
854.420	4897
854.509	4207
854.598	3873
854.687	3356
854.777	3376
854.866	1987
854.955	1805
855.044	1252
855.133	2014
855.222	1357
855.311	707
855.400	2190
855.488	848
855.577	859
855.666	1004
855.755	2362
855.844	1862
855.933	756
856.021	1572
856.110	2264
856.199	831
856.288	1323
856.376	534
856.465	1128
856.554	1185
856.642	1742
856.731	933
856.819	1661
856.908	873
856.996	1731
857.085	835
857.173	1335
857.262	463
857.350	2181
857.438	657
857.527	1483
857.615	850
857.703	1805
857.792	215
857.880	1349
857.968	420
858.056	1245
858.145	1259
858.233	1370
858.321	752
858.409	1884
858.497	-174
858.585	719
858.673	831
858.761	875
858.849	1067
858.937	1233
859.025	1304
859.113	1749
859.201	350
859.289	2083
859.377	162
859.465	1935
859.552	1347
859.640	473
859.728	330
859.816	1372
859.903	1343
859.991	1527
860.079	34
860.166	813
860.254	435
860.342	1572
860.429	704
860.517	44
860.604	837
860.692	1490
860.779	190
860.867	925
860.954	829
861.042	1005
861.129	507
861.216	1352
861.304	587
861.391	1024
861.478	1318
861.565	1378
861.653	2055
861.740	692
861.827	1262
861.914	1698
862.001	554
862.089	539
862.176	214
862.263	847
862.350	283
862.437	576
862.524	169
862.611	1253
862.698	516
862.785	1365
862.871	1321
862.958	982
863.045	1164
863.132	1622
863.219	528
863.306	152
863.392	1016
863.479	946
863.566	925
863.652	1775
863.739	746
863.826	1220
863.912	936
863.999	236
864.086	746
864.172	1758
864.259	576
864.345	1253
864.432	1394
864.518	1729
864.604	1310
864.691	1475
864.777	1520
864.863	2245
864.950	1559
865.036	2678
865.122	4182
865.209	3007
865.295	3654
865.381	3771
865.467	4249
865.553	5410
865.639	6382
865.726	10714
865.812	23073
865.898	41199
865.984	58826
866.070	115733
866.156	101268
866.242	23474
866.328	6358
866.414	4684
866.499	4547
866.585	3426
866.671	3719
866.757	3226
866.843	3770
866.928	2079
867.014	2643
867.100	3401
867.186	3026
867.271	3532
867.357	4402
867.442	4613
867.528	2263
867.614	2100
867.699	2085
867.785	3082
867.870	2698
867.956	3053
868.041	2747
868.127	3371
868.212	2839
868.297	3427
868.383	2661
868.468	4529
868.553	5527
868.639	7410
868.724	12200
868.809	9553
868.894	3105
868.979	2628
869.065	2591
869.150	2000
869.235	2099
869.320	2694
869.405	1523
869.490	2113
869.575	2128
869.660	1970
869.745	2634
869.830	2093
869.915	1629
870.000	2076
870.085	1484
870.169	1921
870.254	2148
870.339	1311
870.424	1312
870.509	1852
870.593	2385
870.678	2699
870.763	1285
870.847	1713
870.932	2302
871.016	2780
871.101	1669
871.186	1390
871.270	1537
871.355	1945
871.439	1690
871.523	2292
871.608	1157
871.692	1994
871.777	2221
871.861	2467
871.945	889
872.030	2275
872.114	1160
872.198	1416
872.282	1307
872.367	1619
872.451	1322
872.535	1424
872.619	1387
872.703	1417
872.787	1461
872.871	2000
872.955	1634
873.039	1447
873.123	1155
873.207	2281
873.291	1682
873.375	2134
873.459	1152
873.543	969
873.627	577
873.711	1821
873.794	2011
873.878	1781
873.962	1113
874.045	1390
874.129	1002
874.137	1069
874.213	1744
874.245	1325
874.296	645
874.352	1208
874.380	1482
874.460	514
874.464	475
874.547	867
874.568	770
874.631	518
874.676	777
874.714	973
874.784	1747
874.798	1910
874.881	2197
874.892	2091
874.965	1297
874.999	1237
875.048	1162
875.107	1114
875.131	1092
875.215	829
875.215	829
875.298	700
875.323	960
875.381	1539
875.430	1455
875.465	1425
875.538	1204
875.548	1164
875.631	1671
875.646	1466
875.714	535
875.753	688
875.798	889
875.861	1466
875.881	1622
875.964	1237
875.968	1217
876.047	898
876.076	873
876.130	828
876.183	933
876.213	993
876.291	1876
876.296	1932
876.379	1634
876.398	1524
876.462	1207
876.506	1130
876.545	1064
876.613	456
876.628	323
876.711	1392
876.721	1386
876.794	1424
876.828	1556
876.877	1656
876.935	1104
876.960	910
877.043	1061
877.043	1059
877.125	311
877.150	825
877.208	2046
877.258	1317
877.291	879
877.365	1563
877.374	1625
877.456	1031
877.472	1009
877.539	971
877.579	1242
877.622	1541
877.687	1253
877.704	1163
877.787	801
877.794	828
877.869	1311
877.901	1318
877.952	1158
878.008	937
878.034	885
878.115	750
878.117	742
878.199	1211
878.222	934
878.282	602
878.329	1285
878.364	1660
878.437	757
878.447	621
878.529	359
878.544	361
878.611	335
878.651	378
878.694	660
878.758	715
878.776	666
878.858	817
878.865	775
878.941	147
878.972	265
879.023	550
879.078	344
879.105	338
879.185	1401
879.187	1415
879.269	1014
879.292	932
879.351	737
879.399	612
879.433	522
879.506	570
879.516	604
879.598	874
879.613	865
879.680	654
879.720	858
879.762	1142
879.827	959
879.844	820
879.926	778
879.933	767
880.007	1388
880.040	1502
880.089	1238
880.147	1851
880.171	2418
880.253	4614
880.254	4629
880.335	6018
880.360	6398
880.417	8919
880.467	13295
880.499	15828
880.574	17230
880.580	16894
880.662	5339
880.680	3903
880.744	1361
880.787	860
880.825	831
880.893	1247
880.907	1218
880.989	270
881.000	259
881.070	880
881.106	1080
881.152	1078
881.213	427
881.233	268
881.315	713
881.319	714
881.396	877
881.426	966
881.478	905
881.532	954
881.559	1044
881.639	706
881.641	688
881.722	650
881.745	489
881.803	496
881.852	456
881.885	417
881.958	887
881.966	940
882.047	1698
882.064	1718
882.129	1557
882.171	1630
882.210	1724
882.277	2733
882.291	3006
882.372	1618
882.383	1649
882.454	1245
882.489	931
882.535	952
882.596	1146
882.616	1014
882.697	233
882.702	228
882.778	512
882.808	431
882.859	199
882.914	213
882.940	396
883.020	452
883.021	452
883.102	1102
883.127	1116
883.183	1204
883.233	1181
883.264	859
883.339	175
883.345	164
883.426	40
883.445	122
883.507	584
883.551	849
883.587	966
883.657	1008
883.668	1000
883.749	764
883.763	696
883.830	340
883.869	514
883.910	725
883.975	328
883.991	262
884.072	514
884.081	516
884.152	404
884.187	515
884.233	846
884.292	1000
884.314	783
884.394	-86
884.398	-122
884.475	344
884.504	533
884.555	535
884.610	347
884.636	264
884.716	571
884.716	573
884.797	367
884.821	331
884.877	600
884.927	725
884.958	566
885.033	441
885.038	450
885.118	462
885.139	455
885.199	234
885.244	211
885.279	438
885.350	656
885.359	650
885.439	573
885.456	556
885.520	647
885.561	804
885.600	653
885.667	331
885.680	412
885.760	667
885.773	773
885.840	543
885.878	324
885.920	461
885.984	557
886.000	558
886.080	567
886.089	568
886.160	641
886.195	718
886.240	746
886.300	794
886.320	881
886.400	1217
886.406	1241
886.480	572
886.511	243
886.560	635
886.616	1018
886.640	773
886.720	-60
886.722	-76
886.800	180
886.827	214
886.879	365
886.932	606
886.959	674
887.038	811
887.039	810
887.119	568
887.143	476
887.198	373
887.248	448
887.278	343
887.354	-256
887.358	-244
887.437	124
887.459	266
887.517	492
887.564	542
887.596	686
887.669	1167
887.676	1153
887.755	900
887.774	830
887.835	688
887.880	621
887.914	727
887.985	818
887.994	829
888.073	1039
888.090	1049
888.153	356
888.195	-35
888.232	69
888.300	164
888.311	181
888.391	344
888.405	382
888.470	440
888.510	409
888.549	223
888.615	56
888.628	187
888.708	890
888.720	997
888.787	418
888.825	77
888.866	268
888.930	566
888.945	476
889.024	64
889.035	6
889.103	349
889.140	524
889.182	472
889.245	415
889.261	362
889.340	105
889.349	81
889.419	169
889.454	213
889.498	108
889.559	-30
889.577	21
889.656	269
889.664	296
889.735	385
889.768	430
889.814	273
889.873	66
889.978	776
890.083	794
890.187	153
890.292	-395
890.397	629
890.501	120
890.606	434
890.710	1256
890.815	444
890.919	213
891.024	753
891.128	1103
891.233	553
891.337	612
891.442	709
891.546	528
891.650	275
891.755	-121
891.859	984
891.963	462
892.068	895
892.172	386
892.276	457
892.380	925
892.484	657
892.589	1146
892.693	975
892.797	614
892.901	251
893.005	208
893.109	-76
893.213	328
893.317	651
893.421	172
893.525	-390
893.629	-332
893.733	436
893.837	-554
893.941	357
894.045	-111
894.148	-172
894.252	154
894.356	646
894.460	801
894.564	815
894.667	319
894.771	33
894.875	378
894.978	212
895.082	-62
895.186	899
895.289	1018
895.393	350
895.496	600
895.600	727
895.703	-191
895.807	-386
895.910	-424
896.014	518
896.117	-37
896.221	1271
896.324	-106
896.427	594
896.531	-440
896.634	-167
896.737	592
896.840	319
896.944	-232
897.047	824
897.150	692
897.253	-453
897.356	682
897.460	-95
897.563	-31
897.666	532
897.769	462
897.872	499
897.975	-350
898.078	252
898.181	540
898.284	461
898.387	258
898.490	653
898.593	529
898.695	535
898.798	-228
898.901	963
899.004	143
899.107	385
899.209	-146
899.312	550
899.415	192
899.518	-271
899.620	-749
899.723	227
899.826	965
899.928	1388
900.031	-628
900.133	520
900.236	-491
900.338	-302
900.441	-280
900.543	-289
900.646	27
900.748	123
900.851	-23
900.953	421
901.055	-72
901.158	444
901.260	327
901.362	681
901.465	-166
901.567	333
901.669	-204
901.771	-213
901.873	-62
901.976	125
902.078	927
902.180	-569
902.282	6
902.384	807
902.486	-126
902.588	526
902.690	-133
902.792	-270
902.894	460
902.996	479
903.098	73
903.200	100
903.302	6
903.404	79
903.505	863
903.607	483
903.709	423
903.811	426
903.913	-712
904.014	195
904.116	546
904.218	101
904.319	-653
904.421	743
904.523	648
904.624	198
904.726	498
904.827	794
904.929	737
905.030	446
905.132	-211
905.233	-136
905.335	-18
905.436	-102
905.537	-114
905.639	98
905.740	-380
905.841	631
905.943	33
906.044	1369
906.145	92
906.247	-256
906.348	375
906.449	489
906.550	-7
906.651	787
906.752	-272
906.854	-105
906.955	-108
907.056	472
907.157	-368
907.258	546
907.359	70
907.460	-303
907.561	-497
907.662	349
907.762	287
907.863	-180
907.964	-63
908.065	911
908.166	384
908.267	281
908.367	-1052
908.468	419
908.569	1373
908.670	361
908.770	300
908.871	462
908.971	312
909.072	-238
909.173	-422
909.273	80
909.374	732
909.474	1026
909.575	235
909.675	987
909.776	186
909.876	5
909.977	-389
910.077	939
910.177	-153
910.278	1460
910.378	-695
910.478	216
910.579	478
910.679	-807
910.779	51
910.879	871
910.980	410
911.080	335
911.180	-652
911.280	50
911.380	-143
911.480	132
911.580	-171
911.680	-352
911.780	6
911.880	1053
911.980	-391
912.080	10
912.180	207
912.280	577
912.380	-627
912.480	305
912.580	433
912.679	779
912.779	-93
912.879	394
912.979	206
913.078	57
913.178	46
913.278	444
913.377	630
913.477	458
913.577	-267
913.676	626
913.776	150
913.875	75
913.975	-79
914.074	222
914.174	440
914.273	484
914.373	1061
914.472	908
914.572	82
914.671	588
914.770	47
914.870	212
914.969	-107
915.068	-107
915.167	-76
915.267	260
915.366	-391
915.465	10
915.564	-182
915.663	-666
915.763	250
915.862	934
915.961	669
916.060	-300
916.159	-46
916.258	-1098
916.357	-132
916.456	749
916.555	518
916.654	816
916.752	135
916.851	719
916.950	-100
917.049	48
917.148	-16
917.247	486
917.345	135
917.444	-633
917.543	-429
917.642	198
917.740	-265
917.839	313
917.937	531
918.036	420
918.135	-6
918.233	-156
918.332	-1013
918.430	197
918.529	391
918.627	-381
918.726	527
918.824	-232
918.923	673
919.021	51
919.119	-591
919.218	721
919.316	-12
919.414	28
919.512	-120
919.611	443
919.709	-298
919.807	279
919.905	-259
920.003	568
920.102	-438
920.200	315
920.298	646
920.396	563
920.494	126
920.592	-77
920.690	526
920.788	-1262
920.886	-341
920.984	597
921.082	-97
921.180	774
921.277	110
921.375	430
921.473	670
921.571	1081
921.669	552
921.766	329
921.864	717
921.962	517
922.060	1133
922.157	730
922.255	-164
922.352	942
922.450	117
922.548	1137
922.645	524
922.743	1561
922.840	1740
922.938	2434
923.035	1725
923.133	2089
923.230	1638
923.327	2119
923.425	2048
923.522	2337
923.619	1859
923.717	1417
923.814	1403
923.911	2333
924.008	1943
924.106	1565
924.203	1199
924.300	1773
924.397	466
924.494	2311
924.591	1274
924.688	1465
924.786	1661
924.883	1088
924.979	1808
925.077	1900
925.173	1517
925.270	1517
925.367	1301
925.464	2600
925.561	2472
925.658	2167
925.755	1601
925.852	2229
925.948	1303
926.045	1952
926.142	1495
926.239	2320
926.335	1515
926.432	2440
926.529	2272
926.625	2668
926.722	1014
926.818	1459
926.915	1883
927.011	1318
927.108	1752
927.204	1803
927.301	1158
927.397	1653
927.494	2044
927.590	829
927.687	630
927.783	2218
927.879	1450
927.976	1427
928.072	1051
928.168	1917
928.264	1195
928.361	1349
928.457	976
928.553	413
928.649	1279
928.745	1395
928.841	915
928.937	1161
929.033	1738
929.129	1736
929.225	1132
929.321	1372
929.417	-115
929.513	1593
929.609	212
929.705	1039
929.801	1298
929.897	682
929.993	80
930.089	713
930.184	528
930.280	1697
930.376	1671
930.471	822
930.567	1426
930.663	1250
930.758	963
930.854	1603
930.950	985
931.045	946
931.141	890
931.236	1567
931.332	752
931.427	270
931.523	882
931.618	1679
931.714	-619
931.809	1280
931.905	748
932.000	990
932.095	584
932.191	861
932.286	869
932.381	1343
932.476	1183
932.572	986
932.667	844
932.762	1757
932.857	596
932.952	851
933.047	494
933.142	295
933.237	460
933.332	1200
933.427	889
933.522	804
933.617	856
933.712	1095
933.807	508
933.902	678
933.997	916
934.092	3
934.187	221
934.282	565
934.376	464
934.471	649
934.566	673
934.661	935
934.755	432
934.850	1452
934.945	593
935.039	925
935.134	474
935.228	425
935.323	666
935.417	258
935.512	-243
935.606	810
935.701	781
935.795	1102
935.890	315
935.984	426
936.079	-250
936.173	541
936.267	-6
936.362	417
936.456	710
936.550	860
936.644	901
936.738	161
936.833	158
936.927	977
937.021	-25
937.115	-57
937.209	-465
937.303	1544
937.397	360
937.491	912
937.585	933
937.679	982
937.773	540
937.867	393
937.961	-442
938.055	553
938.149	699
938.243	-152
938.337	-55
938.430	471
938.524	30
938.618	-30
938.712	949
938.805	771
938.899	565
938.993	880
939.086	297
939.180	1015
939.274	739
939.367	303
939.461	-8
939.554	643
939.648	-524
939.741	-328
939.835	375
939.928	838
940.022	119
940.115	457
940.208	511
940.302	910
940.395	-109
940.488	-258
940.582	-127
940.675	-59
940.768	-823
940.861	195
940.954	30
941.048	129
941.141	161
941.234	540
941.327	1114
941.420	1990
941.513	-126
941.606	-356
941.699	766
941.792	834
941.885	13
941.978	-246
942.071	196
942.164	364
942.257	34
942.349	701
942.442	155
942.535	-949
942.628	-26
942.721	582
942.813	-240
942.906	1012
942.999	-666
943.091	-26
943.184	-413
943.277	14
943.369	1048
943.462	-383
943.554	-265
943.647	-20
943.739	555
943.832	740
943.924	-1104
944.017	-264
944.109	-285
944.201	-231
944.294	-763
944.386	191
944.478	-296
944.571	255
944.663	-384
944.755	353
944.847	-112
944.940	526
945.032	-781
945.124	710
945.216	1346
945.308	626
945.400	-599
945.492	54
945.584	-372
945.676	514
945.768	-609
945.860	619
945.952	-111
946.044	1297
946.136	-1280
946.228	-863
946.320	-862
946.412	624
946.503	-28
946.595	944
946.687	88
946.779	-349
946.870	-130
946.962	-502
947.054	19
947.145	-174
947.237	363
947.329	-133
947.420	-880
947.512	156
947.603	-377
947.695	-291
947.786	-1110
947.878	-655
947.969	-306
948.061	-346
948.152	-206
948.243	-394
948.335	-456
948.426	-1206
948.517	-1146
948.609	-216
948.700	-287
948.791	-191
948.882	-417
948.973	-62
949.065	765
949.156	-142
949.247	-1386
949.338	58
949.429	-737
949.520	-17
949.611	-855
949.702	433
949.793	-661
949.884	-534
949.975	-296
950.066	506
950.157	-630
950.247	378
950.338	-367
950.429	-1064
950.520	103
950.611	-288
950.701	274
950.792	-223
950.883	-516
950.973	195
951.064	419
951.155	-243
951.245	213
951.336	367
951.427	-400
951.517	223
951.608	-194
951.698	-638
951.788	-49
951.879	167
951.969	-672
952.060	-101
952.150	97
952.240	876
952.331	-1178
952.421	116
952.511	-890
952.602	-141
952.692	-521
952.782	-490
952.872	-239
952.962	-517
953.052	-349
953.143	-865
953.233	757
953.323	416
953.413	-1508
953.503	-396
953.593	-426
953.683	-202
953.773	-1177
953.863	-121
953.953	-767
954.042	-102
954.132	-661
954.222	468
954.312	-578
954.402	-1497
954.492	-237
954.581	181
954.671	-1182
954.761	-1334
954.850	-297
954.940	-646
955.030	-72
955.119	-492
955.209	-449
955.298	-481
955.388	-352
955.477	-23
955.567	-637
955.656	996
955.746	-554
955.835	-449
955.925	-1170
956.014	-15
956.103	-113
956.193	159
956.282	261
956.371	-258
956.461	-164
956.550	-121
956.639	-414
956.728	-55
956.817	-515
956.906	-66
956.995	-465
957.085	-569
957.174	-836
957.263	-239
957.352	-141
957.441	-158
957.530	-437
957.619	-346
957.708	-718
957.796	50
957.885	-845
957.974	-675
958.063	-147
958.152	-895
958.241	-23
958.329	9
958.418	-732
958.507	-880
958.596	265
958.684	-851
958.773	229
958.861	-672
958.950	-699
959.039	66
959.127	-151
959.216	554
959.304	-155
959.393	-48
959.481	-263
959.570	-809
959.658	-1075
959.746	145
959.835	-236
959.923	507
960.011	-716
960.100	304
960.188	-599
960.276	-612
960.365	-644
960.453	-1097
960.541	-1325
960.629	-55
960.717	-1442
960.805	-1419
960.893	-435
960.981	-345
961.069	-452
961.158	-195
961.245	-494
961.333	-145
961.421	-784
961.509	-652
961.597	66
961.685	-1228
961.773	50
961.861	-1216
961.949	270
962.036	-1304
962.124	-705
962.212	420
962.299	-1677
962.387	-538
962.475	-420
962.562	-885
962.650	-522
962.738	-526
962.825	-1403
962.913	-681
963.000	-1022
963.088	216
963.175	-1000
963.263	395
963.350	-814
963.438	-1394
963.525	-672
963.612	114
963.700	149
963.787	1816
963.874	-523
963.962	-104
964.049	-2
964.136	-532
964.223	-758
964.310	-1273
964.398	17
964.485	-1030
964.572	-579
964.659	-48
964.746	-495
964.833	-753
964.920	-1807
965.007	-293
965.094	-566
965.181	-299
965.268	-877
965.355	-354
965.441	-292
965.528	-1290
965.615	362
965.702	-1158
965.789	-1220
965.875	-609
965.962	-569
966.049	-1351
966.136	-405
966.222	-1521
966.309	-586
966.395	-1376
966.482	-513
966.569	-823
966.655	-660
966.742	-388
966.828	-766
966.915	-408
967.001	-46
967.087	-1704
967.174	-797
967.260	-700
967.347	-246
967.433	-315
967.519	329
967.605	-814
967.692	-843
967.778	-597
967.864	-1044
967.950	-425
968.036	-1283
968.123	-728
968.209	-1240
968.295	-1529
968.381	671
968.467	-889
968.553	-2309
968.639	-459
968.725	-734
968.811	-436
968.897	-359
968.983	-610
969.069	-2182
969.154	-574
969.240	-1095
969.326	-1530
969.412	-1422
969.497	-912
969.583	-1655
969.669	84
969.755	-47
969.840	-748
969.926	187
970.012	-452
970.097	292
970.183	-884
970.268	-1534
970.354	-535
970.439	-1231
970.525	590
970.610	-1618
970.696	-79
970.781	-383
970.866	-1510
970.952	-633
971.037	-1095
971.122	-590
971.208	-664
971.293	-673
971.378	-1137
971.463	-846
971.549	148
971.634	-1404
971.719	-705
971.804	-1474
971.889	409
971.974	-1235
972.059	541
972.144	-1221
972.229	-257
972.314	-1086
972.399	-622
972.484	-988
972.569	-448
972.654	-1976
972.739	604
972.824	-1083
972.908	-1674
972.993	-1831
973.078	-453
973.163	-985
973.247	-11
973.332	-2027
973.417	277
973.501	-828
973.586	-555
973.671	-827
973.755	-1201
973.840	175
973.924	-31
974.009	-1133
974.093	-388
974.178	190
974.262	-475
974.346	-636
974.431	-1200
974.515	-1173
974.600	-1286
974.684	-1250
974.768	-488
974.852	-354
974.937	-1398
975.021	-708
975.105	-1348
975.189	-743
975.273	520
975.358	-964
975.442	-1940
975.526	-515
975.610	-1393
975.694	-1711
975.778	-316
975.862	-1613
975.946	-1873
976.030	74
976.114	-794
976.198	-1123
976.281	-828
976.365	-83
976.449	-832
976.533	-491
976.617	-1269
976.700	-553
976.784	-820
976.868	-1483
976.951	-348
977.035	-1812
977.119	-902
977.202	-1425
977.286	-301
977.369	-902
977.453	-549
977.536	-1260
977.620	-1415
977.703	-653
977.787	-1200
977.870	639
977.953	699
978.037	-1959
978.120	-748
978.203	-616
978.287	-313
978.370	-1530
978.453	-1158
978.536	-1392
978.620	173
978.703	-1549
978.786	-617
978.869	-1549
978.952	-1835
979.035	450
979.118	-181
979.201	-1851
979.284	-352
979.367	-1228
979.450	-357
979.533	-1823
979.616	-1588
979.699	-1373
979.782	-128
979.865	-496
979.948	-1107
980.030	-1546
980.113	-1108
980.196	-1725
980.279	-652
980.361	-1872
980.444	-1351
980.526	-1114
980.609	-419
980.692	-1341
980.774	-856
980.857	-2524
980.939	660
981.022	-609
981.104	-1426
981.187	-2122
981.269	-506
981.352	-738
981.434	-1570
981.516	-2363
981.599	-433
981.681	-345
981.763	-1056
981.846	-1795
981.928	-400
982.010	-2339
982.092	-884
982.174	-199
982.256	-1192
982.339	-1283
982.421	-1089
982.503	-1351
982.585	-770
982.667	-1092
982.749	-1001
982.831	-1436
982.913	-1216
982.995	-125
983.077	-1045
983.158	-341
983.240	-1740
983.322	-426
983.404	-283
983.486	-1418
983.568	-101
983.649	-1079
983.731	-597
983.813	-1668
983.894	-251
983.976	-1310
984.058	-1123
984.139	-970
984.221	-900
984.302	-196
984.384	-459
984.465	-1022
984.547	-544
984.628	-857
984.710	-504
984.791	-1061
984.872	-613
984.954	-736
985.035	-735
985.116	-2386
985.198	-912
985.279	137
985.360	-903
985.441	-1307
985.522	-147
985.604	-1324
985.685	-1730
985.766	-86
985.847	309
985.928	-1802
986.009	-968
986.090	-2106
986.171	-433
986.252	-1265
986.333	-1056
986.414	77
986.495	-650
986.576	-1236
986.656	-524
986.737	-561
986.818	-716
986.899	-1096
986.980	-1308
987.060	-1097
987.141	-953
987.222	-1160
987.302	240
987.383	-362
987.464	-741
987.544	-246
987.625	-747
987.705	-397
987.786	324
987.866	-622
987.947	-1281
988.027	-946
988.108	-1220
988.188	-307
988.268	-569
988.349	-1337
988.429	-939
988.509	58
988.589	-766
988.670	-2337
988.750	503
988.830	-626
988.910	-415
988.990	-1291
989.070	-1549
989.151	-1180
989.231	-1147
989.311	-1071
989.391	-1277
989.471	-1609
989.551	-692
989.631	-1606
989.711	436
989.791	-2227
989.870	-1292
989.950	901
990.030	-847
990.110	-910
990.190	-1530
990.269	-850
990.349	-1339
990.429	-767
990.509	91
990.588	-2635
990.668	-196
990.747	-1157
990.827	-477
990.907	-338
990.986	-1188
991.066	-739
991.145	-1405
991.225	-895
991.304	-1251
991.383	-814
991.463	-1483
991.542	-822
991.622	-656
991.701	-1354
991.780	-780
991.859	-1385
991.939	-1243
992.018	-1660
992.097	-131
992.176	-410
992.256	-585
992.335	-997
992.414	-353
992.493	-1237
992.572	-1498
992.651	-821
992.730	-979
992.809	-869
992.888	-1265
992.967	-1712
993.046	-260
993.125	-1712
993.203	-1058
993.282	-1622
993.361	-1298
993.440	-930
993.519	-2088
993.597	-1710
993.676	-2369
993.755	-427
993.834	-828
993.912	-1930
993.991	399
994.069	-2007
994.148	-825
994.226	-969
994.305	-1105
994.384	-1517
994.462	270
994.540	-1484
994.619	-1358
994.697	-1820
994.776	-981
994.854	-1324
994.932	-908
995.011	-2041
995.089	-1738
995.167	-1471
995.245	-920
995.324	-2011
995.402	-667
995.480	-1884
995.558	-1038
995.636	-1554
995.714	-1392
995.792	-998
995.870	-1791
995.948	-1703
996.026	-1070
996.104	-1873
996.182	-1055
996.260	-1668
996.338	-999
996.416	-2801
996.494	-1143
996.572	143
996.649	-928
996.727	-2351
996.805	-768
996.883	-756
996.960	-1785
997.038	-1454
997.116	-722
997.193	-2063
997.271	-1203
997.348	-1426
997.426	-1128
997.504	-2211
997.581	-1129
997.658	-1220
997.736	-2372
997.813	-2165
997.891	-720
997.968	-2513
998.046	-1586
998.123	-2467
998.200	-1455
998.277	-1473
998.355	-1085
998.432	-2579
998.509	-903
998.586	-1289
998.663	-1574
998.741	-2115
998.818	-1508
998.895	-1705
998.972	-149
999.049	-2455
999.126	-1651
999.203	-1363
999.280	-1451
999.357	-2323
999.434	-1297
999.511	-2039
999.587	-344
999.664	-2546
999.741	-1439
999.818	-1666
999.895	-1784
999.971	-2152
1000.048	-948
1000.125	-1265
1000.202	-2412
1000.278	-1353
1000.355	-715
1000.431	-1993
1000.508	-2397
1000.584	-2322
1000.661	-1426
1000.738	-3182
1000.814	-1060
1000.890	-2031
1000.967	-1640
1001.043	-1809
1001.120	-2552
1001.196	-1499
1001.272	-2519
1001.349	-2164
1001.425	-916
1001.501	-1965
1001.577	-2418
1001.654	-1432
1001.730	-1252
1001.806	-1412
1001.882	-3018
1001.958	-1528
1002.034	-1388
1002.110	-1706
1002.186	-2058
1002.262	-2396
1002.338	-2435
1002.414	-1840
1002.490	-1606
1002.566	-2576
1002.642	-1292
1002.718	-1474
1002.794	-2081
1002.870	-1852
1002.945	-2432
1003.021	-1513
1003.097	-1965
1003.173	-1783
1003.248	-2386
1003.324	-2229
1003.400	-1991
1003.475	-2477
1003.551	-1270
1003.626	-2443
1003.702	-1808
1003.777	-1823
1003.853	-2242
1003.928	-2387
1004.004	-2777
1004.079	-1563
1004.155	-2156
1004.230	-2948
1004.305	-964
1004.381	-2651
1004.456	-1909
1004.531	-2545
1004.607	-1722
1004.682	-1675
1004.757	-1991
1004.832	-2448
1004.907	-2161
1004.982	-1805
1005.057	-1770
1005.133	-2272
1005.208	-1963
1005.283	-2067
1005.358	-1069
1005.433	-2196
1005.508	-1025
1005.583	-2900
1005.657	-1400
1005.732	-2270
1005.807	-2785
1005.882	-2450
1005.957	-2331
1006.032	-1144
1006.106	-2113
1006.181	-2370
1006.256	-2053
1006.331	-3143
1006.405	-2262
1006.480	-1777
1006.554	-1980
1006.629	-2529
1006.704	-1510
1006.778	-2188
1006.853	-2092
1006.927	-1920
1007.002	-2493
1007.076	-1624
1007.150	-1726
1007.225	-1412
1007.299	-1712
1007.373	-1882
1007.448	-1579
1007.522	-1291
1007.596	-1339
1007.671	-2624
1007.745	-1403
1007.819	-2398
1007.893	-2175
1007.967	-2253
1008.041	-3292
1008.115	-1483
1008.190	-2365
1008.264	-1820
1008.338	-2091
1008.412	-2703
1008.486	-1871
1008.560	-1837
1008.633	-2909
1008.707	-2903
1008.781	-2010
1008.855	-3160
1008.929	-2810
1009.003	-2723
1009.076	-2381
1009.150	-2458
1009.224	-2377
1009.298	-2056
1009.371	-2716
1009.445	-1480
1009.519	-1409
1009.592	-2757
1009.666	-2426
1009.739	-2219
1009.813	-2826
1009.886	-1309
1009.960	-2916
1010.033	-2249
1010.107	-1835
1010.180	-2333
1010.253	-2020
1010.327	-3011
1010.400	-2195
1010.473	-2076
1010.547	-1985
1010.620	-2514
1010.693	-1753
1010.766	-2589
1010.840	-1584
1010.913	-2604
1010.986	-2574
1011.059	-2494
1011.132	-2515
1011.205	-2032
1011.278	-1648
1011.351	-2857
1011.424	-1915
1011.497	-2416
1011.570	-1215
1011.643	-2572
1011.716	-2042
1011.789	-2312
1011.862	-1541
1011.934	-1371
1012.007	-2762
1012.080	-2235
1012.153	-1580
1012.225	-2010
1012.298	-2179
1012.371	-2359
1012.443	-1780
1012.516	-3136
1012.588	-1841
1012.661	-2387
1012.733	-2285
1012.806	-1509
1012.879	-2942
1012.951	-2751
1013.023	-2645
1013.096	-2289
1013.168	-2910
1013.241	-2394
1013.313	-2292
1013.385	-3698
1013.458	-2459
1013.530	-2190
1013.602	-2408
1013.674	-1195
1013.746	-2917
1013.819	-1641
1013.891	-2404
1013.963	-2484
1014.035	-2164
1014.107	-2088
1014.179	-2750
1014.251	-3272
1014.323	-2207
1014.395	-1713
1014.467	-3003
1014.539	-2371
1014.611	-3074
1014.683	-2286
1014.754	-2023
1014.826	-2838
1014.898	-1293
1014.970	-2693
1015.042	-1923
1015.113	-2117
1015.185	-2674
1015.257	-3867
1015.328	-2389
1015.400	-2646
1015.471	-1859
1015.543	-2862
1015.615	-1615
1015.686	-2467
1015.757	-1970
1015.829	-2361
1015.901	-2217
1015.972	-2670
1016.043	-2269
1016.115	-2867
1016.186	-2231
1016.257	-2980
1016.328	-2490
1016.400	-1691
1016.471	-3169
1016.542	-1955
1016.613	-1965
1016.685	-2283
1016.756	-1601
1016.827	-2219
1016.898	-3066
1016.969	-2235
1017.040	-2452
1017.111	-2574
1017.182	-2587
1017.253	-2953
1017.324	-2372
1017.395	-2841
1017.466	-1956
1017.537	-2411
1017.608	-2268
1017.678	-2805
1017.749	-2835
1017.820	-2938
1017.891	-2417
1017.961	-2627
1018.032	-1461
1018.103	-2034
1018.173	-2444
1018.244	-2543
1018.315	-2466
1018.385	-2615
1018.456	-2441
1018.526	-3259
1018.597	-1877
1018.667	-2385
1018.738	-2612
1018.808	-2758
1018.878	-2374
1018.949	-2395
1019.019	-2911
1019.089	-2488
1019.160	-2203
1019.230	-3250
1019.300	-2150
1019.371	-3265
1019.441	-1882
1019.511	-1629
1019.581	-1495
1019.651	-2290
1019.721	-1955
1019.791	-2109
1019.861	-2352
1019.931	-2430
1020.001	-1990
1020.071	-1718
1020.141	-2200
1020.211	-2093
1020.281	-2495
1020.351	-2838
1020.421	-2161
1020.491	-2354
1020.560	-2555
1020.630	-2685
1020.700	-2254
1020.770	-2476
1020.839	-2440
1020.909	-2193
1020.979	-2226
1021.048	-2984
1021.118	-1920
1021.187	-2683
1021.257	-1470
1021.326	-1409
1021.396	-2526
1021.465	-1952
1021.535	-1797
1021.604	-2189
1021.674	-1756
1021.743	-2724
1021.812	-2699
1021.882	-2193
1021.951	-2396
1022.020	-2472
1022.089	-1543
1022.159	-2467
1022.228	-2020
1022.297	-2366
1022.366	-1857
1022.435	-3130
1022.504	-1988
1022.573	-3361
1022.642	-2641
1022.711	-2004
1022.781	-2270
1022.849	-2294
1022.918	-2579
1022.987	-2783
1023.056	-2260
1023.125	-2552
1023.194	-1878
1023.263	-1926
1023.331	-1890
1023.400	-2660
1023.469	-1944
1023.538	-2506
1023.606	-2672
1023.675	-2246
1023.744	-1764
1023.812	-2608
1023.881	-2098
1023.949	-2133
1024.018	-1406
1024.086	-2755
1024.155	-1477
1024.223	-2757
1024.292	-2121
1024.360	-1330
1024.429	-2313
1024.497	-2434
1024.565	-2302
1024.634	-3116
1024.702	-1581
1024.770	-2263
1024.838	-2244
1024.907	-1829
1024.975	-2222
1025.043	-2455
1025.111	-2306
1025.179	-1759
1025.247	-1850
1025.315	-2497
1025.383	-2278
1025.451	-2094
1025.519	-2274
1025.587	-2456
1025.655	-2116
1025.723	-2362
1025.791	-1828
1025.859	-2014
1025.927	-1326
1025.995	-2152
1026.062	-1798
1026.130	-2274
1026.198	-1535
1026.266	-2452
1026.333	-2516
1026.401	-2379
1026.469	-1505
1026.536	-2240
1026.604	-1627
1026.671	-2436
1026.739	-1887
1026.806	-2872
1026.874	-2497
1026.941	-3037
1027.009	-2303
1027.076	-2491
1027.144	-1276
1027.211	-2571
1027.278	-2158
1027.345	-2073
1027.413	-2600
1027.480	-2551
1027.547	-2422
1027.614	-2493
1027.682	-2259
1027.749	-3315
1027.816	-2440
1027.883	-2405
1027.950	-2315
1028.017	-2447
1028.084	-1102
1028.151	-2696
1028.218	-1925
1028.285	-1768
1028.352	-2915
1028.419	-2639
1028.486	-2879
1028.553	-1969
1028.619	-2525
1028.686	-2503
1028.753	-2459
1028.820	-2868
1028.886	-1785
1028.953	-2248
1029.020	-1613
1029.086	-2214
1029.153	-1808
1029.220	-2580
1029.286	-2385
1029.353	-1443
1029.419	-1264
1029.486	-2748
1029.552	-2157
1029.619	-2466
1029.685	-2476
1029.751	-2157
1029.818	-1899
1029.884	-2627
1029.951	-1661
1030.017	-2329
1030.083	-2258
1030.149	-2291
1030.216	-2168
1030.282	-2570
1030.348	-2026
1030.414	-2846
1030.480	-1619
1030.546	-1954
1030.612	-2418
1030.678	-2466
1030.744	-2109
1030.810	-2986
1030.876	-1630
1030.942	-2976
1031.008	-2294
1031.074	-2153
1031.140	-2936
1031.206	-2193
1031.272	-2779
1031.337	-2904
1031.403	-1864
1031.469	-2401
1031.534	-2231
1031.600	-2259
1031.666	-2251
1031.731	-3253
1031.797	-3023
1031.863	-2719
1031.928	-2491
1031.994	-2987
1032.059	-2356
1032.125	-2560
1032.190	-2827
1032.256	-2917
1032.321	-1828
1032.386	-1716
1032.452	-2212
1032.517	-3104
1032.582	-2870
1032.647	-2682
1032.713	-2600
1032.778	-3333
1032.843	-2305
1032.908	-2463
1032.974	-1803
1033.039	-3002
1033.104	-2132
1033.169	-3667
1033.234	-2198
1033.299	-2737
1033.364	-1330
1033.429	-1927
1033.494	-1737
1033.559	-3008
1033.624	-2286
1033.688	-2618
1033.753	-2316
1033.818	-2280
1033.883	-2605
1033.948	-2457
1034.013	-2158
1034.077	-1907
1034.142	-896
1034.207	-2400
1034.271	-921
1034.336	-1690
1034.400	-1312
1034.465	-1836
1034.530	-1879
1034.594	-2771
1034.658	-2230
1034.723	-3256
1034.787	-1855
1034.852	-2440
1034.916	-1832
1034.981	-2371
1035.045	-1955
1035.109	-2420
1035.173	-2638
1035.238	-2825
1035.302	-1733
1035.366	-2460
1035.430	-1710
1035.495	-3083
1035.559	-1037
1035.623	-2219
1035.687	-1604
1035.751	-2637
1035.815	-1846
1035.879	-3248
1035.943	-1717
1036.007	-2758
1036.071	-2154
1036.135	-2328
1036.198	-2356
1036.262	-2575
1036.326	-2220
1036.390	-2867
1036.454	-1295
1036.517	-2189
1036.581	-2243
1036.645	-1319
1036.709	-1929
1036.772	-3063
1036.836	-2637
1036.900	-2495
1036.963	-2515
1037.026	-2582
1037.090	-2489
1037.154	-2507
1037.217	-3213
1037.280	-3283
1037.344	-1712
1037.407	-3341
1037.471	-2314
1037.534	-2090
1037.597	-2650
1037.661	-1916
1037.724	-3202
1037.787	-2138
1037.850	-2488
1037.913	-4246
1037.977	-2588
1038.040	-2533
1038.103	-2586
1038.166	-3449
1038.229	-2354
1038.292	-2361
1038.355	-2064
1038.418	-2622
1038.481	-1528
1038.544	-3247
1038.607	-2965
1038.670	-1877
1038.732	-2035
1038.795	-3173
1038.858	-3739
1038.921	-2463
1038.984	-1765
1039.046	-2933
1039.109	-2550
1039.172	-2485
1039.234	-2666
1039.297	-3293
1039.360	-2168
1039.422	-2046
1039.485	-2136
1039.547	-2662
1039.610	-3217
1039.672	-2610
1039.734	-1831
1039.797	-2963
1039.859	-2805
1039.922	-3470
1039.984	-2777
1040.046	-3706
1040.109	-2494
1040.171	-3127
1040.233	-2904
1040.295	-2841
1040.358	-2592
1040.420	-2651
1040.482	-2181
1040.544	-3125
1040.606	-2141
1040.668	-2396
1040.730	-1957
1040.792	-2591
1040.854	-2511
1040.916	-2977
1040.978	-2625
1041.040	-2411
1041.102	-2531
1041.164	-2941
1041.225	-2849
1041.287	-2782
1041.349	-3128
1041.411	-3316
1041.472	-3106
1041.534	-2427
1041.596	-2584
1041.657	-2334
1041.719	-2161
1041.781	-2068
1041.842	-2194
1041.904	-2604
1041.965	-2792
1042.027	-2948
1042.088	-2728
1042.150	-3141
1042.211	-2663
1042.272	-1807
1042.334	-2690
1042.395	-3641
1042.456	-2912
1042.518	-2157
1042.579	-1570
1042.640	-2814
1042.701	-2365
1042.763	-2286
1042.824	-2200
1042.885	-3136
1042.946	-2246
1043.007	-2901
1043.068	-3726
1043.129	-2489
1043.190	-3042
1043.251	-2096
1043.312	-3350
1043.373	-2681
1043.434	-2216
1043.495	-3008
1043.556	-2197
1043.616	-2304
1043.677	-2821
1043.738	-1945
1043.799	-2043
1043.859	-2186
1043.920	-2773
1043.981	-2473
1044.041	-1980
1044.102	-2523
1044.162	-2338
1044.223	-2384
1044.284	-2064
1044.344	-2920
1044.405	-1962
1044.465	-2596
1044.525	-2555
1044.586	-2443
1044.646	-2173
1044.707	-2256
1044.767	-2308
1044.827	-2713
1044.887	-2402
1044.948	-2405
1045.008	-2853
1045.068	-2427
1045.128	-2305
1045.188	-3616
1045.249	-1784
1045.309	-1957
1045.369	-1598
1045.429	-3019
1045.489	-2105
1045.549	-2657
1045.609	-3063
1045.669	-2525
1045.729	-1904
1045.789	-1925
1045.848	-2213
1045.908	-2376
1045.968	-1947
1046.028	-1914
1046.088	-2239
1046.147	-2021
1046.207	-2274
1046.267	-1806
1046.326	-2488
1046.386	-2320
1046.446	-1632
1046.505	-2250
1046.565	-669
1046.624	-1249
1046.684	-1406
1046.743	-1616
1046.803	-1050
1046.862	-906
1046.922	0
