'Start Wavelength	183.907
'End Wavelength	1046.922
'Gate Delay	5.000
'Gate Width (ms)	1.050
'Laser Output Level	0.000
'X Position	0.000
'Y Position	0.000
'Z Position	0.000
'Grid Point Number	1.000
'Shot Number	100.000
183.907	1383.000
183.977	-217.000
184.047	944
184.116	389
184.186	40
184.256	-270
184.325	492
184.395	-717
184.465	541
184.534	-234
184.604	-393
184.674	105
184.743	-234
184.813	1319
184.883	-233
184.952	-16
185.022	1037
185.092	22
185.161	338
185.231	84
185.301	-655
185.370	381
185.440	-308
185.509	-491
185.579	197
185.649	225
185.718	148
185.788	673
185.857	176
185.927	-246
185.996	678
186.066	521
186.136	-629
186.205	-367
186.275	175
186.344	137
186.414	493
186.483	-433
186.553	1433
186.622	598
186.692	227
186.761	-690
186.831	1000
186.900	-288
186.970	533
187.039	533
187.109	729
187.178	-30
187.248	780
187.317	495
187.387	208
187.456	247
187.526	114
187.595	308
187.664	430
187.734	-218
187.803	71
187.873	439
187.942	1257
188.012	737
188.081	895
188.150	-134
188.220	435
188.289	996
188.358	443
188.428	808
188.497	42
188.567	920
188.636	52
188.705	266
188.775	714
188.844	-441
188.913	1131
188.983	-260
189.052	528
189.121	-415
189.191	294
189.260	193
189.329	318
189.399	340
189.468	696
189.537	-1017
189.606	453
189.676	-68
189.745	735
189.814	764
189.883	286
189.953	-242
190.022	1241
190.091	518
190.161	2061
190.230	565
190.299	253
190.368	192
190.437	594
190.507	709
190.576	730
190.645	883
190.714	269
190.783	628
190.853	1108
190.922	159
190.991	442
191.060	384
191.129	-44
191.198	1415
191.268	809
191.337	284
191.406	1349
191.475	58
191.544	326
191.613	465
191.682	-262
191.752	203
191.821	276
191.890	-114
191.959	1744
192.028	63
192.097	501
192.166	956
192.235	479
192.304	307
192.373	712
192.442	-199
192.511	949
192.580	473
192.650	424
192.719	334
192.788	648
192.857	51
192.926	499
192.995	114
193.064	1341
193.133	1793
193.202	723
193.271	932
193.340	1210
193.409	1289
193.478	1762
193.547	1192
193.615	2548
193.684	2113
193.753	1701
193.822	1093
193.891	107
193.960	271
194.029	511
194.098	1234
194.167	848
194.236	1394
194.305	1614
194.374	316
194.443	572
194.512	593
194.580	825
194.649	511
194.718	1248
194.787	1172
194.856	392
194.925	1219
194.994	117
195.062	1427
195.131	716
195.200	1036
195.269	1248
195.338	984
195.407	613
195.475	465
195.544	1927
195.613	804
195.682	566
195.751	814
195.819	1053
195.888	925
195.957	1429
196.026	1198
196.094	1994
196.163	1752
196.232	1406
196.301	990
196.369	654
196.438	934
196.507	234
196.576	452
196.644	1618
196.713	834
196.782	-84
196.850	307
196.919	1356
196.988	802
197.056	386
197.125	1258
197.194	1000
197.262	260
197.331	920
197.400	942
197.468	722
197.537	470
197.606	932
197.674	1670
197.743	1983
197.812	985
197.880	1991
197.949	1027
198.017	1685
198.086	663
198.155	707
198.223	877
198.292	1901
198.360	1628
198.429	987
198.497	1107
198.566	1440
198.635	1401
198.703	1143
198.772	1189
198.840	2127
198.909	2249
198.977	2011
199.046	331
199.114	1271
199.183	1433
199.251	784
199.320	342
199.388	1092
199.457	231
199.525	1009
199.594	1119
199.662	975
199.731	969
199.799	971
199.867	1196
199.936	1299
200.004	743
200.073	1021
200.141	-9
200.210	1227
200.278	870
200.346	939
200.415	1337
200.483	1909
200.552	1211
200.620	1477
200.688	1683
200.757	716
200.825	846
200.893	392
200.962	1030
201.030	486
201.098	650
201.167	779
201.235	687
201.303	1263
201.372	1022
201.440	1347
201.508	2237
201.577	634
201.645	833
201.713	913
201.781	934
201.850	1511
201.918	703
201.986	1398
202.055	1545
202.123	1751
202.191	1259
202.259	1226
202.327	434
202.396	1116
202.464	487
202.532	1491
202.600	3037
202.669	1696
202.737	566
202.805	1118
202.873	1038
202.941	2059
203.009	917
203.078	1157
203.146	1075
203.214	211
203.282	1005
203.350	1539
203.418	965
203.487	1503
203.555	355
203.623	671
203.691	1260
203.759	1214
203.827	624
203.895	1476
203.963	596
204.031	426
204.099	926
204.168	1818
204.236	1016
204.304	280
204.372	849
204.440	208
204.508	122
204.576	1012
204.644	695
204.712	1145
204.780	1367
204.848	1155
204.916	1043
204.984	1405
205.052	1055
205.120	1273
205.188	684
205.256	1542
205.324	1242
205.392	1087
205.460	1355
205.528	563
205.596	1029
205.664	899
205.732	899
205.799	2147
205.867	4300
205.935	955
206.003	1823
206.071	1596
206.139	1002
206.207	1864
206.275	1790
206.343	931
206.411	777
206.478	1779
206.546	893
206.614	1863
206.682	1226
206.750	1732
206.818	2218
206.885	1796
206.953	518
207.021	2082
207.089	1451
207.157	1091
207.225	2079
207.292	1453
207.360	1498
207.428	1257
207.496	991
207.563	1427
207.631	894
207.699	1010
207.767	1143
207.834	1744
207.902	1072
207.970	874
208.038	1743
208.105	1143
208.173	1962
208.241	2282
208.309	1748
208.376	1817
208.444	2163
208.512	1475
208.579	1898
208.647	2694
208.715	2528
208.782	919
208.850	908
208.918	1591
208.985	1907
209.053	2408
209.120	2014
209.188	1764
209.256	1453
209.323	1317
209.391	2213
209.459	3028
209.526	2160
209.594	1570
209.661	1443
209.729	2378
209.796	2012
209.864	2742
209.932	878
209.999	3254
210.067	1706
210.134	2042
210.202	1722
210.269	2186
210.337	1869
210.404	2518
210.472	1809
210.539	2305
210.607	1188
210.674	1732
210.742	2040
210.809	1968
210.877	2572
210.944	2768
211.012	1016
211.079	3534
211.146	2404
211.214	2417
211.281	2933
211.349	2854
211.416	3447
211.484	2167
211.551	1975
211.618	2641
211.686	2169
211.753	1965
211.821	1934
211.888	2043
211.955	2342
212.023	2285
212.090	1143
212.157	2218
212.225	1700
212.292	3471
212.359	5179
212.427	9071
212.494	5823
212.561	3189
212.629	2975
212.696	1982
212.763	2662
212.831	2567
212.898	2421
212.965	1659
213.032	1718
213.100	2915
213.167	2103
213.234	3693
213.301	2050
213.369	2267
213.436	2326
213.503	2430
213.570	2493
213.638	2191
213.705	1708
213.772	1305
213.839	2204
213.906	3134
213.973	2173
214.041	2675
214.108	2877
214.175	2694
214.242	2420
214.309	2351
214.376	1988
214.444	2644
214.511	2438
214.578	2209
214.645	2337
214.712	2930
214.779	2746
214.846	1933
214.913	3604
214.980	3409
215.048	3513
215.115	3570
215.182	2645
215.249	3085
215.316	2204
215.383	2969
215.450	1923
215.517	2364
215.584	1060
215.651	2358
215.718	1920
215.785	1631
215.852	1571
215.919	2411
215.986	2090
216.053	2606
216.120	1166
216.187	2491
216.254	2060
216.321	2861
216.388	2285
216.455	2338
216.522	2279
216.589	2927
216.656	3817
216.722	4431
216.789	3549
216.856	4371
216.923	3215
216.990	3341
217.057	3368
217.124	3958
217.191	4051
217.258	5332
217.324	5742
217.391	5328
217.458	4432
217.525	3912
217.592	3648
217.659	2310
217.725	2923
217.792	2528
217.859	3881
217.926	1993
217.993	1539
218.059	2167
218.126	2458
218.193	2181
218.260	1509
218.327	1749
218.393	1865
218.460	2631
218.527	848
218.594	2032
218.660	2853
218.727	3525
218.794	1247
218.860	2768
218.927	1351
218.994	1725
219.061	1439
219.127	2625
219.194	2606
219.261	2055
219.327	1430
219.394	2021
219.461	246
219.527	2061
219.594	1794
219.661	1403
219.727	1143
219.794	2496
219.860	1255
219.927	2703
219.994	3296
220.060	5276
220.127	4137
220.193	3542
220.260	3154
220.326	5500
220.393	6751
220.460	7881
220.526	6014
220.593	3737
220.659	4968
220.726	4303
220.792	6432
220.859	7500
220.925	10842
220.992	12244
221.058	11440
221.125	9442
221.191	6941
221.258	3947
221.324	3613
221.391	3563
221.457	2171
221.524	3388
221.590	2253
221.657	6805
221.723	5171
221.789	5458
221.856	4882
221.922	2616
221.989	2935
222.055	3063
222.121	1658
222.188	3810
222.254	1880
222.321	1859
222.387	1150
222.453	1411
222.520	1525
222.586	975
222.652	2154
222.719	1590
222.785	2498
222.851	1667
222.918	1779
222.984	1202
223.050	1483
223.116	1145
223.183	2656
223.249	1030
223.315	894
223.382	1854
223.448	528
223.514	1014
223.580	1551
223.647	864
223.713	760
223.779	1152
223.845	1891
223.911	2034
223.978	909
224.044	2160
224.110	1230
224.176	1536
224.242	1232
224.309	740
224.375	1342
224.441	1045
224.507	1389
224.573	945
224.639	1849
224.705	1424
224.772	1912
224.838	1157
224.904	2229
224.970	1243
225.036	1360
225.102	927
225.168	1725
225.234	2104
225.300	2256
225.366	2091
225.432	1424
225.499	1464
225.565	2045
225.631	1984
225.697	2343
225.763	3005
225.829	2095
225.895	3898
225.961	3546
226.027	4208
226.093	3117
226.159	5020
226.225	6406
226.291	12265
226.357	17130
226.423	11278
226.489	6346
226.554	4641
226.620	4327
226.686	5491
226.752	7618
226.818	12603
226.884	19745
226.950	18043
227.016	9839
227.082	6935
227.148	4932
227.214	4193
227.279	2960
227.345	3004
227.411	3424
227.477	3928
227.543	7142
227.609	7127
227.674	5085
227.740	3457
227.806	2707
227.872	3247
227.938	3010
228.003	4214
228.069	1694
228.135	2018
228.201	1744
228.267	2099
228.332	1867
228.398	1150
228.464	1395
228.530	1915
228.595	1328
228.661	1561
228.727	2712
228.792	3351
228.858	1950
228.924	1093
228.990	3873
229.055	1426
229.121	3190
229.187	2106
229.252	1781
229.318	1657
229.384	2102
229.449	2352
229.515	-552
229.581	511
229.646	2477
229.712	2682
229.777	2652
229.843	3653
229.909	4333
229.974	3987
230.040	3289
230.105	2943
230.171	2628
230.236	3976
230.302	4512
230.368	4292
230.433	2859
230.499	2881
230.564	3698
230.630	1786
230.695	2284
230.761	2650
230.826	1027
230.892	3730
230.957	1608
231.023	1738
231.088	1952
231.154	2447
231.219	2608
231.284	2447
231.350	2902
231.415	1554
231.481	2309
231.546	975
231.612	1810
231.677	1404
231.742	1250
231.808	2887
231.873	1100
231.939	1034
232.004	3587
232.069	2840
232.135	1172
232.200	1495
232.265	2972
232.331	1357
232.396	1883
232.461	1534
232.527	1415
232.592	1056
232.657	1759
232.723	2442
232.788	2052
232.853	1687
232.918	2441
232.984	902
233.049	1617
233.114	2456
233.179	1842
233.245	3770
233.310	4207
233.375	655
233.440	1169
233.506	879
233.571	1205
233.636	1517
233.701	1543
233.766	2098
233.832	2655
233.897	2237
233.962	1069
234.027	3756
234.092	2930
234.157	1596
234.222	1927
234.288	3255
234.353	6334
234.418	6527
234.483	4925
234.548	4060
234.613	2891
234.678	3710
234.743	2874
234.808	8238
234.873	4450
234.938	3799
235.004	3309
235.069	2881
235.134	2033
235.199	3038
235.264	2187
235.329	1353
235.394	2586
235.459	3436
235.524	2128
235.589	2660
235.654	1860
235.719	1012
235.784	2847
235.849	2555
235.913	3895
235.978	4795
236.043	5387
236.108	2840
236.173	2131
236.238	3854
236.303	1973
236.368	2164
236.433	4158
236.498	5444
236.563	5575
236.627	9206
236.692	24407
236.757	22935
236.822	10985
236.887	8050
236.952	6962
237.017	4605
237.081	7207
237.146	7241
237.211	15582
237.276	24582
237.341	33242
237.405	21615
237.470	10327
237.535	6550
237.600	4855
237.664	4878
237.729	2282
237.794	4700
237.859	9923
237.923	6740
237.988	3406
238.053	5011
238.118	4110
238.182	8223
238.247	9686
238.312	4362
238.376	3584
238.441	2567
238.506	3438
238.570	1334
238.635	3896
238.700	2948
238.764	1948
238.829	4406
238.893	5278
238.958	4195
239.023	3719
239.087	2374
239.152	3135
239.216	2592
239.281	2350
239.346	2713
239.410	1849
239.475	2289
239.539	7873
239.604	6784
239.668	3356
239.733	3225
239.797	5414
239.862	11586
239.926	10807
239.991	6315
240.055	2702
240.120	2735
240.184	2407
240.249	1951
240.313	2717
240.378	2300
240.442	4788
240.507	8301
240.571	2695
240.635	4220
240.700	5443
240.764	3107
240.829	2090
240.893	1294
240.957	2697
241.022	4836
241.086	9300
241.151	4631
241.215	2251
241.279	3403
241.344	4801
241.408	3230
241.472	2931
241.537	4839
241.601	2775
241.665	2670
241.730	2715
241.794	4298
241.858	2840
241.922	3281
241.987	2856
242.051	2229
242.115	2005
242.179	3421
242.244	1917
242.308	3828
242.372	3255
242.436	2631
242.501	3603
242.565	2033
242.629	1902
242.693	3646
242.757	2017
242.822	2468
242.886	3305
242.950	3727
243.014	1656
243.078	3408
243.142	3787
243.206	2250
243.271	3193
243.335	3279
243.399	4835
243.463	13054
243.527	33745
243.591	12772
243.655	6047
243.719	3740
243.783	4281
243.847	5891
243.911	8638
243.975	8419
244.040	6520
244.104	5104
244.168	3327
244.232	4739
244.296	6310
244.360	7393
244.424	3283
244.488	3726
244.552	3283
244.615	1953
244.679	2142
244.743	3453
244.807	3318
244.871	2426
244.935	2745
244.999	1672
245.063	2262
245.127	3746
245.191	4736
245.255	6173
245.319	4411
245.383	2893
245.446	3714
245.510	2385
245.574	2989
245.638	3538
245.702	1163
245.766	6127
245.829	5089
245.893	3267
245.957	2661
246.021	3859
246.085	3071
246.149	3779
246.212	8500
246.276	11271
246.340	6181
246.404	4383
246.467	4783
246.531	6344
246.595	5903
246.659	4226
246.722	2192
246.786	4852
246.850	4482
246.913	6007
246.977	2299
247.041	3841
247.104	4443
247.168	4229
247.232	7634
247.295	13203
247.359	7967
247.423	4349
247.486	7283
247.550	5675
247.614	3652
247.677	5867
247.741	4103
247.804	3328
247.868	3935
247.932	6466
247.995	14733
248.059	7042
248.122	2555
248.186	5886
248.249	7227
248.313	21312
248.376	24118
248.440	16024
248.503	6589
248.567	7209
248.630	8082
248.694	12407
248.757	14563
248.821	23380
248.884	18017
248.948	14193
249.011	19892
249.075	26577
249.138	24869
249.202	12543
249.265	7869
249.328	9060
249.392	6796
249.455	6814
249.519	5160
249.582	6640
249.645	9230
249.709	7936
249.772	5193
249.835	5946
249.899	5756
249.962	5934
250.025	4987
250.089	10071
250.152	14181
250.215	7827
250.279	6185
250.342	5967
250.405	6755
250.468	5011
250.532	7493
250.595	10906
250.658	30231
250.721	50924
250.785	22918
250.848	13482
250.911	7803
250.974	8027
251.038	8051
251.101	16011
251.164	9550
251.227	10533
251.290	9247
251.354	14058
251.417	41422
251.480	47140
251.543	34786
251.606	68721
251.669	62041
251.732	29699
251.795	25599
251.859	25709
251.922	47265
251.985	33580
252.048	14597
252.111	10840
252.174	9399
252.237	15884
252.300	29618
252.363	34528
252.426	59042
252.489	29953
252.552	16128
252.615	11143
252.678	11641
252.741	23589
252.804	31816
252.867	61874
252.930	42013
252.993	23254
253.056	14120
253.119	11466
253.182	8943
253.245	15131
253.308	11711
253.371	9678
253.434	9455
253.497	9684
253.559	15140
253.622	12166
253.685	14177
253.748	16364
253.811	7829
253.874	8540
253.937	8319
254.000	6984
254.062	10893
254.125	16238
254.188	16414
254.251	14444
254.314	7299
254.376	11327
254.439	14861
254.502	12366
254.565	11126
254.628	19386
254.690	12694
254.753	7504
254.816	6455
254.878	7204
254.941	10411
255.004	11406
255.067	5454
255.129	6763
255.192	4246
255.255	4024
255.317	4406
255.380	4282
255.443	1902
255.505	3156
255.568	2601
255.631	3616
255.693	3542
255.756	2256
255.819	3832
255.881	2802
255.944	2790
256.006	3404
256.069	2317
256.132	2335
256.194	3304
256.257	8351
256.319	6670
256.382	6144
256.444	4727
256.507	4095
256.569	3535
256.632	4193
256.694	6110
256.757	15397
256.819	44643
256.882	21609
256.944	8960
257.007	7197
257.069	7753
257.132	4976
257.194	5467
257.257	4715
257.319	4783
257.381	5361
257.444	12974
257.506	44112
257.569	58091
257.631	30577
257.693	15290
257.756	8601
257.818	6735
257.880	4778
257.943	4166
258.005	3803
258.067	3696
258.130	4709
258.192	4887
258.254	8654
258.317	5400
258.379	3617
258.441	8085
258.503	9027
258.566	8401
258.628	14473
258.690	4112
258.753	6091
258.815	9276
258.877	5456
258.939	4007
259.001	3680
259.064	4217
259.126	4533
259.188	5593
259.250	4331
259.312	5718
259.375	11509
259.437	8669
259.499	4096
259.561	3663
259.623	4331
259.685	3598
259.747	4071
259.809	9184
259.872	17836
259.934	23993
259.996	26643
260.058	8942
260.120	4345
260.182	4102
260.244	3377
260.306	2549
260.368	3903
260.430	2716
260.492	7527
260.554	12670
260.616	10769
260.678	13064
260.740	19159
260.802	6017
260.864	5469
260.926	3753
260.988	4637
261.050	3211
261.112	9389
261.174	21068
261.236	15677
261.298	5821
261.359	8026
261.421	12479
261.483	5063
261.545	4232
261.607	2856
261.669	3645
261.731	5184
261.793	13412
261.854	6877
261.916	5472
261.978	3924
262.040	5618
262.102	4178
262.164	4709
262.225	5082
262.287	3867
262.349	6995
262.411	7483
262.472	4265
262.534	4552
262.596	11689
262.658	3893
262.719	3331
262.781	4723
262.843	10521
262.904	6447
262.966	4488
263.028	5717
263.090	19873
263.151	54421
263.213	21133
263.275	12029
263.336	5947
263.398	4828
263.459	3533
263.521	2838
263.583	8095
263.644	5852
263.706	3639
263.767	2314
263.829	2973
263.891	1532
263.952	1989
264.014	1365
264.075	4490
264.137	12021
264.198	5853
264.260	1307
264.321	3454
264.383	6567
264.444	17467
264.506	6206
264.567	4343
264.629	6961
264.690	14645
264.752	6648
264.813	4545
264.875	2524
264.936	3620
264.998	2752
265.059	2212
265.120	3994
265.182	5286
265.243	24708
265.305	29276
265.366	7767
265.427	4053
265.489	5065
265.550	2727
265.611	3018
265.673	3464
265.734	2993
265.795	3197
265.857	985
265.918	3107
265.979	7185
266.040	36954
266.102	36344
266.163	11707
266.224	8658
266.286	5287
266.347	3114
266.408	2899
266.469	3529
266.530	2625
266.592	2645
266.653	5061
266.714	8968
266.775	3994
266.836	2666
266.898	2969
266.959	4564
267.020	3794
267.081	3631
267.142	2514
267.203	2480
267.264	1605
267.326	4151
267.387	2118
267.448	1812
267.509	3293
267.570	2687
267.631	2938
267.692	1312
267.753	2684
267.814	2025
267.875	4994
267.936	10325
267.997	7865
268.058	6500
268.119	3302
268.180	3034
268.241	2712
268.302	3075
268.363	2681
268.424	2967
268.485	3575
268.546	1311
268.607	2355
268.668	2480
268.729	1517
268.790	2226
268.851	2563
268.912	6776
268.972	8923
269.033	4752
269.094	2762
269.155	2422
269.216	1729
269.277	1786
269.338	2223
269.398	2497
269.459	3210
269.520	4254
269.581	5723
269.642	6970
269.702	5112
269.763	3412
269.824	3689
269.885	4025
269.945	6633
270.006	4146
270.067	2647
270.128	1860
270.188	2926
270.249	2440
270.310	2212
270.370	2550
270.431	1975
270.492	1334
270.553	2522
270.613	5533
270.674	11370
270.734	4855
270.795	2501
270.856	3406
270.916	4325
270.977	2703
271.038	3851
271.098	3928
271.159	5508
271.219	5532
271.280	2656
271.340	3002
271.401	2701
271.462	6630
271.522	4873
271.583	2518
271.643	3445
271.704	2907
271.764	4006
271.825	7999
271.885	22823
271.946	30635
272.006	12615
272.066	13856
272.127	24487
272.187	10813
272.248	6215
272.308	5963
272.369	16208
272.429	9832
272.489	7832
272.550	9200
272.610	9009
272.671	7711
272.731	5418
272.791	8205
272.852	6144
272.912	5740
272.972	3352
273.033	3215
273.093	5759
273.153	5423
273.214	4521
273.274	4534
273.334	12423
273.394	23918
273.455	12105
273.515	10537
273.575	23310
273.635	10991
273.696	12038
273.756	21698
273.816	10524
273.876	6363
273.936	10268
273.997	19998
274.057	7163
274.117	4791
274.177	6756
274.237	27943
274.297	25732
274.358	16822
274.418	18048
274.478	15606
274.538	7009
274.598	4336
274.658	14241
274.718	19564
274.778	8360
274.838	4877
274.898	8299
274.958	25383
275.018	21990
275.078	16499
275.138	7162
275.198	3956
275.258	3493
275.318	3621
275.378	7911
275.438	10120
275.498	5157
275.558	11497
275.618	24972
275.678	16871
275.738	10692
275.798	9951
275.858	6132
275.918	2453
275.978	4082
276.038	4080
276.098	3265
276.157	5537
276.217	19412
276.277	9512
276.337	6918
276.397	3563
276.457	4460
276.517	3913
276.576	2973
276.636	2288
276.696	4880
276.756	10692
276.815	8965
276.875	4735
276.935	4847
276.995	4511
277.055	3240
277.114	3080
277.174	4408
277.234	13856
277.293	6610
277.353	3879
277.413	3467
277.472	3008
277.532	3619
277.592	4030
277.651	12764
277.711	27326
277.771	10071
277.830	29710
277.890	26933
277.950	16077
278.009	43886
278.069	18848
278.128	18974
278.188	28408
278.248	12892
278.307	27983
278.367	19830
278.426	5740
278.486	4272
278.545	3741
278.605	3681
278.664	3724
278.724	4054
278.783	8073
278.843	22823
278.902	7724
278.962	5309
279.021	6308
279.081	7192
279.140	7027
279.199	5896
279.259	6629
279.318	6719
279.378	8676
279.437	14176
279.496	42231
279.556	110117
279.615	98810
279.675	30075
279.734	16783
279.793	21840
279.853	32730
279.912	15010
279.971	8245
280.031	7566
280.090	12275
280.149	22876
280.208	19225
280.268	74767
280.327	84438
280.386	23207
280.445	15989
280.505	15955
280.564	8368
280.623	6605
280.682	8439
280.742	14114
280.801	4985
280.860	4662
280.919	3775
280.978	3735
281.037	2797
281.097	2855
281.156	3892
281.215	3248
281.274	3460
281.333	14197
281.392	12680
281.451	4124
281.510	3386
281.569	2495
281.628	2023
281.688	2245
281.747	3969
281.806	4404
281.865	2438
281.924	2835
281.983	3353
282.042	2215
282.101	2221
282.160	3406
282.219	1800
282.278	3425
282.337	9622
282.396	7515
282.454	3432
282.513	5254
282.572	14298
282.631	10206
282.690	3383
282.749	2863
282.808	4088
282.867	3632
282.926	3246
282.985	2278
283.043	2663
283.102	3014
283.161	3302
283.220	6063
283.279	14890
283.338	6112
283.396	3293
283.455	3458
283.514	3906
283.573	6195
283.631	5419
283.690	3218
283.749	3724
283.808	7165
283.866	9604
283.925	3413
283.984	3498
284.043	5818
284.101	5383
284.160	4590
284.219	5056
284.277	5285
284.336	6624
284.395	20575
284.453	18159
284.512	8003
284.570	10003
284.629	10473
284.688	9229
284.746	11369
284.805	12433
284.863	15813
284.922	20736
284.981	24421
285.039	34186
285.098	54437
285.156	96903
285.215	101584
285.273	99256
285.332	103275
285.390	67881
285.449	43893
285.507	30707
285.566	22431
285.624	17483
285.683	13692
285.741	10859
285.799	9708
285.858	9095
285.916	8201
285.975	7249
286.033	6265
286.091	4747
286.150	4687
286.208	3862
286.267	4873
286.325	5216
286.383	7298
286.442	6959
286.500	3229
286.558	3262
286.616	3237
286.675	4928
286.733	4270
286.791	4253
286.850	5409
286.908	5355
286.966	9660
287.024	4619
287.083	3228
287.141	3658
287.199	3593
287.257	4982
287.315	4829
287.374	3487
287.432	8705
287.490	7180
287.548	4121
287.606	2708
287.664	3949
287.723	4595
287.781	6970
287.839	3775
287.897	4355
287.955	5852
288.013	9055
288.071	20525
288.129	64080
288.187	153874
288.245	83926
288.303	29713
288.361	17404
288.419	12759
288.477	9175
288.535	6753
288.593	4394
288.651	4241
288.709	3224
288.767	3564
288.825	2987
288.883	2536
288.941	3084
288.999	2101
289.057	3201
289.115	2693
289.173	2783
289.231	3287
289.289	3735
289.346	2333
289.404	3005
289.462	5494
289.520	5824
289.578	3232
289.636	1745
289.694	2006
289.751	2405
289.809	2130
289.867	1598
289.925	3225
289.983	4200
290.040	2507
290.098	2213
290.156	2691
290.214	3475
290.271	2227
290.329	2672
290.387	1984
290.444	1577
290.502	1807
290.560	2031
290.617	2689
290.675	2855
290.733	1686
290.790	2464
290.848	2158
290.906	2910
290.963	2403
291.021	1814
291.078	1518
291.136	2437
291.194	7921
291.251	17721
291.309	5420
291.366	2833
291.424	1704
291.481	3165
291.539	2811
291.596	3720
291.654	1982
291.711	2209
291.769	2368
291.826	5944
291.884	3793
291.941	1903
291.999	2068
292.056	2940
292.114	2870
292.171	1899
292.228	1586
292.286	3639
292.343	5841
292.401	8601
292.458	5644
292.515	3408
292.573	4796
292.630	4927
292.687	3578
292.745	3158
292.802	3947
292.859	10971
292.917	16728
292.974	10867
293.031	4169
293.089	2393
293.146	2447
293.203	2590
293.260	1699
293.318	3114
293.375	4536
293.432	3312
293.489	2259
293.546	2038
293.604	3027
293.661	9288
293.718	24066
293.775	14022
293.832	7330
293.889	6244
293.947	5725
294.004	3929
294.061	3923
294.118	8866
294.175	17319
294.232	24121
294.289	10669
294.346	5628
294.403	4701
294.460	4454
294.517	3509
294.574	3118
294.631	2873
294.688	3856
294.745	7746
294.802	26553
294.859	35352
294.916	13236
294.973	8087
295.030	6550
295.087	6281
295.144	3149
295.201	3310
295.258	3196
295.315	4354
295.372	9328
295.429	18833
295.486	9911
295.542	5898
295.599	14470
295.656	26501
295.713	16512
295.770	19196
295.827	8336
295.883	4680
295.940	4230
295.997	7059
296.054	7057
296.111	3291
296.167	2813
296.224	2847
296.281	2943
296.338	2960
296.394	1763
296.451	2765
296.508	9182
296.564	17594
296.621	12361
296.678	19588
296.734	31840
296.791	13345
296.848	7634
296.904	7375
296.961	15529
297.018	21687
297.074	17236
297.131	7417
297.187	5463
297.244	7124
297.301	18576
297.357	34626
297.414	14121
297.470	6559
297.527	4703
297.583	3772
297.640	3993
297.696	2519
297.753	3029
297.809	2504
297.866	1637
297.922	2135
297.979	2315
298.035	3089
298.092	4615
298.148	11470
298.204	13083
298.261	6880
298.317	10618
298.374	25875
298.430	17367
298.486	8027
298.543	5228
298.599	6070
298.656	6786
298.712	10362
298.768	25988
298.824	21326
298.881	7047
298.937	4029
298.993	4090
299.050	5042
299.106	5383
299.162	3631
299.218	4504
299.275	3203
299.331	4247
299.387	6970
299.443	22579
299.500	29682
299.556	15191
299.612	6869
299.668	7082
299.724	11218
299.780	13064
299.837	6362
299.893	7600
299.949	22033
300.005	31023
300.061	22559
300.117	37422
300.173	18838
300.229	8947
300.285	9454
300.341	12907
300.397	7300
300.453	4697
300.510	4059
300.566	5037
300.622	7141
300.678	18753
300.734	33796
300.790	23452
300.845	25595
300.901	19445
300.957	28132
301.013	20748
301.069	7677
301.125	6663
301.181	6948
301.237	4984
301.293	3510
301.349	2906
301.405	2852
301.461	2687
301.516	3807
301.572	4144
301.628	8642
301.684	7182
301.740	8529
301.796	15142
301.851	10757
301.907	16713
301.963	17284
302.019	23710
302.074	55879
302.130	60484
302.186	29359
302.242	12730
302.297	8961
302.353	9042
302.409	13697
302.464	14710
302.520	10822
302.576	23255
302.631	28133
302.687	17886
302.743	7844
302.798	3917
302.854	3882
302.910	4154
302.965	5584
303.021	9837
303.076	9876
303.132	11281
303.187	14049
303.243	7500
303.299	5261
303.354	4265
303.410	3484
303.465	3044
303.521	2934
303.576	3850
303.632	4320
303.687	6748
303.743	18433
303.798	19077
303.853	8300
303.909	5173
303.964	4206
304.020	6499
304.075	11905
304.130	9351
304.186	16328
304.241	18654
304.297	14353
304.352	8666
304.358	8321
304.407	5526
304.449	5554
304.463	5566
304.518	4986
304.539	4799
304.573	4490
304.629	4137
304.630	4199
304.684	7273
304.720	11945
304.739	14198
304.794	23165
304.811	20014
304.850	12339
304.902	7301
304.905	6995
304.960	4678
304.992	4866
305.015	4985
305.071	4985
305.083	4731
305.126	3758
305.173	3119
305.181	3037
305.236	2768
305.264	2986
305.292	3252
305.347	4885
305.354	5009
305.402	5750
305.445	5915
305.457	5934
305.512	7172
305.535	6970
305.567	6749
305.622	6804
305.626	7009
305.678	12713
305.716	22288
305.733	25236
305.788	29190
305.807	25350
305.843	19168
305.897	22552
305.898	22567
305.953	22995
305.988	16310
306.008	12898
306.063	9149
306.078	8334
306.118	6422
306.168	4385
306.173	4216
306.228	4214
306.259	3489
306.283	3024
306.338	3529
306.349	3487
306.393	3531
306.440	5173
306.448	5418
306.503	4955
306.530	5463
306.558	7806
306.613	16096
306.620	17344
306.668	24084
306.711	27835
306.723	27492
306.778	22115
306.801	16950
306.833	11391
306.888	6241
306.892	5993
306.943	4626
306.982	4660
306.997	4687
307.052	4379
307.072	4254
307.107	4678
307.162	5704
307.163	5733
307.217	9858
307.253	12136
307.272	12472
307.327	12585
307.343	11854
307.381	10270
307.434	8959
307.436	9255
307.491	19081
307.524	26939
307.546	27928
307.600	26924
307.614	24176
307.655	15309
307.704	7965
307.710	7842
307.765	10263
307.795	12342
307.819	14760
307.874	23760
307.885	24255
307.929	19675
307.975	13827
307.984	14083
308.038	19858
308.065	24552
308.093	41438
308.148	82475
308.156	90952
308.202	133217
308.246	163164
308.257	158614
308.312	94120
308.336	67116
308.366	51185
308.421	33295
308.426	31519
308.475	20399
308.517	14717
308.530	13973
308.585	11573
308.607	11312
308.639	11889
308.694	12668
308.697	12789
308.748	22557
308.787	32576
308.803	32076
308.857	24878
308.877	21109
308.912	18616
308.967	18168
308.967	18170
309.021	25541
309.058	31577
309.076	39487
309.130	67471
309.148	78089
309.185	126012
309.238	202160
309.239	202813
309.293	215093
309.328	207851
309.348	183707
309.402	100412
309.418	78095
309.457	57365
309.508	36943
309.511	36545
309.566	34516
309.598	34605
309.620	41244
309.674	60242
309.688	65488
309.729	62146
309.778	51980
309.783	50772
309.837	35058
309.868	27002
309.892	30122
309.946	39910
309.959	42962
310.001	52832
310.049	62193
310.055	60019
310.109	35488
310.139	21551
310.163	17633
310.218	11688
310.229	10641
310.272	9122
310.319	7823
310.326	7643
310.381	6377
310.409	5799
310.435	5711
310.489	5765
310.499	5773
310.543	6017
310.589	6190
310.598	6223
310.652	6504
310.679	6559
310.706	5943
310.760	4557
310.769	4365
310.814	3919
310.859	3452
310.868	3523
310.923	4045
310.948	4264
310.977	4929
311.031	6248
311.038	6425
311.085	6015
311.128	5424
311.139	5394
311.193	5284
311.218	5235
311.247	4856
311.301	4095
311.308	4004
311.356	4364
311.398	4658
311.410	4591
311.464	4244
311.488	4057
311.518	4180
311.572	4442
311.578	4472
311.626	6291
311.668	7892
311.680	7923
311.734	7828
311.758	7819
311.788	7765
311.842	7611
311.847	7580
311.896	9380
311.937	10945
311.950	10804
312.004	10094
312.027	9733
312.058	8174
312.112	5388
312.117	5105
312.165	5167
312.207	5213
312.297	7545
312.386	6488
312.476	6681
312.566	14224
312.656	6797
312.745	4131
312.835	5199
312.925	5785
313.015	5668
313.104	5994
313.194	4438
313.284	5144
313.374	7258
313.463	6129
313.553	4995
313.643	4590
313.732	4797
313.822	5045
313.912	5809
314.001	6076
314.091	7099
314.180	9275
314.270	8369
314.360	8888
314.449	8130
314.539	5394
314.628	4827
314.718	6743
314.808	7917
314.897	4649
314.987	6013
315.076	7660
315.166	9391
315.255	8475
315.345	8734
315.434	8992
315.524	7779
315.613	9305
315.703	12350
315.792	20453
315.881	65745
315.971	22228
316.060	16934
316.150	22157
316.239	22757
316.328	8988
316.418	5701
316.507	5520
316.597	7959
316.686	7430
316.775	10643
316.865	24259
316.954	7052
317.043	4660
317.133	5382
317.222	4021
317.311	4956
317.400	4956
317.490	8976
317.579	9342
317.668	8564
317.757	13007
317.847	31718
317.936	111481
318.025	40069
318.114	25113
318.203	14831
318.293	17715
318.382	36120
318.471	26280
318.560	31839
318.649	51828
318.738	12171
318.828	9627
318.917	9880
319.006	11824
319.095	26573
319.184	64576
319.273	36896
319.362	19561
319.451	7463
319.540	7137
319.629	15868
319.718	27138
319.807	12784
319.896	22490
319.985	79394
320.074	29402
320.163	9032
320.252	15167
320.341	12011
320.430	10542
320.519	15186
320.608	9089
320.697	8691
320.786	7997
320.875	9976
320.964	13076
321.053	20140
321.142	28683
321.230	28866
321.319	22379
321.408	49069
321.497	21494
321.586	20087
321.675	24140
321.764	22679
321.852	15829
321.941	28906
322.030	19103
322.119	21146
322.207	49990
322.296	36281
322.385	19833
322.474	23863
322.562	61019
322.651	31759
322.740	23212
322.829	31697
322.917	32894
323.006	19569
323.095	17152
323.183	13046
323.272	19330
323.361	30204
323.449	89857
323.538	29796
323.626	62528
323.715	37481
323.804	16281
323.892	57738
323.981	32121
324.069	11795
324.158	31347
324.246	28472
324.335	11894
324.424	18435
324.512	7381
324.601	10174
324.689	19358
324.778	35126
324.866	24662
324.954	7165
325.043	7450
325.131	13766
325.220	24806
325.308	27552
325.397	20364
325.485	11684
325.574	5377
325.662	5308
325.750	5934
325.839	4872
325.927	4549
326.015	6704
326.104	10090
326.192	15103
326.280	4996
326.369	5216
326.457	8838
326.545	14104
326.634	5934
326.722	4801
326.810	5169
326.898	4887
326.987	7143
327.075	13376
327.163	14774
327.251	7666
327.340	13573
327.428	18480
327.516	6108
327.604	6280
327.692	6361
327.781	6785
327.869	10804
327.957	7006
328.045	7101
328.133	4732
328.221	5911
328.309	5450
328.397	4126
328.485	6684
328.574	10161
328.662	31363
328.750	18350
328.838	7005
328.926	5051
329.014	4501
329.102	7708
329.190	17933
329.278	11548
329.366	4370
329.454	3731
329.542	4249
329.630	3912
329.718	4205
329.806	5881
329.893	6179
329.981	6589
330.069	10750
330.157	35338
330.245	93519
330.333	50081
330.421	10709
330.509	11620
330.597	36711
330.684	23773
330.772	9330
330.860	11647
330.948	15219
331.036	6802
331.123	3006
331.211	4592
331.299	4958
331.387	12647
331.475	22497
331.562	7301
331.650	4006
331.738	5445
331.825	7897
331.913	4185
332.001	4529
332.089	6132
332.176	12682
332.264	29426
332.352	22355
332.439	8036
332.527	5414
332.614	4361
332.702	7652
332.790	5813
332.877	14064
332.965	30121
333.052	10599
333.140	10070
333.228	25640
333.315	7346
333.403	6411
333.490	18626
333.578	17397
333.665	31339
333.753	14718
333.840	6022
333.928	7900
334.015	19820
334.103	27301
334.190	82596
334.278	22269
334.365	13183
334.452	11226
334.540	6973
334.627	8494
334.715	13862
334.802	25543
334.889	106422
334.977	104930
335.064	21073
335.151	9771
335.239	9352
335.326	12503
335.413	41211
335.501	52885
335.588	10651
335.675	7312
335.762	9856
335.850	16643
335.937	16019
336.024	33937
336.111	119251
336.199	55791
336.286	15633
336.373	8400
336.460	5729
336.547	5683
336.635	6977
336.722	6746
336.809	6103
336.896	9494
336.983	26989
337.070	60257
337.157	83419
337.245	65842
337.332	45879
337.419	7453
337.506	5723
337.593	7479
337.680	20262
337.767	58636
337.854	16810
337.941	19523
338.028	25235
338.115	8796
338.202	10185
338.289	19695
338.376	67619
338.463	21786
338.550	35146
338.637	35067
338.724	14079
338.811	21467
338.898	5514
338.984	4436
339.071	6754
339.158	7291
339.245	17569
339.332	11416
339.419	16056
339.506	13428
339.593	2990
339.679	4773
339.766	3762
339.853	5903
339.940	13148
340.027	4908
340.113	5599
340.200	7466
340.287	5842
340.374	6937
340.460	11764
340.547	5532
340.634	10148
340.720	34955
340.807	19860
340.894	4517
340.980	4944
341.067	4971
341.154	5124
341.240	8198
341.327	17964
341.414	7205
341.500	7419
341.587	4955
341.674	4697
341.760	12309
341.847	14112
341.933	5364
342.020	3509
342.106	3236
342.193	4873
342.279	9436
342.366	6987
342.452	12216
342.539	7164
342.625	16209
342.712	37673
342.798	15697
342.885	6640
342.971	3327
343.058	2812
343.144	3662
343.230	3350
343.317	4363
343.403	3762
343.490	3021
343.576	3233
343.662	4214
343.749	4886
343.835	5659
343.921	11529
344.008	54120
344.094	118286
344.180	27509
344.267	14126
344.353	38151
344.439	41133
344.525	18098
344.612	8230
344.698	5995
344.784	4616
344.870	3628
344.957	3622
345.043	7690
345.129	5440
345.215	11675
345.301	7705
345.387	4919
345.474	3075
345.560	3056
345.646	4792
345.732	4358
345.818	5958
345.904	4888
345.990	5848
346.076	4922
346.162	10677
346.249	5821
346.335	3559
346.421	4506
346.507	15374
346.593	50582
346.679	11885
346.765	4746
346.851	5320
346.937	4796
347.023	5175
347.108	5705
347.194	4844
347.280	3583
347.366	5939
347.452	18841
347.538	62120
347.624	46077
347.710	38929
347.796	7780
347.882	4683
347.967	4202
348.053	5946
348.139	4411
348.225	4060
348.311	3923
348.397	3340
348.482	5627
348.568	6108
348.654	4208
348.740	9173
348.825	8769
348.911	9956
348.997	28985
349.083	53731
349.168	9826
349.254	5299
349.340	4791
349.425	2586
349.511	5946
349.597	6603
349.682	12594
349.768	38729
349.854	17831
349.939	5209
350.025	3380
350.110	3275
350.196	4355
350.282	3106
350.367	3013
350.453	6808
350.538	6696
350.624	6377
350.709	6025
350.795	3539
350.880	4200
350.966	5745
351.051	8296
351.137	5459
351.222	4584
351.308	13879
351.393	36185
351.479	10693
351.564	4226
351.649	3708
351.735	3690
351.820	3142
351.906	3713
351.991	6589
352.076	23232
352.162	34455
352.247	8304
352.332	5928
352.418	10796
352.503	13509
352.588	51087
352.673	41286
352.759	10013
352.844	5277
352.929	6937
353.014	7842
353.100	6177
353.185	10854
353.270	15258
353.355	14432
353.441	5451
353.526	5546
353.611	13483
353.696	14963
353.781	9267
353.866	3814
353.952	5368
354.037	12901
354.122	28377
354.207	25421
354.292	9857
354.377	4728
354.462	3953
354.547	6571
354.632	5836
354.717	9653
354.802	11881
354.887	5572
354.972	3922
355.057	3044
355.142	2388
355.227	5566
355.312	8601
355.397	18507
355.482	44361
355.567	20809
355.652	16167
355.737	17162
355.822	45897
355.907	35739
355.991	6737
356.076	3912
356.161	4692
356.246	3466
356.331	5266
356.416	10699
356.501	69348
356.585	68309
356.670	11846
356.755	9731
356.840	12993
356.924	52846
357.009	163778
357.094	61257
357.179	15751
357.263	11168
357.348	11295
357.433	10339
357.517	10136
357.602	8450
357.687	6804
357.771	10939
357.856	25879
357.941	18012
358.025	37013
358.110	149132
358.195	68250
358.279	13052
358.364	10346
358.448	35000
358.533	87793
358.617	63316
358.702	61124
358.787	23593
358.871	13691
358.956	11681
359.040	4219
359.125	3821
359.209	4860
359.294	13209
359.378	20870
359.462	12924
359.547	6933
359.631	5442
359.716	3725
359.800	5247
359.885	7932
359.969	5420
360.053	5178
360.138	4510
360.222	7962
360.306	13345
360.391	10945
360.475	17607
360.559	38058
360.644	36261
360.728	25197
360.812	38710
360.896	101510
360.981	44867
361.065	25423
361.149	7845
361.233	7815
361.318	6349
361.402	8506
361.486	7015
361.570	4899
361.654	7607
361.739	17540
361.823	68210
361.907	98615
361.991	19497
362.075	13828
362.159	28432
362.243	22913
362.327	27134
362.411	36297
362.495	17525
362.580	8842
362.664	6747
362.748	7397
362.832	11011
362.916	18889
363.000	61254
363.084	129368
363.168	129939
363.252	32523
363.336	15199
363.420	17262
363.503	58232
363.587	63381
363.671	14122
363.755	9268
363.839	14930
363.923	8390
364.007	17356
364.091	19034
364.175	27065
364.258	99065
364.342	94143
364.426	131506
364.510	68221
364.594	26796
364.677	25376
364.761	87472
364.845	61006
364.929	24239
365.013	19223
365.096	16873
365.180	19896
365.264	24403
365.347	85386
365.431	36824
365.515	11369
365.598	5930
365.682	6214
365.766	10362
365.849	12449
365.933	7494
366.017	9450
366.100	7133
366.184	4130
366.267	5259
366.351	4445
366.435	4261
366.518	3827
366.602	3761
366.685	4733
366.769	6165
366.852	10646
366.936	16975
367.019	10140
367.103	8120
367.186	15120
367.270	6516
367.353	4001
367.436	6232
367.520	4201
367.603	6637
367.687	8950
367.770	17466
367.853	10237
367.937	28346
368.020	44151
368.104	12115
368.187	13475
368.270	18103
368.353	15221
368.437	20418
368.520	46547
368.603	28328
368.687	34636
368.770	62054
368.853	16042
368.936	16432
369.020	15464
369.103	7148
369.186	4876
369.269	6446
369.352	12272
369.436	15874
369.519	11513
369.602	5329
369.685	6835
369.768	5908
369.851	6170
369.934	4466
370.018	5388
370.101	13712
370.184	12285
370.267	8823
370.350	15815
370.433	22301
370.516	51201
370.599	68987
370.682	24781
370.765	37654
370.848	42419
370.931	73706
371.014	27929
371.097	6600
371.180	5853
371.263	4316
371.346	2264
371.429	4595
371.511	4752
371.594	10057
371.677	14660
371.760	16251
371.843	13085
371.926	55270
372.009	118924
372.091	41755
372.174	29274
372.257	65560
372.340	26063
372.423	23520
372.505	24127
372.588	11461
372.671	25963
372.754	73797
372.836	36702
372.919	30497
373.002	53212
373.085	17171
373.167	14967
373.250	32942
373.332	66871
373.415	85039
373.498	165906
373.580	64887
373.663	97695
373.746	119110
373.828	29184
373.911	14070
373.993	14271
374.076	52630
374.159	46809
374.241	21876
374.324	63948
374.406	41608
374.489	49522
374.571	134646
374.654	54734
374.736	28926
374.819	82782
374.901	119667
374.983	119807
375.066	23560
375.148	10643
375.231	42542
375.313	77639
375.395	28996
375.478	8989
375.560	6964
375.643	10028
375.725	28473
375.807	107926
375.890	89000
375.972	41644
376.054	23811
376.136	38859
376.219	15695
376.301	33769
376.383	95580
376.465	36079
376.548	26150
376.630	29063
376.712	83095
376.794	36030
376.877	6466
376.959	4243
377.041	6735
377.123	11954
377.205	12395
377.287	4066
377.369	4211
377.452	4005
377.534	4714
377.616	4227
377.698	4516
377.780	3838
377.862	5333
377.944	5592
378.026	3505
378.108	3949
378.190	3017
378.272	4479
378.354	3779
378.436	3136
378.518	6798
378.600	24697
378.682	19943
378.764	44523
378.846	33655
378.928	10795
379.010	15114
379.091	9066
379.173	4693
379.255	3535
379.337	6796
379.419	22485
379.501	63375
379.583	24361
379.664	7530
379.746	16781
379.828	47057
379.910	61393
379.991	49531
380.073	9555
380.155	7134
380.237	5360
380.318	4725
380.400	5825
380.482	11481
380.564	16504
380.645	17292
380.727	16083
380.809	10251
380.890	7340
380.972	5796
381.053	5594
381.135	7666
381.217	16277
381.298	48060
381.380	23878
381.461	19283
381.543	83975
381.624	96784
381.706	19860
381.787	11320
381.869	13535
381.951	35955
382.032	126462
382.113	81818
382.195	20536
382.276	16339
382.358	29814
382.439	74101
382.521	79643
382.602	123007
382.684	60305
382.765	117017
382.846	147338
382.928	234850
383.009	127848
383.090	96166
383.172	320351
383.253	444454
383.334	152720
383.416	128904
383.497	68676
383.578	43845
383.659	83580
383.741	278205
383.822	613839
383.903	311479
383.984	111716
384.066	153953
384.147	94591
384.228	23681
384.309	19277
384.390	14663
384.471	11715
384.553	12188
384.634	15520
384.715	16243
384.796	9140
384.877	12110
384.958	43206
385.039	50312
385.120	19309
385.201	10587
385.282	12121
385.363	13325
385.444	11737
385.525	21365
385.606	59959
385.687	47957
385.768	14414
385.849	17040
385.930	60967
386.011	99105
386.092	28057
386.173	9204
386.254	8817
386.335	8941
386.416	9828
386.496	29550
386.577	45679
386.658	17692
386.739	11566
386.820	11166
386.901	8108
386.981	8435
387.062	6944
387.143	12348
387.224	46323
387.304	42426
387.385	17893
387.466	12060
387.547	15544
387.627	11813
387.708	21389
387.789	77503
387.869	87372
387.950	24411
388.031	7177
388.111	5948
388.192	16307
388.273	22363
388.353	13897
388.434	8504
388.514	15283
388.595	63161
388.676	83185
388.756	42667
388.837	42469
388.917	27242
388.998	6373
389.078	6974
389.159	5812
389.239	5437
389.320	10307
389.400	8496
389.480	17886
389.561	45453
389.641	22908
389.722	10378
389.802	14319
389.883	20298
389.963	51875
390.043	33354
390.124	12616
390.204	19143
390.284	52935
390.365	33536
390.445	41438
390.525	109496
390.605	90921
390.686	28693
390.766	11743
390.846	6653
390.927	5447
391.007	6208
391.087	7420
391.167	8534
391.247	6462
391.328	11784
391.408	15551
391.488	11412
391.568	4381
391.648	8156
391.728	12140
391.808	11201
391.888	12645
391.969	26598
392.049	41972
392.129	20626
392.209	22878
392.289	51833
392.369	30146
392.449	26733
392.529	19690
392.609	16910
392.689	21519
392.769	54243
392.849	48228
392.929	40209
393.009	82559
393.089	73356
393.169	90458
393.248	248918
393.328	665148
393.408	674035
393.488	251711
393.568	85420
393.648	42448
393.728	27430
393.807	19694
393.887	17021
393.967	15351
394.047	14741
394.127	17769
394.206	26705
394.286	78472
394.366	304478
394.446	314407
394.525	81989
394.605	24679
394.685	19772
394.764	37251
394.844	60692
394.924	44052
395.003	15957
395.083	12035
395.163	10323
395.242	9128
395.322	10108
395.402	6874
395.481	11981
395.561	26373
395.640	71485
395.720	63338
395.799	75217
395.879	54879
395.958	36770
396.038	117746
396.117	395787
396.197	417711
396.276	139151
396.356	51754
396.435	37843
396.515	30589
396.594	39009
396.673	75639
396.753	242228
396.832	603218
396.912	457571
396.991	130628
397.070	43701
397.150	23576
397.229	19597
397.308	26954
397.388	45241
397.467	22700
397.546	9756
397.625	7101
397.705	10718
397.784	10718
397.863	6558
397.942	5664
398.022	6455
398.101	20820
398.180	58054
398.259	29223
398.338	9533
398.417	6609
398.497	5735
398.576	5754
398.655	3758
398.734	4305
398.813	5207
398.892	19730
398.971	63045
399.050	29462
399.129	4431
399.208	4306
399.287	4424
399.366	2419
399.445	3532
399.524	3789
399.603	2809
399.682	8731
399.761	21563
399.840	66331
399.919	48148
399.998	7275
400.077	2257
400.156	2186
400.235	5566
400.313	3336
400.392	5127
400.471	24973
400.550	39411
400.629	9995
400.708	5880
400.786	4600
400.865	13603
400.944	15142
401.023	7870
401.102	2295
401.180	2450
401.259	2912
401.338	4446
401.416	6152
401.495	4124
401.574	4931
401.652	2989
401.731	6011
401.810	5144
401.888	3451
401.967	1703
402.046	3732
402.124	5851
402.203	6594
402.281	4763
402.360	6935
402.438	19415
402.517	12124
402.596	4862
402.674	4219
402.753	3174
402.831	3429
402.910	4854
402.988	17599
403.066	60001
403.145	32225
403.223	19146
403.302	48004
403.380	36629
403.459	35576
403.537	14557
403.615	5949
403.694	1734
403.772	2871
403.850	2186
403.929	2220
404.007	2059
404.085	7967
404.164	8821
404.242	3214
404.320	4625
404.398	8119
404.477	21788
404.555	101504
404.633	83823
404.711	13118
404.789	5186
404.868	5112
404.946	2583
405.024	2776
405.102	1880
405.180	1935
405.258	1899
405.336	2837
405.415	2334
405.493	7963
405.571	7347
405.649	2503
405.727	1812
405.805	5240
405.883	5245
405.961	5910
406.039	5828
406.117	2817
406.195	6302
406.273	24514
406.351	91266
406.429	51835
406.507	9236
406.585	3490
406.663	3811
406.740	5373
406.818	4354
406.896	2791
406.974	3585
407.052	8292
407.130	55295
407.208	72811
407.285	14084
407.363	2736
407.441	3049
407.519	2420
407.596	3528
407.674	8519
407.752	19838
407.830	21791
407.907	10944
407.985	4439
408.063	2439
408.141	1990
408.218	5874
408.296	4597
408.373	3770
408.451	5164
408.529	4080
408.606	1763
408.684	1874
408.762	1977
408.839	1668
408.917	1901
408.994	2064
409.072	3006
409.149	2972
409.227	6125
409.304	9016
409.382	7405
409.459	8354
409.537	12430
409.614	10691
409.692	6900
409.769	7946
409.846	11867
409.924	15403
410.001	11217
410.079	7998
410.156	5659
410.233	4959
410.311	3872
410.388	3032
410.465	4664
410.543	5055
410.620	3502
410.697	3639
410.775	4987
410.852	2427
410.929	5826
411.006	7940
411.083	4520
411.161	11323
411.238	10969
411.315	5838
411.392	3131
411.469	5906
411.547	6689
411.624	2423
411.701	2918
411.778	4221
411.855	8921
411.932	5320
412.009	2035
412.086	2635
412.163	3544
412.240	3439
412.317	5459
412.394	4841
412.471	2435
412.548	1873
412.625	2348
412.702	3915
412.779	8340
412.856	5123
412.933	1790
413.010	1944
413.087	4963
413.164	23333
413.241	31560
413.318	7644
413.395	6033
413.471	7816
413.548	4129
413.625	2734
413.702	3351
413.779	2126
413.855	619
413.932	380
414.009	483
414.086	1163
414.162	2159
414.239	4418
414.316	22122
414.393	49518
414.469	15430
414.546	1923
414.623	1390
414.699	1700
414.776	2757
414.853	2047
414.929	2557
415.006	2869
415.082	3537
415.159	1642
415.236	2060
415.312	2871
415.389	5518
415.465	7015
415.542	3254
415.618	2505
415.695	5282
415.771	2858
415.848	3406
415.924	2225
416.000	2034
416.077	2049
416.153	229
416.230	-97
416.306	567
416.383	1778
416.459	1681
416.535	945
416.612	984
416.688	1608
416.764	1415
416.841	1361
416.917	2276
416.993	1688
417.069	2631
417.146	3787
417.222	5164
417.298	3647
417.374	1026
417.451	2550
417.527	3162
417.603	3887
417.679	2525
417.755	2509
417.831	547
417.908	1815
417.984	1235
418.060	1343
418.136	6907
418.212	8908
418.288	3435
418.364	2697
418.440	1229
418.516	4507
418.592	5351
418.668	9971
418.744	15159
418.820	11263
418.896	2477
418.972	1794
419.048	2128
419.124	7466
419.200	5164
419.276	2003
419.352	574
419.428	1165
419.504	2153
419.579	3324
419.655	2349
419.731	2662
419.807	9833
419.883	18741
419.959	12113
420.034	4170
420.110	8354
420.186	31014
420.262	22193
420.337	4688
420.413	3611
420.489	2702
420.565	2893
420.640	2025
420.716	3414
420.792	1403
420.867	4541
420.943	2241
421.019	5835
421.094	4357
421.170	3549
421.245	2364
421.321	3141
421.397	3135
421.472	6660
421.548	11152
421.623	10260
421.699	6259
421.774	6294
421.850	6519
421.925	10590
422.001	10588
422.076	9580
422.152	11727
422.227	18308
422.302	23882
422.378	35419
422.453	64340
422.529	142957
422.604	288311
422.679	340753
422.755	294782
422.830	151163
422.905	67543
422.981	38825
423.056	25058
423.131	17815
423.207	13913
423.282	12880
423.357	16467
423.432	11709
423.508	11245
423.583	18852
423.658	14452
423.733	6944
423.808	7521
423.883	8115
423.959	6512
424.034	7675
424.109	5822
424.184	3294
424.259	3300
424.334	2692
424.409	2457
424.484	2453
424.559	3114
424.634	2920
424.709	4309
424.784	5645
424.859	3332
424.934	6025
425.009	22002
425.084	35993
425.159	12175
425.234	3054
425.309	1527
425.384	6624
425.459	9937
425.534	4582
425.609	2394
425.683	2153
425.758	1733
425.833	2327
425.908	3947
425.983	13791
426.058	37389
426.132	15070
426.207	3888
426.282	5584
426.357	4456
426.431	1588
426.506	2250
426.581	3023
426.655	2369
426.730	1976
426.805	1752
426.879	3233
426.954	2246
427.029	6618
427.103	33301
427.178	79072
427.253	32782
427.327	5921
427.402	6343
427.476	13674
427.551	6156
427.625	3449
427.700	2338
427.774	1370
427.849	3457
427.923	1348
427.998	1078
428.072	2571
428.147	7780
428.221	36648
428.296	101291
428.370	49631
428.444	7593
428.519	7039
428.593	13214
428.667	11085
428.742	14116
428.816	17303
428.890	66022
428.965	96685
429.039	28463
429.113	15563
429.188	6109
429.262	2205
429.336	6352
429.410	17745
429.485	10820
429.559	11381
429.633	9190
429.707	4259
429.781	12942
429.855	72105
429.930	101634
430.004	46776
430.078	62355
430.152	61665
430.226	125435
430.300	115733
430.374	19091
430.448	8040
430.522	21525
430.596	58590
430.670	38776
430.744	103388
430.818	132818
430.892	25115
430.966	5421
431.040	3011
431.114	789
431.188	1570
431.262	2313
431.336	1866
431.410	6477
431.484	17350
431.557	11557
431.631	2309
431.705	3512
431.779	21340
431.853	89337
431.927	56735
432.000	7542
432.074	2106
432.148	3668
432.222	2238
432.295	2276
432.369	1816
432.443	4096
432.516	31716
432.590	76693
432.664	25878
432.737	3302
432.811	732
432.885	1560
432.958	1278
433.032	-367
433.106	540
433.179	1205
433.253	999
433.326	968
433.400	304
433.473	676
433.547	-244
433.620	746
433.694	3534
433.767	3691
433.841	67
433.914	1042
433.988	1175
434.061	1770
434.134	247
434.208	149
434.281	941
434.355	446
434.428	392
434.501	396
434.575	1121
434.648	835
434.721	999
434.795	-5
434.868	143
434.941	412
435.014	378
435.088	1241
435.161	2173
435.234	4802
435.307	6497
435.381	3467
435.454	3408
435.527	6252
435.600	5557
435.673	4655
435.746	3268
435.819	1662
435.892	2148
435.966	1147
436.039	1634
436.112	1863
436.185	1424
436.258	1049
436.331	260
436.404	498
436.477	289
436.550	1101
436.623	372
436.696	1100
436.769	1930
436.842	1010
436.915	1325
436.987	2980
437.060	1757
437.133	737
437.206	387
437.279	483
437.352	921
437.425	389
437.498	1488
437.570	4121
437.643	3517
437.716	1347
437.789	1286
437.861	4545
437.934	15290
438.007	5718
438.080	1187
438.152	2061
438.225	6105
438.298	39389
438.370	102428
438.443	41094
438.516	12576
438.588	2406
438.661	678
438.734	840
438.806	1736
438.879	2020
438.951	4083
439.024	7418
439.096	1766
439.169	878
439.241	1117
439.314	1369
439.386	2466
439.459	5026
439.531	7572
439.604	3278
439.676	1717
439.749	243
439.821	854
439.893	712
439.966	1138
440.038	1933
440.110	2888
440.183	1122
440.255	971
440.327	2716
440.400	16735
440.472	67994
440.544	39568
440.617	5100
440.689	5099
440.761	8143
440.833	11098
440.905	6971
440.978	655
441.050	1027
441.122	760
441.194	362
441.266	1272
441.338	819
441.411	4605
441.483	22685
441.555	30420
441.627	7851
441.699	4547
441.771	4074
441.843	1013
441.915	1174
441.987	1002
442.059	969
442.131	2491
442.203	4471
442.275	5100
442.347	5667
442.419	10723
442.491	54744
442.563	122459
442.635	47531
442.706	21384
442.778	13461
442.850	4270
442.922	3103
442.994	3264
443.066	4723
443.137	4016
443.209	4478
443.281	7275
443.353	16268
443.425	64807
443.496	208845
443.568	199089
443.640	71852
443.711	14804
443.783	6227
443.855	3710
443.926	2442
443.998	3003
444.070	3710
444.141	3039
444.213	5288
444.285	5859
444.356	4884
444.428	3980
444.499	1939
444.571	1424
444.642	1305
444.714	1784
444.785	4716
444.857	5253
444.928	11716
445.000	7214
445.071	8666
445.143	9680
445.214	8657
445.285	14240
445.357	42376
445.428	136581
445.500	273212
445.571	180943
445.642	102226
445.714	35974
445.785	23933
445.856	7582
445.928	6657
445.999	6141
446.070	5028
446.141	5279
446.213	6559
446.284	3086
446.355	3792
446.426	1755
446.497	1794
446.569	3769
446.640	6403
446.711	3891
446.782	1301
446.853	3177
446.924	3226
446.995	1955
447.066	2518
447.138	4616
447.209	2373
447.280	377
447.351	654
447.422	837
447.493	2415
447.564	2837
447.635	3952
447.706	1677
447.777	420
447.847	871
447.918	997
447.989	2165
448.060	2572
448.131	7522
448.202	7004
448.273	4330
448.344	2082
448.414	1497
448.485	891
448.556	615
448.627	615
448.698	667
448.768	320
448.839	1364
448.910	4594
448.981	3071
449.051	1940
449.122	1086
449.193	633
449.263	669
449.334	579
449.405	2670
449.475	5894
449.546	3298
449.616	5445
449.687	3296
449.758	1217
449.828	997
449.899	1192
449.969	496
450.040	881
450.110	2686
450.181	3528
450.251	1115
450.322	659
450.392	1858
450.463	505
450.533	1120
450.604	1310
450.674	1613
450.744	1650
450.815	1872
450.885	1393
450.955	1104
451.026	1185
451.096	914
451.166	1719
451.237	5067
451.307	11773
451.377	4063
451.447	562
451.518	1402
451.588	1492
451.658	867
451.728	3640
451.799	12999
451.869	12749
451.939	2639
452.009	1454
452.079	1032
452.149	1694
452.219	4095
452.289	15072
452.360	9065
452.430	2786
452.500	1955
452.570	3147
452.640	6158
452.710	18309
452.780	22319
452.850	14591
452.920	11629
452.990	4437
453.060	3258
453.129	3803
453.199	4628
453.269	17070
453.339	32468
453.409	47918
453.479	52726
453.549	72551
453.619	75558
453.688	25863
453.758	5452
453.828	2226
453.898	1888
453.968	1465
454.037	1910
454.087	1223
454.107	937
454.168	1073
454.177	1079
454.247	1014
454.249	1025
454.316	1123
454.330	1366
454.386	2274
454.411	4000
454.456	6696
454.492	8181
454.525	9504
454.574	5569
454.595	3873
454.655	1577
454.665	1218
454.734	2252
454.736	2332
454.804	4599
454.817	6391
454.873	13346
454.898	13709
454.943	14270
454.979	9541
455.013	5308
455.060	3283
455.082	2536
455.141	3168
455.152	3186
455.221	8761
455.222	8885
455.291	15326
455.303	13669
455.360	6254
455.384	5411
455.430	4108
455.465	4939
455.499	5419
455.546	9451
455.569	11142
455.627	7395
455.638	6766
455.707	2107
455.708	2116
455.777	1642
455.789	1646
455.846	1781
455.869	1738
455.916	1749
455.950	1839
455.985	1780
456.031	1622
456.054	1502
456.112	1648
456.124	1717
456.193	1300
456.193	1286
456.262	1468
456.274	1572
456.332	1846
456.355	2104
456.401	2662
456.436	2320
456.470	1910
456.516	1910
456.540	1911
456.597	1227
456.609	1073
456.678	1075
456.678	1065
456.747	973
456.759	896
456.817	779
456.840	975
456.886	1179
456.920	1326
456.955	1382
457.001	1432
457.024	1677
457.082	2353
457.093	2377
457.162	2825
457.163	2838
457.232	3706
457.243	3524
457.301	2187
457.324	1859
457.370	1489
457.405	1676
457.439	1972
457.485	2132
457.508	2180
457.566	2246
457.577	2281
457.646	3357
457.647	3379
457.715	6664
457.727	7490
457.784	12274
457.808	16206
457.853	21618
457.889	24867
457.922	24710
457.969	15664
457.991	14884
458.050	19388
458.060	20129
458.129	34636
458.130	35003
458.198	36066
458.211	32469
458.267	16564
458.292	11306
458.336	7544
458.372	7102
458.405	9130
458.453	13809
458.474	17436
458.533	32199
458.543	33666
458.611	58555
458.614	58769
458.680	36626
458.694	29101
458.749	11926
458.775	8294
458.818	5024
458.855	3995
458.887	3306
458.936	3170
458.955	2989
459.016	2387
459.024	2423
459.093	3337
459.097	3346
459.162	2830
459.177	2860
459.230	3149
459.257	3493
459.299	4122
459.338	4110
459.368	4038
459.418	5249
459.437	5317
459.499	3916
459.505	3845
459.574	2520
459.579	2541
459.643	2849
459.659	2890
459.711	3060
459.740	2843
459.780	2832
459.820	3537
459.849	3701
459.900	3400
459.917	3327
459.981	3287
459.986	3282
460.054	3392
460.061	3364
460.123	3470
460.141	3556
460.191	4230
460.222	4800
460.260	5016
460.302	5638
460.328	5714
460.382	5205
460.397	5088
460.462	3936
460.465	3955
460.534	4955
460.543	5113
460.602	11399
460.623	13915
460.671	20317
460.703	27102
460.739	26723
460.783	22897
460.808	19684
460.864	6037
460.876	4778
460.944	3066
460.945	3047
461.013	3302
461.024	3211
461.081	2704
461.104	2954
461.150	3315
461.184	3231
461.218	3211
461.264	2967
461.286	2893
461.345	3347
461.355	3416
461.423	3274
461.425	3267
461.491	2739
461.505	2737
461.559	5235
461.585	6390
461.628	9882
461.665	13618
461.696	15146
461.745	19375
461.764	17705
461.825	6246
461.832	5919
461.901	4246
461.905	4249
461.969	3633
461.985	3438
462.037	4064
462.065	4313
462.105	3816
462.145	3618
462.173	5158
462.225	7720
462.241	8360
462.305	12748
462.310	12527
462.378	7652
462.385	6881
462.446	4215
462.465	3819
462.514	4012
462.545	4041
462.582	3724
462.625	3633
462.650	3518
462.705	3230
462.718	3276
462.785	3405
462.786	3435
462.854	5186
462.865	5478
462.922	5824
462.945	6083
462.990	5200
463.025	4037
463.058	3667
463.104	3317
463.126	3162
463.184	2884
463.194	3002
463.262	3881
463.264	3911
463.330	3696
463.344	3655
463.398	4278
463.424	4500
463.466	4194
463.504	4022
463.533	4154
463.583	4046
463.601	4121
463.663	4783
463.669	4845
463.737	5560
463.743	5625
463.805	8933
463.823	9824
463.873	13726
463.903	16635
463.940	17996
463.982	19375
464.008	16222
464.062	8013
464.076	7426
464.142	4303
464.144	4263
464.211	3622
464.221	3567
464.279	3766
464.301	3863
464.347	4451
464.381	4752
464.414	4850
464.461	5324
464.482	5800
464.540	6870
464.550	6590
464.617	4454
464.620	4375
464.685	5677
464.699	5965
464.753	7053
464.779	7607
464.820	8341
464.859	9161
464.888	8819
464.938	7996
464.956	8240
465.018	8886
465.023	8757
465.091	7063
465.098	6878
465.158	6402
465.177	6298
465.226	6199
465.257	6083
465.293	6443
465.336	6840
465.361	7710
465.416	9593
465.428	9832
465.495	11361
465.496	11413
465.563	17057
465.575	18124
465.631	21853
465.654	23538
465.698	16056
465.734	9054
465.765	8128
465.813	6853
465.833	6562
465.893	6046
465.900	6107
465.968	6725
465.972	6751
466.035	7016
466.052	7084
466.102	7019
466.131	7004
466.170	6854
466.210	6591
466.237	6721
466.290	7108
466.304	7171
466.369	7176
466.372	7219
466.439	8362
466.449	8495
466.506	8868
466.528	9035
466.573	12291
466.607	14721
466.641	19444
466.687	25931
466.708	28540
466.766	35897
466.775	33573
466.842	15543
466.845	14660
466.909	12043
466.925	11476
466.977	10189
467.004	9537
467.044	10138
467.083	10707
467.111	11497
467.163	12943
467.178	13263
467.242	14531
467.245	14458
467.312	12544
467.321	12275
467.379	11639
467.400	11382
467.446	12039
467.480	12485
467.559	11273
467.638	10363
467.717	9404
467.796	11540
467.875	10894
467.955	11242
468.034	14871
468.113	31913
468.192	43593
468.271	14972
468.350	12929
468.429	15024
468.508	16093
468.588	12742
468.667	9898
468.746	10978
468.825	9626
468.904	7555
468.983	9766
469.062	13830
469.141	16039
469.220	8613
469.299	8796
469.378	8757
469.456	10316
469.535	10661
469.614	8810
469.693	9296
469.772	12598
469.851	14977
469.930	11200
470.009	9459
470.088	9145
470.166	10507
470.245	15212
470.324	16845
470.403	13151
470.482	9933
470.560	8037
470.639	9539
470.718	10189
470.797	9012
470.875	10455
470.954	12341
471.033	13669
471.111	7366
471.190	6912
471.269	7567
471.347	7292
471.426	7450
471.505	8674
471.583	9017
471.662	9001
471.740	7935
471.819	8371
471.898	6745
471.976	8710
472.055	7266
472.133	8475
472.212	10185
472.290	10429
472.369	8428
472.447	7921
472.526	6569
472.604	7829
472.683	7450
472.761	8388
472.839	8165
472.918	7172
472.996	7002
473.075	8531
473.153	8470
473.231	7884
473.310	7805
473.388	8868
473.466	7919
473.545	9567
473.623	10970
473.701	10608
473.780	8349
473.858	6977
473.936	9599
474.014	7400
474.093	8721
474.171	10261
474.249	14702
474.327	10980
474.405	7133
474.484	6634
474.562	6664
474.640	7205
474.718	8062
474.796	7849
474.874	8062
474.952	6895
475.030	6694
475.108	7697
475.187	8591
475.265	8949
475.343	11420
475.421	13580
475.499	7626
475.577	7806
475.655	9653
475.733	17108
475.811	27528
475.889	25069
475.966	17574
476.044	7146
476.122	8516
476.200	10759
476.278	9106
476.356	6331
476.434	7366
476.512	8032
476.590	10333
476.667	9048
476.745	5597
476.823	7510
476.901	7156
476.979	6800
477.056	6425
477.134	7910
477.212	6923
477.290	7151
477.367	6031
477.445	6659
477.523	6734
477.601	6349
477.678	6298
477.756	7389
477.834	8423
477.911	6300
477.989	6304
478.066	6438
478.144	7135
478.222	8115
478.299	12232
478.377	11669
478.454	6607
478.532	6500
478.609	6046
478.687	6978
478.764	5403
478.842	6323
478.919	6245
478.997	7425
479.074	5221
479.152	6521
479.229	8785
479.307	5737
479.384	5457
479.461	5574
479.539	6240
479.616	6729
479.694	5533
479.771	5906
479.848	6351
479.926	7952
480.003	9958
480.080	6089
480.157	5090
480.235	5157
480.312	5401
480.389	6016
480.467	8873
480.544	12324
480.621	7047
480.698	7297
480.775	6982
480.853	7497
480.930	6580
481.007	5773
481.084	6030
481.161	8640
481.238	7371
481.315	5871
481.392	5933
481.470	5651
481.547	6028
481.624	4508
481.701	5810
481.778	6483
481.855	6080
481.932	10448
482.009	14656
482.086	11709
482.163	7770
482.240	9796
482.317	15993
482.393	12569
482.470	6084
482.547	6837
482.624	6409
482.701	7412
482.778	6387
482.855	5923
482.932	5516
483.009	5246
483.085	7823
483.162	8521
483.239	8441
483.316	6260
483.393	7541
483.469	6328
483.546	7932
483.623	7347
483.699	6203
483.776	6896
483.853	6978
483.930	9263
484.006	22888
484.083	40352
484.160	25038
484.236	35319
484.313	28062
484.389	19943
484.466	18876
484.543	18459
484.619	18528
484.696	21340
484.772	19428
484.849	19178
484.925	16625
485.002	15900
485.078	18436
485.155	17780
485.231	15624
485.308	15023
485.384	16259
485.461	17035
485.537	26817
485.614	32361
485.690	16620
485.766	14429
485.843	15411
485.919	19808
485.995	20232
486.072	14540
486.148	14345
486.224	13882
486.301	14097
486.377	16435
486.453	16165
486.530	16317
486.606	21433
486.682	23693
486.758	25618
486.835	27514
486.911	22360
486.987	33128
487.063	36135
487.139	41840
487.215	31042
487.292	19553
487.368	16321
487.444	20769
487.520	25816
487.596	25665
487.672	41895
487.748	118342
487.824	186015
487.900	67281
487.976	24847
488.052	19531
488.128	23569
488.204	18597
488.280	16236
488.356	17727
488.432	30085
488.508	46108
488.584	20079
488.660	14391
488.736	13857
488.812	13663
488.888	17896
488.964	20657
489.039	36993
489.115	57524
489.191	36237
489.267	13909
489.343	14052
489.418	12041
489.494	11134
489.570	9485
489.646	12973
489.722	11441
489.797	11774
489.873	16729
489.949	33189
490.024	30505
490.100	11730
490.176	11519
490.251	13588
490.327	16633
490.403	11281
490.478	10289
490.554	9541
490.629	9683
490.705	9342
490.781	10451
490.856	10088
490.932	11499
491.007	11510
491.083	12147
491.158	10195
491.234	12948
491.309	24550
491.385	27104
491.460	11795
491.536	10795
491.611	11054
491.686	11576
491.762	13149
491.837	23379
491.913	39713
491.988	52968
492.063	69462
492.139	23896
492.214	15110
492.289	10127
492.365	8083
492.440	10347
492.515	10327
492.590	10138
492.666	8449
492.741	10826
492.816	14938
492.891	9555
492.967	9033
493.042	7602
493.117	7587
493.192	7422
493.267	9260
493.342	14726
493.418	15002
493.493	8562
493.568	6875
493.643	7776
493.718	10139
493.793	13622
493.868	15492
493.943	8756
494.018	8303
494.093	7230
494.168	8508
494.243	6086
494.318	6700
494.393	7196
494.468	6806
494.543	6853
494.618	6901
494.693	6789
494.768	6634
494.842	7892
494.917	5700
494.992	7884
495.067	6168
495.142	6887
495.217	7319
495.292	7557
495.366	8379
495.441	10832
495.516	12954
495.591	14986
495.665	46401
495.740	113607
495.815	51760
495.890	11792
495.964	6410
496.039	11435
496.114	8728
496.188	9496
496.263	9179
496.338	8688
496.412	9527
496.487	11266
496.561	11145
496.636	11671
496.710	9372
496.785	10178
496.860	12623
496.934	10570
497.009	10332
497.083	10006
497.158	11655
497.232	12982
497.307	14631
497.381	13104
497.455	16044
497.530	19588
497.604	14749
497.679	15284
497.753	24882
497.827	32001
497.902	30116
497.976	33721
498.050	60287
498.125	217606
498.199	239851
498.273	48227
498.348	35008
498.422	28544
498.496	26200
498.570	23533
498.645	19028
498.719	17716
498.793	20219
498.867	26799
498.941	32257
499.016	84262
499.090	238754
499.164	96390
499.238	13779
499.312	11319
499.386	12892
499.460	12591
499.534	12568
499.609	15014
499.683	20514
499.757	19563
499.831	35878
499.905	150783
499.979	156960
500.053	24450
500.127	22039
500.201	15648
500.275	11602
500.349	10779
500.422	12400
500.496	16774
500.570	33447
500.644	83986
500.718	164917
500.792	42912
500.866	11331
500.940	13382
501.013	12448
501.087	11147
501.161	18999
501.235	23251
501.309	46731
501.382	137574
501.456	130394
501.530	28026
501.603	44943
501.677	20835
501.751	8518
501.825	10521
501.898	19170
501.972	54693
502.046	38166
502.119	10467
502.193	23874
502.266	58531
502.340	31747
502.413	24740
502.487	51139
502.561	29264
502.634	11428
502.708	8289
502.781	7313
502.855	7618
502.928	5400
503.002	6352
503.075	5581
503.149	6332
503.222	7007
503.295	7820
503.369	10242
503.442	12939
503.516	37657
503.589	103326
503.662	70931
503.736	23490
503.809	48173
503.882	43368
503.956	59294
504.029	64831
504.102	68414
504.175	98678
504.249	36824
504.322	16103
504.395	11261
504.468	8979
504.542	7873
504.615	6388
504.688	6847
504.761	4915
504.834	7931
504.907	8334
504.980	12594
505.053	7191
505.127	7149
505.200	12457
505.273	9518
505.346	6642
505.419	5199
505.492	5568
505.565	3958
505.638	4885
505.711	4962
505.784	3793
505.857	4065
505.930	5876
506.003	3721
506.076	6630
506.149	6728
506.221	7880
506.294	9092
506.367	18945
506.440	73343
506.513	43628
506.586	9617
506.659	6069
506.731	5493
506.804	5684
506.877	8179
506.950	6920
507.022	6074
507.095	5781
507.168	8586
507.241	5403
507.313	4850
507.386	4066
507.459	8030
507.531	5445
507.604	4622
507.677	5420
507.749	3170
507.822	6326
507.894	11842
507.967	15956
508.040	9297
508.112	8591
508.185	8340
508.257	6019
508.330	11247
508.402	7654
508.475	6636
508.547	7482
508.620	7544
508.692	11323
508.765	7644
508.837	5434
508.909	6573
508.982	5505
509.054	6701
509.127	6300
509.199	5426
509.271	4543
509.344	5065
509.416	5151
509.488	5422
509.560	6529
509.633	5435
509.705	6968
509.777	6130
509.849	10347
509.922	5346
509.994	5097
510.066	6027
510.138	4862
510.210	15184
510.283	12960
510.355	10722
510.427	8727
510.499	8892
510.571	8484
510.643	7485
510.715	12386
510.787	10305
510.859	9163
510.931	8437
511.003	12592
511.076	11929
511.148	6703
511.219	6572
511.291	10773
511.363	14369
511.435	6899
511.507	6244
511.579	6888
511.651	7432
511.723	6371
511.795	6553
511.867	5504
511.939	7950
512.010	14744
512.082	13536
512.154	6837
512.226	6456
512.298	11091
512.369	15347
512.441	12249
512.513	12611
512.585	9168
512.656	9860
512.728	9511
512.800	8566
512.871	9011
512.943	8112
513.015	6502
513.086	9067
513.158	9308
513.230	7855
513.301	10792
513.373	13247
513.444	8585
513.516	7397
513.588	7078
513.659	8606
513.731	8750
513.802	7566
513.874	16464
513.945	25576
514.016	10406
514.088	7884
514.159	7568
514.231	11047
514.302	15435
514.374	12080
514.445	9576
514.516	18519
514.588	13717
514.659	10382
514.730	16745
514.802	14705
514.873	11096
514.944	13939
515.016	10599
515.087	10307
515.158	12320
515.229	19039
515.301	13228
515.372	18322
515.443	9897
515.514	9420
515.585	5991
515.656	7662
515.728	8085
515.799	6983
515.870	8810
515.941	8344
516.012	7434
516.083	11808
516.154	11862
516.225	15006
516.296	14699
516.367	13530
516.438	14937
516.509	17786
516.580	24307
516.651	73209
516.722	261494
516.793	128516
516.864	26988
516.935	25536
517.006	28527
517.077	35336
517.148	72882
517.219	279795
517.289	470404
517.360	131186
517.431	43665
517.502	13263
517.573	14182
517.643	11846
517.714	13793
517.785	15240
517.856	14838
517.926	19684
517.997	22926
518.068	27327
518.138	36524
518.209	49846
518.280	177771
518.350	676633
518.421	293162
518.492	39730
518.562	23528
518.633	22102
518.703	23981
518.774	46476
518.845	119545
518.915	123998
518.986	38175
519.056	22649
519.127	28169
519.197	38845
519.268	84071
519.338	59788
519.408	16623
519.479	17219
519.549	13199
519.620	11467
519.690	7873
519.760	7836
519.831	8235
519.901	7787
519.971	7509
520.042	7465
520.112	9126
520.182	9896
520.253	11502
520.323	7814
520.393	8884
520.463	14015
520.534	9206
520.604	18978
520.674	11156
520.744	9618
520.814	18425
520.885	18969
520.955	25337
521.025	97998
521.095	43434
521.165	9454
521.235	7761
521.305	6909
521.375	7653
521.445	8404
521.515	8894
521.585	11082
521.655	8302
521.725	9241
521.795	8598
521.865	4926
521.935	11697
522.005	8285
522.075	5497
522.145	6952
522.215	7138
522.285	10954
522.355	13846
522.424	26579
522.494	21884
522.564	11729
522.634	20004
522.704	57241
522.774	24906
522.843	8617
522.913	6724
522.983	8543
523.053	6610
523.122	7769
523.192	8465
523.262	29061
523.331	30853
523.401	8420
523.471	5757
523.540	6335
523.610	4940
523.680	5451
523.749	4996
523.819	7677
523.888	7441
523.958	5399
524.027	6159
524.097	7105
524.166	5062
524.236	6185
524.305	8174
524.375	5719
524.444	3980
524.514	8037
524.583	5570
524.653	6925
524.722	9351
524.791	4981
524.861	7639
524.930	5065
524.999	6029
525.069	8346
525.138	7301
525.207	8260
525.277	6922
525.346	6575
525.415	7177
525.484	7791
525.554	7805
525.623	9334
525.692	9318
525.761	11466
525.830	13022
525.900	17033
525.969	24390
526.038	40143
526.107	77042
526.176	243671
526.245	210893
526.314	61857
526.383	119109
526.452	169114
526.522	260065
526.591	277055
526.660	62727
526.729	34051
526.797	35037
526.867	57836
526.935	217656
527.004	507423
527.073	318567
527.142	35279
527.211	14982
527.280	11193
527.349	11209
527.418	5675
527.487	7511
527.555	4537
527.624	5260
527.693	3735
527.762	6315
527.831	3335
527.899	5455
527.968	5631
528.037	4231
528.106	6102
528.174	10524
528.243	8416
528.312	12039
528.380	16357
528.449	5844
528.518	5992
528.586	2428
528.655	4657
528.723	4030
528.792	4258
528.861	3707
528.929	3441
528.998	5465
529.066	3570
529.135	4232
529.203	3228
529.272	3623
529.340	4865
529.409	6505
529.477	3560
529.545	5383
529.614	8171
529.682	5594
529.751	8253
529.819	9886
529.887	7023
529.956	4583
530.024	6529
530.092	4042
530.161	6735
530.229	8875
530.297	6084
530.365	5519
530.434	4923
530.502	4286
530.570	5127
530.638	3134
530.707	5507
530.775	6820
530.843	4521
530.911	4528
530.979	4937
531.047	4797
531.115	4934
531.183	4291
531.252	5568
531.320	4766
531.388	4669
531.456	5047
531.524	3929
531.592	5208
531.660	7280
531.728	4357
531.796	4538
531.864	5057
531.932	4714
532.000	4473
532.067	5590
532.135	6038
532.203	7859
532.271	6262
532.339	10345
532.407	25622
532.475	17139
532.542	9187
532.610	10000
532.678	10307
532.746	43213
532.814	114815
532.881	31518
532.949	8902
533.017	6999
533.084	5738
533.152	5745
533.220	6023
533.287	6132
533.355	5890
533.423	5559
533.490	5512
533.558	6035
533.625	6285
533.693	6156
533.761	6219
533.828	7413
533.896	5122
533.963	10841
534.031	12869
534.098	17770
534.166	10113
534.233	5730
534.300	7892
534.368	7329
534.435	7974
534.503	7792
534.570	8871
534.637	9691
534.705	10527
534.772	12996
534.840	21724
534.907	103584
534.974	147045
535.041	20731
535.109	10833
535.176	7586
535.243	6661
535.310	6838
535.378	6033
535.445	5474
535.512	6069
535.579	6222
535.646	5133
535.714	6535
535.781	8227
535.848	7654
535.915	7481
535.982	6150
536.049	5747
536.116	8115
536.183	6374
536.250	6577
536.317	6152
536.384	8107
536.451	11132
536.518	10523
536.585	6964
536.652	10629
536.719	13341
536.786	10549
536.853	8910
536.920	12545
536.987	17524
537.053	16395
537.120	58300
537.187	54402
537.254	9458
537.321	6829
537.388	8797
537.454	5749
537.521	6834
537.588	6162
537.654	8521
537.721	8062
537.788	7798
537.855	6255
537.921	8092
537.988	7365
538.055	8026
538.121	6827
538.188	7837
538.254	9813
538.321	16900
538.388	12310
538.454	8440
538.521	7641
538.587	8080
538.654	6884
538.720	6956
538.787	7371
538.853	7600
538.920	9253
538.986	9144
539.053	7387
539.119	7951
539.185	7148
539.252	9683
539.318	11696
539.385	11739
539.451	9483
539.517	10016
539.583	10511
539.650	18475
539.716	47319
539.782	16850
539.849	7891
539.915	8606
539.981	8439
540.047	9555
540.114	9134
540.180	10158
540.246	8577
540.312	10867
540.378	17893
540.444	19994
540.510	19639
540.576	50823
540.643	20406
540.709	7181
540.775	8333
540.841	7262
540.907	10290
540.973	13443
541.039	12228
541.105	13055
541.171	9627
541.237	7544
541.303	9454
541.369	10802
541.435	11071
541.500	16805
541.566	11412
541.632	7542
541.698	7026
541.764	8504
541.830	7443
541.896	6354
541.961	7676
542.027	7699
542.093	8468
542.159	9007
542.224	9016
542.290	12523
542.356	15201
542.421	18557
542.487	11836
542.553	8244
542.618	10362
542.684	8733
542.750	7665
542.815	11130
542.881	14395
542.947	43422
543.012	35422
543.078	9288
543.143	7705
543.209	8771
543.274	8865
543.340	9325
543.405	18716
543.471	29569
543.536	11048
543.602	8918
543.667	7437
543.732	9048
543.798	7190
543.863	8922
543.928	7671
543.994	7552
544.059	7933
544.124	8442
544.190	8255
544.255	9651
544.320	8680
544.386	8624
544.451	11354
544.516	12698
544.581	11905
544.646	28004
544.712	46975
544.777	13549
544.842	11149
544.907	10993
544.972	10171
545.037	9615
545.102	11184
545.168	10615
545.233	12062
545.298	12442
545.363	12639
545.428	13045
545.493	20637
545.558	37792
545.623	19259
545.688	11333
545.753	10978
545.818	11418
545.883	11605
545.947	10779
546.012	12947
546.077	11731
546.142	13411
546.207	12623
546.272	14811
546.337	15523
546.401	14524
546.466	14343
546.531	14079
546.596	15131
546.661	15641
546.725	16119
546.790	14728
546.855	16614
546.919	16991
546.984	19434
547.049	20920
547.113	24307
547.178	24572
547.243	28334
547.307	32044
547.372	36416
547.436	37607
547.501	36357
547.565	39024
547.630	36765
547.695	36338
547.759	37813
547.823	36623
547.888	34865
547.952	35758
548.017	37076
548.081	38748
548.146	41889
548.210	41967
548.274	41100
548.339	41088
548.403	38475
548.468	35442
548.532	34609
548.596	36534
548.660	35575
548.725	38939
548.789	42463
548.853	43881
548.917	39304
548.982	41868
549.046	39581
549.110	31763
549.174	32926
549.238	36054
549.303	38716
549.367	41977
549.431	38966
549.495	37113
549.559	36746
549.623	42935
549.687	48445
549.751	50155
549.815	55485
549.879	56862
549.943	52136
550.007	56663
550.071	55468
550.135	51906
550.199	49568
550.263	47558
550.327	45924
550.391	49133
550.455	50097
550.519	52925
550.582	55875
550.646	64869
550.710	68052
550.774	62643
550.838	63633
550.901	65067
550.965	70848
551.029	73237
551.093	78637
551.156	86381
551.220	109273
551.284	126695
551.347	91652
551.411	89808
551.475	91201
551.538	71256
551.602	65366
551.666	60236
551.729	56353
551.793	56523
551.856	55230
551.920	53311
551.983	52791
552.047	51440
552.110	53410
552.174	53264
552.237	54503
552.301	51937
552.364	49298
552.428	48634
552.491	49307
552.554	50969
552.618	51763
552.681	52466
552.745	52030
552.808	60137
552.871	70497
552.934	58390
552.998	52945
553.061	50689
553.124	48308
553.187	47871
553.251	49807
553.314	51076
553.377	49325
553.440	53596
553.503	57830
553.567	61167
553.630	53612
553.693	54163
553.756	53053
553.819	53139
553.882	50545
553.945	50939
554.008	50186
554.071	49503
554.134	52316
554.197	48354
554.260	47740
554.323	49732
554.386	49347
554.449	52556
554.512	51869
554.575	48470
554.638	48777
554.701	48730
554.764	47897
554.827	46291
554.889	44525
554.952	41920
555.015	41809
555.078	42495
555.141	42767
555.203	41067
555.266	41481
555.329	42336
555.391	39866
555.454	40458
555.517	38664
555.580	38102
555.642	36252
555.705	35216
555.768	36080
555.830	34426
555.893	32968
555.955	32235
556.018	33250
556.080	31723
556.143	33114
556.206	33208
556.268	32084
556.330	32051
556.393	31665
556.455	30352
556.518	32036
556.580	32808
556.643	27521
556.705	27679
556.767	25992
556.830	26769
556.892	26645
556.955	30938
557.017	28255
557.079	25444
557.142	24399
557.204	25028
557.266	32717
557.328	29701
557.391	22495
557.453	21735
557.515	21948
557.577	24278
557.639	24330
557.701	22629
557.764	22226
557.826	24508
557.888	25024
557.950	25835
558.012	27218
558.074	34075
558.136	72569
558.198	186764
558.260	75025
558.322	28642
558.384	29671
558.446	32709
558.508	36184
558.570	43079
558.632	56036
558.694	73448
558.756	93524
558.818	267526
558.880	676446
558.942	249589
559.003	201388
559.065	107697
559.127	42477
559.189	40344
559.251	43750
559.312	58909
559.374	137097
559.436	469287
559.498	254273
559.559	48780
559.621	41211
559.683	44805
559.744	69264
559.806	222620
559.868	360933
559.929	77330
559.991	42470
560.052	61588
560.114	177644
560.176	120148
560.237	97463
560.299	173345
560.360	43181
560.422	19099
560.483	16471
560.545	14610
560.606	14942
560.667	13740
560.729	13018
560.790	12967
560.852	13473
560.913	12853
560.974	12855
561.036	12706
561.097	13171
561.158	13603
561.220	13301
561.281	12408
561.342	13751
561.403	14309
561.465	16301
561.526	27862
561.587	35970
561.648	14045
561.709	12384
561.771	12342
561.832	11789
561.893	11887
561.954	11704
562.015	12595
562.076	11609
562.137	11855
562.198	11740
562.259	12501
562.320	12159
562.381	12729
562.442	15929
562.503	14516
562.564	11298
562.625	11811
562.686	11491
562.747	12868
562.808	13154
562.869	11491
562.930	13554
562.991	12760
563.051	12467
563.112	11618
563.173	10985
563.234	11007
563.294	11617
563.355	10740
563.416	11715
563.477	10839
563.537	10510
563.598	11994
563.659	11931
563.720	10643
563.780	12065
563.841	12643
563.901	11988
563.962	11858
564.023	10950
564.083	12234
564.144	11614
564.204	11400
564.265	10449
564.325	12506
564.386	19447
564.446	19630
564.507	11842
564.567	11518
564.628	11080
564.688	11347
564.749	10387
564.809	12744
564.869	14185
564.930	12095
564.990	11035
565.050	11025
565.111	11200
565.171	11668
565.231	11286
565.292	11605
565.352	10840
565.412	12144
565.472	11657
565.532	12182
565.593	11162
565.653	11214
565.713	12116
565.773	11677
565.833	14069
565.893	16381
565.953	12237
566.013	12727
566.074	12614
566.134	14574
566.194	19823
566.254	20810
566.314	15222
566.374	13694
566.434	12612
566.494	14007
566.554	13152
566.614	13381
566.673	14913
566.733	14380
566.793	16007
566.853	15416
566.913	16019
566.973	16493
567.033	17571
567.092	17877
567.152	16534
567.212	17325
567.272	16653
567.331	17070
567.391	17600
567.451	19167
567.511	22707
567.570	22376
567.630	17863
567.690	17395
567.749	17741
567.809	18637
567.868	20583
567.928	22923
567.988	26291
568.047	29618
568.107	35313
568.166	46507
568.226	74256
568.285	103874
568.345	86528
568.404	68734
568.464	58504
568.523	53444
568.582	53867
568.642	59562
568.701	74628
568.761	107814
568.820	171296
568.879	163620
568.939	116707
568.998	86634
569.057	65822
569.116	51868
569.176	41537
569.235	35378
569.294	30189
569.353	26407
569.413	23723
569.472	22328
569.531	20075
569.590	19193
569.649	18176
569.708	16900
569.767	16641
569.827	19420
569.886	16770
569.945	14018
570.004	14725
570.063	15523
570.122	14273
570.181	14908
570.240	15606
570.299	16350
570.358	15867
570.417	13933
570.475	12374
570.534	13026
570.593	13762
570.652	14234
570.711	14074
570.770	13325
570.829	13545
570.887	11766
570.946	14185
571.005	11995
571.064	11873
571.122	13556
571.181	13601
571.240	11973
571.299	11256
571.357	12009
571.416	12510
571.475	12327
571.533	13916
571.592	11953
571.650	12464
571.709	11537
571.768	12865
571.826	12427
571.885	12126
571.943	11136
572.002	10731
572.060	11757
572.119	10872
572.177	10894
572.236	10533
572.294	10184
572.352	11382
572.411	11439
572.469	11003
572.528	10712
572.586	11189
572.644	12338
572.703	15694
572.761	12003
572.819	10430
572.877	9751
572.936	9168
572.994	9497
573.052	10067
573.110	10875
573.169	11008
573.227	10405
573.285	9877
573.343	11089
573.401	10853
573.459	10979
573.517	10247
573.576	10308
573.634	10447
573.692	10646
573.750	11064
573.808	9704
573.866	11065
573.924	11773
573.982	10937
574.040	11434
574.098	9641
574.155	10067
574.213	9786
574.271	10553
574.329	10385
574.387	10041
574.445	9342
574.503	9436
574.560	8975
574.618	8749
574.676	9691
574.734	9024
574.792	9283
574.849	8797
574.907	8567
574.965	8905
575.022	8629
575.080	9395
575.138	9110
575.195	9469
575.253	9320
575.311	9975
575.368	9315
575.426	8228
575.483	9123
575.541	10078
575.598	8685
575.656	9483
575.713	9566
575.771	8925
575.828	9059
575.886	8807
575.943	10460
576.001	10023
576.058	8949
576.115	9322
576.173	10312
576.230	12140
576.287	12649
576.345	11138
576.402	10142
576.459	10124
576.517	8996
576.574	10949
576.631	10789
576.688	9716
576.746	10723
576.803	9525
576.860	9644
576.917	10428
576.974	9123
577.031	9304
577.089	9493
577.146	8775
577.203	9712
577.260	9838
577.317	9731
577.374	9768
577.431	10522
577.488	9631
577.545	9336
577.602	9804
577.659	8773
577.716	10013
577.773	8761
577.830	9119
577.886	9372
577.943	9092
578.000	9369
578.057	9976
578.114	9813
578.171	10017
578.227	8691
578.284	9012
578.341	9586
578.398	10450
578.454	10141
578.511	11231
578.568	11353
578.625	9852
578.681	9991
578.738	9546
578.794	9569
578.851	10010
578.908	10393
578.964	11327
579.021	11022
579.077	10476
579.134	10636
579.190	10737
579.247	10533
579.303	9866
579.360	10628
579.416	9300
579.473	8602
579.529	9929
579.586	9494
579.642	10089
579.698	9850
579.755	9429
579.811	10728
579.867	10191
579.924	9099
579.980	9353
580.036	9920
580.093	11035
580.149	10196
580.205	11194
580.261	10689
580.317	10049
580.374	11134
580.430	12089
580.486	11552
580.542	11190
580.598	11170
580.619	11283
580.654	11484
580.692	10972
580.710	10727
580.765	11601
580.767	11635
580.823	10986
580.838	10800
580.879	10303
580.911	11231
580.935	11940
580.984	11323
580.991	11239
581.047	10977
581.057	11119
581.103	11823
581.130	11639
581.159	11430
581.203	11469
581.215	11489
581.270	11947
581.276	11852
581.326	10940
581.349	11093
581.382	11363
581.422	11115
581.438	10998
581.494	11894
581.494	11895
581.550	12230
581.567	12116
581.606	11832
581.640	12178
581.661	12400
581.713	12920
581.717	12963
581.773	11967
581.786	12167
581.829	12838
581.859	12220
581.885	11682
581.932	12477
581.940	12646
581.996	13212
582.004	13225
582.052	13171
582.077	12848
582.107	12440
582.150	12526
582.163	12577
582.219	13176
582.223	13196
582.274	13448
582.296	13311
582.330	13033
582.368	13308
582.386	13500
582.441	13437
582.441	13435
582.497	13950
582.514	14007
582.552	14284
582.587	13816
582.608	13504
582.659	13688
582.663	13706
582.719	13789
582.732	13880
582.774	14179
582.805	13782
582.830	13446
582.877	14787
582.885	15011
582.941	13935
582.950	13995
582.996	14217
583.023	14750
583.052	15493
583.095	15200
583.107	15052
583.162	15146
583.168	15217
583.218	15762
583.240	15341
583.273	14903
583.313	15169
583.328	15268
583.384	15300
583.385	15312
583.439	15613
583.458	15740
583.494	15909
583.531	15825
583.549	15871
583.603	15333
583.605	15310
583.660	16713
583.676	16478
583.715	15884
583.748	16367
583.770	16809
583.820	17196
583.825	17196
583.881	16739
583.893	16760
583.936	17102
583.965	17235
583.991	17297
584.038	17493
584.046	17544
584.101	17258
584.110	17413
584.156	18199
584.183	18126
584.211	17860
584.255	17649
584.266	17741
584.321	18836
584.328	18831
584.376	18628
584.400	18984
584.431	19503
584.472	19656
584.486	19585
584.541	19288
584.545	19293
584.596	19603
584.617	19637
584.651	20429
584.689	21234
584.706	21399
584.761	22584
584.762	22571
584.816	22111
584.834	22550
584.871	23433
584.906	23501
584.926	23544
584.978	24436
584.980	24505
585.035	25701
585.051	26132
585.090	27456
585.123	28351
585.145	28861
585.195	30077
585.200	30262
585.254	32616
585.267	33436
585.309	35855
585.340	37596
585.364	39525
585.412	43003
585.419	43620
585.473	48662
585.484	49931
585.528	57954
585.556	66450
585.583	87059
585.628	132009
585.637	150001
585.692	297432
585.700	323526
585.747	413157
585.772	372539
585.801	247672
585.845	96740
585.856	80678
585.910	51470
585.917	48440
585.965	42684
585.989	40618
586.019	39602
586.061	38651
586.074	38467
586.128	37867
586.133	37837
586.183	39058
586.205	39209
586.237	39302
586.277	39969
586.292	40241
586.346	39975
586.349	40007
586.401	42332
586.421	42849
586.455	43199
586.493	43641
586.509	45242
586.564	50867
586.565	51032
586.618	63153
586.637	65232
586.672	61190
586.709	54901
586.727	53826
586.781	54836
586.781	54900
586.835	53190
586.853	52495
586.889	51911
586.925	51647
586.944	52150
586.996	53854
586.998	53974
587.052	56442
587.068	56748
587.106	57912
587.140	59485
587.161	60367
587.212	62055
587.215	62275
587.269	65036
587.284	65823
587.323	68259
587.356	69940
587.377	71371
587.427	75088
587.431	75437
587.485	78429
587.499	79224
587.539	82216
587.571	84702
587.593	87283
587.643	92297
587.648	92982
587.702	99337
587.715	100963
587.755	106361
587.786	110295
587.810	114002
587.858	120706
587.864	121809
587.917	132081
587.930	134360
587.971	144805
588.001	152430
588.025	158400
588.073	169961
588.079	172238
588.133	192092
588.145	196144
588.187	215187
588.217	229120
588.241	241767
588.288	266691
588.295	271589
588.348	311656
588.360	319880
588.402	358113
588.431	385568
588.456	415871
588.503	475352
588.510	487418
588.564	583220
588.575	603165
588.617	712726
588.646	790502
588.671	890227
588.718	1084411
588.725	1126391
588.778	1448054
588.789	1511797
588.832	1746778
588.861	1890095
588.886	1837526
588.932	1658553
588.939	1637305
588.993	1432548
589.004	1415996
589.047	1785019
589.075	1993167
589.100	1910004
589.147	1681449
589.154	1644426
589.207	1330690
589.218	1266872
589.261	1168935
589.290	1107996
589.314	1132951
589.361	1189910
589.368	1221161
589.421	1475465
589.433	1528568
589.475	1719252
589.504	1831426
589.528	1760905
589.576	1552747
589.582	1568882
589.635	1758933
589.647	1785742
589.689	1578355
589.718	1400617
589.742	1226739
589.790	881168
589.795	860646
589.849	661602
589.861	616146
589.902	531750
589.932	468881
589.955	434835
590.004	362831
590.009	358723
590.062	308947
590.075	296401
590.115	272495
590.146	253479
590.168	243496
590.218	219433
590.222	218484
590.275	201366
590.289	196536
590.328	186364
590.360	177443
590.381	173035
590.431	161327
590.435	161041
590.488	150446
590.503	147160
590.541	142365
590.574	137740
590.594	135646
590.645	129280
590.647	129314
590.700	122010
590.716	119561
590.753	117210
590.787	114669
590.806	113304
590.859	108474
590.859	108694
590.912	105956
590.930	104931
590.965	102823
591.001	99966
591.018	99527
591.071	97858
591.072	97586
591.124	94768
591.143	93480
591.177	92570
591.214	91069
591.230	91148
591.283	90691
591.285	90424
591.336	88902
591.356	88039
591.389	87615
591.427	86489
591.442	85919
591.495	82922
591.498	82475
591.547	79931
591.569	78501
591.600	78403
591.640	77740
591.653	77914
591.706	77795
591.711	77578
591.759	78506
591.782	78629
591.811	79272
591.853	79616
591.864	79261
591.917	76330
591.924	75688
591.969	74656
591.995	73755
592.022	74112
592.066	74120
592.075	74644
592.127	76646
592.137	76791
592.180	79191
592.208	80363
592.233	78018
592.279	72818
592.285	72980
592.338	72647
592.350	72362
592.390	71211
592.421	69962
592.443	70579
592.491	71303
592.495	71388
592.548	69703
592.562	69040
592.600	69658
592.633	69817
592.653	69567
592.704	68008
592.705	68391
592.775	67943
592.846	69290
592.916	71123
592.987	70607
593.058	68955
593.128	67983
593.199	65740
593.270	65083
593.341	65915
593.411	65227
593.482	66932
593.553	67095
593.623	66677
593.694	67925
593.764	69458
593.835	67656
593.906	66413
593.976	65999
594.047	69099
594.117	71308
594.188	73533
594.258	67739
594.329	68131
594.399	67026
594.470	68446
594.540	70047
594.611	70164
594.681	70015
594.751	69290
594.822	72381
594.892	75127
594.963	75300
595.033	75454
595.103	76825
595.174	78747
595.244	89038
595.314	96200
595.384	80684
595.455	79295
595.525	81198
595.595	84376
595.665	84202
595.736	81283
595.806	82059
595.876	83196
595.946	83678
596.016	84430
596.087	87121
596.157	87121
596.227	86296
596.297	91678
596.367	95884
596.437	101951
596.507	107759
596.577	114746
596.647	103325
596.717	103938
596.787	105889
596.857	106054
596.927	105654
596.997	105326
597.067	105459
597.137	109621
597.207	109236
597.277	110154
597.347	106500
597.417	103075
597.487	103760
597.557	106182
597.626	109070
597.696	111128
597.766	115585
597.836	116566
597.906	101430
597.975	96836
598.045	98466
598.115	101243
598.185	108393
598.254	117854
598.324	127380
598.394	129272
598.464	125945
598.533	121516
598.603	114348
598.672	112938
598.742	115405
598.812	115740
598.881	117992
598.951	115102
599.020	116431
599.090	120429
599.159	121780
599.229	116991
599.299	115470
599.368	117101
599.437	116993
599.507	108612
599.576	105913
599.646	105302
599.715	103858
599.785	101849
599.854	102088
599.924	102518
599.993	99994
600.062	100819
600.132	102717
600.201	108454
600.270	125610
600.340	129397
600.409	125441
600.478	125904
600.547	128448
600.617	118198
600.686	99663
600.755	91607
600.824	88496
600.894	86666
600.963	86243
601.032	85389
601.101	83191
601.170	80598
601.239	79501
601.308	80401
601.378	81145
601.447	79169
601.516	79806
601.585	82052
601.654	85830
601.723	83117
601.792	84012
601.861	86149
601.930	89698
601.999	93177
602.068	89748
602.137	94224
602.206	93510
602.275	93912
602.343	97349
602.412	97662
602.481	92717
602.550	93790
602.619	95734
602.688	98442
602.756	97411
602.825	98177
602.894	99532
602.963	98927
603.032	101106
603.100	102298
603.169	101944
603.238	103818
603.307	101333
603.375	102636
603.444	106760
603.513	105200
603.581	107372
603.650	109329
603.719	106398
603.787	108819
603.856	109878
603.924	114249
603.993	115890
604.061	120086
604.130	123879
604.198	126798
604.267	127942
604.335	130320
604.404	132221
604.472	132293
604.541	132664
604.609	135819
604.678	135948
604.746	137431
604.815	140104
604.883	142249
604.951	142297
605.020	144158
605.088	144581
605.156	148034
605.225	149631
605.293	150088
605.361	149434
605.429	150900
605.498	154822
605.566	158945
605.634	164579
605.702	170375
605.771	176709
605.839	175944
605.907	171122
605.975	165890
606.043	161261
606.111	165621
606.180	162394
606.248	159796
606.316	158008
606.384	161050
606.452	164999
606.520	170147
606.588	167293
606.656	165488
606.724	163864
606.792	154176
606.860	138771
606.928	127152
606.996	122527
607.064	120802
607.132	123062
607.200	132738
607.267	136495
607.335	137798
607.403	141450
607.471	137080
607.539	133158
607.607	133610
607.674	117393
607.742	119662
607.810	119578
607.878	116987
607.946	121632
608.013	126738
608.081	129654
608.149	130702
608.216	134096
608.284	137796
608.352	137506
608.419	137245
608.487	139450
608.555	132756
608.622	133417
608.690	142600
608.757	157644
608.825	160245
608.893	158307
608.960	154158
609.028	150283
609.095	151049
609.163	143970
609.230	126635
609.298	117675
609.365	121899
609.432	132389
609.500	145285
609.567	163190
609.635	188407
609.702	198875
609.769	189225
609.837	149937
609.904	130746
609.971	136157
610.039	155645
610.106	207757
610.173	398353
610.241	900619
610.308	623055
610.375	279520
610.442	159015
610.509	137745
610.577	134725
610.644	134527
610.711	138877
610.778	141523
610.845	146504
610.912	154449
610.980	159775
611.047	161114
611.114	157587
611.181	153557
611.248	151348
611.315	160353
611.382	163792
611.449	169669
611.516	172153
611.583	168508
611.650	171525
611.717	172675
611.784	178271
611.851	186980
611.918	202479
611.984	236391
612.051	339950
612.118	680291
612.185	1586873
612.252	1003201
612.319	291952
612.386	231233
612.452	209523
612.519	199279
612.586	200547
612.653	200027
612.719	202129
612.786	193429
612.853	179324
612.919	176282
612.986	179865
613.053	166609
613.120	158607
613.186	152743
613.253	153364
613.319	153976
613.386	153781
613.453	157997
613.519	163611
613.586	164599
613.652	179221
613.719	168848
613.785	168130
613.852	159543
613.918	157877
613.985	158922
614.051	166969
614.118	165665
614.184	160413
614.250	157855
614.317	161066
614.383	158146
614.449	160809
614.516	161446
614.582	163250
614.648	157409
614.715	157126
614.781	153236
614.847	156547
614.914	154374
614.980	152558
615.046	151369
615.112	155423
615.179	158324
615.245	162582
615.311	173287
615.377	203946
615.443	213295
615.509	177311
615.575	172031
615.642	167212
615.708	172869
615.774	183174
615.840	196958
615.906	222535
615.972	292663
616.038	482377
616.104	894345
616.170	1841997
616.236	1536377
616.302	422823
616.368	303419
616.434	224711
616.500	205053
616.565	223860
616.631	275069
616.697	227594
616.763	235747
616.829	347355
616.895	600844
616.961	572727
617.026	259006
617.092	180244
617.158	170735
617.224	163334
617.289	152593
617.355	144511
617.421	144740
617.487	142058
617.552	136781
617.618	135181
617.684	132957
617.749	138159
617.815	129463
617.880	126599
617.946	126749
618.012	130326
618.077	133345
618.143	127650
618.208	127980
618.274	138659
618.339	139715
618.405	116859
618.470	117070
618.536	116481
618.601	117261
618.667	108339
618.732	103636
618.798	102437
618.863	101707
618.928	101260
618.994	103351
619.059	105386
619.124	116644
619.190	107235
619.255	99669
619.320	98721
619.386	100027
619.451	98862
619.516	96605
619.581	98942
619.647	101231
619.712	101161
619.777	96382
619.842	98564
619.907	101760
619.972	101399
620.038	100645
620.103	97280
620.168	95518
620.233	98365
620.298	98231
620.363	98971
620.428	101907
620.493	105096
620.558	104581
620.623	106041
620.688	105686
620.753	104296
620.818	106581
620.883	108196
620.948	106417
621.013	106566
621.078	105026
621.143	105419
621.207	109595
621.272	107520
621.337	106466
621.402	106458
621.467	110914
621.532	111443
621.596	107582
621.661	101689
621.726	100500
621.791	101686
621.855	102741
621.920	103848
621.985	105355
622.049	110131
622.114	107559
622.179	107100
622.243	110933
622.308	111041
622.373	114616
622.437	113772
622.502	105933
622.566	106141
622.631	104442
622.695	109933
622.760	107912
622.824	105990
622.889	107573
622.953	112260
623.018	131253
623.082	129338
623.147	113722
623.211	111979
623.276	111387
623.340	106431
623.404	103038
623.469	102639
623.533	103918
623.597	101546
623.662	101019
623.726	95113
623.790	89767
623.854	87422
623.919	89905
623.983	91096
624.047	92035
624.111	93937
624.176	95596
624.240	99129
624.304	103859
624.368	93583
624.432	95100
624.496	97200
624.560	103997
624.625	105161
624.689	101244
624.753	105464
624.817	100020
624.881	96241
624.945	88644
625.009	87137
625.073	87215
625.137	96270
625.201	105178
625.265	102010
625.329	90853
625.393	93700
625.456	93316
625.520	96283
625.584	99353
625.648	106121
625.712	121187
625.776	168494
625.839	173154
625.903	101406
625.967	82613
626.031	102182
626.095	133321
626.158	92520
626.222	71644
626.286	67536
626.349	65731
626.413	62712
626.477	64917
626.540	63467
626.604	61802
626.668	61332
626.731	60490
626.795	61949
626.858	62371
626.922	60801
626.986	60112
627.049	58660
627.113	61523
627.176	59558
627.240	58080
627.303	58680
627.366	58850
627.430	60913
627.493	58384
627.557	57786
627.620	59719
627.684	60688
627.747	62462
627.810	55485
627.874	52648
627.937	50233
628.000	54809
628.064	51724
628.127	46514
628.190	46462
628.253	46440
628.317	43242
628.380	43946
628.443	42676
628.506	42653
628.569	41525
628.632	38467
628.696	40160
628.759	38703
628.822	37710
628.885	37257
628.948	36833
629.011	37475
629.074	37539
629.137	35471
629.200	35019
629.263	38267
629.326	33928
629.389	34403
629.452	34709
629.515	35392
629.578	34206
629.641	36015
629.704	35081
629.767	35679
629.830	33381
629.892	33140
629.955	32668
630.018	35734
630.081	36376
630.144	40027
630.207	34600
630.269	35600
630.332	35141
630.395	33744
630.458	31389
630.520	31023
630.583	31781
630.646	30799
630.708	29686
630.771	29943
630.834	33283
630.896	30953
630.959	32030
631.021	30509
631.084	32610
631.146	32584
631.209	34519
631.272	30718
631.334	32416
631.397	31722
631.459	32711
631.522	33938
631.584	33109
631.646	36979
631.709	37643
631.771	41975
631.834	37590
631.896	34335
631.958	31774
632.021	31265
632.083	29640
632.145	31521
632.208	31249
632.270	30914
632.332	28702
632.395	29507
632.457	31358
632.519	29113
632.581	29475
632.643	28773
632.706	28999
632.768	27806
632.830	29550
632.892	28923
632.954	28150
633.016	30657
633.078	28872
633.141	27911
633.203	29492
633.265	29315
633.327	29312
633.389	28580
633.451	31716
633.513	34386
633.575	33521
633.637	33035
633.698	32574
633.760	31787
633.822	31067
633.884	31932
633.946	32513
634.008	32862
634.070	34787
634.132	34914
634.193	36722
634.255	40063
634.317	40671
634.379	40974
634.441	37000
634.502	34566
634.564	32512
634.626	29232
634.687	28732
634.749	29111
634.811	29158
634.873	26237
634.934	27866
634.996	28670
635.057	26965
635.119	26657
635.181	28501
635.242	29393
635.304	28077
635.365	30686
635.427	28232
635.488	28572
635.550	27159
635.611	28775
635.673	26472
635.734	31895
635.796	30854
635.857	34734
635.918	34617
635.980	38743
636.041	39831
636.102	43484
636.164	42693
636.225	42492
636.286	34860
636.348	33617
636.409	30937
636.470	29068
636.531	28444
636.593	27965
636.654	28019
636.715	25422
636.776	25612
636.838	24500
636.899	25632
636.960	23702
637.021	23591
637.082	23787
637.143	23758
637.204	21803
637.265	22775
637.326	24026
637.387	24882
637.448	22770
637.509	23697
637.570	22892
637.631	22565
637.692	21239
637.753	21272
637.814	21921
637.875	22356
637.936	21877
637.997	21250
638.058	22305
638.119	22782
638.179	22062
638.240	22015
638.301	20895
638.362	20286
638.423	21094
638.483	21087
638.544	19555
638.605	21111
638.666	19213
638.726	20192
638.787	21022
638.848	20488
638.908	19851
638.969	20248
639.030	19489
639.090	18671
639.151	20065
639.211	22120
639.272	25106
639.332	32342
639.393	23984
639.453	21658
639.514	22469
639.574	20729
639.635	18922
639.695	19509
639.756	18192
639.816	20157
639.877	21700
639.937	29574
639.997	35501
640.058	19662
640.118	18582
640.178	19846
640.239	17828
640.299	17771
640.359	18772
640.420	19651
640.480	21068
640.540	23652
640.600	23794
640.661	21640
640.721	21259
640.781	23975
640.841	19080
640.901	19630
640.961	19781
641.021	21019
641.082	22648
641.142	27728
641.202	21524
641.262	16401
641.322	18553
641.382	17683
641.442	17573
641.502	18154
641.562	18431
641.622	17082
641.682	19307
641.742	20938
641.802	19334
641.861	19199
641.921	18988
641.981	20375
642.041	19648
642.101	21912
642.161	16887
642.221	16166
642.280	16219
642.340	15964
642.400	15057
642.460	17744
642.519	16576
642.579	16800
642.639	17322
642.698	14590
642.758	18749
642.818	17782
642.877	16097
642.937	18334
642.997	19564
643.056	24262
643.116	18315
643.175	18919
643.235	18327
643.294	18542
643.354	19398
643.414	20989
643.473	24105
643.532	28543
643.592	38886
643.651	61462
643.711	108744
643.770	215010
643.830	528421
643.889	1042844
643.948	246347
644.008	50485
644.067	32178
644.126	25213
644.186	21432
644.245	20726
644.304	17327
644.363	19420
644.423	15470
644.482	17876
644.541	19086
644.600	18690
644.659	23986
644.719	28167
644.778	41246
644.837	72208
644.896	148688
644.955	332980
645.014	102730
645.073	27271
645.132	20796
645.191	20065
645.250	19010
645.309	20947
645.368	21153
645.427	27935
645.486	41918
645.545	70401
645.604	23901
645.663	17389
645.722	17725
645.781	19154
645.840	21755
645.898	26203
645.957	37507
646.016	57660
646.075	104085
646.134	209007
646.192	559508
646.251	771805
646.310	118583
646.369	36034
646.427	30101
646.486	22596
646.545	19428
646.603	18056
646.662	17459
646.721	16660
646.779	16382
646.838	16211
646.896	21743
646.955	27468
647.014	44023
647.072	82516
647.131	215979
647.189	98649
647.248	19506
647.306	16040
647.365	15443
647.423	12277
647.481	14295
647.540	12125
647.598	12983
647.657	12811
647.715	13131
647.773	12382
647.832	12861
647.890	10648
647.948	11424
648.007	12917
648.065	10339
648.123	10913
648.181	12432
648.240	11695
648.298	10407
648.356	10650
648.414	11894
648.472	11703
648.531	10955
648.589	11348
648.647	10877
648.705	10592
648.763	11444
648.821	11609
648.879	11633
648.937	14093
648.995	15931
649.053	19830
649.111	29541
649.169	49906
649.227	87917
649.285	187151
649.343	529320
649.401	233764
649.459	51256
649.516	29867
649.574	16293
649.632	17999
649.690	19120
649.748	22307
649.806	30258
649.863	55581
649.921	150523
649.979	93930
650.037	16643
650.094	11205
650.152	11632
650.210	9950
650.268	10491
650.325	9496
650.383	10103
650.440	8792
650.498	9362
650.556	9045
650.613	8205
650.671	9362
650.728	9242
650.786	10440
650.843	12234
650.901	9406
650.958	8962
651.016	8671
651.073	8364
651.131	7678
651.188	7905
651.246	8453
651.303	6757
651.360	8091
651.418	8265
651.475	8380
651.532	7863
651.590	8431
651.647	7526
651.704	7950
651.762	7497
651.819	8581
651.876	7112
651.933	7607
651.990	8134
652.048	7068
652.105	6971
652.162	8407
652.219	6691
652.276	7008
652.333	7887
652.390	6673
652.448	7051
652.505	7786
652.562	7756
652.619	6617
652.676	7959
652.733	7932
652.790	7019
652.847	6207
652.904	7835
652.961	5246
653.017	6673
653.074	8142
653.131	7929
653.188	6177
653.245	6606
653.302	6447
653.359	7403
653.415	8296
653.472	6554
653.529	7030
653.586	5589
653.642	6509
653.699	7462
653.756	6236
653.813	6718
653.869	6831
653.926	6800
653.983	6041
654.039	6351
654.096	6835
654.152	7530
654.209	6572
654.266	7475
654.322	6066
654.379	7316
654.435	7557
654.492	7881
654.548	10691
654.605	14427
654.661	8925
654.717	6998
654.774	7062
654.830	6245
654.887	5468
654.943	6947
655.000	7060
655.056	6878
655.112	6988
655.168	6569
655.225	6922
655.281	7453
655.337	9012
655.394	12028
655.450	9568
655.506	8193
655.562	12661
655.618	11185
655.675	6153
655.731	6832
655.787	5958
655.843	7373
655.899	6157
655.955	6486
656.011	7086
656.067	5162
656.123	5955
656.179	6190
656.235	7789
656.291	4971
656.347	7768
656.403	6358
656.459	6843
656.515	7438
656.571	7284
656.627	6869
656.683	7102
656.739	7316
656.795	6742
656.850	7126
656.906	7689
656.962	7828
657.018	6196
657.074	6145
657.129	9854
657.185	11433
657.241	22700
657.297	13838
657.352	6860
657.408	6231
657.464	7390
657.519	6555
657.575	5895
657.630	5506
657.686	6151
657.742	5675
657.797	5763
657.853	5953
657.908	6407
657.964	5359
658.019	5660
658.075	5759
658.130	6302
658.186	5003
658.241	5169
658.297	3907
658.352	5529
658.407	6012
658.463	4956
658.518	5533
658.573	5392
658.629	5496
658.684	4605
658.739	5704
658.795	5385
658.850	5917
658.905	5991
658.960	5131
659.016	4360
659.071	5195
659.126	5773
659.181	7177
659.236	10074
659.291	10995
659.346	7450
659.401	7146
659.457	5681
659.512	5442
659.567	6471
659.622	5266
659.677	5548
659.732	4951
659.787	6021
659.842	5521
659.897	7649
659.952	5693
660.007	5892
660.061	5835
660.116	4804
660.171	5255
660.226	5092
660.281	5687
660.336	5137
660.391	5810
660.445	4026
660.500	5457
660.555	5612
660.610	5587
660.664	6111
660.719	4783
660.774	6190
660.828	5712
660.883	5625
660.938	6109
660.992	4436
661.047	5308
661.101	5229
661.156	4303
661.211	4726
661.265	5193
661.320	5610
661.374	5604
661.429	4630
661.483	5570
661.538	5051
661.592	4727
661.647	5480
661.701	5413
661.755	5433
661.810	5008
661.864	5441
661.919	4580
661.973	5542
662.027	5432
662.081	3683
662.136	4904
662.190	5991
662.244	5388
662.299	4767
662.353	5436
662.407	5153
662.461	4693
662.515	5656
662.569	3973
662.624	6278
662.678	4623
662.732	5050
662.786	4558
662.840	6075
662.894	5027
662.948	5669
663.002	4767
663.056	5095
663.110	3692
663.164	4957
663.218	4812
663.272	5672
663.326	5721
663.380	5714
663.434	5918
663.488	5372
663.542	4512
663.595	5378
663.649	4603
663.703	5049
663.757	5143
663.811	4852
663.864	4242
663.918	4770
663.972	4565
664.026	4269
664.079	5056
664.133	5936
664.187	5211
664.240	4743
664.294	4676
664.348	5259
664.401	5456
664.455	5353
664.508	4527
664.562	4851
664.615	4071
664.669	5018
664.722	5665
664.776	4319
664.829	4798
664.883	4584
664.936	4916
664.990	5162
665.043	5120
665.097	5388
665.150	6512
665.203	5342
665.257	4601
665.310	5596
665.363	5893
665.417	5818
665.470	5051
665.523	5319
665.576	5092
665.630	5528
665.683	4937
665.736	5682
665.789	4233
665.842	4812
665.895	5099
665.949	5769
666.002	5067
666.055	5784
666.108	6142
666.161	5379
666.214	5309
666.267	6017
666.320	6771
666.373	5785
666.426	5490
666.479	4709
666.532	7122
666.585	5918
666.638	6626
666.691	6171
666.744	6505
666.796	6314
666.849	4925
666.902	5325
666.955	5496
667.008	4348
667.060	4924
667.113	5189
667.166	4472
667.219	4742
667.271	5314
667.324	4507
667.377	4890
667.430	4400
667.482	4917
667.535	5471
667.587	5082
667.640	5833
667.693	6612
667.745	11121
667.798	9734
667.850	6024
667.903	5390
667.955	5549
668.008	5681
668.060	5933
668.113	5527
668.165	5692
668.218	5696
668.270	4944
668.322	5499
668.375	5007
668.427	5948
668.479	4966
668.532	5749
668.584	5537
668.636	4723
668.689	5410
668.741	5781
668.793	5725
668.845	4452
668.898	6158
668.950	5036
669.002	5123
669.054	5578
669.106	5514
669.158	6024
669.211	5954
669.263	5341
669.315	5840
669.367	6150
669.419	5356
669.471	7800
669.523	6962
669.575	9373
669.627	7748
669.679	6727
669.731	6090
669.783	6914
669.835	7648
669.886	7105
669.938	6319
669.990	6279
670.042	6352
670.094	7434
670.146	8134
670.197	8683
670.249	10721
670.301	12262
670.353	16299
670.404	22362
670.456	31863
670.508	49697
670.560	82498
670.611	142075
670.663	250427
670.715	556918
670.766	748643
670.818	263668
670.869	60112
670.921	31683
670.972	21340
671.024	16164
671.075	12718
671.127	11396
671.178	9520
671.230	9612
671.281	8592
671.333	8538
671.384	8862
671.436	9591
671.487	11839
671.538	15458
671.590	20928
671.641	31793
671.692	53317
671.744	96963
671.795	63411
671.846	23043
671.897	12863
671.949	8774
672.000	8471
672.051	7217
672.102	7183
672.153	6355
672.204	6232
672.256	6869
672.307	7071
672.358	5799
672.409	5945
672.460	6387
672.511	4769
672.562	5158
672.613	5064
672.664	5049
672.715	5702
672.766	4691
672.817	4356
672.868	4954
672.919	4237
672.970	4351
673.021	5001
673.071	4272
673.122	4017
673.173	4383
673.224	4638
673.275	4613
673.326	5210
673.376	4615
673.427	4213
673.478	4156
673.528	4095
673.579	5285
673.630	4129
673.680	5520
673.731	3450
673.782	3819
673.832	4421
673.883	5022
673.934	3906
673.984	3697
674.035	3873
674.085	3618
674.136	5046
674.186	4570
674.237	5139
674.287	7291
674.338	5245
674.388	3795
674.438	4192
674.489	4574
674.539	4469
674.589	4813
674.640	4375
674.690	4097
674.740	3990
674.791	4920
674.841	4550
674.891	4345
674.942	4518
674.992	3135
675.042	4264
675.092	3785
675.142	3604
675.193	3533
675.243	3548
675.293	4776
675.343	3356
675.393	3708
675.443	3568
675.493	3777
675.543	4108
675.593	3866
675.643	4015
675.693	4252
675.743	4200
675.793	3961
675.843	3184
675.893	3626
675.943	4050
675.993	3484
676.043	3709
676.093	4220
676.142	3546
676.192	3542
676.242	3324
676.292	3142
676.341	3964
676.391	3629
676.441	3242
676.491	3303
676.540	3749
676.590	3366
676.640	2495
676.689	3301
676.739	3175
676.789	3231
676.838	2811
676.888	3229
676.937	3487
676.987	3665
677.037	2860
677.086	2409
677.136	2922
677.185	3063
677.235	3071
677.284	3570
677.333	3369
677.383	2965
677.432	2491
677.482	3844
677.531	2945
677.580	2808
677.630	3699
677.679	2895
677.728	3315
677.778	3319
677.827	2270
677.876	2385
677.925	2747
677.975	3005
678.024	2761
678.073	2373
678.122	3130
678.171	3439
678.220	3216
678.269	3642
678.319	3715
678.368	4505
678.417	3305
678.466	3515
678.515	3238
678.564	3288
678.613	3339
678.662	2434
678.711	2712
678.760	2455
678.809	2418
678.857	3939
678.906	3450
678.955	2851
679.004	3151
679.053	3030
679.102	2507
679.151	2547
679.199	2610
679.248	2843
679.297	3786
679.346	2925
679.394	2281
679.443	2076
679.492	3112
679.540	2995
679.589	3062
679.638	3318
679.686	3421
679.735	2549
679.784	3069
679.832	3645
679.881	3573
679.929	3576
679.978	2744
680.026	2502
680.075	3551
680.123	2179
680.172	2411
680.220	2403
680.268	2299
680.317	1553
680.365	2376
680.414	2614
680.462	2683
680.510	2793
680.559	2922
680.607	2231
680.655	2423
680.703	3129
680.752	3127
680.800	2040
680.848	2450
680.896	2815
680.945	2797
680.993	2212
681.041	2566
681.089	3052
681.137	2134
681.185	2860
681.233	2596
681.258	2298
681.281	1965
681.329	2403
681.377	2084
681.380	2187
681.425	3097
681.473	3487
681.502	3110
681.521	2747
681.569	3598
681.617	3011
681.624	3173
681.665	3832
681.713	3585
681.745	3713
681.761	3698
681.809	2691
681.857	3854
681.867	3898
681.904	3837
681.952	3844
681.989	4324
682.000	4403
682.048	4120
682.096	4536
682.111	4397
682.143	3915
682.191	4763
682.233	4856
682.239	4822
682.286	4806
682.334	4045
682.354	4256
682.382	4427
682.430	5029
682.476	5358
682.477	5319
682.525	4428
682.572	4862
682.598	5155
682.620	5342
682.667	5934
682.715	5775
682.720	5835
682.763	5856
682.810	5755
682.841	5777
682.857	5727
682.905	6275
682.952	5947
682.963	6000
683.000	6074
683.047	5652
683.085	6201
683.095	6273
683.142	6257
683.190	6759
683.206	6494
683.237	5956
683.284	7543
683.328	7181
683.332	7103
683.379	6751
683.426	6593
683.449	6779
683.473	6939
683.521	6898
683.568	7392
683.571	7428
683.615	7359
683.662	7610
683.693	7367
683.709	7151
683.757	7090
683.804	7770
683.814	7665
683.851	7232
683.898	8189
683.936	8181
683.945	8146
683.992	8245
684.039	8446
684.057	8409
684.086	8230
684.133	9383
684.179	8988
684.180	8938
684.227	9048
684.274	9412
684.300	9441
684.321	9454
684.368	8667
684.415	9079
684.422	9091
684.462	8935
684.509	9367
684.543	9379
684.556	9348
684.603	9245
684.649	9541
684.665	9552
684.696	9634
684.743	10034
684.786	10160
684.790	10143
684.837	10135
684.883	10560
684.908	10941
684.930	11231
684.977	11095
685.023	11109
685.029	11162
685.070	11039
685.117	11136
685.150	11297
685.164	11438
685.210	11373
685.257	12108
685.272	12310
685.303	12510
685.350	11866
685.393	12148
685.396	12171
685.443	12368
685.490	13242
685.514	13168
685.536	12918
685.583	13012
685.629	13106
685.636	12981
685.675	12101
685.722	12455
685.757	12685
685.768	12768
685.815	12598
685.861	13085
685.878	12962
685.908	12777
685.954	12994
686.000	13343
686.000	13340
686.047	14077
686.093	14987
686.121	14831
686.139	14470
686.185	14145
686.232	14278
686.242	14185
686.278	13831
686.324	13531
686.363	13101
686.370	13054
686.416	13488
686.463	14260
686.484	14088
686.509	13838
686.555	13485
686.601	13970
686.606	13983
686.647	14101
686.693	13797
686.727	13624
686.739	13538
686.785	14149
686.831	14713
686.848	14359
686.877	13750
686.923	13821
686.969	13748
686.969	13746
687.015	14398
687.061	14889
687.090	14891
687.107	14780
687.153	14579
687.199	15067
687.211	14846
687.245	14488
687.291	14479
687.332	15515
687.336	15624
687.382	15561
687.428	15305
687.453	15662
687.474	15718
687.520	15434
687.565	15634
687.574	15434
687.611	15036
687.657	15699
687.695	15774
687.702	15805
687.748	16302
687.794	16512
687.816	16580
687.839	16259
687.885	16343
687.931	15074
687.937	15075
687.976	15814
688.022	16132
688.058	16373
688.067	16379
688.113	16612
688.158	16325
688.179	16288
688.204	16370
688.249	16678
688.295	16949
688.300	16985
688.340	17245
688.386	17425
688.421	17163
688.431	17076
688.477	16995
688.522	17462
688.542	17452
688.567	17525
688.613	17162
688.658	17548
688.663	17562
688.703	17677
688.749	17368
688.784	17247
688.794	17215
688.839	17099
688.884	17242
688.905	17118
688.930	17117
688.975	17249
689.020	17679
689.026	17671
689.065	17819
689.110	17979
689.146	17864
689.155	17811
689.201	17616
689.246	18093
689.267	18064
689.291	18136
689.336	18473
689.381	18357
689.388	18283
689.426	18005
689.471	18172
689.509	18386
689.516	18434
689.561	18054
689.606	17834
689.630	18015
689.651	18235
689.696	18027
689.741	18624
689.750	18577
689.785	18500
689.830	18069
689.871	17912
689.875	17914
689.920	18233
689.965	18178
689.992	17961
690.010	17968
690.054	18108
690.099	18691
690.112	18792
690.144	18905
690.189	18303
690.233	18215
690.233	18240
690.278	17909
690.323	18255
690.354	17856
690.367	17779
690.412	18627
690.457	18284
690.474	18373
690.501	18520
690.546	18763
690.590	18019
690.595	18024
690.635	18377
690.680	18524
690.716	18265
690.724	18282
690.769	19443
690.813	19276
690.836	19280
690.857	19418
690.902	19892
690.946	20567
690.957	20681
690.991	21578
691.035	22165
691.077	23186
691.080	23228
691.124	23054
691.168	22989
691.198	23164
691.213	23116
691.257	22500
691.301	21740
691.318	21457
691.346	21254
691.390	20835
691.434	20297
691.439	20252
691.478	20823
691.522	21097
691.559	21310
691.567	21356
691.611	21421
691.655	21376
691.680	21329
691.699	21294
691.743	21175
691.787	21381
691.800	21317
691.831	21584
691.875	21953
691.919	22374
691.921	22334
691.964	22199
692.008	22803
692.041	22829
692.052	22807
692.096	22617
692.139	22454
692.162	22214
692.183	22049
692.227	22112
692.271	21715
692.282	21655
692.315	22095
692.359	22364
692.402	22819
692.403	22861
692.447	22667
692.490	22003
692.523	21889
692.534	22076
692.578	22386
692.622	22767
692.643	22776
692.666	22591
692.709	22250
692.753	21974
692.763	21930
692.797	22251
692.840	22232
692.884	22417
692.884	22462
692.928	22035
692.971	22248
693.004	22133
693.015	22190
693.059	22467
693.102	22403
693.124	22403
693.146	22576
693.189	22657
693.233	23047
693.245	23085
693.276	23386
693.320	23681
693.363	23808
693.365	23762
693.407	23830
693.450	24021
693.485	24193
693.493	24216
693.537	24190
693.580	23962
693.605	23759
693.624	24183
693.667	24968
693.710	26003
693.725	26325
693.753	28004
693.797	30200
693.840	32532
693.845	32769
693.883	31892
693.926	30480
693.966	29344
693.970	29227
694.013	27196
694.056	25518
694.086	24375
694.099	24611
694.142	24656
694.185	24834
694.206	24960
694.229	25177
694.272	25265
694.315	25489
694.326	25491
694.358	25509
694.401	25233
694.444	25347
694.446	25288
694.487	25406
694.530	25406
694.566	25409
694.573	25387
694.616	24678
694.659	24112
694.686	23749
694.702	23908
694.745	24168
694.787	24411
694.806	24420
694.830	24365
694.873	24537
694.916	24017
694.926	23993
694.959	24406
695.002	24338
695.044	24818
695.046	24774
695.087	24974
695.130	24774
695.166	24900
695.172	25025
695.215	25169
695.258	25369
695.286	25672
695.301	25624
695.343	24800
695.386	24547
695.406	24060
695.428	24223
695.471	24800
695.514	25338
695.526	25416
695.556	26007
695.599	26818
695.641	27498
695.646	27536
695.684	27337
695.726	26875
695.766	26189
695.769	26235
695.811	26311
695.854	26200
695.886	26100
695.896	26144
695.938	25955
695.981	25944
696.005	25748
696.023	25955
696.065	26426
696.108	26944
696.125	27115
696.150	27405
696.192	27426
696.235	27816
696.245	27838
696.277	27767
696.319	27382
696.361	27162
696.365	27069
696.404	27234
696.446	27329
696.485	27465
696.488	27566
696.530	27790
696.572	28211
696.604	28346
696.614	28338
696.656	28147
696.698	27779
696.724	27574
696.740	27641
696.783	27576
696.825	27599
696.844	27529
696.867	27778
696.909	27867
696.951	28214
696.964	28242
696.992	28014
697.034	27443
697.076	26936
697.083	26778
697.118	27481
697.160	28332
697.202	29169
697.203	29117
697.244	28847
697.286	28561
697.323	28053
697.327	28113
697.369	28103
697.411	28148
697.442	28057
697.453	28198
697.494	28466
697.536	28766
697.562	28879
697.578	29018
697.620	29160
697.661	29263
697.682	29326
697.703	29573
697.744	29750
697.786	30011
697.801	30013
697.828	30299
697.869	30613
697.911	30864
697.921	30872
697.952	30426
697.994	29645
698.035	28942
698.040	28774
698.077	28985
698.118	29183
698.160	29323
698.160	29246
698.201	29319
698.243	29299
698.279	29209
698.284	29321
698.325	29655
698.367	29983
698.399	30132
698.408	30203
698.449	30175
698.491	30144
698.518	30047
698.532	30265
698.573	30700
698.614	31120
698.638	31269
698.656	31222
698.697	30939
698.738	30636
698.757	30407
698.779	30764
698.820	31301
698.862	31831
698.877	31944
698.903	31847
698.944	31553
698.985	31264
698.996	31101
699.026	31260
699.067	31373
699.116	31424
699.235	32178
699.354	30618
699.474	30426
699.593	31532
699.713	30952
699.832	30461
699.951	31558
700.070	30582
700.190	29137
700.309	28963
700.428	29784
700.547	29520
700.667	29279
700.786	29965
700.905	28399
701.024	29771
701.143	28197
701.262	27313
701.381	28143
701.500	29235
701.619	28731
701.738	28436
701.857	28045
701.976	26848
702.095	27136
702.214	29032
702.333	28924
702.452	28345
702.571	27790
702.690	27282
702.809	27686
702.928	25555
703.047	25432
703.165	25321
703.284	26668
703.403	25127
703.522	27271
703.640	26602
703.759	27930
703.878	30996
703.997	25452
704.115	25246
704.234	25348
704.353	25167
704.471	23016
704.590	25357
704.708	23566
704.827	23461
704.946	24322
705.064	23703
705.183	23578
705.301	26738
705.420	35203
705.538	31855
705.656	27532
705.775	26719
705.893	28871
706.012	29585
706.130	29280
706.249	28712
706.367	29109
706.485	28571
706.604	27656
706.722	27626
706.840	31126
706.958	30235
707.077	27472
707.195	26479
707.313	26257
707.431	25241
707.549	25631
707.668	24637
707.786	26575
707.904	24176
708.022	25684
708.140	25555
708.258	24082
708.376	25260
708.494	24842
708.612	26873
708.730	35737
708.848	33311
708.966	30496
709.084	29129
709.202	29258
709.320	29331
709.438	29043
709.556	28947
709.674	28862
709.791	28463
709.909	28080
710.027	28525
710.145	26544
710.263	28326
710.380	27346
710.498	27413
710.616	27467
710.733	27136
710.851	26744
710.969	27592
711.086	26341
711.204	26021
711.322	26199
711.439	26351
711.557	25977
711.674	25012
711.792	25667
711.909	24475
712.027	24302
712.144	24153
712.262	24881
712.379	26998
712.497	35767
712.614	34733
712.732	30777
712.849	28918
712.966	30249
713.084	34243
713.201	31121
713.318	30292
713.436	30863
713.553	29481
713.670	30311
713.787	32715
713.905	31541
714.022	29986
714.139	29642
714.256	34619
714.373	40098
714.490	61098
714.608	141990
714.725	553584
714.842	492410
714.959	52648
715.076	33582
715.193	30154
715.310	28205
715.427	27715
715.544	26764
715.661	26270
715.778	27123
715.895	28069
716.011	28526
716.128	26314
716.245	25999
716.362	28412
716.479	28640
716.596	24985
716.713	25615
716.829	24664
716.946	24522
717.063	23580
717.180	23133
717.296	22732
717.413	23866
717.530	22588
717.646	23460
717.763	21670
717.880	21661
717.996	22321
718.113	22830
718.229	21693
718.346	21000
718.462	22595
718.579	25468
718.695	32261
718.812	27304
718.928	25554
719.045	21568
719.161	20056
719.277	20701
719.394	20312
719.510	22745
719.626	22909
719.743	27335
719.859	31398
719.975	51936
720.092	178295
720.208	355066
720.324	48516
720.440	23437
720.557	25001
720.673	29714
720.789	34476
720.905	53839
721.021	25803
721.137	20353
721.253	19783
721.369	20279
721.486	20976
721.602	25117
721.718	19622
721.834	18487
721.950	19024
722.066	18143
722.181	18082
722.297	19273
722.413	19009
722.529	18733
722.645	18432
722.761	17256
722.877	17450
722.993	18004
723.108	19847
723.224	18446
723.340	18213
723.456	17600
723.571	17075
723.687	16099
723.803	17558
723.918	16714
724.034	17137
724.150	17136
724.265	17645
724.381	26113
724.497	28311
724.612	15727
724.728	15567
724.843	15387
724.959	17918
725.074	25845
725.190	26053
725.305	16609
725.421	15981
725.536	15330
725.651	15699
725.767	14536
725.882	14581
725.997	15909
726.113	15263
726.228	14820
726.343	15134
726.459	14211
726.574	14906
726.689	13560
726.804	14407
726.920	13820
727.035	13769
727.150	13912
727.265	14652
727.380	14134
727.495	14127
727.610	13600
727.725	14156
727.841	12067
727.956	14214
728.071	15161
728.186	13670
728.301	12905
728.416	14939
728.531	14162
728.645	12469
728.760	13251
728.875	13629
728.990	13276
729.105	14142
729.220	13386
729.335	14030
729.449	12886
729.564	12303
729.679	12605
729.794	12360
729.908	13159
730.023	12687
730.138	11790
730.253	12222
730.367	11536
730.482	11908
730.596	12431
730.711	12949
730.826	13641
730.940	12184
731.055	13414
731.169	13054
731.284	11836
731.398	12845
731.513	13995
731.627	14359
731.742	15559
731.856	15596
731.970	14730
732.085	17215
732.199	22105
732.313	31226
732.428	75322
732.542	214106
732.656	111142
732.771	25933
732.885	17615
732.999	16582
733.113	17401
733.227	16363
733.342	15485
733.456	14577
733.570	14085
733.684	13971
733.798	14904
733.912	14775
734.026	13421
734.140	13991
734.254	14886
734.368	18217
734.482	19323
734.596	13792
734.710	13283
734.824	13928
734.938	13481
735.052	13155
735.166	14178
735.280	13423
735.393	13193
735.507	13840
735.621	15006
735.735	18694
735.849	13723
735.962	12932
736.076	14126
736.190	13554
736.303	14979
736.417	16696
736.531	12068
736.644	12591
736.758	12159
736.872	11186
736.985	11942
737.099	12650
737.212	11286
737.326	11971
737.439	12071
737.553	11774
737.666	12378
737.780	11460
737.893	11080
738.007	10770
738.120	11987
738.233	11341
738.347	11511
738.460	11892
738.573	13412
738.687	11885
738.800	12385
738.913	12900
739.026	11466
739.140	11018
739.253	10827
739.366	11584
739.479	10473
739.592	10159
739.705	10468
739.818	11433
739.932	11111
740.045	11478
740.158	10477
740.271	11095
740.384	11106
740.497	10158
740.610	11449
740.723	10493
740.836	10671
740.949	11029
741.062	13741
741.174	11966
741.287	11401
741.400	10704
741.513	10967
741.626	11999
741.739	10371
741.851	10506
741.964	10429
742.077	10638
742.189	10324
742.302	10812
742.415	10568
742.527	9802
742.640	9994
742.753	10186
742.865	9384
742.978	10049
743.090	9200
743.203	9503
743.316	9119
743.428	9734
743.541	8928
743.653	8755
743.766	8754
743.878	9453
743.990	9889
744.103	10286
744.215	9465
744.327	9029
744.440	11078
744.552	13361
744.664	10386
744.777	9023
744.889	8002
745.001	9104
745.113	8282
745.226	8618
745.338	8324
745.450	9243
745.562	9290
745.674	8443
745.786	7902
745.898	8482
746.010	9087
746.122	8118
746.234	9058
746.347	8961
746.459	8982
746.570	7900
746.682	8936
746.794	8894
746.906	8908
747.018	7944
747.130	7981
747.242	8707
747.354	6939
747.466	8546
747.577	7693
747.689	8452
747.801	8698
747.913	7535
748.024	7498
748.136	7637
748.248	7457
748.359	8122
748.471	7710
748.583	7732
748.694	8122
748.806	7752
748.918	8776
749.029	8216
749.141	8875
749.252	8304
749.364	8730
749.475	13582
749.587	9765
749.698	7241
749.809	7347
749.921	7573
750.032	8056
750.144	7285
750.255	6996
750.366	6976
750.478	7408
750.589	7193
750.700	7738
750.811	8050
750.923	8713
751.034	13787
751.145	12848
751.256	8106
751.367	7312
751.479	7504
751.590	7173
751.701	7470
751.812	6922
751.923	7165
752.034	6541
752.145	6333
752.256	6431
752.367	6450
752.478	7901
752.589	7518
752.700	7271
752.811	6756
752.922	6735
753.032	7679
753.143	8246
753.254	6144
753.365	7704
753.476	7177
753.586	6162
753.697	6961
753.808	6745
753.919	6652
754.029	6695
754.140	6774
754.251	6880
754.361	6958
754.472	6777
754.582	6931
754.693	6716
754.804	6717
754.914	6670
755.025	6409
755.135	5921
755.246	6361
755.356	6157
755.466	7186
755.577	6630
755.687	7161
755.798	6193
755.908	6615
756.018	5872
756.129	6495
756.239	5440
756.349	6886
756.460	6386
756.570	7117
756.680	6044
756.790	6887
756.900	7169
757.011	6323
757.121	7012
757.231	5586
757.341	6403
757.451	5637
757.561	6128
757.671	6359
757.781	5834
757.891	6195
758.001	5699
758.111	7206
758.221	6591
758.331	7553
758.441	7319
758.551	8142
758.661	7017
758.771	6756
758.880	6933
758.990	6877
759.100	6666
759.210	6047
759.320	7682
759.429	6771
759.539	7319
759.649	7083
759.758	7278
759.868	7635
759.978	7046
760.087	7876
760.197	7565
760.307	7307
760.416	7112
760.526	7214
760.635	7930
760.745	7390
760.854	8227
760.964	8211
761.073	8618
761.182	8303
761.292	7599
761.401	7620
761.511	6866
761.620	7824
761.729	6941
761.839	6885
761.948	6990
762.057	7213
762.166	5643
762.276	5214
762.385	6579
762.494	6248
762.603	5594
762.712	6093
762.822	6482
762.931	6733
763.040	5789
763.149	5966
763.258	6195
763.367	6593
763.476	7068
763.585	6578
763.694	6874
763.803	6720
763.912	7225
764.021	6871
764.130	6233
764.238	7073
764.347	7122
764.456	7448
764.565	7654
764.674	7208
764.783	7618
764.891	7483
765.000	8184
765.109	9118
765.217	7878
765.326	10117
765.435	11186
765.543	11214
765.652	12004
765.761	13636
765.869	19850
765.978	28623
766.086	47633
766.195	92882
766.303	240837
766.412	638181
766.520	525973
766.629	148154
766.737	55391
766.846	32797
766.954	22425
767.062	18590
767.171	15070
767.279	13293
767.387	11310
767.496	10912
767.604	9655
767.712	9481
767.820	8608
767.928	8652
768.037	8317
768.145	9046
768.253	9166
768.361	8181
768.469	8311
768.577	8376
768.685	8414
768.793	8374
768.901	8483
769.009	10083
769.117	10104
769.225	10760
769.333	15325
769.441	21561
769.549	39375
769.657	85780
769.765	274248
769.873	541448
769.981	189820
770.088	46247
770.196	23896
770.304	17087
770.412	13912
770.519	12856
770.627	10558
770.735	9616
770.842	8811
770.950	8878
771.058	8761
771.165	9017
771.273	8623
771.380	8149
771.488	8594
771.595	9365
771.703	9022
771.810	9119
771.918	8559
772.025	8655
772.133	9377
772.240	9167
772.348	10104
772.455	10201
772.562	8722
772.670	7749
772.777	9067
772.884	8410
772.991	8193
773.099	8258
773.206	8027
773.313	8544
773.420	7711
773.528	7128
773.635	7243
773.742	8796
773.849	8149
773.956	8366
774.063	8059
774.170	7835
774.277	8610
774.384	7795
774.491	6918
774.598	8970
774.705	7857
774.812	9070
774.919	8641
775.026	8443
775.133	7490
775.239	8110
775.346	7638
775.453	7455
775.560	7619
775.667	7957
775.773	6689
775.880	7497
775.987	7787
776.093	8505
776.200	7453
776.307	7707
776.413	8279
776.520	8122
776.627	6606
776.733	6628
776.840	6221
776.946	9370
777.053	6818
777.159	8046
777.266	6847
777.372	8012
777.478	7262
777.585	7561
777.691	6655
777.798	7509
777.904	7979
778.010	8337
778.117	8280
778.223	6656
778.329	5768
778.435	6964
778.542	6998
778.648	5992
778.754	6494
778.860	7661
778.966	7081
779.072	5919
779.178	6743
779.284	6260
779.391	5788
779.497	5469
779.603	8077
779.708	5874
779.815	9198
779.920	16506
780.026	26257
780.132	8563
780.238	5914
780.344	6356
780.450	7027
780.556	5233
780.661	6289
780.767	6140
780.873	5628
780.979	6926
781.085	6350
781.190	6259
781.296	5955
781.402	5445
781.507	5950
781.613	5693
781.719	5921
781.824	5658
781.930	6171
782.035	5912
782.141	6207
782.246	5343
782.352	5407
782.457	6137
782.563	6726
782.668	5783
782.773	5884
782.879	4819
782.984	5913
783.090	7487
783.195	8381
783.300	7005
783.405	5464
783.511	5611
783.616	5839
783.721	6055
783.826	4379
783.932	5540
784.037	5674
784.142	6068
784.247	5158
784.352	5535
784.457	5895
784.562	5962
784.667	5297
784.772	5372
784.877	4713
784.982	5956
785.087	5219
785.192	5795
785.297	5668
785.402	4957
785.507	5200
785.611	4920
785.716	4687
785.821	5242
785.926	4424
786.031	5575
786.135	4500
786.240	5297
786.345	3653
786.450	5647
786.554	4634
786.659	5075
786.763	3885
786.868	4958
786.973	6566
787.077	5061
787.182	4589
787.286	5081
787.391	4623
787.495	4844
787.600	3718
787.704	4258
787.809	4841
787.913	4242
788.017	4692
788.122	4898
788.226	4968
788.330	3250
788.435	4494
788.539	4933
788.643	3716
788.747	4039
788.852	4953
788.956	4266
789.060	5326
789.164	4492
789.268	3525
789.372	5394
789.476	4101
789.580	3527
789.684	3438
789.788	5469
789.892	4359
789.996	4135
790.100	3933
790.204	3792
790.308	5054
790.412	4509
790.516	4120
790.620	3498
790.724	4552
790.828	4127
790.931	3416
791.035	4707
791.139	3664
791.242	4352
791.346	4951
791.450	3857
791.554	3653
791.657	3136
791.761	4607
791.864	5334
791.968	4606
792.072	4826
792.175	4342
792.279	3881
792.382	4466
792.486	4103
792.589	4209
792.693	4688
792.796	2980
792.899	4444
793.003	5289
793.106	2417
793.209	4166
793.313	5031
793.416	2427
793.519	5248
793.623	6506
793.726	6447
793.829	3471
793.932	3885
794.035	3142
794.138	5777
794.242	4776
794.345	4095
794.448	4376
794.551	5749
794.654	10498
794.757	14601
794.860	5676
794.963	4300
795.066	3003
795.169	4809
795.272	3649
795.375	4515
795.477	3524
795.580	4264
795.683	2778
795.786	4392
795.889	2863
795.991	4230
796.094	5201
796.197	2797
796.300	4387
796.402	3362
796.505	2603
796.608	2853
796.710	4281
796.813	3261
796.915	4069
797.018	3461
797.120	3623
797.223	2898
797.326	4156
797.428	2165
797.530	2741
797.633	3010
797.735	5389
797.838	4529
797.940	5173
798.042	3326
798.145	3549
798.247	4108
798.349	2247
798.452	4184
798.554	3119
798.656	3239
798.758	4834
798.860	3290
798.962	2931
799.065	3876
799.167	1816
799.269	4894
799.371	4854
799.473	4829
799.575	2281
799.677	4010
799.779	4895
799.881	4806
799.983	4794
800.085	3032
800.187	2803
800.289	1953
800.390	3252
800.492	3635
800.594	3639
800.696	2585
800.798	3019
800.899	2980
801.001	3616
801.103	2407
801.205	3058
801.306	3896
801.408	2250
801.509	3085
801.611	3180
801.713	3587
801.814	1957
801.916	2966
802.017	3094
802.119	1859
802.220	3522
802.322	1827
802.423	4729
802.525	2257
802.626	3188
802.727	3418
802.829	3230
802.930	1585
803.031	4194
803.133	2253
803.234	2667
803.335	3548
803.436	2380
803.538	2028
803.639	1517
803.740	3043
803.841	2472
803.942	2479
804.043	3422
804.144	2320
804.245	2891
804.346	2120
804.447	2686
804.548	3689
804.649	4780
804.750	2395
804.851	2647
804.952	2757
805.053	2947
805.154	2003
805.255	2562
805.355	2849
805.456	2796
805.557	1500
805.658	1253
805.758	4133
805.859	3087
805.960	3495
806.061	2102
806.161	2332
806.262	2283
806.362	1870
806.463	1776
806.564	2616
806.664	2308
806.765	3192
806.865	3022
806.966	2837
807.066	2018
807.166	3337
807.267	2402
807.367	1872
807.468	2741
807.568	1832
807.668	2871
807.769	3252
807.869	2320
807.969	2633
808.069	2933
808.170	2706
808.270	1929
808.370	2907
808.470	3384
808.570	2774
808.670	2218
808.770	3127
808.870	2136
808.970	2644
809.070	2234
809.170	1387
809.271	3210
809.370	1925
809.470	2493
809.570	2238
809.670	2316
809.770	1948
809.870	2807
809.970	2493
810.070	1696
810.169	2724
810.269	857
810.369	3590
810.469	2508
810.568	1872
810.668	2330
810.768	1963
810.867	2659
810.967	2693
811.066	1936
811.166	2390
811.265	3191
811.365	2245
811.464	1910
811.564	3569
811.663	3058
811.763	1598
811.862	3849
811.962	3607
812.061	1783
812.160	2105
812.260	2282
812.359	4123
812.458	5690
812.557	14586
812.657	20900
812.756	6805
812.855	3902
812.954	2651
813.053	2833
813.153	3145
813.252	2241
813.351	3057
813.450	1968
813.549	2443
813.648	2628
813.747	2724
813.846	3405
813.945	2328
814.044	2750
814.143	2195
814.242	3819
814.341	3432
814.439	3283
814.538	3344
814.637	3645
814.736	3512
814.835	4039
814.933	2929
815.032	3574
815.131	3511
815.229	5258
815.328	6677
815.427	5200
815.525	5014
815.624	5495
815.722	5378
815.821	5747
815.919	5768
816.018	5156
816.116	6692
816.215	6432
816.313	6082
816.412	6537
816.510	7004
816.609	8714
816.707	8469
816.805	7799
816.904	8487
817.002	8531
817.100	9706
817.198	11690
817.296	11684
817.395	12771
817.493	15173
817.591	16513
817.689	21912
817.787	28822
817.885	44164
817.983	71833
818.081	139575
818.179	295602
818.277	583981
818.375	494130
818.473	201582
818.571	94397
818.669	64102
818.767	53234
818.865	52324
818.963	62067
819.061	84125
819.158	132602
819.256	244785
819.354	474459
819.452	722209
819.549	536183
819.647	257593
819.745	129105
819.842	78817
819.940	54635
820.038	39713
820.135	31051
820.233	27245
820.330	20394
820.428	18014
820.525	16483
820.623	14270
820.720	11168
820.818	12504
820.915	10934
821.012	10489
821.110	8473
821.207	9257
821.304	7784
821.402	7604
821.499	8618
821.596	8017
821.693	7476
821.791	8272
821.888	8268
821.985	10732
822.082	7666
822.179	7102
822.276	5452
822.373	5994
822.470	5573
822.567	5671
822.664	4130
822.761	5448
822.858	4122
822.955	4281
823.052	4636
823.149	4813
823.246	5441
823.343	3665
823.440	4799
823.536	4243
823.633	3647
823.730	3931
823.827	4724
823.923	4140
824.020	4477
824.117	4342
824.213	3274
824.310	4608
824.407	3512
824.503	4640
824.600	3965
824.696	3533
824.793	5022
824.889	3199
824.986	4317
825.082	2991
825.179	3698
825.275	3713
825.371	3034
825.468	3613
825.564	1984
825.660	4038
825.757	4076
825.853	3526
825.949	1769
826.045	3295
826.142	3342
826.238	3512
826.334	3550
826.430	2923
826.526	2978
826.622	1886
826.718	3841
826.814	3509
826.910	4024
827.006	2680
827.102	1738
827.198	3607
827.294	1905
827.390	4084
827.486	3291
827.582	1877
827.678	1983
827.774	3930
827.869	1231
827.965	4148
828.061	2505
828.157	3711
828.252	2948
828.348	1269
828.444	2651
828.539	1611
828.635	2986
828.731	3118
828.826	1350
828.922	3425
829.017	2972
829.113	3153
829.208	2229
829.304	3077
829.399	4273
829.495	2590
829.590	2718
829.685	2410
829.781	2787
829.876	2059
829.971	2300
830.066	505
830.162	2425
830.257	2854
830.352	1902
830.447	2434
830.543	3414
830.638	2695
830.733	3221
830.828	1337
830.923	3493
831.018	2979
831.113	2428
831.208	2115
831.303	1668
831.398	2305
831.493	2342
831.588	3097
831.683	1271
831.778	2245
831.873	1927
831.967	3333
832.062	2178
832.157	2564
832.252	3072
832.346	1524
832.441	3801
832.536	3501
832.631	6920
832.725	5723
832.820	1435
832.914	2827
833.009	2468
833.104	3028
833.198	2401
833.293	1834
833.387	2839
833.482	2271
833.576	2439
833.670	2819
833.765	2298
833.859	2619
833.954	3420
834.048	2812
834.142	1943
834.237	1059
834.331	2169
834.425	2258
834.519	2059
834.613	1987
834.708	1798
834.802	1552
834.896	2298
834.990	2665
835.084	2279
835.178	1677
835.272	2052
835.366	1870
835.460	3175
835.554	2582
835.648	1907
835.742	2216
835.836	1679
835.930	1332
836.024	2427
836.117	2312
836.211	1990
836.305	2527
836.399	3593
836.493	1301
836.586	2726
836.680	1190
836.774	1386
836.867	2747
836.961	863
837.055	1279
837.148	1639
837.242	1965
837.335	1485
837.429	2375
837.522	1764
837.616	2138
837.709	3753
837.803	2727
837.896	2255
837.989	2095
838.083	2877
838.176	4103
838.269	3410
838.363	2994
838.456	1245
838.549	3315
838.642	3985
838.735	8731
838.829	4313
838.922	1221
839.015	2487
839.108	1867
839.201	1572
839.294	2024
839.387	1716
839.480	922
839.573	2255
839.666	3563
839.759	1604
839.852	1043
839.945	2883
840.038	718
840.131	1862
840.223	1178
840.316	2063
840.409	1709
840.502	776
840.594	2551
840.687	817
840.780	1664
840.873	1956
840.965	1852
841.058	2932
841.150	3432
841.243	2477
841.336	1547
841.428	1101
841.521	1384
841.613	733
841.706	1847
841.798	1712
841.890	1994
841.983	798
842.075	2890
842.167	1869
842.260	2167
842.352	2529
842.444	2945
842.537	5072
842.629	6006
842.721	2078
842.813	1168
842.905	1269
842.997	2275
843.090	2072
843.182	3050
843.274	3825
843.366	9397
843.458	14505
843.550	9587
843.642	2590
843.734	2102
843.826	2220
843.918	1811
844.009	2423
844.101	866
844.193	2033
844.285	1119
844.377	1455
844.469	2626
844.560	1283
844.652	1387
844.744	1867
844.835	870
844.927	2339
845.019	1897
845.110	1888
845.202	1981
845.293	1924
845.385	1613
845.476	1381
845.568	2826
845.659	1483
845.751	1915
845.842	1443
845.934	467
846.025	1237
846.116	1880
846.208	1298
846.299	1886
846.390	1783
846.482	1683
846.573	2108
846.664	2402
846.755	2799
846.846	3233
846.937	532
847.029	852
847.120	716
847.211	1408
847.302	2385
847.393	641
847.484	1736
847.575	1182
847.666	1028
847.757	1212
847.847	1563
847.938	1228
848.029	1048
848.120	759
848.211	1575
848.302	775
848.392	1243
848.483	1909
848.574	1974
848.664	1673
848.755	1730
848.846	1845
848.936	930
849.027	1101
849.118	1223
849.208	1032
849.299	2721
849.389	3599
849.480	6482
849.570	11315
849.661	20989
849.751	35066
849.841	11335
849.932	3560
850.022	1706
850.112	2066
850.203	1027
850.293	1295
850.383	618
850.474	792
850.564	1557
850.654	1540
850.744	1871
850.834	1305
850.924	1911
851.014	1951
851.104	1492
851.194	1392
851.284	2042
851.374	2960
851.464	1498
851.554	1918
851.644	1256
851.734	2310
851.824	2194
851.914	1377
852.004	1100
852.094	1265
852.183	1119
852.273	1899
852.363	1452
852.452	1371
852.542	1800
852.632	734
852.721	1033
852.811	908
852.901	1217
852.990	1536
853.080	1471
853.169	1685
853.259	1071
853.348	2084
853.438	2086
853.527	3606
853.617	4334
853.706	8402
853.795	14856
853.885	32111
853.974	61058
854.063	113289
854.152	166314
854.242	58273
854.331	10647
854.420	5284
854.509	4189
854.598	3916
854.687	3628
854.777	3654
854.866	2111
854.955	2279
855.044	1173
855.133	1428
855.222	2309
855.311	1243
855.400	1619
855.488	1961
855.577	1016
855.666	1054
855.755	1562
855.844	1005
855.933	456
856.021	1851
856.110	2089
856.199	495
856.288	1608
856.376	1812
856.465	616
856.554	2165
856.642	1302
856.731	1223
856.819	919
856.908	805
856.996	1887
857.085	1149
857.173	1442
857.262	1472
857.350	1139
857.438	758
857.527	2323
857.615	1375
857.703	1957
857.792	741
857.880	1102
857.968	801
858.056	1564
858.145	1547
858.233	781
858.321	1245
858.409	2279
858.497	1681
858.585	838
858.673	1353
858.761	886
858.849	1633
858.937	1122
859.025	1386
859.113	1529
859.201	889
859.289	1134
859.377	1262
859.465	1367
859.552	416
859.640	1245
859.728	1830
859.816	1377
859.903	1208
859.991	919
860.079	1179
860.166	1088
860.254	1587
860.342	1366
860.429	972
860.517	1251
860.604	1040
860.692	1193
860.779	1335
860.867	881
860.954	1096
861.042	1436
861.129	1445
861.216	1140
861.304	1439
861.391	1662
861.478	1518
861.565	863
861.653	2133
861.740	263
861.827	523
861.914	1313
862.001	834
862.089	776
862.176	574
862.263	1453
862.350	1284
862.437	1046
862.524	272
862.611	1817
862.698	1080
862.785	2125
862.871	1643
862.958	713
863.045	1296
863.132	1636
863.219	967
863.306	843
863.392	1044
863.479	1146
863.566	1649
863.652	1161
863.739	1338
863.826	1530
863.912	1423
863.999	695
864.086	1585
864.172	697
864.259	1538
864.345	1652
864.432	1683
864.518	1601
864.604	1450
864.691	993
864.777	1468
864.863	1799
864.950	2667
865.036	2247
865.122	4482
865.209	4667
865.295	4350
865.381	3823
865.467	4310
865.553	5659
865.639	6564
865.726	9775
865.812	17686
865.898	33375
865.984	47615
866.070	91318
866.156	90751
866.242	23611
866.328	6628
866.414	4581
866.499	4928
866.585	4272
866.671	3887
866.757	3735
866.843	3710
866.928	3313
867.014	2725
867.100	3558
867.186	3341
867.271	3441
867.357	4799
867.442	4623
867.528	3523
867.614	2717
867.699	2183
867.785	2751
867.870	2984
867.956	2910
868.041	4078
868.127	3800
868.212	3128
868.297	3034
868.383	3113
868.468	3362
868.553	4774
868.639	5141
868.724	10296
868.809	9348
868.894	4314
868.979	2780
869.065	3060
869.150	2002
869.235	2413
869.320	2200
869.405	2370
869.490	2274
869.575	2028
869.660	1790
869.745	2483
869.830	1851
869.915	2799
870.000	2190
870.085	2540
870.169	2920
870.254	3557
870.339	1814
870.424	2150
870.509	1720
870.593	3132
870.678	1792
870.763	1693
870.847	2154
870.932	1834
871.016	2096
871.101	1539
871.186	1954
871.270	2570
871.355	685
871.439	1160
871.523	2482
871.608	1929
871.692	1497
871.777	3243
871.861	2699
871.945	2239
872.030	2373
872.114	1073
872.198	1350
872.282	2382
872.367	1785
872.451	1928
872.535	2518
872.619	1819
872.703	1344
872.787	2112
872.871	1229
872.955	1367
873.039	1096
873.123	1966
873.207	2694
873.291	1502
873.375	1032
873.459	2356
873.543	2065
873.627	1645
873.711	1088
873.794	2322
873.878	1524
873.962	1050
874.045	1405
874.129	1631
874.137	1641
874.213	1742
874.245	1800
874.296	1895
874.352	1600
874.380	1460
874.460	1838
874.464	1852
874.547	1740
874.568	1661
874.631	1455
874.676	1829
874.714	2149
874.784	1962
874.798	1919
874.881	1795
874.892	1789
874.965	1770
874.999	1782
875.048	1783
875.107	1364
875.131	1204
875.215	1773
875.215	1773
875.298	1382
875.323	1375
875.381	1460
875.430	1762
875.465	1952
875.538	2074
875.548	2080
875.631	1326
875.646	1249
875.714	898
875.753	1136
875.798	1466
875.861	1444
875.881	1406
875.964	1247
875.968	1213
876.047	547
876.076	892
876.130	1659
876.183	1855
876.213	1927
876.291	2288
876.296	2313
876.379	1430
876.398	1291
876.462	810
876.506	685
876.545	566
876.613	789
876.628	875
876.711	1141
876.721	1236
876.794	1775
876.828	1525
876.877	1163
876.935	1433
876.960	1593
877.043	1689
877.043	1691
877.125	2143
877.150	2105
877.208	2021
877.258	2031
877.291	2018
877.365	1559
877.374	1498
877.456	2035
877.472	1861
877.539	1228
877.579	1687
877.622	2167
877.687	1427
877.704	1205
877.787	1328
877.794	1384
877.869	1956
877.901	1854
877.952	1796
878.008	1317
878.034	1086
878.115	1520
878.117	1527
878.199	1160
878.222	1225
878.282	1407
878.329	1412
878.364	1513
878.437	1363
878.447	1335
878.529	1086
878.544	1143
878.611	1244
878.651	1037
878.694	966
878.758	1370
878.776	1429
878.858	2057
878.865	2002
878.941	1220
878.972	1150
879.023	1202
879.078	1001
879.105	956
879.185	1857
879.187	1873
879.269	1772
879.292	1682
879.351	1364
879.399	1102
879.433	935
879.506	1332
879.516	1398
879.598	1756
879.613	1570
879.680	521
879.720	899
879.762	1389
879.827	1190
879.844	1125
879.926	536
879.933	634
880.007	1902
880.040	1880
880.089	1671
880.147	1734
880.171	1738
880.253	3098
880.254	3107
880.335	4680
880.360	5029
880.417	5903
880.467	8303
880.499	10024
880.574	12074
880.580	12051
880.662	4669
880.680	3952
880.744	1984
880.787	1327
880.825	1014
880.893	1271
880.907	1311
880.989	1327
881.000	1349
881.070	1504
881.106	1254
881.152	1027
881.213	1145
881.233	1160
881.315	682
881.319	721
881.396	1485
881.426	1411
881.478	1184
881.532	991
881.559	987
881.639	1147
881.641	1142
881.722	899
881.745	891
881.803	1206
881.852	1090
881.885	835
881.958	597
881.966	598
882.047	1206
882.064	1208
882.129	1152
882.171	1142
882.210	1467
882.277	2616
882.291	2703
882.372	1964
882.383	1888
882.454	1291
882.489	994
882.535	872
882.596	943
882.616	941
882.697	1094
882.702	1081
882.778	985
882.808	942
882.859	800
882.914	921
882.940	895
883.020	754
883.021	757
883.102	579
883.127	671
883.183	1034
883.233	1315
883.264	1153
883.339	859
883.345	866
883.426	1222
883.445	1103
883.507	746
883.551	759
883.587	855
883.657	1128
883.668	1182
883.749	1816
883.763	1781
883.830	1060
883.869	801
883.910	919
883.975	1467
883.991	1483
884.072	1030
884.081	1022
884.152	1429
884.187	1467
884.233	1488
884.292	1182
884.314	939
884.394	569
884.398	553
884.475	196
884.504	26
884.555	355
884.610	726
884.636	672
884.716	700
884.716	705
884.797	1169
884.821	1318
884.877	1505
884.927	1499
884.958	1117
885.033	408
885.038	414
885.118	497
885.139	545
885.199	527
885.244	498
885.279	630
885.350	715
885.359	775
885.439	1485
885.456	1584
885.520	1017
885.561	638
885.600	603
885.667	780
885.680	855
885.760	1317
885.773	1364
885.840	1286
885.878	1144
885.920	787
885.984	613
886.000	709
886.080	867
886.089	887
886.160	591
886.195	417
886.240	592
886.300	977
886.320	1066
886.400	1276
886.406	1300
886.480	1217
886.511	1086
886.560	1297
886.616	1547
886.640	1344
886.720	759
886.722	744
886.800	556
886.827	496
886.879	1006
886.932	1436
886.959	1419
887.038	1692
887.039	1693
887.119	1275
887.143	1276
887.198	1237
887.248	1092
887.278	1016
887.354	795
887.358	791
887.437	594
887.459	600
887.517	1246
887.564	1753
887.596	1518
887.669	821
887.676	827
887.755	998
887.774	1065
887.835	1250
887.880	1283
887.914	1157
887.985	923
887.994	922
888.073	954
888.090	958
888.153	1598
888.195	1992
888.232	1460
888.300	502
888.311	575
888.391	1159
888.405	1248
888.470	810
888.510	591
888.549	1149
888.615	1987
888.628	1796
888.708	709
888.720	528
888.787	796
888.825	962
888.866	1116
888.930	1342
888.945	1291
889.024	1049
889.035	1010
889.103	875
889.140	784
889.182	864
889.245	1037
889.261	1094
889.340	1326
889.349	1352
889.419	1317
889.454	1303
889.498	1055
889.559	709
889.577	811
889.656	1272
889.664	1319
889.735	818
889.768	580
889.814	911
889.873	1350
889.978	1195
890.083	306
890.187	835
890.292	1203
890.397	1198
890.501	1631
890.606	452
890.710	844
890.815	1405
890.919	878
891.024	941
891.128	752
891.233	897
891.337	1184
891.442	817
891.546	609
891.650	721
891.755	966
891.859	1658
891.963	932
892.068	1373
892.172	1069
892.276	337
892.380	2060
892.484	1624
892.589	916
892.693	845
892.797	604
892.901	1368
893.005	1024
893.109	1015
893.213	1378
893.317	946
893.421	599
893.525	28
893.629	561
893.733	1004
893.837	580
893.941	258
894.045	329
894.148	10
894.252	429
894.356	1544
894.460	1883
894.564	810
894.667	705
894.771	678
894.875	291
894.978	908
895.082	346
895.186	473
895.289	1835
895.393	916
895.496	1366
895.600	283
895.703	302
895.807	1069
895.910	1095
896.014	942
896.117	640
896.221	410
896.324	1321
896.427	269
896.531	195
896.634	-318
896.737	1041
896.840	1224
896.944	275
897.047	1126
897.150	581
897.253	1164
897.356	756
897.460	-373
897.563	1091
897.666	1027
897.769	627
897.872	439
897.975	402
898.078	690
898.181	746
898.284	31
898.387	375
898.490	744
898.593	1267
898.695	-344
898.798	477
898.901	1154
899.004	1324
899.107	588
899.209	1185
899.312	766
899.415	1305
899.518	282
899.620	398
899.723	423
899.826	1907
899.928	994
900.031	1422
900.133	577
900.236	1005
900.338	798
900.441	611
900.543	1316
900.646	953
900.748	167
900.851	616
900.953	-104
901.055	195
901.158	410
901.260	1010
901.362	176
901.465	-31
901.567	139
901.669	1231
901.771	670
901.873	822
901.976	511
902.078	913
902.180	253
902.282	449
902.384	-331
902.486	1547
902.588	909
902.690	618
902.792	-130
902.894	725
902.996	515
903.098	992
903.200	478
903.302	1220
903.404	897
903.505	304
903.607	902
903.709	923
903.811	1122
903.913	271
904.014	-358
904.116	737
904.218	227
904.319	1331
904.421	1508
904.523	674
904.624	223
904.726	824
904.827	803
904.929	1071
905.030	366
905.132	1560
905.233	642
905.335	722
905.436	558
905.537	1571
905.639	154
905.740	1204
905.841	455
905.943	996
906.044	159
906.145	487
906.247	290
906.348	845
906.449	1187
906.550	635
906.651	-110
906.752	963
906.854	475
906.955	642
907.056	804
907.157	1096
907.258	279
907.359	853
907.460	944
907.561	700
907.662	127
907.762	831
907.863	465
907.964	670
908.065	817
908.166	870
908.267	244
908.367	-30
908.468	919
908.569	1036
908.670	859
908.770	1777
908.871	934
908.971	808
909.072	705
909.173	124
909.273	304
909.374	251
909.474	614
909.575	1413
909.675	389
909.776	467
909.876	919
909.977	483
910.077	810
910.177	1819
910.278	297
910.378	649
910.478	607
910.579	1175
910.679	314
910.779	770
910.879	1054
910.980	504
911.080	995
911.180	627
911.280	293
911.380	100
911.480	265
911.580	698
911.680	847
911.780	449
911.880	243
911.980	1201
912.080	-99
912.180	420
912.280	1104
912.380	366
912.480	417
912.580	811
912.679	257
912.779	814
912.879	492
912.979	1315
913.078	598
913.178	800
913.278	942
913.377	263
913.477	174
913.577	543
913.676	1059
913.776	35
913.875	728
913.975	676
914.074	1116
914.174	180
914.273	419
914.373	1955
914.472	502
914.572	829
914.671	78
914.770	945
914.870	1236
914.969	303
915.068	204
915.167	1360
915.267	-251
915.366	-72
915.465	598
915.564	1081
915.663	921
915.763	-69
915.862	237
915.961	9
916.060	-190
916.159	539
916.258	-222
916.357	1232
916.456	1338
916.555	583
916.654	407
916.752	688
916.851	1212
916.950	1275
917.049	638
917.148	745
917.247	988
917.345	616
917.444	-473
917.543	420
917.642	779
917.740	692
917.839	1112
917.937	1073
918.036	757
918.135	740
918.233	542
918.332	548
918.430	946
918.529	1238
918.627	90
918.726	1515
918.824	224
918.923	1048
919.021	1156
919.119	322
919.218	385
919.316	963
919.414	-112
919.512	1136
919.611	397
919.709	840
919.807	1062
919.905	627
920.003	81
920.102	724
920.200	734
920.298	904
920.396	1508
920.494	777
920.592	805
920.690	810
920.788	585
920.886	687
920.984	389
921.082	1326
921.180	1478
921.277	1590
921.375	1292
921.473	1821
921.571	1265
921.669	1473
921.766	821
921.864	1630
921.962	1977
922.060	1358
922.157	1060
922.255	1402
922.352	1354
922.450	1801
922.548	1381
922.645	1909
922.743	2518
922.840	2934
922.938	4113
923.035	3062
923.133	3128
923.230	3937
923.327	3892
923.425	3561
923.522	3941
923.619	3001
923.717	3412
923.814	3283
923.911	2863
924.008	3137
924.106	2987
924.203	3299
924.300	3597
924.397	4003
924.494	3051
924.591	3413
924.688	2552
924.786	2621
924.883	3270
924.979	2957
925.077	3167
925.173	3600
925.270	2927
925.367	2682
925.464	4287
925.561	3519
925.658	3067
925.755	3157
925.852	3766
925.948	3782
926.045	3201
926.142	3695
926.239	2783
926.335	2594
926.432	2739
926.529	3602
926.625	3241
926.722	2862
926.818	2128
926.915	3468
927.011	2600
927.108	2661
927.204	2027
927.301	2258
927.397	2735
927.494	3425
927.590	1896
927.687	2118
927.783	2430
927.879	3218
927.976	2040
928.072	2981
928.168	3153
928.264	2411
928.361	2768
928.457	3235
928.553	2647
928.649	2967
928.745	2746
928.841	2423
928.937	3145
929.033	2241
929.129	2573
929.225	3757
929.321	2024
929.417	1988
929.513	3211
929.609	2072
929.705	2803
929.801	3299
929.897	1870
929.993	2806
930.089	2699
930.184	2211
930.280	2760
930.376	3591
930.471	1498
930.567	2112
930.663	2131
930.758	1607
930.854	2162
930.950	1912
931.045	2519
931.141	2983
931.236	2881
931.332	2320
931.427	1948
931.523	2637
931.618	2371
931.714	1894
931.809	2788
931.905	2912
932.000	1607
932.095	1345
932.191	2747
932.286	2675
932.381	1307
932.476	1656
932.572	2682
932.667	2016
932.762	1513
932.857	2619
932.952	3229
933.047	1711
933.142	1549
933.237	1859
933.332	1600
933.427	1725
933.522	1680
933.617	1904
933.712	2414
933.807	2040
933.902	2512
933.997	2721
934.092	1760
934.187	2043
934.282	1610
934.376	2084
934.471	2107
934.566	1753
934.661	958
934.755	2645
934.850	1888
934.945	2107
935.039	1480
935.134	1574
935.228	2193
935.323	3358
935.417	1814
935.512	1396
935.606	988
935.701	1904
935.795	1964
935.890	2394
935.984	1443
936.079	1337
936.173	2153
936.267	1605
936.362	824
936.456	2014
936.550	1397
936.644	2185
936.738	1303
936.833	1384
936.927	1034
937.021	1895
937.115	1348
937.209	722
937.303	2429
937.397	1002
937.491	2275
937.585	1577
937.679	2081
937.773	1738
937.867	2065
937.961	1258
938.055	1154
938.149	1621
938.243	2046
938.337	1316
938.430	1340
938.524	2483
938.618	1049
938.712	687
938.805	942
938.899	1209
938.993	1356
939.086	1350
939.180	269
939.274	1646
939.367	1911
939.461	2052
939.554	364
939.648	1318
939.741	1162
939.835	1743
939.928	2399
940.022	1047
940.115	799
940.208	1452
940.302	2697
940.395	1116
940.488	1214
940.582	1053
940.675	582
940.768	913
940.861	1544
940.954	2470
941.048	736
941.141	934
941.234	1155
941.327	1150
941.420	1326
941.513	1303
941.606	1189
941.699	1829
941.792	1617
941.885	1925
941.978	1220
942.071	1495
942.164	233
942.257	817
942.349	967
942.442	1611
942.535	517
942.628	1166
942.721	1183
942.813	-393
942.906	1762
942.999	612
943.091	832
943.184	1086
943.277	1420
943.369	1954
943.462	-145
943.554	1716
943.647	1316
943.739	1311
943.832	1537
943.924	238
944.017	960
944.109	924
944.201	215
944.294	1417
944.386	1145
944.478	992
944.571	861
944.663	-93
944.755	981
944.847	914
944.940	889
945.032	37
945.124	886
945.216	1598
945.308	1019
945.400	684
945.492	1106
945.584	1558
945.676	1099
945.768	1406
945.860	844
945.952	1008
946.044	1426
946.136	969
946.228	1242
946.320	1103
946.412	588
946.503	1637
946.595	2163
946.687	1722
946.779	612
946.870	433
946.962	397
947.054	1618
947.145	271
947.237	839
947.329	429
947.420	1002
947.512	629
947.603	773
947.695	510
947.786	790
947.878	549
947.969	787
948.061	1291
948.152	839
948.243	81
948.335	831
948.426	68
948.517	1281
948.609	695
948.700	830
948.791	842
948.882	486
948.973	-32
949.065	1168
949.156	1101
949.247	250
949.338	580
949.429	365
949.520	353
949.611	394
949.702	1399
949.793	-151
949.884	819
949.975	981
950.066	788
950.157	1146
950.247	397
950.338	1312
950.429	-202
950.520	888
950.611	243
950.701	1034
950.792	1256
950.883	971
950.973	647
951.064	1524
951.155	1082
951.245	1038
951.336	599
951.427	-4
951.517	1648
951.608	718
951.698	-11
951.788	224
951.879	524
951.969	526
952.060	348
952.150	423
952.240	1921
952.331	-432
952.421	1603
952.511	261
952.602	498
952.692	306
952.782	731
952.872	718
952.962	918
953.052	940
953.143	-650
953.233	215
953.323	934
953.413	-206
953.503	1029
953.593	677
953.683	602
953.773	138
953.863	77
953.953	255
954.042	-501
954.132	-47
954.222	930
954.312	372
954.402	523
954.492	1026
954.581	675
954.671	465
954.761	-503
954.850	552
954.940	-597
955.030	561
955.119	-99
955.209	399
955.298	73
955.388	-344
955.477	1513
955.567	625
955.656	873
955.746	1121
955.835	383
955.925	553
956.014	214
956.103	1380
956.193	670
956.282	971
956.371	205
956.461	386
956.550	608
956.639	264
956.728	250
956.817	1011
956.906	-47
956.995	298
957.085	-764
957.174	958
957.263	-125
957.352	341
957.441	261
957.530	138
957.619	1124
957.708	422
957.796	-49
957.885	548
957.974	-740
958.063	973
958.152	-492
958.241	379
958.329	524
958.418	26
958.507	20
958.596	489
958.684	117
958.773	-409
958.861	112
958.950	220
959.039	220
959.127	-1
959.216	1734
959.304	915
959.393	198
959.481	163
959.570	880
959.658	479
959.746	-236
959.835	892
959.923	637
960.011	1186
960.100	831
960.188	39
960.276	700
960.365	-76
960.453	868
960.541	-303
960.629	-98
960.717	251
960.805	-152
960.893	-173
960.981	-314
961.069	2137
961.158	-129
961.245	1345
961.333	1046
961.421	-631
961.509	576
961.597	689
961.685	148
961.773	-70
961.861	529
961.949	1052
962.036	-434
962.124	338
962.212	-561
962.299	113
962.387	-660
962.475	251
962.562	63
962.650	1047
962.738	276
962.825	35
962.913	36
963.000	103
963.088	481
963.175	215
963.263	446
963.350	-92
963.438	326
963.525	445
963.612	1478
963.700	2090
963.787	5567
963.874	2226
963.962	77
964.049	825
964.136	2
964.223	-321
964.310	287
964.398	702
964.485	-963
964.572	295
964.659	786
964.746	564
964.833	-242
964.920	631
965.007	267
965.094	-101
965.181	206
965.268	-51
965.355	-220
965.441	221
965.528	67
965.615	512
965.702	137
965.789	-198
965.875	-436
965.962	-68
966.049	-31
966.136	444
966.222	665
966.309	620
966.395	-389
966.482	768
966.569	523
966.655	233
966.742	-182
966.828	-593
966.915	-258
967.001	1185
967.087	-764
967.174	526
967.260	674
967.347	563
967.433	1013
967.519	3934
967.605	903
967.692	37
967.778	335
967.864	117
967.950	538
968.036	138
968.123	422
968.209	-449
968.295	-1200
968.381	1303
968.467	104
968.553	-586
968.639	457
968.725	-262
968.811	1402
968.897	641
968.983	-218
969.069	176
969.154	552
969.240	1393
969.326	-194
969.412	-186
969.497	-313
969.583	-612
969.669	274
969.755	1316
969.840	-144
969.926	717
970.012	440
970.097	1291
970.183	673
970.268	137
970.354	696
970.439	208
970.525	2465
970.610	376
970.696	575
970.781	382
970.866	-873
970.952	448
971.037	-434
971.122	127
971.208	105
971.293	104
971.378	-987
971.463	368
971.549	-119
971.634	543
971.719	313
971.804	-17
971.889	295
971.974	-147
972.059	-211
972.144	79
972.229	-268
972.314	279
972.399	633
972.484	2
972.569	984
972.654	-189
972.739	1522
972.824	617
972.908	85
972.993	120
973.078	-34
973.163	558
973.247	-145
973.332	-733
973.417	634
973.501	-186
973.586	-290
973.671	-494
973.755	143
973.840	1380
973.924	341
974.009	552
974.093	-70
974.178	976
974.262	783
974.346	158
974.431	122
974.515	136
974.600	267
974.684	437
974.768	415
974.852	900
974.937	-1144
975.021	85
975.105	914
975.189	-159
975.273	179
975.358	-369
975.442	-904
975.526	606
975.610	-1384
975.694	-1182
975.778	130
975.862	-189
975.946	-2073
976.030	1499
976.114	-754
976.198	-162
976.281	23
976.365	773
976.449	-668
976.533	337
976.617	-200
976.700	-755
976.784	716
976.868	-202
976.951	-235
977.035	-339
977.119	521
977.202	167
977.286	442
977.369	477
977.453	606
977.536	264
977.620	-173
977.703	837
977.787	-472
977.870	1175
977.953	1230
978.037	-687
978.120	265
978.203	491
978.287	1185
978.370	1006
978.453	-562
978.536	543
978.620	446
978.703	494
978.786	-781
978.869	-129
978.952	-950
979.035	1686
979.118	428
979.201	-714
979.284	88
979.367	626
979.450	107
979.533	-381
979.616	-497
979.699	634
979.782	-202
979.865	667
979.948	-229
980.030	337
980.113	-557
980.196	111
980.279	290
980.361	350
980.444	-905
980.526	788
980.609	137
980.692	473
980.774	337
980.857	-399
980.939	162
981.022	396
981.104	305
981.187	522
981.269	694
981.352	33
981.434	-750
981.516	-785
981.599	992
981.681	598
981.763	326
981.846	-15
981.928	-235
982.010	772
982.092	-668
982.174	953
982.256	159
982.339	-210
982.421	116
982.503	140
982.585	-64
982.667	620
982.749	0
982.831	73
982.913	-1017
982.995	1092
983.077	-273
983.158	1978
983.240	-33
983.322	729
983.404	994
983.486	-322
983.568	954
983.649	495
983.731	-38
983.813	350
983.894	474
983.976	558
984.058	-76
984.139	1736
984.221	-790
984.302	1257
984.384	-37
984.465	-838
984.547	555
984.628	133
984.710	808
984.791	392
984.872	197
984.954	-681
985.035	-594
985.116	290
985.198	-235
985.279	991
985.360	-828
985.441	677
985.522	1313
985.604	568
985.685	-1234
985.766	1774
985.847	1445
985.928	460
986.009	571
986.090	23
986.171	304
986.252	116
986.333	585
986.414	106
986.495	375
986.576	307
986.656	527
986.737	735
986.818	621
986.899	-67
986.980	-413
987.060	1367
987.141	53
987.222	252
987.302	929
987.383	1344
987.464	686
987.544	1157
987.625	770
987.705	1808
987.786	18
987.866	844
987.947	931
988.027	325
988.108	207
988.188	1442
988.268	358
988.349	624
988.429	-36
988.509	1028
988.589	621
988.670	-1060
988.750	1713
988.830	398
988.910	629
988.990	443
989.070	-31
989.151	465
989.231	29
989.311	1048
989.391	-141
989.471	-108
989.551	1060
989.631	-250
989.711	1144
989.791	575
989.870	-338
989.950	931
990.030	-466
990.110	993
990.190	313
990.269	486
990.349	278
990.429	-438
990.509	644
990.588	201
990.668	810
990.747	864
990.827	820
990.907	990
990.986	661
991.066	973
991.145	-175
991.225	855
991.304	-183
991.383	1147
991.463	137
991.542	851
991.622	-823
991.701	-639
991.780	286
991.859	407
991.939	-69
992.018	-94
992.097	106
992.176	503
992.256	139
992.335	-657
992.414	825
992.493	208
992.572	162
992.651	1728
992.730	466
992.809	63
992.888	100
992.967	-182
993.046	615
993.125	-716
993.203	355
993.282	436
993.361	-273
993.440	480
993.519	58
993.597	182
993.676	-603
993.755	568
993.834	576
993.912	-320
993.991	924
994.069	-411
994.148	-167
994.226	-905
994.305	514
994.384	635
994.462	579
994.540	-507
994.619	-863
994.697	672
994.776	-659
994.854	832
994.932	164
995.011	71
995.089	-256
995.167	-269
995.245	-167
995.324	-511
995.402	928
995.480	292
995.558	683
995.636	-339
995.714	-459
995.792	725
995.870	-784
995.948	-179
996.026	316
996.104	-976
996.182	437
996.260	139
996.338	431
996.416	-831
996.494	-155
996.572	417
996.649	-507
996.727	-1106
996.805	-499
996.883	-311
996.960	-767
997.038	21
997.116	-234
997.193	-777
997.271	223
997.348	-183
997.426	-330
997.504	-360
997.581	-414
997.658	20
997.736	-422
997.813	-1070
997.891	147
997.968	-827
998.046	-432
998.123	-566
998.200	627
998.277	-736
998.355	-839
998.432	-591
998.509	55
998.586	-400
998.663	118
998.741	-164
998.818	-302
998.895	-470
998.972	631
999.049	-91
999.126	-650
999.203	607
999.280	470
999.357	-324
999.434	-399
999.511	-230
999.587	-96
999.664	-13
999.741	-263
999.818	681
999.895	-213
999.971	-156
1000.048	-466
1000.125	154
1000.202	-850
1000.278	-669
1000.355	-726
1000.431	-121
1000.508	-969
1000.584	432
1000.661	-158
1000.738	-843
1000.814	183
1000.890	518
1000.967	-482
1001.043	-370
1001.120	-1789
1001.196	-320
1001.272	-1089
1001.349	-304
1001.425	288
1001.501	47
1001.577	-1533
1001.654	177
1001.730	-778
1001.806	-825
1001.882	-1083
1001.958	289
1002.034	-377
1002.110	-611
1002.186	-627
1002.262	-1040
1002.338	-1776
1002.414	-424
1002.490	-900
1002.566	-580
1002.642	-706
1002.718	143
1002.794	-736
1002.870	-980
1002.945	-552
1003.021	-673
1003.097	-927
1003.173	-518
1003.248	-1362
1003.324	-197
1003.400	-510
1003.475	-692
1003.551	-149
1003.626	-889
1003.702	-1179
1003.777	-86
1003.853	-1281
1003.928	-1773
1004.004	-348
1004.079	301
1004.155	-825
1004.230	-788
1004.305	215
1004.381	-1269
1004.456	-1401
1004.531	312
1004.607	-548
1004.682	-407
1004.757	-954
1004.832	-1600
1004.907	-796
1004.982	-262
1005.057	-331
1005.133	-834
1005.208	-1513
1005.283	-953
1005.358	-394
1005.433	-1069
1005.508	-831
1005.583	-1578
1005.657	-1223
1005.732	0
1005.807	-1277
1005.882	256
1005.957	-259
1006.032	50
1006.106	-858
1006.181	-171
1006.256	-378
1006.331	-1086
1006.405	-993
1006.480	-1160
1006.554	-742
1006.629	-524
1006.704	-1464
1006.778	-896
1006.853	-598
1006.927	-92
1007.002	-1189
1007.076	-74
1007.150	-1099
1007.225	-856
1007.299	-773
1007.373	-957
1007.448	-600
1007.522	-99
1007.596	-568
1007.671	-1469
1007.745	-1319
1007.819	-1150
1007.893	-825
1007.967	-236
1008.041	-1681
1008.115	-512
1008.190	-1027
1008.264	-989
1008.338	-1527
1008.412	-1744
1008.486	-993
1008.560	-924
1008.633	-1238
1008.707	-1470
1008.781	-146
1008.855	-1329
1008.929	-618
1009.003	-910
1009.076	-721
1009.150	-1052
1009.224	-492
1009.298	-211
1009.371	-1635
1009.445	-848
1009.519	-695
1009.592	-1445
1009.666	-1372
1009.739	-1317
1009.813	-2010
1009.886	-160
1009.960	-1962
1010.033	-651
1010.107	-1635
1010.180	-1741
1010.253	-635
1010.327	-1665
1010.400	-1611
1010.473	-603
1010.547	393
1010.620	-1266
1010.693	-971
1010.766	-1222
1010.840	-1047
1010.913	-734
1010.986	-1230
1011.059	-836
1011.132	-1227
1011.205	-1500
1011.278	-997
1011.351	-1410
1011.424	-1618
1011.497	-1104
1011.570	-1386
1011.643	-315
1011.716	-634
1011.789	-299
1011.862	-1645
1011.934	-164
1012.007	-1839
1012.080	-836
1012.153	-973
1012.225	221
1012.298	-1819
1012.371	-769
1012.443	-266
1012.516	-2037
1012.588	-1029
1012.661	-1131
1012.733	-1374
1012.806	-314
1012.879	-1098
1012.951	-693
1013.023	-1831
1013.096	-643
1013.168	-869
1013.241	-757
1013.313	-829
1013.385	-2087
1013.458	-1527
1013.530	-688
1013.602	-2527
1013.674	-1167
1013.746	-1780
1013.819	-2086
1013.891	-214
1013.963	-1694
1014.035	-1166
1014.107	-932
1014.179	-343
1014.251	-1951
1014.323	-358
1014.395	-1065
1014.467	-1474
1014.539	-529
1014.611	-1370
1014.683	-1235
1014.754	-1437
1014.826	-1978
1014.898	-1207
1014.970	-1662
1015.042	-437
1015.113	-1065
1015.185	-1089
1015.257	-1480
1015.328	-903
1015.400	-885
1015.471	-996
1015.543	-1096
1015.615	-603
1015.686	-1656
1015.757	-1262
1015.829	-1159
1015.901	-987
1015.972	-538
1016.043	-1154
1016.115	-1585
1016.186	-950
1016.257	-785
1016.328	-897
1016.400	-450
1016.471	-1419
1016.542	-377
1016.613	-672
1016.685	-1058
1016.756	-800
1016.827	-1147
1016.898	-1733
1016.969	-696
1017.040	-1515
1017.111	-1159
1017.182	-1079
1017.253	-1410
1017.324	-1319
1017.395	-830
1017.466	-1432
1017.537	-1128
1017.608	-1348
1017.678	-132
1017.749	-683
1017.820	-947
1017.891	-2201
1017.961	-1290
1018.032	-1169
1018.103	-1194
1018.173	-1305
1018.244	-1347
1018.315	-2298
1018.385	-1221
1018.456	-1536
1018.526	-1538
1018.597	-711
1018.667	-1082
1018.738	-1168
1018.808	259
1018.878	-1785
1018.949	-587
1019.019	-685
1019.089	-559
1019.160	-1487
1019.230	-1646
1019.300	-1294
1019.371	-1641
1019.441	-738
1019.511	-1251
1019.581	-879
1019.651	-1023
1019.721	-1006
1019.791	-660
1019.861	-1205
1019.931	-724
1020.001	-1436
1020.071	-1200
1020.141	-621
1020.211	-624
1020.281	-1349
1020.351	-1012
1020.421	-1040
1020.491	-989
1020.560	-1823
1020.630	-982
1020.700	-883
1020.770	-1385
1020.839	-1750
1020.909	-1126
1020.979	-1151
1021.048	-909
1021.118	-1239
1021.187	-873
1021.257	-2498
1021.326	-521
1021.396	-1653
1021.465	-842
1021.535	-1333
1021.604	-2137
1021.674	-1166
1021.743	-628
1021.812	-1420
1021.882	-1363
1021.951	-1473
1022.020	-664
1022.089	-824
1022.159	-1454
1022.228	-1135
1022.297	-2046
1022.366	-1713
1022.435	-1207
1022.504	-1901
1022.573	-461
1022.642	-1356
1022.711	-1816
1022.781	-1874
1022.849	-92
1022.918	-1319
1022.987	-1358
1023.056	-1633
1023.125	-1060
1023.194	-1379
1023.263	-1129
1023.331	-970
1023.400	-1595
1023.469	-2086
1023.538	-656
1023.606	-1412
1023.675	-1255
1023.744	-1680
1023.812	-1610
1023.881	-378
1023.949	-1176
1024.018	-1540
1024.086	-1312
1024.155	-626
1024.223	-1255
1024.292	-1038
1024.360	-1524
1024.429	-1346
1024.497	-2224
1024.565	-1654
1024.634	-759
1024.702	-880
1024.770	-706
1024.838	-1901
1024.907	-1014
1024.975	-1130
1025.043	-990
1025.111	-2020
1025.179	-741
1025.247	-1029
1025.315	-1156
1025.383	-1352
1025.451	-1930
1025.519	-1435
1025.587	-1530
1025.655	-1701
1025.723	-1135
1025.791	-1135
1025.859	-1380
1025.927	-1132
1025.995	-1550
1026.062	-1039
1026.130	-1409
1026.198	-579
1026.266	-1882
1026.333	-1081
1026.401	-1038
1026.469	-1951
1026.536	-1921
1026.604	-1217
1026.671	-1359
1026.739	-1146
1026.806	-1202
1026.874	-1664
1026.941	-1585
1027.009	-1538
1027.076	-702
1027.144	-1278
1027.211	-1772
1027.278	-1512
1027.345	-1195
1027.413	-762
1027.480	-1281
1027.547	-1376
1027.614	-1681
1027.682	-1298
1027.749	-1465
1027.816	-1575
1027.883	-549
1027.950	-1546
1028.017	-1408
1028.084	-1124
1028.151	-1422
1028.218	-2166
1028.285	-1495
1028.352	-1212
1028.419	-1137
1028.486	-1969
1028.553	-442
1028.619	-1526
1028.686	-1000
1028.753	-2135
1028.820	-1489
1028.886	-1431
1028.953	-1385
1029.020	-2164
1029.086	-1211
1029.153	-2068
1029.220	-1693
1029.286	-1389
1029.353	-831
1029.419	-1782
1029.486	-1705
1029.552	-1190
1029.619	-1354
1029.685	-2119
1029.751	-1593
1029.818	-373
1029.884	-1357
1029.951	199
1030.017	-1876
1030.083	-1890
1030.149	-1645
1030.216	-2104
1030.282	-1425
1030.348	-2136
1030.414	-1874
1030.480	-1534
1030.546	-1172
1030.612	-1774
1030.678	-2153
1030.744	-1987
1030.810	-1955
1030.876	-1350
1030.942	-1092
1031.008	-1828
1031.074	-1170
1031.140	-1995
1031.206	-1217
1031.272	-2388
1031.337	-1104
1031.403	-897
1031.469	-1491
1031.534	-1822
1031.600	-1432
1031.666	-1335
1031.731	-1137
1031.797	-1348
1031.863	-1964
1031.928	-1518
1031.994	-1512
1032.059	-1715
1032.125	-1769
1032.190	-1860
1032.256	-1347
1032.321	-1812
1032.386	-2057
1032.452	-764
1032.517	-1756
1032.582	-1732
1032.647	-1293
1032.713	-1109
1032.778	-1423
1032.843	-1987
1032.908	-1793
1032.974	-1391
1033.039	-1447
1033.104	-1877
1033.169	-1251
1033.234	-1459
1033.299	-1617
1033.364	-1492
1033.429	-1888
1033.494	-1348
1033.559	-1521
1033.624	-1907
1033.688	-1184
1033.753	-1962
1033.818	-1407
1033.883	-2122
1033.948	-1572
1034.013	-1558
1034.077	-1129
1034.142	-822
1034.207	-1151
1034.271	-15
1034.336	-1014
1034.400	-811
1034.465	-850
1034.530	-1461
1034.594	-1432
1034.658	-1925
1034.723	-1922
1034.787	-1366
1034.852	-1927
1034.916	-2696
1034.981	-1585
1035.045	-1244
1035.109	-1536
1035.173	-826
1035.238	-1944
1035.302	-1035
1035.366	-2266
1035.430	-1588
1035.495	-1419
1035.559	-1969
1035.623	-1939
1035.687	-2677
1035.751	-1800
1035.815	-2219
1035.879	-2547
1035.943	-1920
1036.007	-1553
1036.071	-1500
1036.135	-1721
1036.198	-2077
1036.262	-1434
1036.326	-1995
1036.390	-1687
1036.454	-808
1036.517	-954
1036.581	-1440
1036.645	-1596
1036.709	-660
1036.772	-866
1036.836	-1147
1036.900	-1852
1036.963	-1238
1037.026	-1293
1037.090	-1577
1037.154	-1455
1037.217	-1271
1037.280	-2220
1037.344	-1789
1037.407	-2056
1037.471	-1062
1037.534	-1383
1037.597	-1627
1037.661	-1406
1037.724	-1977
1037.787	-1598
1037.850	-1661
1037.913	-1807
1037.977	-1456
1038.040	-1482
1038.103	-1977
1038.166	-2082
1038.229	-1676
1038.292	-2540
1038.355	-1983
1038.418	-1600
1038.481	-634
1038.544	-1509
1038.607	-2841
1038.670	-1201
1038.732	-1801
1038.795	-2571
1038.858	-785
1038.921	-1184
1038.984	-1680
1039.046	-2010
1039.109	-1915
1039.172	-2203
1039.234	-2342
1039.297	-1240
1039.360	-2331
1039.422	-1757
1039.485	-1623
1039.547	-2230
1039.610	-2153
1039.672	-1917
1039.734	-2644
1039.797	-1760
1039.859	-2183
1039.922	-1468
1039.984	-2316
1040.046	-741
1040.109	-1263
1040.171	-1618
1040.233	-1567
1040.295	-1783
1040.358	-2418
1040.420	-1633
1040.482	-2106
1040.544	-1585
1040.606	-1815
1040.668	-1655
1040.730	-1557
1040.792	-1657
1040.854	-1290
1040.916	-1899
1040.978	-3295
1041.040	-1318
1041.102	-1677
1041.164	-2307
1041.225	-1659
1041.287	-1908
1041.349	-1379
1041.411	-2134
1041.472	-1530
1041.534	-1508
1041.596	-1687
1041.657	-1976
1041.719	-2751
1041.781	-2148
1041.842	-1948
1041.904	-1859
1041.965	-2281
1042.027	-1963
1042.088	-2257
1042.150	-1444
1042.211	-1686
1042.272	-1188
1042.334	-2055
1042.395	-2424
1042.456	-1839
1042.518	-1990
1042.579	-2426
1042.640	-2461
1042.701	-1093
1042.763	-1985
1042.824	-1663
1042.885	-1993
1042.946	-1116
1043.007	-1390
1043.068	-1962
1043.129	-2055
1043.190	-2477
1043.251	-1314
1043.312	-1578
1043.373	-2245
1043.434	-1627
1043.495	-1405
1043.556	-958
1043.616	-2265
1043.677	-2596
1043.738	-1818
1043.799	-2224
1043.859	-1877
1043.920	-1781
1043.981	-2114
1044.041	-2666
1044.102	-1633
1044.162	-2161
1044.223	-2200
1044.284	-2868
1044.344	-1837
1044.405	-1818
1044.465	-1449
1044.525	-1478
1044.586	-1310
1044.646	-1502
1044.707	-2202
1044.767	-1518
1044.827	-1891
1044.887	-2040
1044.948	-1138
1045.008	-1884
1045.068	-1530
1045.128	-1230
1045.188	-2463
1045.249	-1538
1045.309	-1344
1045.369	-1374
1045.429	-1920
1045.489	-1184
1045.549	-938
1045.609	-1516
1045.669	-1866
1045.729	-755
1045.789	-1847
1045.848	-1162
1045.908	-1010
1045.968	-1380
1046.028	-1682
1046.088	-1669
1046.147	-267
1046.207	-1435
1046.267	-1002
1046.326	-1030
1046.386	-2268
1046.446	-1269
1046.505	-1427
1046.565	-1497
1046.624	-1062
1046.684	-642
1046.743	-890
1046.803	-1051
1046.862	-108
1046.922	0
