'Start Wavelength	183.907
'End Wavelength	1046.922
'Gate Delay	5.000
'Gate Width (ms)	1.050
'Laser Output Level	0.000
'X Position	0.000
'Y Position	0.000
'Z Position	0.000
'Grid Point Number	1.000
'Shot Number	100.000
183.907	910.000
183.977	-156.000
184.047	199
184.116	736
184.186	775
184.256	305
184.325	495
184.395	133
184.465	1609
184.534	179
184.604	134
184.674	927
184.743	-657
184.813	124
184.883	508
184.952	84
185.022	783
185.092	-472
185.161	-281
185.231	141
185.301	810
185.370	811
185.440	336
185.509	-89
185.579	342
185.649	334
185.718	821
185.788	408
185.857	221
185.927	-50
185.996	588
186.066	64
186.136	373
186.205	-80
186.275	-202
186.344	472
186.414	363
186.483	-13
186.553	1789
186.622	1738
186.692	623
186.761	480
186.831	120
186.900	-470
186.970	289
187.039	883
187.109	1221
187.178	758
187.248	344
187.317	622
187.387	803
187.456	649
187.526	700
187.595	199
187.664	769
187.734	1254
187.803	860
187.873	783
187.942	577
188.012	441
188.081	617
188.150	867
188.220	812
188.289	1683
188.358	964
188.428	1017
188.497	-893
188.567	1237
188.636	455
188.705	775
188.775	795
188.844	-663
188.913	1089
188.983	673
189.052	460
189.121	492
189.191	-96
189.260	658
189.329	529
189.399	424
189.468	895
189.537	-645
189.606	576
189.676	650
189.745	1493
189.814	986
189.883	207
189.953	217
190.022	1622
190.091	2095
190.161	3660
190.230	1950
190.299	38
190.368	794
190.437	168
190.507	66
190.576	1353
190.645	485
190.714	185
190.783	-144
190.853	1345
190.922	682
190.991	471
191.060	1076
191.129	178
191.198	1497
191.268	380
191.337	324
191.406	837
191.475	580
191.544	766
191.613	524
191.682	739
191.752	658
191.821	369
191.890	188
191.959	674
192.028	558
192.097	707
192.166	531
192.235	-45
192.304	507
192.373	248
192.442	353
192.511	501
192.580	299
192.650	42
192.719	302
192.788	846
192.857	124
192.926	640
192.995	620
193.064	1310
193.133	1247
193.202	1527
193.271	964
193.340	1007
193.409	1343
193.478	428
193.547	735
193.615	2233
193.684	2379
193.753	1333
193.822	1258
193.891	1175
193.960	1320
194.029	1374
194.098	1193
194.167	57
194.236	1287
194.305	1033
194.374	742
194.443	416
194.512	1336
194.580	616
194.649	517
194.718	1305
194.787	1458
194.856	534
194.925	644
194.994	640
195.062	1090
195.131	904
195.200	703
195.269	1750
195.338	1299
195.407	944
195.475	313
195.544	1454
195.613	1130
195.682	1627
195.751	1065
195.819	1042
195.888	1333
195.957	587
196.026	1277
196.094	1112
196.163	805
196.232	651
196.301	1276
196.369	1643
196.438	1565
196.507	1072
196.576	766
196.644	262
196.713	817
196.782	1380
196.850	1273
196.919	631
196.988	1851
197.056	1025
197.125	1002
197.194	1206
197.262	1037
197.331	716
197.400	1210
197.468	386
197.537	799
197.606	423
197.674	2406
197.743	3298
197.812	1846
197.880	3880
197.949	2612
198.017	3382
198.086	2653
198.155	1665
198.223	1461
198.292	4322
198.360	2223
198.429	666
198.497	1621
198.566	2508
198.635	4721
198.703	2729
198.772	1152
198.840	3612
198.909	5222
198.977	1063
199.046	1055
199.114	1499
199.183	304
199.251	319
199.320	819
199.388	940
199.457	514
199.525	1068
199.594	1013
199.662	1153
199.731	811
199.799	825
199.867	1150
199.936	1239
200.004	809
200.073	953
200.141	1251
200.210	1048
200.278	890
200.346	1817
200.415	925
200.483	1835
200.552	677
200.620	505
200.688	525
200.757	336
200.825	1710
200.893	750
200.962	733
201.030	-471
201.098	1
201.167	1221
201.235	1201
201.303	456
201.372	1487
201.440	804
201.508	1402
201.577	1411
201.645	1182
201.713	1171
201.781	173
201.850	2086
201.918	617
201.986	1381
202.055	1818
202.123	1412
202.191	706
202.259	1563
202.327	269
202.396	1299
202.464	1473
202.532	1857
202.600	5163
202.669	2570
202.737	1210
202.805	385
202.873	966
202.941	1195
203.009	870
203.078	798
203.146	1312
203.214	1195
203.282	744
203.350	1096
203.418	1114
203.487	1650
203.555	942
203.623	1091
203.691	259
203.759	563
203.827	475
203.895	1475
203.963	776
204.031	884
204.099	432
204.168	439
204.236	1425
204.304	1494
204.372	1426
204.440	777
204.508	1229
204.576	1182
204.644	1249
204.712	389
204.780	978
204.848	1748
204.916	507
204.984	1238
205.052	1200
205.120	407
205.188	549
205.256	901
205.324	398
205.392	352
205.460	1003
205.528	755
205.596	2113
205.664	1341
205.732	1051
205.799	4432
205.867	6875
205.935	1592
206.003	935
206.071	694
206.139	1744
206.207	1510
206.275	1086
206.343	881
206.411	842
206.478	742
206.546	1126
206.614	976
206.682	917
206.750	1001
206.818	1237
206.885	2305
206.953	-38
207.021	1585
207.089	1003
207.157	1226
207.225	968
207.292	791
207.360	1354
207.428	1503
207.496	391
207.563	1263
207.631	1444
207.699	761
207.767	1550
207.834	375
207.902	1036
207.970	1802
208.038	1779
208.105	974
208.173	649
208.241	1531
208.309	1499
208.376	1868
208.444	2913
208.512	1388
208.579	440
208.647	2258
208.715	2699
208.782	1142
208.850	770
208.918	1047
208.985	1542
209.053	1441
209.120	1455
209.188	1506
209.256	1175
209.323	825
209.391	2107
209.459	1882
209.526	1100
209.594	976
209.661	1043
209.729	1426
209.796	1163
209.864	1389
209.932	420
209.999	2335
210.067	2184
210.134	1797
210.202	959
210.269	2850
210.337	2878
210.404	1832
210.472	1452
210.539	1569
210.607	1318
210.674	2200
210.742	1134
210.809	2136
210.877	2121
210.944	2789
211.012	967
211.079	2855
211.146	1521
211.214	1102
211.281	2649
211.349	2360
211.416	1100
211.484	1638
211.551	1895
211.618	1411
211.686	1708
211.753	1562
211.821	2303
211.888	1353
211.955	1722
212.023	2263
212.090	1622
212.157	1406
212.225	2195
212.292	3790
212.359	7453
212.427	21507
212.494	9859
212.561	3164
212.629	1964
212.696	1617
212.763	2350
212.831	1543
212.898	2430
212.965	805
213.032	2551
213.100	1787
213.167	1938
213.234	2309
213.301	2092
213.369	1839
213.436	1354
213.503	1610
213.570	1975
213.638	2132
213.705	1990
213.772	798
213.839	1171
213.906	3434
213.973	2323
214.041	1461
214.108	2315
214.175	1584
214.242	1354
214.309	1739
214.376	1825
214.444	1491
214.511	2624
214.578	1875
214.645	2409
214.712	2414
214.779	2147
214.846	1197
214.913	3483
214.980	2672
215.048	3392
215.115	3428
215.182	2910
215.249	2635
215.316	1431
215.383	2340
215.450	2217
215.517	2012
215.584	1565
215.651	1623
215.718	995
215.785	1942
215.852	1151
215.919	3249
215.986	1537
216.053	1750
216.120	1064
216.187	1774
216.254	2658
216.321	1668
216.388	1783
216.455	2457
216.522	1535
216.589	2835
216.656	4228
216.722	5299
216.789	3433
216.856	3384
216.923	3368
216.990	2387
217.057	3213
217.124	3624
217.191	2449
217.258	3539
217.324	4136
217.391	5580
217.458	4635
217.525	2763
217.592	2793
217.659	1157
217.725	3602
217.792	3206
217.859	5165
217.926	2195
217.993	1687
218.059	2286
218.126	1179
218.193	1850
218.260	1694
218.327	2108
218.393	2055
218.460	816
218.527	1337
218.594	1718
218.660	3860
218.727	5214
218.794	1470
218.860	1471
218.927	1126
218.994	1263
219.061	1703
219.127	1940
219.194	2977
219.261	2301
219.327	1052
219.394	2287
219.461	851
219.527	1575
219.594	2680
219.661	2569
219.727	300
219.794	2463
219.860	725
219.927	1650
219.994	2683
220.060	5705
220.127	3494
220.193	2875
220.260	1974
220.326	2565
220.393	5024
220.460	7689
220.526	4992
220.593	3272
220.659	3726
220.726	2954
220.792	10108
220.859	8824
220.925	8546
220.992	13243
221.058	14779
221.125	15492
221.191	11511
221.258	3899
221.324	3628
221.391	1908
221.457	1918
221.524	1740
221.590	3738
221.657	12694
221.723	10157
221.789	8305
221.856	8897
221.922	3835
221.989	3081
222.055	2342
222.121	1457
222.188	3580
222.254	1744
222.321	908
222.387	740
222.453	1707
222.520	1485
222.586	1294
222.652	1200
222.719	984
222.785	1768
222.851	1463
222.918	1129
222.984	1344
223.050	1202
223.116	524
223.183	1485
223.249	1043
223.315	1299
223.382	1460
223.448	1170
223.514	845
223.580	950
223.647	615
223.713	174
223.779	1635
223.845	1266
223.911	793
223.978	-13
224.044	1368
224.110	661
224.176	985
224.242	1136
224.309	151
224.375	1135
224.441	822
224.507	1231
224.573	857
224.639	1643
224.705	793
224.772	1217
224.838	1171
224.904	1743
224.970	992
225.036	1884
225.102	609
225.168	2457
225.234	1481
225.300	1449
225.366	933
225.432	1044
225.499	986
225.565	1294
225.631	430
225.697	2258
225.763	1788
225.829	1600
225.895	1982
225.961	4332
226.027	3674
226.093	2281
226.159	3328
226.225	3922
226.291	8728
226.357	19146
226.423	8761
226.489	4473
226.554	2882
226.620	3651
226.686	3841
226.752	5246
226.818	7070
226.884	22547
226.950	24021
227.016	8073
227.082	4768
227.148	2888
227.214	3958
227.279	3106
227.345	1900
227.411	2730
227.477	2712
227.543	6125
227.609	6854
227.674	3716
227.740	1925
227.806	2558
227.872	1603
227.938	1411
228.003	3662
228.069	2054
228.135	1784
228.201	1540
228.267	1247
228.332	1004
228.398	2513
228.464	2161
228.530	1479
228.595	1123
228.661	1029
228.727	3076
228.792	3716
228.858	1564
228.924	936
228.990	3305
229.055	1182
229.121	3466
229.187	1428
229.252	1062
229.318	1207
229.384	1632
229.449	2736
229.515	129
229.581	599
229.646	2474
229.712	2689
229.777	5474
229.843	5999
229.909	4466
229.974	3735
230.040	3162
230.105	2790
230.171	2215
230.236	3621
230.302	5675
230.368	4778
230.433	1711
230.499	2490
230.564	1974
230.630	1373
230.695	2046
230.761	2297
230.826	462
230.892	4188
230.957	2090
231.023	1701
231.088	1998
231.154	1384
231.219	1919
231.284	3301
231.350	3955
231.415	1155
231.481	1545
231.546	1568
231.612	2040
231.677	1027
231.742	487
231.808	2825
231.873	1042
231.939	-111
232.004	3436
232.069	4812
232.135	1268
232.200	1431
232.265	1969
232.331	1402
232.396	1337
232.461	725
232.527	1448
232.592	832
232.657	2216
232.723	4715
232.788	4113
232.853	2536
232.918	1570
232.984	1019
233.049	1243
233.114	4028
233.179	5013
233.245	7333
233.310	10931
233.375	1836
233.440	2311
233.506	2082
233.571	1355
233.636	2125
233.701	2381
233.766	5418
233.832	7696
233.897	3382
233.962	1764
234.027	4159
234.092	2545
234.157	2205
234.222	3317
234.288	4810
234.353	19607
234.418	16738
234.483	9355
234.548	4730
234.613	3362
234.678	3794
234.743	3665
234.808	18991
234.873	12608
234.938	4491
235.004	3515
235.069	3094
235.134	2071
235.199	3061
235.264	1839
235.329	1053
235.394	3060
235.459	4535
235.524	3197
235.589	3087
235.654	1802
235.719	1231
235.784	2650
235.849	3293
235.913	9621
235.978	10445
236.043	13114
236.108	4341
236.173	3299
236.238	5027
236.303	2884
236.368	2068
236.433	6206
236.498	11906
236.563	6810
236.627	7558
236.692	30921
236.757	26586
236.822	10379
236.887	9534
236.952	6324
237.017	4493
237.081	6963
237.146	5998
237.211	11569
237.276	27847
237.341	59444
237.405	27899
237.470	11055
237.535	10136
237.600	6242
237.664	3929
237.729	2831
237.794	4015
237.859	8401
237.923	7916
237.988	5314
238.053	8128
238.118	8927
238.182	22852
238.247	26237
238.312	10333
238.376	7510
238.441	4650
238.506	5201
238.570	2922
238.635	4444
238.700	2994
238.764	2300
238.829	9912
238.893	15278
238.958	5298
239.023	4917
239.087	3268
239.152	3329
239.216	2311
239.281	3022
239.346	3119
239.410	2925
239.475	3655
239.539	23031
239.604	22544
239.668	6607
239.733	3050
239.797	4308
239.862	11825
239.926	21038
239.991	9600
240.055	4070
240.120	3119
240.184	2478
240.249	2596
240.313	3194
240.378	3196
240.442	12549
240.507	27368
240.571	8257
240.635	10070
240.700	15928
240.764	4568
240.829	3152
240.893	1837
240.957	3052
241.022	11977
241.086	27008
241.151	12999
241.215	3706
241.279	6550
241.344	12894
241.408	5468
241.472	3265
241.537	3739
241.601	3428
241.665	1372
241.730	1963
241.794	3936
241.858	2457
241.922	2902
241.987	2729
242.051	2439
242.115	428
242.179	2915
242.244	940
242.308	3223
242.372	3126
242.436	4075
242.501	3417
242.565	2197
242.629	2049
242.693	3126
242.757	2207
242.822	2050
242.886	3597
242.950	3961
243.014	2900
243.078	3023
243.142	3130
243.206	2576
243.271	4135
243.335	3773
243.399	5415
243.463	17720
243.527	62316
243.591	21340
243.655	7377
243.719	4221
243.783	5067
243.847	7369
243.911	9930
243.975	9427
244.040	6856
244.104	4857
244.168	2868
244.232	4335
244.296	7257
244.360	8174
244.424	4544
244.488	4172
244.552	4673
244.615	2200
244.679	2722
244.743	3805
244.807	3621
244.871	3557
244.935	3119
244.999	1527
245.063	2445
245.127	3653
245.191	5229
245.255	5916
245.319	4397
245.383	2350
245.446	4351
245.510	3131
245.574	2769
245.638	4259
245.702	2866
245.766	8816
245.829	7315
245.893	3297
245.957	2363
246.021	4232
246.085	3518
246.149	5556
246.212	11901
246.276	19199
246.340	8292
246.404	5738
246.467	5468
246.531	8428
246.595	6520
246.659	5969
246.722	3778
246.786	5997
246.850	4975
246.913	8974
246.977	3079
247.041	3668
247.104	4465
247.168	3923
247.232	9918
247.295	26667
247.359	13675
247.423	5123
247.486	10123
247.550	6587
247.614	4771
247.677	6935
247.741	4992
247.804	3741
247.868	5399
247.932	8718
247.995	24242
248.059	9723
248.122	3804
248.186	6317
248.249	9692
248.313	34478
248.376	39894
248.440	26405
248.503	9869
248.567	8730
248.630	10266
248.694	13316
248.757	15670
248.821	39683
248.884	24110
248.948	19566
249.011	31366
249.075	46870
249.138	43407
249.202	14844
249.265	9888
249.328	16732
249.392	10539
249.455	7634
249.519	5694
249.582	7083
249.645	10911
249.709	9196
249.772	6313
249.835	6107
249.899	8575
249.962	6784
250.025	5695
250.089	15003
250.152	22690
250.215	10461
250.279	7498
250.342	8308
250.405	7973
250.468	6564
250.532	8917
250.595	13786
250.658	48770
250.721	100673
250.785	30711
250.848	16060
250.911	10572
250.974	10070
251.038	11389
251.101	27002
251.164	13942
251.227	13410
251.290	12385
251.354	16269
251.417	74436
251.480	84000
251.543	42338
251.606	144344
251.669	114097
251.732	36110
251.795	34742
251.859	37684
251.922	92569
251.985	57227
252.048	18986
252.111	13886
252.174	12869
252.237	20020
252.300	48575
252.363	48613
252.426	123507
252.489	51946
252.552	25908
252.615	17887
252.678	16533
252.741	36287
252.804	47582
252.867	123123
252.930	70439
252.993	36042
253.056	19337
253.119	14430
253.182	11554
253.245	18325
253.308	14915
253.371	13645
253.434	13782
253.497	13393
253.559	23910
253.622	17530
253.685	17643
253.748	18870
253.811	9859
253.874	14271
253.937	12687
254.000	8592
254.062	14233
254.125	26283
254.188	18733
254.251	16916
254.314	9242
254.376	14100
254.439	16982
254.502	13891
254.565	14110
254.628	28454
254.690	14805
254.753	9101
254.816	7843
254.878	8748
254.941	17395
255.004	21430
255.067	8402
255.129	7816
255.192	5007
255.255	4768
255.317	5461
255.380	4443
255.443	3046
255.505	3120
255.568	3495
255.631	4337
255.693	3565
255.756	2905
255.819	4458
255.881	3289
255.944	3170
256.006	3348
256.069	2476
256.132	3201
256.194	5537
256.257	20117
256.319	15378
256.382	13555
256.444	5872
256.507	4685
256.569	3677
256.632	4076
256.694	8099
256.757	15390
256.819	45634
256.882	18695
256.944	7582
257.007	6667
257.069	6387
257.132	4472
257.194	5209
257.257	3438
257.319	3393
257.381	4142
257.444	11151
257.506	50953
257.569	61651
257.631	41963
257.693	20055
257.756	9352
257.818	9995
257.880	5953
257.943	5602
258.005	3434
258.067	3462
258.130	3041
258.192	5628
258.254	11938
258.317	8226
258.379	5657
258.441	12434
258.503	16190
258.566	22818
258.628	37985
258.690	8015
258.753	6365
258.815	9701
258.877	5310
258.939	4175
259.001	3600
259.064	4096
259.126	4965
259.188	10186
259.250	6156
259.312	7750
259.375	24075
259.437	16123
259.499	5653
259.561	4382
259.623	4708
259.685	3559
259.747	5931
259.809	20976
259.872	49958
259.934	62633
259.996	57587
260.058	12325
260.120	6883
260.182	6600
260.244	4875
260.306	3094
260.368	4277
260.430	3814
260.492	6746
260.554	18624
260.616	19632
260.678	26061
260.740	51077
260.802	13033
260.864	8079
260.926	5377
260.988	6531
261.050	4856
261.112	9263
261.174	37902
261.236	43221
261.298	10598
261.359	19057
261.421	32165
261.483	8304
261.545	6145
261.607	3510
261.669	4685
261.731	10835
261.793	30555
261.854	10196
261.916	7035
261.978	4616
262.040	5985
262.102	5891
262.164	10207
262.225	9668
262.287	4968
262.349	9866
262.411	9467
262.472	5508
262.534	11319
262.596	32163
262.658	9729
262.719	5333
262.781	7734
262.843	28992
262.904	14338
262.966	7279
263.028	10205
263.090	41880
263.151	121783
263.213	37139
263.275	14366
263.336	8075
263.398	6353
263.459	4486
263.521	3999
263.583	8669
263.644	6921
263.706	3459
263.767	2807
263.829	2954
263.891	1947
263.952	1650
264.014	2167
264.075	3498
264.137	7633
264.198	5265
264.260	2295
264.321	2669
264.383	5199
264.444	13374
264.506	4232
264.567	3592
264.629	5518
264.690	8498
264.752	4922
264.813	3430
264.875	2564
264.936	3382
264.998	1159
265.059	1648
265.120	2320
265.182	4081
265.243	18266
265.305	21809
265.366	5105
265.427	2867
265.489	2905
265.550	1110
265.611	3245
265.673	2726
265.734	1692
265.795	2401
265.857	2293
265.918	2331
265.979	5208
266.040	34492
266.102	30568
266.163	7904
266.224	5336
266.286	4152
266.347	2511
266.408	2816
266.469	3776
266.530	3126
266.592	2372
266.653	5485
266.714	10502
266.775	2635
266.836	2330
266.898	2333
266.959	4344
267.020	2101
267.081	2710
267.142	2532
267.203	1865
267.264	1771
267.326	4135
267.387	2977
267.448	1435
267.509	1880
267.570	2126
267.631	1652
267.692	2551
267.753	3230
267.814	2190
267.875	5353
267.936	12638
267.997	4955
268.058	4342
268.119	3051
268.180	2391
268.241	1933
268.302	1711
268.363	1693
268.424	2189
268.485	2810
268.546	1462
268.607	1711
268.668	1333
268.729	1440
268.790	2020
268.851	2671
268.912	5885
268.972	9563
269.033	4553
269.094	2158
269.155	2012
269.216	1576
269.277	2640
269.338	2079
269.398	1881
269.459	3057
269.520	4310
269.581	5059
269.642	6022
269.702	3674
269.763	3152
269.824	3037
269.885	2481
269.945	5460
270.006	2441
270.067	1748
270.128	1621
270.188	1606
270.249	2465
270.310	1181
270.370	2016
270.431	2751
270.492	1725
270.553	1819
270.613	5532
270.674	11697
270.734	5581
270.795	2623
270.856	3809
270.916	4136
270.977	2567
271.038	3436
271.098	3719
271.159	5027
271.219	6537
271.280	3286
271.340	2566
271.401	3855
271.462	14741
271.522	7429
271.583	4069
271.643	3986
271.704	3062
271.764	3926
271.825	8646
271.885	29429
271.946	51013
272.006	15644
272.066	18758
272.127	42393
272.187	12950
272.248	6173
272.308	6904
272.369	26865
272.429	18449
272.489	9652
272.550	10627
272.610	9597
272.671	7925
272.731	9188
272.791	18101
272.852	8387
272.912	6148
272.972	3375
273.033	4609
273.093	7897
273.153	6928
273.214	4721
273.274	6147
273.334	15528
273.394	42145
273.455	15884
273.515	13836
273.575	32979
273.635	16005
273.696	20093
273.756	45194
273.816	18556
273.876	10616
273.936	24986
273.997	56517
274.057	13579
274.117	8576
274.177	11334
274.237	42220
274.297	47786
274.358	37788
274.418	33291
274.478	24275
274.538	11546
274.598	10520
274.658	39434
274.718	58600
274.778	22239
274.838	11510
274.898	20534
274.958	79499
275.018	53167
275.078	32867
275.138	12277
275.198	7543
275.258	5926
275.318	7641
275.378	11425
275.438	11100
275.498	9225
275.558	27905
275.618	71348
275.678	35468
275.738	15965
275.798	11629
275.858	6442
275.918	4169
275.978	4927
276.038	4504
276.098	4841
276.157	8002
276.217	22784
276.277	12600
276.337	7109
276.397	5373
276.457	6292
276.517	4728
276.576	4493
276.636	4156
276.696	6638
276.756	14128
276.815	13338
276.875	6028
276.935	6396
276.995	5487
277.055	4172
277.114	5409
277.174	5518
277.234	18720
277.293	10240
277.353	5246
277.413	4768
277.472	5011
277.532	6158
277.592	7735
277.651	22695
277.711	53313
277.771	17994
277.830	47423
277.890	49218
277.950	29218
278.009	99446
278.069	42351
278.128	32168
278.188	52702
278.248	21864
278.307	50641
278.367	39776
278.426	12215
278.486	8261
278.545	6836
278.605	6503
278.664	6046
278.724	6856
278.783	15089
278.843	47292
278.902	17003
278.962	9834
279.021	11473
279.081	22747
279.140	23132
279.199	12121
279.259	9912
279.318	11555
279.378	16855
279.437	29426
279.496	97720
279.556	309747
279.615	307947
279.675	81606
279.734	45277
279.793	59790
279.853	94240
279.912	35578
279.971	18463
280.031	16414
280.090	26096
280.149	50182
280.208	47843
280.268	198795
280.327	263383
280.386	64594
280.445	34612
280.505	29512
280.564	16941
280.623	13391
280.682	14944
280.742	22384
280.801	9673
280.860	7044
280.919	6419
280.978	5846
281.037	5722
281.097	5151
281.156	6140
281.215	5729
281.274	6905
281.333	25872
281.392	25208
281.451	6963
281.510	5035
281.569	4989
281.628	5033
281.688	4905
281.747	5015
281.806	4489
281.865	3655
281.924	3643
281.983	3788
282.042	3881
282.101	2890
282.160	3028
282.219	3057
282.278	4351
282.337	12012
282.396	10242
282.454	4504
282.513	5459
282.572	17720
282.631	12586
282.690	4693
282.749	3694
282.808	4681
282.867	4863
282.926	5004
282.985	3508
283.043	3068
283.102	3972
283.161	4656
283.220	9834
283.279	24569
283.338	8466
283.396	3957
283.455	5338
283.514	4976
283.573	7839
283.631	6762
283.690	5073
283.749	3541
283.808	8577
283.866	11200
283.925	5162
283.984	5612
284.043	6094
284.101	6437
284.160	5160
284.219	7480
284.277	6619
284.336	9479
284.395	25528
284.453	27224
284.512	9660
284.570	10885
284.629	10706
284.688	9571
284.746	11381
284.805	13228
284.863	17724
284.922	21898
284.981	23109
285.039	30964
285.098	53857
285.156	129267
285.215	306349
285.273	315959
285.332	163706
285.390	79639
285.449	48454
285.507	33750
285.566	26022
285.624	18489
285.683	14772
285.741	12077
285.799	10241
285.858	9539
285.916	8218
285.975	7055
286.033	6004
286.091	5556
286.150	5643
286.208	5737
286.267	6421
286.325	5776
286.383	7473
286.442	7534
286.500	4767
286.558	5020
286.616	3683
286.675	6072
286.733	5875
286.791	4934
286.850	5311
286.908	6563
286.966	10812
287.024	5629
287.083	5048
287.141	3043
287.199	4539
287.257	5876
287.315	5757
287.374	5488
287.432	10242
287.490	8589
287.548	5791
287.606	4597
287.664	4188
287.723	5813
287.781	7835
287.839	5047
287.897	5135
287.955	7305
288.013	12623
288.071	28291
288.129	101489
288.187	351816
288.245	166820
288.303	44860
288.361	25567
288.419	20273
288.477	13312
288.535	10150
288.593	6938
288.651	6225
288.709	4812
288.767	5150
288.825	3727
288.883	3671
288.941	3391
288.999	3514
289.057	4084
289.115	2725
289.173	3310
289.231	3816
289.289	4696
289.346	3972
289.404	4016
289.462	6467
289.520	7201
289.578	2493
289.636	2343
289.694	2917
289.751	1866
289.809	2011
289.867	2507
289.925	2725
289.983	3346
290.040	2368
290.098	1518
290.156	2589
290.214	3201
290.271	1605
290.329	2081
290.387	1760
290.444	822
290.502	1110
290.560	1573
290.617	2490
290.675	2336
290.733	2227
290.790	3771
290.848	3101
290.906	3670
290.963	2864
291.021	2773
291.078	3422
291.136	3864
291.194	7009
291.251	20523
291.309	7299
291.366	3069
291.424	1929
291.481	3069
291.539	2979
291.596	3932
291.654	2293
291.711	2323
291.769	3089
291.826	6143
291.884	4582
291.941	1974
291.999	2458
292.056	2767
292.114	3627
292.171	1353
292.228	2937
292.286	3170
292.343	7360
292.401	8794
292.458	7270
292.515	3645
292.573	4775
292.630	4498
292.687	5808
292.745	4118
292.802	4162
292.859	11415
292.917	26320
292.974	17346
293.031	5537
293.089	3666
293.146	2965
293.203	2979
293.260	2689
293.318	5275
293.375	5707
293.432	2845
293.489	2270
293.546	3851
293.604	7069
293.661	19829
293.718	53346
293.775	26627
293.832	11863
293.889	9828
293.947	12675
294.004	9947
294.061	7058
294.118	9591
294.175	21680
294.232	21566
294.289	11556
294.346	5320
294.403	4623
294.460	5330
294.517	5443
294.574	4412
294.631	3790
294.688	4780
294.745	11887
294.802	46764
294.859	48778
294.916	21415
294.973	16185
295.030	9672
295.087	8072
295.144	5126
295.201	5026
295.258	4960
295.315	6554
295.372	17940
295.429	43417
295.486	18582
295.542	8251
295.599	12826
295.656	24797
295.713	19896
295.770	35251
295.827	16095
295.883	6250
295.940	5561
295.997	8407
296.054	9060
296.111	4980
296.167	3694
296.224	2409
296.281	3146
296.338	2923
296.394	3553
296.451	4536
296.508	12756
296.564	29200
296.621	19894
296.678	34489
296.734	62788
296.791	23075
296.848	10563
296.904	10731
296.961	19997
297.018	38707
297.074	35346
297.131	13184
297.187	9728
297.244	13174
297.301	38754
297.357	88711
297.414	34053
297.470	11697
297.527	6966
297.583	5975
297.640	6834
297.696	4542
297.753	3867
297.809	3195
297.866	2862
297.922	2585
297.979	2386
298.035	4249
298.092	7258
298.148	21193
298.204	25666
298.261	12528
298.317	16431
298.374	50579
298.430	35947
298.486	16670
298.543	13594
298.599	11157
298.656	11325
298.712	15439
298.768	36571
298.824	33112
298.881	11367
298.937	5826
298.993	5452
299.050	6397
299.106	7050
299.162	4528
299.218	5789
299.275	3799
299.331	6629
299.387	11409
299.443	40777
299.500	55638
299.556	22364
299.612	9039
299.668	8195
299.724	10487
299.780	12857
299.837	8352
299.893	11057
299.949	33395
300.005	48340
300.061	35097
300.117	66010
300.173	38685
300.229	16094
300.285	15344
300.341	17386
300.397	10270
300.453	6582
300.510	5799
300.566	6407
300.622	7904
300.678	19648
300.734	40103
300.790	38109
300.845	52344
300.901	33499
300.957	36119
301.013	32416
301.069	12993
301.125	9680
301.181	8902
301.237	7426
301.293	4576
301.349	4391
301.405	4753
301.461	4453
301.516	6066
301.572	6819
301.628	9966
301.684	10144
301.740	13607
301.796	25767
301.851	18346
301.907	25115
301.963	29744
302.019	43923
302.074	126028
302.130	141120
302.186	65962
302.242	25696
302.297	16070
302.353	14989
302.409	25176
302.464	27529
302.520	20144
302.576	41295
302.631	58133
302.687	32269
302.743	13851
302.798	7528
302.854	5583
302.910	6622
302.965	6842
303.021	12643
303.076	13562
303.132	14292
303.187	18211
303.243	10951
303.299	5601
303.354	4486
303.410	4393
303.465	4228
303.521	3992
303.576	5453
303.632	7348
303.687	12181
303.743	40193
303.798	43025
303.853	16576
303.909	8315
303.964	7366
304.020	7765
304.075	13438
304.130	12539
304.186	19698
304.241	22748
304.297	18514
304.352	11100
304.358	10658
304.407	7077
304.449	6277
304.463	6011
304.518	7097
304.539	6561
304.573	5706
304.629	7453
304.630	7530
304.684	11786
304.720	22810
304.739	28170
304.794	54347
304.811	47030
304.850	29104
304.902	12646
304.905	11621
304.960	7399
304.992	7461
305.015	7533
305.071	7101
305.083	6745
305.126	5370
305.173	4392
305.181	4252
305.236	4490
305.264	4402
305.292	4331
305.347	5719
305.354	5859
305.402	6816
305.445	7062
305.457	7100
305.512	8046
305.535	8545
305.567	9323
305.622	9799
305.626	10111
305.678	18997
305.716	36130
305.733	41622
305.788	57689
305.807	50326
305.843	39244
305.897	46001
305.898	45992
305.953	51678
305.988	34380
306.008	25451
306.063	13455
306.078	11918
306.118	8951
306.168	5941
306.173	5684
306.228	5269
306.259	4791
306.283	4495
306.338	5034
306.349	5025
306.393	5098
306.440	6278
306.448	6464
306.503	6474
306.530	7079
306.558	9558
306.613	19343
306.620	21150
306.668	33757
306.711	43673
306.723	43872
306.778	38608
306.801	29496
306.833	19758
306.888	9806
306.892	9400
306.943	6419
306.982	6205
306.997	6222
307.052	5603
307.072	5855
307.107	6820
307.162	8278
307.163	8315
307.217	13253
307.253	16391
307.272	16909
307.327	19244
307.343	17936
307.381	15255
307.434	12699
307.436	13023
307.491	24986
307.524	37526
307.546	40411
307.600	41932
307.614	37735
307.655	24134
307.704	12442
307.710	12045
307.765	14091
307.795	17153
307.819	20206
307.874	33374
307.885	33988
307.929	28513
307.975	18238
307.984	17943
308.038	22392
308.065	27401
308.093	52993
308.148	112590
308.156	125996
308.202	194079
308.246	254759
308.257	248829
308.312	129491
308.336	82384
308.366	59368
308.421	39171
308.426	37186
308.475	24017
308.517	16526
308.530	15307
308.585	13223
308.607	12692
308.639	13260
308.694	15592
308.697	15817
308.748	29390
308.787	44182
308.803	43887
308.857	35474
308.877	29280
308.912	24125
308.967	20932
308.967	20928
309.021	29417
309.058	36666
309.076	46220
309.130	82382
309.148	95286
309.185	193202
309.238	352080
309.239	352998
309.293	389487
309.328	358575
309.348	308362
309.402	136848
309.418	94287
309.457	63453
309.508	38907
309.511	38490
309.566	39366
309.598	41550
309.620	52921
309.674	87753
309.688	97485
309.729	90387
309.778	67774
309.783	65942
309.837	42215
309.868	31172
309.892	34785
309.946	47338
309.959	51607
310.001	64256
310.049	76963
310.055	74499
310.109	45372
310.139	27570
310.163	22320
310.218	14947
310.229	13849
310.272	11523
310.319	9544
310.326	9339
310.381	8049
310.409	7500
310.435	7266
310.489	6868
310.499	6825
310.543	6921
310.589	7252
310.598	7231
310.652	7124
310.679	6852
310.706	6152
310.760	4691
310.769	4499
310.814	4417
310.859	4454
310.868	4499
310.923	4575
310.948	4780
310.977	5695
311.031	7348
311.038	7594
311.085	7102
311.128	6195
311.139	6024
311.193	5401
311.218	5007
311.247	4616
311.301	4082
311.308	4012
311.356	4254
311.398	4531
311.410	4485
311.464	4151
311.488	4013
311.518	4155
311.572	4455
311.578	4487
311.626	6504
311.668	8316
311.680	8405
311.734	8617
311.758	8717
311.788	8570
311.842	8296
311.847	8253
311.896	9558
311.937	10715
311.950	10558
312.004	9830
312.027	9469
312.058	8193
312.112	5923
312.117	5695
312.165	5266
312.207	4904
312.297	6748
312.386	5706
312.476	7048
312.566	13776
312.656	6956
312.745	3911
312.835	4826
312.925	5106
313.015	5907
313.104	6611
313.194	4310
313.284	4351
313.374	7052
313.463	6340
313.553	4942
313.643	4563
313.732	4244
313.822	3967
313.912	5156
314.001	7656
314.091	6716
314.180	7422
314.270	8341
314.360	9031
314.449	8428
314.539	5052
314.628	5292
314.718	5325
314.808	8490
314.897	5386
314.987	6194
315.076	8387
315.166	9738
315.255	9980
315.345	9155
315.434	9688
315.524	8865
315.613	10179
315.703	16014
315.792	34549
315.881	132065
315.971	37112
316.060	19269
316.150	24872
316.239	25153
316.328	9105
316.418	6096
316.507	6173
316.597	9045
316.686	8519
316.775	12654
316.865	28178
316.954	6887
317.043	4999
317.133	6006
317.222	5436
317.311	6044
317.400	4570
317.490	10509
317.579	11430
317.668	12148
317.757	21506
317.847	60854
317.936	223666
318.025	62578
318.114	42333
318.203	19529
318.293	17298
318.382	31786
318.471	23610
318.560	28696
318.649	49917
318.738	12501
318.828	9447
318.917	10870
319.006	12923
319.095	29294
319.184	67173
319.273	37847
319.362	19772
319.451	8067
319.540	7322
319.629	18014
319.718	28111
319.807	13320
319.896	22768
319.985	85944
320.074	29809
320.163	9225
320.252	16150
320.341	10471
320.430	8827
320.519	13498
320.608	8379
320.697	7591
320.786	6327
320.875	9877
320.964	13952
321.053	20067
321.142	27953
321.230	29252
321.319	21986
321.408	50104
321.497	22037
321.586	21978
321.675	25760
321.764	23028
321.852	14576
321.941	27643
322.030	18721
322.119	20017
322.207	52412
322.296	37296
322.385	18976
322.474	25120
322.562	65958
322.651	31760
322.740	24467
322.829	34576
322.917	35573
323.006	20616
323.095	16522
323.183	13962
323.272	19751
323.361	39131
323.449	120939
323.538	38030
323.626	81456
323.715	47499
323.804	18970
323.892	70821
323.981	34711
324.069	13305
324.158	38441
324.246	33287
324.335	11747
324.424	19324
324.512	7830
324.601	10064
324.689	21669
324.778	38560
324.866	27381
324.954	8209
325.043	7754
325.131	16497
325.220	27061
325.308	32123
325.397	22141
325.485	13805
325.574	5025
325.662	4760
325.750	5894
325.839	5053
325.927	4308
326.015	7961
326.104	11326
326.192	16674
326.280	5558
326.369	5577
326.457	7357
326.545	15847
326.634	5565
326.722	4168
326.810	4927
326.898	4674
326.987	5292
327.075	14196
327.163	15068
327.251	7587
327.340	12686
327.428	18742
327.516	5994
327.604	6183
327.692	6805
327.781	7364
327.869	11292
327.957	7647
328.045	6901
328.133	4454
328.221	5221
328.309	5401
328.397	5203
328.485	6745
328.574	11066
328.662	34123
328.750	18006
328.838	7349
328.926	4234
329.014	4481
329.102	7048
329.190	16061
329.278	9838
329.366	3362
329.454	2693
329.542	3177
329.630	2853
329.718	3754
329.806	5185
329.893	4868
329.981	3551
330.069	6030
330.157	16988
330.245	50176
330.333	23631
330.421	6026
330.509	10165
330.597	38050
330.684	22697
330.772	7381
330.860	9969
330.948	11055
331.036	6087
331.123	3651
331.211	3673
331.299	5276
331.387	10428
331.475	18069
331.562	7157
331.650	4439
331.738	5700
331.825	8123
331.913	3487
332.001	4191
332.089	5946
332.176	13745
332.264	35829
332.352	24270
332.439	7123
332.527	5501
332.614	5011
332.702	6840
332.790	5483
332.877	16762
332.965	33924
333.052	11574
333.140	12366
333.228	31425
333.315	8105
333.403	7784
333.490	20181
333.578	20971
333.665	40613
333.753	15990
333.840	5350
333.928	8433
334.015	23277
334.103	32626
334.190	98566
334.278	23632
334.365	12858
334.452	12914
334.540	7393
334.627	9171
334.715	14208
334.802	29743
334.889	146034
334.977	142871
335.064	24344
335.151	10471
335.239	7943
335.326	12024
335.413	43736
335.501	55054
335.588	9817
335.675	6971
335.762	7931
335.850	13030
335.937	14043
336.024	38176
336.111	152541
336.199	66737
336.286	14928
336.373	8474
336.460	4629
336.547	4687
336.635	6920
336.722	6714
336.809	6455
336.896	9929
336.983	24811
337.070	59167
337.157	95032
337.245	88428
337.332	59509
337.419	8771
337.506	5287
337.593	6383
337.680	16229
337.767	48975
337.854	15786
337.941	18471
338.028	27817
338.115	9494
338.202	11072
338.289	24245
338.376	85532
338.463	24441
338.550	30940
338.637	30861
338.724	16102
338.811	23579
338.898	5791
338.984	4246
339.071	5323
339.158	8135
339.245	18318
339.332	11185
339.419	17409
339.506	15510
339.593	3764
339.679	4106
339.766	3305
339.853	6184
339.940	13212
340.027	5348
340.113	5279
340.200	7588
340.287	5034
340.374	7327
340.460	12179
340.547	5773
340.634	11045
340.720	39515
340.807	21774
340.894	4994
340.980	4896
341.067	5140
341.154	5640
341.240	8536
341.327	17690
341.414	7474
341.500	7269
341.587	5035
341.674	4537
341.760	13108
341.847	13422
341.933	5567
342.020	1873
342.106	2818
342.193	6028
342.279	9736
342.366	7243
342.452	12763
342.539	7818
342.625	17524
342.712	41479
342.798	16607
342.885	6205
342.971	3240
343.058	2568
343.144	2936
343.230	3890
343.317	4428
343.403	4123
343.490	3001
343.576	2803
343.662	4483
343.749	5699
343.835	8970
343.921	17667
344.008	112972
344.094	246569
344.180	48127
344.267	16147
344.353	56525
344.439	55380
344.525	19393
344.612	8408
344.698	6297
344.784	3815
344.870	4363
344.957	4041
345.043	8071
345.129	5514
345.215	10946
345.301	6917
345.387	4623
345.474	3151
345.560	3338
345.646	3210
345.732	3967
345.818	6362
345.904	5603
345.990	5847
346.076	6418
346.162	12561
346.249	6348
346.335	3197
346.421	6362
346.507	25523
346.593	88277
346.679	17808
346.765	5501
346.851	5338
346.937	4760
347.023	5087
347.108	5327
347.194	4354
347.280	4741
347.366	7191
347.452	29111
347.538	114391
347.624	70658
347.710	51762
347.796	8839
347.882	3692
347.967	4182
348.053	4994
348.139	4523
348.225	3169
348.311	4195
348.397	2719
348.482	5978
348.568	6252
348.654	4184
348.740	8329
348.825	8106
348.911	11786
348.997	50893
349.083	98182
349.168	14460
349.254	5042
349.340	6069
349.425	3510
349.511	6231
349.597	6497
349.682	14696
349.768	51154
349.854	22052
349.939	4805
350.025	3803
350.110	2655
350.196	2869
350.282	2274
350.367	3785
350.453	8627
350.538	8227
350.624	5211
350.709	4270
350.795	3108
350.880	3918
350.966	5500
351.051	8370
351.137	6385
351.222	5259
351.308	14286
351.393	40605
351.479	11072
351.564	4850
351.649	3363
351.735	2789
351.820	3311
351.906	3947
351.991	5987
352.076	28098
352.162	38337
352.247	7676
352.332	5270
352.418	11207
352.503	14462
352.588	58661
352.673	42921
352.759	9823
352.844	4198
352.929	6408
353.014	8483
353.100	6627
353.185	11664
353.270	14180
353.355	13665
353.441	5064
353.526	5700
353.611	12657
353.696	14321
353.781	9472
353.866	3488
353.952	5321
354.037	12328
354.122	28565
354.207	24392
354.292	9326
354.377	4416
354.462	4245
354.547	5382
354.632	5755
354.717	7801
354.802	12533
354.887	5216
354.972	4021
355.057	2658
355.142	2459
355.227	5278
355.312	9772
355.397	19778
355.482	45426
355.567	20395
355.652	16886
355.737	18171
355.822	61926
355.907	46658
355.991	8009
356.076	3913
356.161	4402
356.246	3659
356.331	5867
356.416	16678
356.501	121093
356.585	115144
356.670	14999
356.755	10797
356.840	16548
356.924	80391
357.009	284619
357.094	91759
357.179	19294
357.263	13113
357.348	12118
357.433	10449
357.517	10932
357.602	9075
357.687	7707
357.771	17392
357.856	61804
357.941	33135
358.025	63022
358.110	280922
358.195	113396
358.279	15898
358.364	11260
358.448	40777
358.533	107243
358.617	71470
358.702	75366
358.787	26018
358.871	14102
358.956	11421
359.040	4851
359.125	4750
359.209	6087
359.294	29275
359.378	46851
359.462	15191
359.547	8038
359.631	5094
359.716	4425
359.800	4132
359.885	7602
359.969	4658
360.053	5173
360.138	5218
360.222	8498
360.306	13865
360.391	11729
360.475	29422
360.559	59373
360.644	42109
360.728	29554
360.812	64347
360.896	178143
360.981	57376
361.065	25484
361.149	8310
361.233	7391
361.318	7254
361.402	9881
361.486	7837
361.570	5498
361.654	8332
361.739	22954
361.823	114593
361.907	175009
361.991	27788
362.075	15416
362.159	29422
362.243	20921
362.327	23958
362.411	37030
362.495	16434
362.580	7792
362.664	5816
362.748	5796
362.832	8758
362.916	15233
363.000	57523
363.084	173169
363.168	214770
363.252	43271
363.336	13874
363.420	18806
363.503	60063
363.587	64557
363.671	13851
363.755	9577
363.839	15032
363.923	6621
364.007	16627
364.091	17995
364.175	26168
364.258	105650
364.342	83835
364.426	133278
364.510	69748
364.594	25200
364.677	32680
364.761	157745
364.845	100715
364.929	27247
365.013	20323
365.096	17542
365.180	20253
365.264	27464
365.347	99818
365.431	37399
365.515	9367
365.598	6228
365.682	6063
365.766	8292
365.849	9582
365.933	6135
366.017	9573
366.100	5145
366.184	2994
366.267	5462
366.351	4022
366.435	3985
366.518	2382
366.602	3925
366.685	4419
366.769	5163
366.852	8980
366.936	15997
367.019	8504
367.103	6109
367.186	11702
367.270	5118
367.353	3233
367.436	4738
367.520	4072
367.603	5973
367.687	9226
367.770	17240
367.853	10983
367.937	41219
368.020	66223
368.104	13993
368.187	13433
368.270	17343
368.353	14710
368.437	23775
368.520	55568
368.603	29693
368.687	44699
368.770	79924
368.853	18055
368.936	16255
369.020	13215
369.103	6270
369.186	4290
369.269	5248
369.352	11418
369.436	15082
369.519	10026
369.602	4856
369.685	7128
369.768	6029
369.851	5141
369.934	4060
370.018	5722
370.101	14098
370.184	11733
370.267	8072
370.350	15153
370.433	23841
370.516	85200
370.599	121366
370.682	35098
370.765	40590
370.848	53057
370.931	105661
371.014	34457
371.097	7829
371.180	6120
371.263	4946
371.346	2980
371.429	4904
371.511	4616
371.594	10531
371.677	13533
371.760	14134
371.843	16513
371.926	97455
372.009	226055
372.091	60700
372.174	42995
372.257	110534
372.340	37722
372.423	22027
372.505	21781
372.588	11718
372.671	31553
372.754	103803
372.836	47057
372.919	27806
373.002	47903
373.085	16575
373.167	16175
373.250	43370
373.332	104496
373.415	145145
373.498	308811
373.580	102816
373.663	194382
373.746	231380
373.828	41517
373.911	15871
373.993	15758
374.076	51613
374.159	45806
374.241	26630
374.324	82927
374.406	52186
374.489	88994
374.571	255088
374.654	89873
374.736	45243
374.819	158738
374.901	220214
374.983	220867
375.066	34631
375.148	12317
375.231	44678
375.313	78229
375.395	27800
375.478	8539
375.560	7809
375.643	11991
375.725	45065
375.807	201516
375.890	141474
375.972	50573
376.054	28314
376.136	46016
376.219	20156
376.301	54734
376.383	162111
376.465	55229
376.548	30535
376.630	41398
376.712	132133
376.794	53996
376.877	7823
376.959	3627
377.041	6151
377.123	9302
377.205	11071
377.287	3099
377.369	4332
377.452	3489
377.534	4528
377.616	4691
377.698	4661
377.780	3312
377.862	4764
377.944	4978
378.026	2695
378.108	3796
378.190	4165
378.272	4447
378.354	2901
378.436	3389
378.518	6268
378.600	20981
378.682	20891
378.764	56136
378.846	40719
378.928	10665
379.010	15134
379.091	8220
379.173	4848
379.255	3544
379.337	7367
379.419	27245
379.501	82522
379.583	28746
379.664	8127
379.746	18881
379.828	52395
379.910	73528
379.991	62183
380.073	10618
380.155	7475
380.237	6022
380.318	4883
380.400	4938
380.482	13320
380.564	17658
380.645	18144
380.727	16206
380.809	10656
380.890	7393
380.972	6109
381.053	6278
381.135	8193
381.217	19679
381.298	55146
381.380	25431
381.461	26366
381.543	133847
381.624	152465
381.706	25419
381.787	13456
381.869	15631
381.951	61915
382.032	247713
382.113	133711
382.195	23967
382.276	18796
382.358	43133
382.439	121954
382.521	140316
382.602	225952
382.684	91065
382.765	161195
382.846	191482
382.928	320174
383.009	162286
383.090	112646
383.172	454182
383.253	662435
383.334	203563
383.416	195078
383.497	95609
383.578	49111
383.659	93004
383.741	378248
383.822	974527
383.903	458258
383.984	145132
384.066	212681
384.147	118904
384.228	27371
384.309	21276
384.390	15821
384.471	12655
384.553	13457
384.634	16148
384.715	16531
384.796	9681
384.877	13590
384.958	52740
385.039	59873
385.120	20035
385.201	11900
385.282	11894
385.363	12762
385.444	11984
385.525	24609
385.606	96330
385.687	78820
385.768	17396
385.849	20020
385.930	106196
386.011	189837
386.092	42295
386.173	10011
386.254	8126
386.335	8725
386.416	9161
386.496	34358
386.577	50962
386.658	17602
386.739	10463
386.820	9634
386.901	7933
386.981	8690
387.062	7269
387.143	14945
387.224	54600
387.304	47305
387.385	16876
387.466	11534
387.547	14037
387.627	11674
387.708	23794
387.789	103261
387.869	127363
387.950	32609
388.031	6557
388.111	4950
388.192	12188
388.273	18156
388.353	12173
388.434	9713
388.514	23085
388.595	117930
388.676	136521
388.756	52019
388.837	48049
388.917	27100
388.998	6186
389.078	7122
389.159	6273
389.239	4668
389.320	10510
389.400	8588
389.480	21542
389.561	60146
389.641	27321
389.722	10341
389.802	14544
389.883	27117
389.963	76561
390.043	45047
390.124	11747
390.204	19977
390.284	60299
390.365	35851
390.445	44096
390.525	134134
390.605	111909
390.686	31169
390.766	13627
390.846	8327
390.927	5853
391.007	5974
391.087	7562
391.167	8259
391.247	6758
391.328	12082
391.408	14423
391.488	10105
391.568	5566
391.648	9290
391.728	13316
391.808	13431
391.888	13478
391.969	34746
392.049	52850
392.129	22856
392.209	29305
392.289	74403
392.369	37558
392.449	25065
392.529	18955
392.609	20060
392.689	27344
392.769	79527
392.849	66067
392.929	48354
393.009	112552
393.089	101834
393.169	124174
393.248	398903
393.328	1344312
393.408	1356607
393.488	385109
393.568	112967
393.648	55660
393.728	34982
393.807	24857
393.887	21894
393.967	17943
394.047	18063
394.127	19016
394.206	29248
394.286	95992
394.366	483098
394.446	479431
394.525	88132
394.605	22879
394.685	19764
394.764	31569
394.844	54219
394.924	39140
395.003	16379
395.083	11654
395.163	11183
395.242	10142
395.322	10767
395.402	8009
395.481	11955
395.561	25028
395.640	64266
395.720	58719
395.799	70574
395.879	52616
395.958	35917
396.038	133219
396.117	625832
396.197	636925
396.276	139180
396.356	44653
396.435	36293
396.515	33119
396.594	46336
396.673	102374
396.753	409872
396.832	1199137
396.912	820437
396.991	184769
397.070	54803
397.150	28784
397.229	22507
397.308	28049
397.388	44561
397.467	22140
397.546	11012
397.625	8026
397.705	12830
397.784	10653
397.863	7582
397.942	5764
398.022	7959
398.101	19187
398.180	53370
398.259	24003
398.338	9023
398.417	7421
398.497	5409
398.576	6015
398.655	4061
398.734	4551
398.813	4680
398.892	17739
398.971	59838
399.050	26490
399.129	4419
399.208	2749
399.287	3981
399.366	2495
399.445	3244
399.524	3267
399.603	2864
399.682	7586
399.761	21816
399.840	67227
399.919	47776
399.998	6006
400.077	2754
400.156	1705
400.235	4858
400.313	2234
400.392	4376
400.471	27026
400.550	42069
400.629	9966
400.708	5525
400.786	4360
400.865	10124
400.944	10907
401.023	6119
401.102	1376
401.180	2431
401.259	2788
401.338	3755
401.416	4712
401.495	4179
401.574	3209
401.652	2896
401.731	5158
401.810	3809
401.888	2369
401.967	2246
402.046	3334
402.124	5107
402.203	5954
402.281	3975
402.360	6032
402.438	14803
402.517	8323
402.596	3584
402.674	3202
402.753	2703
402.831	2910
402.910	4842
402.988	22785
403.066	78353
403.145	41133
403.223	23065
403.302	60690
403.380	43232
403.459	42191
403.537	15148
403.615	5435
403.694	1080
403.772	2005
403.850	1404
403.929	2236
404.007	3165
404.085	8883
404.164	9095
404.242	2456
404.320	3704
404.398	7287
404.477	31168
404.555	167720
404.633	134604
404.711	16474
404.789	4401
404.868	3109
404.946	1798
405.024	1367
405.102	2061
405.180	474
405.258	548
405.336	2291
405.415	2347
405.493	5843
405.571	7625
405.649	1742
405.727	806
405.805	4943
405.883	4005
405.961	4921
406.039	4201
406.117	2040
406.195	7086
406.273	35126
406.351	132255
406.429	69374
406.507	8835
406.585	2679
406.663	4190
406.740	5300
406.818	4512
406.896	2482
406.974	3885
407.052	9990
407.130	76085
407.208	99629
407.285	17814
407.363	2805
407.441	3133
407.519	2308
407.596	3819
407.674	12403
407.752	45246
407.830	37137
407.907	10859
407.985	3555
408.063	1901
408.141	1550
408.218	4089
408.296	3874
408.373	4374
408.451	4173
408.529	3669
408.606	1204
408.684	1285
408.762	1066
408.839	1427
408.917	844
408.994	1384
409.072	860
409.149	2068
409.227	6196
409.304	7584
409.382	6172
409.459	7608
409.537	11088
409.614	8388
409.692	4621
409.769	5718
409.846	13129
409.924	15100
410.001	7709
410.079	5670
410.156	3510
410.233	3303
410.311	2548
410.388	2608
410.465	4069
410.543	3139
410.620	2417
410.697	2960
410.775	4623
410.852	1492
410.929	5782
411.006	5924
411.083	3888
411.161	8198
411.238	8192
411.315	3554
411.392	2047
411.469	4336
411.547	4061
411.624	2145
411.701	1609
411.778	3891
411.855	8252
411.932	4120
412.009	1090
412.086	1822
412.163	2348
412.240	2561
412.317	3217
412.394	3677
412.471	1292
412.548	1061
412.625	1976
412.702	2801
412.779	5532
412.856	3626
412.933	892
413.010	2280
413.087	4755
413.164	24250
413.241	33501
413.318	6648
413.395	4879
413.471	6888
413.548	2415
413.625	2135
413.702	1987
413.779	1782
413.855	350
413.932	-581
414.009	155
414.086	771
414.162	1177
414.239	3918
414.316	23559
414.393	54157
414.469	16901
414.546	1972
414.623	705
414.699	1268
414.776	1373
414.853	1134
414.929	1545
415.006	1715
415.082	1875
415.159	1305
415.236	1011
415.312	2142
415.389	4981
415.465	6715
415.542	3099
415.618	1788
415.695	4399
415.771	2375
415.848	1952
415.924	2337
416.000	538
416.077	2368
416.153	-551
416.230	-583
416.306	38
416.383	259
416.459	891
416.535	679
416.612	751
416.688	1098
416.764	1591
416.841	1818
416.917	428
416.993	763
417.069	1610
417.146	2584
417.222	3721
417.298	2759
417.374	1164
417.451	1580
417.527	2820
417.603	3122
417.679	1909
417.755	2176
417.831	362
417.908	455
417.984	8
418.060	392
418.136	6422
418.212	9171
418.288	2286
418.364	2219
418.440	1250
418.516	2991
418.592	3928
418.668	9638
418.744	15686
418.820	10060
418.896	2212
418.972	491
419.048	1518
419.124	7195
419.200	3895
419.276	476
419.352	-57
419.428	498
419.504	1432
419.579	2968
419.655	2010
419.731	2262
419.807	10563
419.883	18881
419.959	12906
420.034	3337
420.110	7751
420.186	34935
420.262	24469
420.337	4260
420.413	3113
420.489	1512
420.565	1348
420.640	1541
420.716	2310
420.792	561
420.867	2212
420.943	2002
421.019	4982
421.094	4135
421.170	1552
421.245	975
421.321	2640
421.397	2768
421.472	8941
421.548	25359
421.623	15132
421.699	5616
421.774	5264
421.850	4513
421.925	9308
422.001	8189
422.076	6842
422.152	9015
422.227	14608
422.302	17874
422.378	25970
422.453	49323
422.529	126557
422.604	387962
422.679	637511
422.755	396651
422.830	130074
422.905	50723
422.981	26941
423.056	17890
423.131	13310
423.207	9741
423.282	8972
423.357	15261
423.432	9621
423.508	10667
423.583	18726
423.658	13843
423.733	5913
423.808	5527
423.883	6821
423.959	6656
424.034	5941
424.109	5281
424.184	2537
424.259	2542
424.334	2026
424.409	1460
424.484	2674
424.559	1960
424.634	1888
424.709	5034
424.784	4537
424.859	3398
424.934	5394
425.009	24583
425.084	38612
425.159	12685
425.234	3229
425.309	2396
425.384	14092
425.459	24131
425.534	6214
425.609	2119
425.683	1164
425.758	1754
425.833	1771
425.908	3811
425.983	15191
426.058	40861
426.132	16344
426.207	3764
426.282	4194
426.357	2894
426.431	1207
426.506	2110
426.581	2002
426.655	1904
426.730	1442
426.805	2247
426.879	2510
426.954	2226
427.029	7487
427.103	44408
427.178	111778
427.253	44771
427.327	5847
427.402	8716
427.476	23440
427.551	11353
427.625	3319
427.700	2410
427.774	655
427.849	2431
427.923	849
427.998	2082
428.072	1709
428.147	8468
428.221	42968
428.296	134221
428.370	64888
428.444	8081
428.519	5858
428.593	10578
428.667	9058
428.742	12254
428.816	15988
428.890	79976
428.965	131739
429.039	36236
429.113	14233
429.188	5464
429.262	2071
429.336	6316
429.410	19742
429.485	11910
429.559	9375
429.633	7767
429.707	3210
429.781	13021
429.855	80014
429.930	119578
430.004	47760
430.078	56555
430.152	65139
430.226	182700
430.300	172363
430.374	25556
430.448	7390
430.522	20750
430.596	56007
430.670	43800
430.744	146951
430.818	197843
430.892	37121
430.966	5655
431.040	3062
431.114	2093
431.188	827
431.262	2085
431.336	1974
431.410	5898
431.484	14935
431.557	10646
431.631	2053
431.705	4263
431.779	25539
431.853	122098
431.927	78438
432.000	9173
432.074	2360
432.148	2473
432.222	1827
432.295	1516
432.369	2211
432.443	5586
432.516	46139
432.590	116524
432.664	39175
432.737	4340
432.811	978
432.885	721
432.958	225
433.032	725
433.106	228
433.179	182
433.253	523
433.326	502
433.400	-135
433.473	1337
433.547	-407
433.620	1456
433.694	3190
433.767	4645
433.841	1066
433.914	532
433.988	452
434.061	669
434.134	479
434.208	379
434.281	-155
434.355	669
434.428	1418
434.501	1056
434.575	201
434.648	713
434.721	217
434.795	-277
434.868	214
434.941	-274
435.014	433
435.088	1060
435.161	4289
435.234	6643
435.307	6329
435.381	3774
435.454	3702
435.527	6424
435.600	6055
435.673	4341
435.746	2305
435.819	2565
435.892	1454
435.966	1370
436.039	765
436.112	833
436.185	96
436.258	193
436.331	-867
436.404	-242
436.477	1
436.550	-225
436.623	-88
436.696	428
436.769	1021
436.842	826
436.915	1189
436.987	2871
437.060	655
437.133	893
437.206	-1125
437.279	1595
437.352	389
437.425	544
437.498	1291
437.570	4083
437.643	3606
437.716	1865
437.789	50
437.861	4126
437.934	12792
438.007	6048
438.080	944
438.152	2806
438.225	7834
438.298	69429
438.370	187250
438.443	72624
438.516	14397
438.588	3006
438.661	527
438.734	1710
438.806	914
438.879	2868
438.951	3122
439.024	6427
439.096	1996
439.169	920
439.241	724
439.314	1358
439.386	1801
439.459	5038
439.531	8207
439.604	3918
439.676	188
439.749	-334
439.821	-364
439.893	1215
439.966	646
440.038	2270
440.110	1866
440.183	874
440.255	527
440.327	3821
440.400	24512
440.472	109803
440.544	72316
440.617	9797
440.689	6088
440.761	7288
440.833	11483
440.905	7538
440.978	767
441.050	480
441.122	687
441.194	399
441.266	170
441.338	927
441.411	4590
441.483	31161
441.555	46082
441.627	11630
441.699	4081
441.771	3848
441.843	1585
441.915	825
441.987	1572
442.059	948
442.131	2197
442.203	4761
442.275	4835
442.347	6070
442.419	11118
442.491	60930
442.563	148999
442.635	58149
442.706	22383
442.778	16706
442.850	4478
442.922	2740
442.994	3147
443.066	5649
443.137	3207
443.209	3414
443.281	7044
443.353	17726
443.425	75697
443.496	278458
443.568	261016
443.640	92185
443.711	17894
443.783	6561
443.855	4731
443.926	2553
443.998	2213
444.070	3523
444.141	3835
444.213	6221
444.285	7485
444.356	7305
444.428	6257
444.499	3421
444.571	1425
444.642	2269
444.714	2927
444.785	5557
444.857	6385
444.928	13039
445.000	8527
445.071	10788
445.143	12472
445.214	10184
445.285	15822
445.357	46589
445.428	183626
445.500	414645
445.571	250978
445.642	130328
445.714	43492
445.785	27226
445.856	10476
445.928	8910
445.999	7768
446.070	5624
446.141	4476
446.213	7328
446.284	4172
446.355	3582
446.426	3158
446.497	2812
446.569	3884
446.640	8123
446.711	7389
446.782	2311
446.853	4612
446.924	6105
446.995	3140
447.066	2349
447.138	4903
447.209	3264
447.280	-589
447.351	320
447.422	440
447.493	1760
447.564	4142
447.635	6804
447.706	2266
447.777	650
447.847	676
447.918	-166
447.989	2038
448.060	3996
448.131	9088
448.202	10127
448.273	6513
448.344	3007
448.414	1187
448.485	2102
448.556	155
448.627	279
448.698	658
448.768	388
448.839	946
448.910	4391
448.981	4290
449.051	3113
449.122	1094
449.193	700
449.263	436
449.334	266
449.405	2612
449.475	8356
449.546	6198
449.616	5798
449.687	4734
449.758	1979
449.828	235
449.899	359
449.969	368
450.040	1169
450.110	2326
450.181	4440
450.251	1378
450.322	787
450.392	1695
450.463	387
450.533	728
450.604	819
450.674	387
450.744	1092
450.815	391
450.885	1304
450.955	1226
451.026	-130
451.096	846
451.166	2218
451.237	6060
451.307	14407
451.377	6751
451.447	1527
451.518	1201
451.588	1500
451.658	1419
451.728	2904
451.799	15293
451.869	18713
451.939	3227
452.009	801
452.079	273
452.149	1400
452.219	3584
452.289	17904
452.360	14344
452.430	3107
452.500	2342
452.570	5231
452.640	9284
452.710	23454
452.780	29088
452.850	21905
452.920	20295
452.990	7727
453.060	4474
453.129	4775
453.199	7076
453.269	23815
453.339	52866
453.409	81970
453.479	74915
453.549	106584
453.619	109660
453.688	47065
453.758	6803
453.828	2153
453.898	1698
453.968	1665
454.037	1666
454.087	1607
454.107	1576
454.168	928
454.177	824
454.247	525
454.249	523
454.316	190
454.330	441
454.386	1373
454.411	3881
454.456	7937
454.492	11022
454.525	13818
454.574	7646
454.595	4971
454.655	1861
454.665	1377
454.734	1676
454.736	1794
454.804	5532
454.817	7833
454.873	17034
454.898	18825
454.943	21931
454.979	16139
455.013	10916
455.060	6450
455.082	4626
455.141	3769
455.152	3507
455.221	12232
455.222	12361
455.291	20871
455.303	19563
455.360	13750
455.384	13546
455.430	12875
455.465	11802
455.499	10711
455.546	13764
455.569	15005
455.627	12314
455.638	11915
455.707	2800
455.708	2804
455.777	1531
455.789	1352
455.846	561
455.869	635
455.916	710
455.950	921
455.985	1133
456.031	1522
456.054	1685
456.112	1353
456.124	1295
456.193	1221
456.193	1208
456.262	1583
456.274	1838
456.332	3143
456.355	3620
456.401	3940
456.436	3735
456.470	3641
456.516	1637
456.540	635
456.597	930
456.609	1048
456.678	953
456.678	940
456.747	1184
456.759	1049
456.817	627
456.840	610
456.886	296
456.920	578
456.955	1100
457.001	1433
457.024	1678
457.082	2394
457.093	2507
457.162	5073
457.163	5101
457.232	7551
457.243	7074
457.301	4344
457.324	3088
457.370	1345
457.405	1504
457.439	1630
457.485	1499
457.508	1422
457.566	2221
457.577	2444
457.646	3325
457.647	3351
457.715	7056
457.727	8021
457.784	13806
457.808	18970
457.853	25648
457.889	29049
457.922	29404
457.969	19765
457.991	19080
458.050	22639
458.060	23287
458.129	42943
458.130	43428
458.198	45428
458.211	40440
458.267	22344
458.292	15525
458.336	8399
458.372	7902
458.405	10857
458.453	16913
458.474	21193
458.533	40095
458.543	41602
458.611	71794
458.614	71944
458.680	47212
458.694	37544
458.749	16011
458.775	11654
458.818	6064
458.855	4707
458.887	3855
458.936	3227
458.955	3040
459.016	2763
459.024	2770
459.093	3510
459.097	3547
459.162	3361
459.177	3406
459.230	4050
459.257	4295
459.299	4198
459.338	4101
459.368	4243
459.418	4432
459.437	4286
459.499	4281
459.505	4285
459.574	2481
459.579	2471
459.643	3062
459.659	3081
459.711	2680
459.740	2707
459.780	3027
459.820	3401
459.849	3468
459.900	3356
459.917	3366
459.981	3448
459.986	3406
460.054	3068
460.061	2959
460.123	2813
460.141	2992
460.191	3938
460.222	4533
460.260	4867
460.302	5940
460.328	5955
460.382	4650
460.397	4476
460.462	3192
460.465	3206
460.534	4771
460.543	4969
460.602	12989
460.623	16368
460.671	25140
460.703	35338
460.739	35630
460.783	29097
460.808	25234
460.864	7727
460.876	5973
460.944	4031
460.945	3995
461.013	3274
461.024	3177
461.081	3658
461.104	4292
461.150	4321
461.184	3622
461.218	3596
461.264	3506
461.286	3273
461.345	2753
461.355	2710
461.423	3176
461.425	3170
461.491	3114
461.505	3270
461.559	5627
461.585	6557
461.628	9996
461.665	14685
461.696	16862
461.745	22587
461.764	21715
461.825	9915
461.832	9504
461.901	4742
461.905	4740
461.969	3887
461.985	3680
462.037	4133
462.065	4171
462.105	3625
462.145	3347
462.173	4740
462.225	8001
462.241	8803
462.305	13105
462.310	12900
462.378	9510
462.385	8614
462.446	5416
462.465	4987
462.514	4500
462.545	4378
462.582	3998
462.625	3986
462.650	4006
462.705	3527
462.718	3393
462.785	3333
462.786	3366
462.854	4607
462.865	4969
462.922	6422
462.945	7167
462.990	6199
463.025	4437
463.058	3927
463.104	3108
463.126	2862
463.184	3076
463.194	3154
463.262	3350
463.264	3379
463.330	3730
463.344	3679
463.398	4077
463.424	4424
463.466	4336
463.504	4144
463.533	4256
463.583	4177
463.601	4344
463.663	5026
463.669	5065
463.737	5914
463.743	6011
463.805	9367
463.823	10302
463.873	14100
463.903	16863
463.940	18097
463.982	20058
464.008	17461
464.062	8668
464.076	8013
464.142	4065
464.144	4022
464.211	4470
464.221	4573
464.279	4327
464.301	4429
464.347	4916
464.381	5079
464.414	5385
464.461	5782
464.482	6120
464.540	7454
464.550	7490
464.617	7083
464.620	7065
464.685	7085
464.699	7072
464.753	7715
464.779	8203
464.820	8569
464.859	8472
464.888	8056
464.938	7656
464.956	7827
465.018	8371
465.023	8268
465.091	6565
465.098	6388
465.158	6384
465.177	6402
465.226	6091
465.257	5906
465.293	6461
465.336	7092
465.361	7819
465.416	9455
465.428	9765
465.495	11589
465.496	11631
465.563	15840
465.575	16638
465.631	19728
465.654	21266
465.698	14950
465.734	8571
465.765	7535
465.813	5953
465.833	5839
465.893	6342
465.900	6271
465.968	5491
465.972	5442
466.035	5416
466.052	5369
466.102	6002
466.131	6342
466.170	5716
466.210	5039
466.237	5302
466.290	5915
466.304	5996
466.369	6128
466.372	6152
466.439	6701
466.449	6760
466.506	7376
466.528	7601
466.573	10453
466.607	12563
466.641	17898
466.687	25419
466.708	27501
466.766	33568
466.775	31216
466.842	12876
466.845	11985
466.909	9131
466.925	8577
466.977	8196
467.004	8052
467.044	8231
467.083	8421
467.111	9139
467.163	10451
467.178	10737
467.242	11860
467.245	11824
467.312	10730
467.321	10572
467.379	9720
467.400	9385
467.446	10227
467.480	10812
467.559	9218
467.638	9073
467.717	10270
467.796	10206
467.875	12773
467.955	9712
468.034	13787
468.113	27966
468.192	39005
468.271	11819
468.350	11537
468.429	15976
468.508	17211
468.588	11999
468.667	9557
468.746	10123
468.825	8822
468.904	8098
468.983	8607
469.062	12366
469.141	15563
469.220	7820
469.299	7734
469.378	8144
469.456	10854
469.535	9685
469.614	8608
469.693	8163
469.772	11769
469.851	15166
469.930	11145
470.009	10773
470.088	11291
470.166	16966
470.245	31602
470.324	37561
470.403	18565
470.482	12091
470.560	9581
470.639	10154
470.718	12808
470.797	9059
470.875	11049
470.954	13210
471.033	13460
471.111	6812
471.190	7410
471.269	6508
471.347	6640
471.426	7328
471.505	8160
471.583	9151
471.662	9460
471.740	7907
471.819	8005
471.898	7534
471.976	7681
472.055	6451
472.133	6883
472.212	9644
472.290	9390
472.369	7440
472.447	7063
472.526	6283
472.604	8231
472.683	8541
472.761	9585
472.839	8206
472.918	7284
472.996	7637
473.075	8906
473.153	8407
473.231	6346
473.310	8628
473.388	8492
473.466	7802
473.545	10292
473.623	14241
473.701	13578
473.780	8847
473.858	6277
473.936	9178
474.014	6785
474.093	9146
474.171	11103
474.249	14200
474.327	9473
474.405	7639
474.484	7256
474.562	6482
474.640	7319
474.718	6513
474.796	7716
474.874	6430
474.952	5777
475.030	6717
475.108	6091
475.187	7195
475.265	9242
475.343	15782
475.421	17402
475.499	7116
475.577	7870
475.655	9823
475.733	16832
475.811	26792
475.889	23719
475.966	16234
476.044	7663
476.122	11793
476.200	15372
476.278	11162
476.356	7092
476.434	7002
476.512	9622
476.590	13976
476.667	11272
476.745	6876
476.823	7089
476.901	6017
476.979	6611
477.056	6104
477.134	6949
477.212	7539
477.290	7016
477.367	6592
477.445	5986
477.523	4791
477.601	5510
477.678	6595
477.756	7429
477.834	7891
477.911	6494
477.989	6342
478.066	5447
478.144	7081
478.222	10794
478.299	18957
478.377	14858
478.454	5793
478.532	5079
478.609	6580
478.687	7921
478.764	4974
478.842	6304
478.919	7967
478.997	7446
479.074	5782
479.152	7393
479.229	8338
479.307	5922
479.384	4722
479.461	5830
479.539	5248
479.616	6019
479.694	6534
479.771	6690
479.848	6616
479.926	6690
480.003	9915
480.080	5947
480.157	5394
480.235	4870
480.312	5793
480.389	6190
480.467	8924
480.544	11310
480.621	6395
480.698	7386
480.775	7683
480.853	7466
480.930	6231
481.007	5952
481.084	6406
481.161	6290
481.238	6129
481.315	5397
481.392	4755
481.470	5422
481.547	5220
481.624	5696
481.701	5788
481.778	6339
481.855	6243
481.932	9397
482.009	14121
482.086	10240
482.163	7685
482.240	13893
482.317	25836
482.393	16772
482.470	6990
482.547	6171
482.624	5574
482.701	6727
482.778	5821
482.855	5173
482.932	4830
483.009	4881
483.085	6506
483.162	8647
483.239	8796
483.316	7437
483.393	7693
483.469	6139
483.546	6478
483.623	6681
483.699	5363
483.776	5707
483.853	6337
483.930	9946
484.006	22083
484.083	34449
484.160	20850
484.236	30665
484.313	24055
484.389	17715
484.466	16491
484.543	15273
484.619	16408
484.696	19276
484.772	17216
484.849	17111
484.925	13896
485.002	14423
485.078	15753
485.155	15275
485.231	13388
485.308	12924
485.384	13647
485.461	16403
485.537	24651
485.614	28865
485.690	13415
485.766	13300
485.843	14915
485.919	23514
485.995	24073
486.072	11931
486.148	11695
486.224	11602
486.301	12290
486.377	14935
486.453	15192
486.530	14497
486.606	18771
486.682	20333
486.758	23197
486.835	25713
486.911	21586
486.987	34559
487.063	45483
487.139	62849
487.215	39472
487.292	19422
487.368	15413
487.444	17543
487.520	24501
487.596	24159
487.672	42486
487.748	131032
487.824	184948
487.900	47863
487.976	19040
488.052	18080
488.128	20861
488.204	16207
488.280	13749
488.356	15253
488.432	28889
488.508	41058
488.584	17010
488.660	14868
488.736	14025
488.812	15195
488.888	19710
488.964	25785
489.039	61843
489.115	94203
489.191	48628
489.267	14100
489.343	10770
489.418	11003
489.494	10020
489.570	8921
489.646	12113
489.722	10820
489.797	10641
489.873	15625
489.949	29972
490.024	25284
490.100	9487
490.176	10215
490.251	14544
490.327	19349
490.403	10746
490.478	9595
490.554	8995
490.629	8854
490.705	8145
490.781	10919
490.856	9532
490.932	11771
491.007	13120
491.083	11271
491.158	10431
491.234	12115
491.309	22969
491.385	23382
491.460	9629
491.536	10682
491.611	9705
491.686	11727
491.762	17623
491.837	40443
491.913	62211
491.988	91598
492.063	112324
492.139	23671
492.214	13633
492.289	8994
492.365	10135
492.440	11606
492.515	8803
492.590	9904
492.666	7562
492.741	11265
492.816	13725
492.891	8495
492.967	8305
493.042	6677
493.117	5745
493.192	7189
493.267	10328
493.342	19800
493.418	23596
493.493	9464
493.568	6675
493.643	7451
493.718	9354
493.793	14000
493.868	18426
493.943	11710
494.018	7453
494.093	6683
494.168	7286
494.243	5901
494.318	6901
494.393	6096
494.468	5374
494.543	6227
494.618	8513
494.693	7170
494.768	7011
494.842	7316
494.917	5402
494.992	7215
495.067	6442
495.142	5952
495.217	8654
495.292	8323
495.366	9823
495.441	11699
495.516	15148
495.591	22284
495.665	88128
495.740	204847
495.815	67931
495.890	10172
495.964	7683
496.039	10300
496.114	7592
496.188	8706
496.263	8246
496.338	6600
496.412	8591
496.487	10291
496.561	11569
496.636	11584
496.710	8717
496.785	9112
496.860	9668
496.934	7859
497.009	8296
497.083	8451
497.158	7886
497.232	9183
497.307	11790
497.381	9423
497.455	9944
497.530	13280
497.604	9955
497.679	10837
497.753	16465
497.827	21287
497.902	19761
497.976	22432
498.050	56686
498.125	226333
498.199	217018
498.273	36775
498.348	25807
498.422	18625
498.496	17981
498.570	16296
498.645	11525
498.719	10495
498.793	14448
498.867	21751
498.941	27692
499.016	85937
499.090	232998
499.164	72790
499.238	10947
499.312	9721
499.386	12284
499.460	11566
499.534	10407
499.609	11919
499.683	15662
499.757	16402
499.831	36425
499.905	148501
499.979	126589
500.053	20639
500.127	22603
500.201	19635
500.275	11311
500.349	11436
500.422	12605
500.496	20588
500.570	44196
500.644	87411
500.718	144490
500.792	31560
500.866	9707
500.940	11071
501.013	10527
501.087	10235
501.161	20417
501.235	22749
501.309	43275
501.382	119273
501.456	99845
501.530	24573
501.603	35728
501.677	14260
501.751	7967
501.825	11720
501.898	16929
501.972	44965
502.046	27533
502.119	9213
502.193	23007
502.266	49384
502.340	21701
502.413	21960
502.487	40233
502.561	23379
502.634	9492
502.708	10030
502.781	7373
502.855	7816
502.928	4655
503.002	5038
503.075	4591
503.149	5968
503.222	5424
503.295	5953
503.369	8373
503.442	9890
503.516	34136
503.589	85306
503.662	51410
503.736	18652
503.809	41305
503.882	32605
503.956	49709
504.029	50201
504.102	73148
504.175	98950
504.249	25215
504.322	10801
504.395	9189
504.468	6404
504.542	4818
504.615	4277
504.688	4738
504.761	3955
504.834	7245
504.907	8980
504.980	16462
505.053	7736
505.127	7752
505.200	11439
505.273	7559
505.346	5610
505.419	3536
505.492	5641
505.565	3134
505.638	3356
505.711	4146
505.784	3377
505.857	3089
505.930	4993
506.003	3128
506.076	6019
506.149	5382
506.221	6006
506.294	8449
506.367	18227
506.440	60307
506.513	32222
506.586	8324
506.659	4913
506.731	5047
506.804	6637
506.877	9658
506.950	6532
507.022	6006
507.095	4740
507.168	8047
507.241	5776
507.313	4448
507.386	4453
507.459	11028
507.531	6191
507.604	4124
507.677	4746
507.749	2360
507.822	7894
507.894	13303
507.967	15081
508.040	7302
508.112	8207
508.185	6590
508.257	5650
508.330	11644
508.402	5631
508.475	5142
508.547	7207
508.620	6538
508.692	9032
508.765	6554
508.837	4800
508.909	4969
508.982	5026
509.054	7461
509.127	5219
509.199	4214
509.271	3582
509.344	3420
509.416	3950
509.488	4508
509.560	4507
509.633	5877
509.705	7318
509.777	6648
509.849	9852
509.922	5578
509.994	4699
510.066	5679
510.138	4161
510.210	12730
510.283	10298
510.355	8414
510.427	7106
510.499	7366
510.571	6986
510.643	6808
510.715	14194
510.787	9417
510.859	8577
510.931	9038
511.003	12298
511.076	10487
511.148	5067
511.219	6298
511.291	8838
511.363	9998
511.435	5621
511.507	5267
511.579	6183
511.651	6300
511.723	5297
511.795	5096
511.867	5617
511.939	7222
512.010	12164
512.082	10881
512.154	6166
512.226	6207
512.298	10544
512.369	14864
512.441	12403
512.513	13765
512.585	7199
512.656	9487
512.728	8339
512.800	6469
512.871	7683
512.943	7170
513.015	6061
513.086	7548
513.158	7665
513.230	7064
513.301	14134
513.373	18290
513.444	8549
513.516	6300
513.588	6866
513.659	8253
513.731	11202
513.802	8586
513.874	23687
513.945	38307
514.016	10734
514.088	7068
514.159	6137
514.231	11567
514.302	13986
514.374	9925
514.445	7950
514.516	17276
514.588	10660
514.659	8998
514.730	13727
514.802	13096
514.873	7546
514.944	9610
515.016	8853
515.087	8567
515.158	10376
515.229	14147
515.301	7952
515.372	10651
515.443	6298
515.514	6050
515.585	5126
515.656	7750
515.728	7010
515.799	6216
515.870	8844
515.941	9085
516.012	7061
516.083	12949
516.154	13973
516.225	20887
516.296	19543
516.367	18637
516.438	22908
516.509	29892
516.580	43791
516.651	155322
516.722	554526
516.793	183523
516.864	41729
516.935	41354
517.006	49013
517.077	64687
517.148	150319
517.219	705699
517.289	948414
517.360	144561
517.431	39980
517.502	16998
517.573	16593
517.643	14984
517.714	17176
517.785	19775
517.856	22390
517.926	31073
517.997	39251
518.068	52770
518.138	71558
518.209	104201
518.280	446146
518.350	1629409
518.421	478789
518.492	53177
518.562	28778
518.633	24725
518.703	22441
518.774	42791
518.845	120621
518.915	110017
518.986	29201
519.056	20759
519.127	33906
519.197	46319
519.268	75572
519.338	41807
519.408	14710
519.479	20320
519.549	14218
519.620	10739
519.690	7919
519.760	7147
519.831	8998
519.901	7784
519.971	6694
520.042	6784
520.112	7955
520.182	10879
520.253	12578
520.323	8074
520.393	14958
520.463	25195
520.534	15194
520.604	38727
520.674	14035
520.744	13063
520.814	42193
520.885	32402
520.955	22475
521.025	75833
521.095	26173
521.165	7840
521.235	7009
521.305	4922
521.375	7019
521.445	7730
521.515	10525
521.585	11715
521.655	9043
521.725	9970
521.795	8306
521.865	3804
521.935	10495
522.005	6198
522.075	4464
522.145	7194
522.215	6638
522.285	9586
522.355	12486
522.424	21882
522.494	17562
522.564	11813
522.634	28649
522.704	84830
522.774	26166
522.843	8034
522.913	8221
522.983	9704
523.053	7175
523.122	8175
523.192	11847
523.262	51264
523.331	39341
523.401	8472
523.471	5509
523.540	5955
523.610	3576
523.680	4036
523.749	4616
523.819	6361
523.888	4644
523.958	4067
524.027	5508
524.097	5366
524.166	4555
524.236	6257
524.305	7229
524.375	4552
524.444	2941
524.514	6867
524.583	4623
524.653	4697
524.722	7499
524.791	3448
524.861	5900
524.930	3774
524.999	5749
525.069	7859
525.138	5960
525.207	6116
525.277	5913
525.346	5968
525.415	6104
525.484	6784
525.554	7185
525.623	8689
525.692	8510
525.761	8864
525.830	12073
525.900	14196
525.969	22248
526.038	35803
526.107	75941
526.176	235035
526.245	173750
526.314	55056
526.383	119301
526.452	150150
526.522	278365
526.591	248272
526.660	64638
526.729	34646
526.797	38566
526.867	70977
526.935	303228
527.004	612860
527.073	296415
527.142	27252
527.211	13868
527.280	11528
527.349	10676
527.418	5207
527.487	6802
527.555	5207
527.624	5775
527.693	3104
527.762	6241
527.831	2990
527.899	4616
527.968	4467
528.037	3179
528.106	6824
528.174	13546
528.243	9080
528.312	15080
528.380	18164
528.449	5764
528.518	4699
528.586	2058
528.655	3943
528.723	3630
528.792	2676
528.861	3700
528.929	2148
528.998	4096
529.066	2308
529.135	3146
529.203	2857
529.272	1860
529.340	3976
529.409	5026
529.477	2971
529.545	3551
529.614	6877
529.682	4575
529.751	5882
529.819	9994
529.887	5227
529.956	3032
530.024	5408
530.092	2486
530.161	5868
530.229	10335
530.297	3663
530.365	4401
530.434	3233
530.502	1706
530.570	3035
530.638	1906
530.707	4238
530.775	5276
530.843	3325
530.911	3977
530.979	3976
531.047	2749
531.115	3446
531.183	3456
531.252	3570
531.320	2683
531.388	2165
531.456	3074
531.524	1385
531.592	4571
531.660	6319
531.728	1617
531.796	2886
531.864	3851
531.932	4211
532.000	2919
532.067	3771
532.135	4639
532.203	7035
532.271	5647
532.339	12258
532.407	39297
532.475	18059
532.542	9528
532.610	10096
532.678	12438
532.746	65332
532.814	151733
532.881	32054
532.949	7056
533.017	5045
533.084	4508
533.152	3142
533.220	4484
533.287	3840
533.355	3586
533.423	3713
533.490	2621
533.558	3683
533.625	4334
533.693	5301
533.761	6464
533.828	5428
533.896	4248
533.963	12491
534.031	14632
534.098	20292
534.166	8283
534.233	4463
534.300	6201
534.368	6005
534.435	5752
534.503	7237
534.570	8496
534.637	7673
534.705	10097
534.772	10581
534.840	21362
534.907	108352
534.974	121473
535.041	14618
535.109	8499
535.176	5227
535.243	5717
535.310	5165
535.378	4389
535.445	4538
535.512	4930
535.579	4787
535.646	4320
535.714	5708
535.781	6477
535.848	6413
535.915	6349
535.982	4653
536.049	4513
536.116	6206
536.183	4748
536.250	4768
536.317	5591
536.384	7266
536.451	13252
536.518	12363
536.585	7415
536.652	11489
536.719	17075
536.786	12631
536.853	9332
536.920	14670
536.987	23421
537.053	19363
537.120	79834
537.187	58613
537.254	7618
537.321	5692
537.388	7641
537.454	5103
537.521	4944
537.588	4126
537.654	7187
537.721	7412
537.788	7755
537.855	5823
537.921	6630
537.988	6897
538.055	6461
538.121	5474
538.188	7322
538.254	12019
538.321	27167
538.388	14122
538.454	7660
538.521	7646
538.587	6194
538.654	5989
538.720	5403
538.787	6609
538.853	7264
538.920	7302
538.986	7476
539.053	6916
539.119	8000
539.185	6987
539.252	9495
539.318	14359
539.385	10838
539.451	7605
539.517	9392
539.583	10241
539.650	22653
539.716	53233
539.782	14391
539.849	6909
539.915	7479
539.981	8392
540.047	10036
540.114	8374
540.180	9827
540.246	7904
540.312	12435
540.378	25800
540.444	24107
540.510	22825
540.576	61882
540.643	17134
540.709	6721
540.775	7516
540.841	6745
540.907	9267
540.973	15671
541.039	14076
541.105	15198
541.171	7936
541.237	7026
541.303	8229
541.369	11018
541.435	12278
541.500	23899
541.566	12376
541.632	6431
541.698	6355
541.764	7341
541.830	5482
541.896	5125
541.961	6105
542.027	6094
542.093	7756
542.159	7482
542.224	7625
542.290	13221
542.356	22149
542.421	26965
542.487	10966
542.553	6147
542.618	8170
542.684	7730
542.750	8148
542.815	9624
542.881	14115
542.947	55132
543.012	36307
543.078	6757
543.143	6569
543.209	8141
543.274	8070
543.340	9084
543.405	21943
543.471	30888
543.536	8746
543.602	6193
543.667	4552
543.732	8023
543.798	6410
543.863	6458
543.928	5600
543.994	5044
544.059	6530
544.124	7020
544.190	6372
544.255	8004
544.320	8118
544.386	8436
544.451	11880
544.516	13862
544.581	12316
544.646	35336
544.712	50586
544.777	10871
544.842	8109
544.907	8418
544.972	7751
545.037	8236
545.102	8245
545.168	8647
545.233	10684
545.298	10422
545.363	10544
545.428	13328
545.493	22955
545.558	44942
545.623	17439
545.688	9518
545.753	9443
545.818	9360
545.883	10063
545.947	8752
546.012	10619
546.077	10576
546.142	11531
546.207	11453
546.272	15686
546.337	16166
546.401	12407
546.466	12697
546.531	10814
546.596	14302
546.661	13221
546.725	13891
546.790	13110
546.855	15684
546.919	15094
546.984	18546
547.049	19654
547.113	21939
547.178	21970
547.243	26385
547.307	30156
547.372	35617
547.436	33994
547.501	35165
547.565	36430
547.630	37632
547.695	37091
547.759	35501
547.823	34149
547.888	33413
547.952	34759
548.017	35401
548.081	37759
548.146	39437
548.210	39073
548.274	40299
548.339	38356
548.403	36722
548.468	33235
548.532	33429
548.596	33077
548.660	34041
548.725	38498
548.789	42909
548.853	41404
548.917	37817
548.982	38928
549.046	35710
549.110	29587
549.174	31239
549.238	35050
549.303	38338
549.367	40677
549.431	37878
549.495	36327
549.559	35680
549.623	41837
549.687	47628
549.751	50006
549.815	54697
549.879	53651
549.943	49923
550.007	53804
550.071	53848
550.135	51882
550.199	46178
550.263	45956
550.327	43615
550.391	46548
550.455	48378
550.519	50149
550.582	54365
550.646	65533
550.710	66335
550.774	60485
550.838	61028
550.901	63962
550.965	68187
551.029	68986
551.093	74935
551.156	81199
551.220	100870
551.284	121338
551.347	84399
551.411	82344
551.475	78581
551.538	67746
551.602	62724
551.666	58727
551.729	55427
551.793	53445
551.856	52918
551.920	49885
551.983	52319
552.047	51870
552.110	52192
552.174	51417
552.237	54183
552.301	49190
552.364	47902
552.428	47099
552.491	48991
552.554	51307
552.618	49822
552.681	53302
552.745	53610
552.808	77405
552.871	89697
552.934	59342
552.998	51978
553.061	49213
553.124	45577
553.187	45774
553.251	46921
553.314	47143
553.377	46456
553.440	50521
553.503	54787
553.567	55637
553.630	51513
553.693	50697
553.756	52331
553.819	48925
553.882	48147
553.945	48780
554.008	48771
554.071	47196
554.134	48769
554.197	46060
554.260	44601
554.323	48411
554.386	47673
554.449	48679
554.512	48899
554.575	47265
554.638	45998
554.701	45477
554.764	46522
554.827	43809
554.889	41428
554.952	38938
555.015	39224
555.078	39399
555.141	39628
555.203	39407
555.266	40360
555.329	39744
555.391	37838
555.454	37784
555.517	36669
555.580	34370
555.642	33261
555.705	32519
555.768	32585
555.830	33245
555.893	30476
555.955	30223
556.018	29041
556.080	28979
556.143	29891
556.206	29440
556.268	29499
556.330	29309
556.393	28143
556.455	27736
556.518	31224
556.580	29800
556.643	25873
556.705	25511
556.767	24459
556.830	24665
556.892	26149
556.955	32351
557.017	26475
557.079	23441
557.142	23957
557.204	25721
557.266	38503
557.328	30603
557.391	18928
557.453	19762
557.515	20472
557.577	23632
557.639	23586
557.701	20699
557.764	20649
557.826	22562
557.888	23939
557.950	24402
558.012	27083
558.074	34234
558.136	80257
558.198	183177
558.260	59288
558.322	28947
558.384	29648
558.446	35715
558.508	43452
558.570	52425
558.632	71780
558.694	94679
558.756	119231
558.818	384614
558.880	863503
558.942	236775
559.003	202430
559.065	90926
559.127	43583
559.189	42561
559.251	48050
559.312	68678
559.374	176349
559.436	572332
559.498	235149
559.559	47135
559.621	41782
559.683	48775
559.744	79969
559.806	272598
559.868	363725
559.929	63754
559.991	42295
560.052	65566
560.114	185488
560.176	104419
560.237	109354
560.299	162399
560.360	30802
560.422	16092
560.483	13376
560.545	12968
560.606	12498
560.667	10856
560.729	10324
560.790	10173
560.852	10627
560.913	10285
560.974	10480
561.036	10011
561.097	11356
561.158	10473
561.220	11134
561.281	11088
561.342	11395
561.403	12988
561.465	15806
561.526	39391
561.587	45380
561.648	12984
561.709	9237
561.771	9979
561.832	9531
561.893	8667
561.954	8930
562.015	8347
562.076	8984
562.137	8320
562.198	9593
562.259	10156
562.320	8347
562.381	10831
562.442	15891
562.503	11440
562.564	8995
562.625	8715
562.686	8318
562.747	9825
562.808	9158
562.869	8635
562.930	9926
562.991	8711
563.051	9128
563.112	8890
563.173	8307
563.234	7001
563.294	8637
563.355	8067
563.416	9125
563.477	7983
563.537	8536
563.598	8957
563.659	8547
563.720	8301
563.780	9291
563.841	9276
563.901	8556
563.962	7473
564.023	8638
564.083	8459
564.144	8045
564.204	7810
564.265	8459
564.325	10324
564.386	16539
564.446	14783
564.507	8328
564.567	7686
564.628	7843
564.688	6215
564.749	8310
564.809	8965
564.869	9445
564.930	9217
564.990	8382
565.050	7550
565.111	8228
565.171	7760
565.231	7239
565.292	8261
565.352	7492
565.412	9568
565.472	8640
565.532	9425
565.593	8570
565.653	8094
565.713	8901
565.773	10039
565.833	11974
565.893	15192
565.953	9058
566.013	7722
566.074	9092
566.134	11043
566.194	15790
566.254	17526
566.314	10925
566.374	8160
566.434	9571
566.494	8433
566.554	8439
566.614	8364
566.673	9174
566.733	9044
566.793	10061
566.853	9680
566.913	9294
566.973	9871
567.033	10776
567.092	11120
567.152	10342
567.212	10354
567.272	9957
567.331	9775
567.391	10608
567.451	11364
567.511	13836
567.570	13005
567.630	9192
567.690	9979
567.749	9843
567.809	9481
567.868	11861
567.928	11732
567.988	12613
568.047	13282
568.107	15945
568.166	19021
568.226	29104
568.285	38497
568.345	29078
568.404	24383
568.464	21295
568.523	19797
568.582	20849
568.642	23380
568.701	27316
568.761	39908
568.820	62673
568.879	52920
568.939	38412
568.998	28286
569.057	21914
569.116	18310
569.176	16072
569.235	14700
569.294	13890
569.353	12504
569.413	11203
569.472	11455
569.531	10056
569.590	10435
569.649	10201
569.708	9110
569.767	10772
569.827	13206
569.886	10462
569.945	8472
570.004	9783
570.063	9170
570.122	10455
570.181	10143
570.240	11106
570.299	11310
570.358	11644
570.417	9753
570.475	9008
570.534	9791
570.593	10260
570.652	9829
570.711	10985
570.770	10604
570.829	12048
570.887	11263
570.946	11692
571.005	9707
571.064	9881
571.122	12722
571.181	11428
571.240	9405
571.299	8227
571.357	9669
571.416	9903
571.475	10483
571.533	10682
571.592	9260
571.650	9521
571.709	8958
571.768	9912
571.826	9582
571.885	9215
571.943	8094
572.002	8606
572.060	8173
572.119	7677
572.177	7629
572.236	6964
572.294	7634
572.352	8978
572.411	8333
572.469	7801
572.528	8077
572.586	8509
572.644	9516
572.703	11794
572.761	8493
572.819	7325
572.877	6526
572.936	6648
572.994	7285
573.052	7310
573.110	8434
573.169	8419
573.227	7891
573.285	6860
573.343	7433
573.401	7923
573.459	6790
573.517	7635
573.576	7158
573.634	8105
573.692	8284
573.750	8397
573.808	7018
573.866	7254
573.924	10066
573.982	10203
574.040	7347
574.098	6865
574.155	5977
574.213	6705
574.271	7495
574.329	8550
574.387	6733
574.445	6226
574.503	6272
574.560	6054
574.618	6121
574.676	6210
574.734	6533
574.792	7370
574.849	6286
574.907	5459
574.965	6566
575.022	5317
575.080	6564
575.138	7016
575.195	6892
575.253	5743
575.311	8454
575.368	6247
575.426	5181
575.483	6688
575.541	6555
575.598	6105
575.656	7313
575.713	6943
575.771	7391
575.828	7033
575.886	6188
575.943	7498
576.001	6478
576.058	6579
576.115	8443
576.173	8942
576.230	10181
576.287	12881
576.345	9564
576.402	7110
576.459	6888
576.517	7649
576.574	8209
576.631	8375
576.688	5955
576.746	6478
576.803	6879
576.860	5842
576.917	6342
576.974	6552
577.031	6783
577.089	6596
577.146	7236
577.203	7567
577.260	8392
577.317	7681
577.374	8816
577.431	8350
577.488	6773
577.545	5838
577.602	6419
577.659	6039
577.716	6172
577.773	6625
577.830	5430
577.886	6925
577.943	5895
578.000	6301
578.057	6759
578.114	7199
578.171	5895
578.227	7029
578.284	6616
578.341	6896
578.398	7683
578.454	8974
578.511	8151
578.568	9231
578.625	7706
578.681	5832
578.738	6421
578.794	6054
578.851	6682
578.908	6922
578.964	7369
579.021	7066
579.077	6478
579.134	7483
579.190	5709
579.247	6539
579.303	7059
579.360	5688
579.416	6421
579.473	5700
579.529	5244
579.586	5969
579.642	6359
579.698	7270
579.755	7114
579.811	6772
579.867	7235
579.924	6071
579.980	5289
580.036	7882
580.093	5907
580.149	6923
580.205	6266
580.261	7892
580.317	7867
580.374	7802
580.430	10186
580.486	8385
580.542	7381
580.598	7861
580.619	7974
580.654	8173
580.692	7325
580.710	6916
580.765	7817
580.767	7849
580.823	8137
580.838	8123
580.879	8079
580.911	7656
580.935	7356
580.984	6027
580.991	5854
581.047	7204
581.057	7252
581.103	7442
581.130	7381
581.159	7313
581.203	6578
581.215	6402
581.270	7774
581.276	7739
581.326	7355
581.349	7390
581.382	7478
581.422	7423
581.438	7400
581.494	7412
581.494	7412
581.550	7697
581.567	7809
581.606	7972
581.640	7706
581.661	7588
581.713	7926
581.717	7952
581.773	7420
581.786	7421
581.829	7395
581.859	7023
581.885	6769
581.932	7579
581.940	7716
581.996	7344
582.004	7405
582.052	7693
582.077	7728
582.107	7802
582.150	7703
582.163	7677
582.219	7492
582.223	7545
582.274	8127
582.296	8185
582.330	8341
582.368	8406
582.386	8458
582.441	7916
582.441	7914
582.497	7264
582.514	7319
582.552	7634
582.587	7880
582.608	7989
582.659	7413
582.663	7350
582.719	7798
582.732	7755
582.774	7907
582.805	8031
582.830	8052
582.877	7989
582.885	7984
582.941	7101
582.950	7305
582.996	8376
583.023	8601
583.052	8899
583.095	8683
583.107	8589
583.162	8657
583.168	8668
583.218	8561
583.240	8463
583.273	8413
583.313	8063
583.328	8008
583.384	8678
583.385	8662
583.439	7857
583.458	8179
583.494	8980
583.531	8472
583.549	8138
583.603	8393
583.605	8405
583.660	8918
583.676	8869
583.715	8708
583.748	8965
583.770	9156
583.820	9463
583.825	9478
583.881	8867
583.893	8819
583.936	8787
583.965	8964
583.991	9104
584.038	8970
584.046	8965
584.101	9321
584.110	9322
584.156	9160
584.183	8947
584.211	8745
584.255	9369
584.266	9532
584.321	9394
584.328	9490
584.376	10403
584.400	10232
584.431	9934
584.472	9829
584.486	9779
584.541	9871
584.545	9901
584.596	10600
584.617	10477
584.651	10461
584.689	11166
584.706	11405
584.761	12526
584.762	12514
584.816	11327
584.834	11584
584.871	12264
584.906	12856
584.926	13116
584.978	13054
584.980	13084
585.035	14590
585.051	15191
585.090	16604
585.123	17856
585.145	18766
585.195	20515
585.200	20754
585.254	23993
585.267	25010
585.309	28257
585.340	30732
585.364	32822
585.412	36974
585.419	37733
585.473	44766
585.484	46569
585.528	59013
585.556	71714
585.583	101089
585.628	168894
585.637	194851
585.692	408480
585.700	442796
585.747	545106
585.772	476288
585.801	298851
585.845	100052
585.856	80001
585.910	42413
585.917	38512
585.965	29022
585.989	25816
586.019	23868
586.061	22024
586.074	21664
586.128	20520
586.133	20501
586.183	21311
586.205	21551
586.237	21603
586.277	20453
586.292	20004
586.346	19853
586.349	19811
586.401	19556
586.421	19647
586.455	20384
586.493	21187
586.509	22480
586.564	28060
586.565	28240
586.618	39222
586.637	40584
586.672	35881
586.709	29761
586.727	28454
586.781	28385
586.781	28403
586.835	23765
586.853	22644
586.889	21168
586.925	19891
586.944	19867
586.996	20888
586.998	20930
587.052	21205
587.068	21302
587.106	22113
587.140	22461
587.161	22331
587.212	22512
587.215	22592
587.269	23591
587.284	23776
587.323	24104
587.356	24545
587.377	25050
587.427	26311
587.431	26390
587.485	26462
587.499	26650
587.539	28043
587.571	28714
587.593	29459
587.643	31761
587.648	31923
587.702	33005
587.715	33225
587.755	34444
587.786	35295
587.810	36354
587.858	38341
587.864	38678
587.917	42063
587.930	42811
587.971	45651
588.001	47832
588.025	49757
588.073	52796
588.079	53470
588.133	60816
588.145	62133
588.187	68128
588.217	73244
588.241	78664
588.288	89215
588.295	91004
588.348	106852
588.360	110124
588.402	124608
588.431	135272
588.456	145336
588.503	166708
588.510	170990
588.564	205517
588.575	213212
588.617	250627
588.646	277683
588.671	314335
588.718	391802
588.725	415800
588.778	617331
588.789	663964
588.832	1076118
588.861	1379700
588.886	1778999
588.932	2556970
588.939	2589629
588.993	2638501
589.004	2624424
589.047	1931041
589.075	1417689
589.100	1107662
589.147	592123
589.154	568002
589.207	416789
589.218	388826
589.261	365997
589.290	354840
589.314	374470
589.361	421801
589.368	448672
589.421	686772
589.433	742527
589.475	1266281
589.504	1658964
589.528	1964417
589.576	2493198
589.582	2423748
589.635	1605909
589.647	1415558
589.689	817925
589.718	432425
589.742	350829
589.790	212124
589.795	206160
589.849	155486
589.861	144603
589.902	127443
589.932	114600
589.955	104993
590.004	84502
590.009	83542
590.062	73650
590.075	71053
590.115	65589
590.146	61637
590.168	59926
590.218	56104
590.222	55996
590.275	53223
590.289	52417
590.328	50672
590.360	49163
590.381	48313
590.431	45841
590.435	45811
590.488	44132
590.503	43590
590.541	43741
590.574	43682
590.594	43142
590.645	41716
590.647	41760
590.700	40328
590.716	39903
590.753	39158
590.787	38260
590.806	38089
590.859	37493
590.859	37565
590.912	37221
590.930	37051
590.965	36905
591.001	36665
591.018	36778
591.071	36691
591.072	36613
591.124	36110
591.143	35848
591.177	36275
591.214	36500
591.230	37145
591.283	39191
591.285	39177
591.336	38505
591.356	38224
591.389	38598
591.427	38537
591.442	37711
591.495	34351
591.498	34032
591.547	34241
591.569	34309
591.600	34528
591.640	34598
591.653	34743
591.706	34988
591.711	34941
591.759	35952
591.782	36365
591.811	37701
591.853	39403
591.864	38914
591.917	35870
591.924	35350
591.969	35943
591.995	36191
592.022	35936
592.066	35301
592.075	35925
592.127	39299
592.137	39836
592.180	41539
592.208	42433
592.233	40653
592.279	36959
592.285	37060
592.338	37286
592.350	37239
592.390	36956
592.421	36602
592.443	37018
592.491	37689
592.495	37741
592.548	37276
592.562	37070
592.600	37438
592.633	37600
592.653	37573
592.704	37077
592.705	37319
592.775	38794
592.846	39047
592.916	40382
592.987	42262
593.058	40840
593.128	38765
593.199	38673
593.270	37318
593.341	39261
593.411	39849
593.482	41614
593.553	40262
593.623	41122
593.694	41996
593.764	43571
593.835	42676
593.906	42971
593.976	43840
594.047	44023
594.117	48380
594.188	50098
594.258	45173
594.329	44950
594.399	47596
594.470	47406
594.540	49746
594.611	50161
594.681	48047
594.751	50169
594.822	53152
594.892	55946
594.963	56348
595.033	54496
595.103	56315
595.174	59195
595.244	69554
595.314	75457
595.384	60604
595.455	61667
595.525	63373
595.595	64699
595.665	64833
595.736	63824
595.806	63966
595.876	63162
595.946	64870
596.016	67459
596.087	68760
596.157	69605
596.227	69981
596.297	72947
596.367	77609
596.437	83605
596.507	90167
596.577	94888
596.647	84269
596.717	86209
596.787	87378
596.857	87068
596.927	87369
596.997	87361
597.067	87994
597.137	89841
597.207	90814
597.277	91727
597.347	88415
597.417	85499
597.487	88198
597.557	89645
597.626	91264
597.696	94297
597.766	96456
597.836	97587
597.906	84358
597.975	80578
598.045	81232
598.115	84505
598.185	90914
598.254	101318
598.324	110376
598.394	114291
598.464	109230
598.533	105513
598.603	98884
598.672	96718
598.742	98081
598.812	98643
598.881	101438
598.951	98047
599.020	100697
599.090	104442
599.159	105067
599.229	100811
599.299	99263
599.368	101229
599.437	100959
599.507	93544
599.576	89893
599.646	89057
599.715	88072
599.785	87678
599.854	85889
599.924	86773
599.993	84588
600.062	85329
600.132	85629
600.201	94482
600.270	109646
600.340	111603
600.409	109256
600.478	108224
600.547	112272
600.617	99808
600.686	81048
600.755	74980
600.824	73465
600.894	70230
600.963	68786
601.032	67397
601.101	66334
601.170	63590
601.239	63172
601.308	64899
601.378	63982
601.447	61719
601.516	62578
601.585	65238
601.654	70626
601.723	65978
601.792	65929
601.861	68350
601.930	73440
601.999	76618
602.068	72773
602.137	77642
602.206	76822
602.275	76854
602.343	81587
602.412	81756
602.481	75754
602.550	72940
602.619	77592
602.688	78960
602.756	77863
602.825	77579
602.894	80706
602.963	82231
603.032	82745
603.100	81924
603.169	82121
603.238	83736
603.307	84355
603.375	83816
603.444	86024
603.513	88459
603.581	89993
603.650	91730
603.719	89078
603.787	90799
603.856	93447
603.924	97542
603.993	100602
604.061	101915
604.130	108538
604.198	109880
604.267	110833
604.335	112869
604.404	113786
604.472	115332
604.541	115284
604.609	118060
604.678	117686
604.746	117357
604.815	122153
604.883	122873
604.951	123526
605.020	124972
605.088	129353
605.156	130250
605.225	131979
605.293	133500
605.361	135351
605.429	135404
605.498	139641
605.566	143682
605.634	148200
605.702	154426
605.771	159966
605.839	158929
605.907	156802
605.975	150327
606.043	145117
606.111	147364
606.180	145676
606.248	143925
606.316	145259
606.384	145875
606.452	151769
606.520	160771
606.588	156754
606.656	154214
606.724	149695
606.792	141817
606.860	127495
606.928	116597
606.996	111303
607.064	109491
607.132	113652
607.200	121125
607.267	125706
607.335	126915
607.403	129652
607.471	125115
607.539	121508
607.607	122268
607.674	108529
607.742	109916
607.810	109587
607.878	108647
607.946	110540
608.013	115416
608.081	117905
608.149	119287
608.216	121684
608.284	124935
608.352	126577
608.419	124730
608.487	128022
608.555	119932
608.622	123691
608.690	132636
608.757	147525
608.825	149119
608.893	146443
608.960	142587
609.028	140065
609.095	138634
609.163	131252
609.230	115812
609.298	106827
609.365	112214
609.432	121292
609.500	132079
609.567	152812
609.635	176637
609.702	185526
609.769	174318
609.837	137254
609.904	118444
609.971	123267
610.039	145525
610.106	209283
610.173	449454
610.241	1058399
610.308	507912
610.375	163133
610.442	131004
610.509	122962
610.577	123125
610.644	123689
610.711	127485
610.778	130783
610.845	135964
610.912	144418
610.980	149186
611.047	150006
611.114	148003
611.181	142799
611.248	140924
611.315	150713
611.382	154326
611.449	159329
611.516	161691
611.583	161165
611.650	161743
611.717	165746
611.784	171105
611.851	182821
611.918	200305
611.984	247692
612.051	395576
612.118	897203
612.185	2242883
612.252	1227234
612.319	295315
612.386	228411
612.452	201921
612.519	192710
612.586	190917
612.653	191283
612.719	194918
612.786	185164
612.853	168655
612.919	164405
612.986	169156
613.053	158141
613.120	147684
613.186	142203
613.253	145874
613.319	143542
613.386	144607
613.453	148997
613.519	154925
613.586	158632
613.652	172353
613.719	161658
613.785	158152
613.852	150776
613.918	147721
613.985	152175
614.051	158084
614.118	164732
614.184	157108
614.250	147877
614.317	151948
614.383	150713
614.449	151964
614.516	152232
614.582	153139
614.648	148631
614.715	149419
614.781	145970
614.847	146206
614.914	146065
614.980	139899
615.046	142921
615.112	146688
615.179	146217
615.245	148388
615.311	151789
615.377	163861
615.443	166849
615.509	158228
615.575	162975
615.642	159421
615.708	168467
615.774	175848
615.840	190681
615.906	216087
615.972	290554
616.038	499262
616.104	1130677
616.170	2718221
616.236	2050377
616.302	459781
616.368	322350
616.434	224253
616.500	207255
616.565	234609
616.631	296656
616.697	236785
616.763	249143
616.829	409232
616.895	745743
616.961	665597
617.026	269272
617.092	178914
617.158	162169
617.224	156345
617.289	145026
617.355	137056
617.421	133800
617.487	134621
617.552	126660
617.618	125257
617.684	125547
617.749	126664
617.815	120631
617.880	118234
617.946	117854
618.012	121281
618.077	122749
618.143	117588
618.208	119648
618.274	128338
618.339	127356
618.405	105976
618.470	107554
618.536	106675
618.601	106962
618.667	97569
618.732	94292
618.798	91173
618.863	92623
618.928	89685
618.994	94588
619.059	97571
619.124	108668
619.190	95916
619.255	91430
619.320	90183
619.386	92136
619.451	89950
619.516	86569
619.581	88284
619.647	91729
619.712	90717
619.777	88558
619.842	87724
619.907	91880
619.972	91965
620.038	91722
620.103	88037
620.168	87251
620.233	89955
620.298	88948
620.363	90393
620.428	93729
620.493	95282
620.558	96015
620.623	96700
620.688	96783
620.753	95587
620.818	96790
620.883	98346
620.948	97228
621.013	98122
621.078	96401
621.143	96038
621.207	99974
621.272	97967
621.337	97261
621.402	95317
621.467	100022
621.532	99623
621.596	96468
621.661	93035
621.726	89845
621.791	90806
621.855	93394
621.920	94340
621.985	94970
622.049	97841
622.114	97835
622.179	96454
622.243	97534
622.308	101491
622.373	106005
622.437	102118
622.502	96139
622.566	96324
622.631	95162
622.695	96976
622.760	97275
622.824	96339
622.889	97671
622.953	102486
623.018	126573
623.082	118659
623.147	103896
623.211	101248
623.276	102497
623.340	94833
623.404	92586
623.469	92751
623.533	94197
623.597	91770
623.662	89511
623.726	84052
623.790	80247
623.854	78168
623.919	80484
623.983	81157
624.047	83110
624.111	82633
624.176	85975
624.240	88877
624.304	93255
624.368	83603
624.432	85444
624.496	88188
624.560	96106
624.625	98353
624.689	92858
624.753	94273
624.817	90476
624.881	86680
624.945	78094
625.009	77838
625.073	78982
625.137	84831
625.201	95753
625.265	92353
625.329	81874
625.393	83990
625.456	83718
625.520	86143
625.584	91284
625.648	95763
625.712	111490
625.776	154176
625.839	155785
625.903	88055
625.967	73201
626.031	92103
626.095	120480
626.158	82125
626.222	61657
626.286	60092
626.349	55937
626.413	52660
626.477	57638
626.540	54087
626.604	52583
626.668	54639
626.731	52165
626.795	52447
626.858	53607
626.922	49897
626.986	51608
627.049	50407
627.113	53895
627.176	50504
627.240	49396
627.303	50231
627.366	49683
627.430	50446
627.493	49999
627.557	48416
627.620	50658
627.684	50474
627.747	51378
627.810	46173
627.874	44410
627.937	41610
628.000	45453
628.064	43415
628.127	37898
628.190	38920
628.253	37748
628.317	36380
628.380	35377
628.443	35340
628.506	35126
628.569	32838
628.632	31189
628.696	31220
628.759	30813
628.822	30180
628.885	29000
628.948	28917
629.011	29170
629.074	28981
629.137	27668
629.200	27753
629.263	30756
629.326	26390
629.389	27132
629.452	26079
629.515	26902
629.578	26961
629.641	28855
629.704	26748
629.767	27885
629.830	24898
629.892	25516
629.955	24923
630.018	28503
630.081	29706
630.144	35507
630.207	27753
630.269	28228
630.332	25876
630.395	25990
630.458	24219
630.520	23353
630.583	25407
630.646	23987
630.708	23242
630.771	23449
630.834	25221
630.896	24232
630.959	24233
631.021	23116
631.084	24204
631.146	26166
631.209	27565
631.272	25326
631.334	25392
631.397	25939
631.459	26754
631.522	29996
631.584	30482
631.646	33380
631.709	36465
631.771	40487
631.834	33705
631.896	30325
631.958	26911
632.021	27398
632.083	24343
632.145	24818
632.208	23714
632.270	26494
632.332	22504
632.395	22203
632.457	24336
632.519	21993
632.581	24161
632.643	22296
632.706	23178
632.768	21416
632.830	22790
632.892	23146
632.954	22463
633.016	24398
633.078	23043
633.141	22235
633.203	22241
633.265	23344
633.327	23122
633.389	22891
633.451	25664
633.513	28715
633.575	28542
633.637	28729
633.698	27672
633.760	25853
633.822	27214
633.884	28721
633.946	28890
634.008	28736
634.070	31777
634.132	35021
634.193	38318
634.255	43750
634.317	43461
634.379	42666
634.441	37223
634.502	32106
634.564	29879
634.626	28409
634.687	25677
634.749	24512
634.811	24226
634.873	22901
634.934	23129
634.996	23993
635.057	22069
635.119	23525
635.181	24251
635.242	24907
635.304	22701
635.365	27150
635.427	24130
635.488	25863
635.550	23710
635.611	25247
635.673	24660
635.734	29958
635.796	29899
635.857	35517
635.918	35913
635.980	42796
636.041	44343
636.102	48819
636.164	47589
636.225	46036
636.286	38203
636.348	34217
636.409	29358
636.470	27054
636.531	26172
636.593	25068
636.654	23746
636.715	21663
636.776	21297
636.838	20258
636.899	20744
636.960	19869
637.021	18459
637.082	19156
637.143	19712
637.204	18201
637.265	17721
637.326	19303
637.387	19610
637.448	18134
637.509	18747
637.570	19179
637.631	18928
637.692	16380
637.753	16178
637.814	17381
637.875	16667
637.936	18298
637.997	17014
638.058	18345
638.119	18681
638.179	17730
638.240	16067
638.301	17430
638.362	15943
638.423	16342
638.483	17445
638.544	14902
638.605	16095
638.666	14775
638.726	15245
638.787	16283
638.848	15030
638.908	14919
638.969	15112
639.030	14989
639.090	13467
639.151	15395
639.211	17427
639.272	21156
639.332	30361
639.393	19954
639.453	18253
639.514	19262
639.574	16374
639.635	14105
639.695	15249
639.756	14857
639.816	16839
639.877	18993
639.937	29679
639.997	34910
640.058	16313
640.118	14042
640.178	15363
640.239	14468
640.299	14517
640.359	15453
640.420	15706
640.480	18477
640.540	23118
640.600	21839
640.661	19998
640.721	17871
640.781	22177
640.841	16917
640.901	15864
640.961	16670
641.021	18695
641.082	21717
641.142	24464
641.202	17676
641.262	12958
641.322	14479
641.382	12564
641.442	14263
641.502	13329
641.562	14321
641.622	14165
641.682	16756
641.742	19472
641.802	17782
641.861	16717
641.921	15461
641.981	16835
642.041	16103
642.101	18416
642.161	13355
642.221	12185
642.280	12961
642.340	12360
642.400	12213
642.460	14588
642.519	13653
642.579	12607
642.639	14875
642.698	11798
642.758	16117
642.818	14064
642.877	12525
642.937	14516
642.997	17115
643.056	23103
643.116	14643
643.175	15819
643.235	14583
643.294	15151
643.354	17820
643.414	18759
643.473	24772
643.532	31610
643.592	47199
643.651	80769
643.711	155196
643.770	333027
643.830	872175
643.889	1637528
643.948	309259
644.008	57077
644.067	35734
644.126	26815
644.186	22029
644.245	19025
644.304	15775
644.363	17184
644.423	14231
644.482	15198
644.541	17172
644.600	15922
644.659	23117
644.719	30294
644.778	49883
644.837	91078
644.896	204186
644.955	445931
645.014	114136
645.073	27958
645.132	20442
645.191	18562
645.250	16624
645.309	18590
645.368	19810
645.427	27800
645.486	50526
645.545	80115
645.604	21322
645.663	16649
645.722	15426
645.781	18047
645.840	21450
645.898	27757
645.957	43763
646.016	76144
646.075	149401
646.134	310551
646.192	907320
646.251	1125024
646.310	136218
646.369	40046
646.427	33181
646.486	21700
646.545	18818
646.603	16334
646.662	15640
646.721	14560
646.779	13900
646.838	15097
646.896	21120
646.955	29801
647.014	51777
647.072	105409
647.131	288157
647.189	106987
647.248	18244
647.306	14016
647.365	12820
647.423	9810
647.481	12508
647.540	9513
647.598	10125
647.657	9958
647.715	10419
647.773	9580
647.832	10272
647.890	8007
647.948	8978
648.007	9996
648.065	8058
648.123	8053
648.181	10374
648.240	8959
648.298	7186
648.356	8027
648.414	8770
648.472	7318
648.531	7695
648.589	7979
648.647	8269
648.705	8836
648.763	8730
648.821	8885
648.879	9613
648.937	11980
648.995	15194
649.053	20829
649.111	34900
649.169	61278
649.227	122304
649.285	275836
649.343	776703
649.401	282815
649.459	56890
649.516	31149
649.574	18009
649.632	20439
649.690	21839
649.748	23904
649.806	34740
649.863	70205
649.921	202481
649.979	106023
650.037	16137
650.094	9446
650.152	9635
650.210	8230
650.268	8939
650.325	7328
650.383	8540
650.440	6314
650.498	6993
650.556	6672
650.613	6259
650.671	6105
650.728	6426
650.786	7072
650.843	11220
650.901	6693
650.958	6402
651.016	5417
651.073	5479
651.131	4968
651.188	4765
651.246	5571
651.303	4700
651.360	5207
651.418	5630
651.475	6199
651.532	4825
651.590	5961
651.647	5158
651.704	5593
651.762	5185
651.819	4666
651.876	5065
651.933	4518
651.990	5126
652.048	3999
652.105	4347
652.162	4917
652.219	4392
652.276	4367
652.333	5354
652.390	4076
652.448	5328
652.505	4396
652.562	4840
652.619	4862
652.676	4923
652.733	5557
652.790	4500
652.847	3179
652.904	5571
652.961	2836
653.017	3996
653.074	5100
653.131	5600
653.188	3993
653.245	5208
653.302	4518
653.359	4741
653.415	4581
653.472	3125
653.529	4974
653.586	5105
653.642	3758
653.699	4753
653.756	3388
653.813	4090
653.869	4804
653.926	4933
653.983	3839
654.039	4946
654.096	3690
654.152	4954
654.209	3264
654.266	4199
654.322	3877
654.379	5148
654.435	5791
654.492	6328
654.548	8878
654.605	11490
654.661	6239
654.717	3817
654.774	5193
654.830	4904
654.887	4645
654.943	3701
655.000	4387
655.056	4726
655.112	4517
655.168	3979
655.225	4693
655.281	5646
655.337	6143
655.394	8457
655.450	6596
655.506	6595
655.562	9499
655.618	8234
655.675	2988
655.731	5113
655.787	2984
655.843	4397
655.899	3009
655.955	4861
656.011	4451
656.067	3753
656.123	5242
656.179	4694
656.235	6047
656.291	4565
656.347	5792
656.403	4544
656.459	4099
656.515	4451
656.571	4824
656.627	3950
656.683	4382
656.739	5206
656.795	4416
656.850	4786
656.906	6327
656.962	4606
657.018	2914
657.074	5299
657.129	5750
657.185	10821
657.241	20284
657.297	9522
657.352	4423
657.408	3321
657.464	5076
657.519	4133
657.575	2916
657.630	3159
657.686	3900
657.742	3873
657.797	3820
657.853	2655
657.908	3921
657.964	3178
658.019	3594
658.075	3048
658.130	3839
658.186	2428
658.241	2888
658.297	2832
658.352	2798
658.407	5081
658.463	2643
658.518	4318
658.573	2572
658.629	2501
658.684	2704
658.739	3888
658.795	2479
658.850	3863
658.905	3161
658.960	2837
659.016	2515
659.071	2957
659.126	3902
659.181	4072
659.236	8467
659.291	8997
659.346	4277
659.401	4330
659.457	3152
659.512	3237
659.567	3444
659.622	2979
659.677	3301
659.732	2858
659.787	3401
659.842	3740
659.897	4578
659.952	2862
660.007	2348
660.061	3585
660.116	3233
660.171	3366
660.226	3026
660.281	2952
660.336	2859
660.391	4093
660.445	2896
660.500	3785
660.555	2837
660.610	2775
660.664	3317
660.719	2660
660.774	2282
660.828	3715
660.883	2818
660.938	3198
660.992	1746
661.047	2965
661.101	2560
661.156	2869
661.211	2284
661.265	3113
661.320	1887
661.374	3058
661.429	2843
661.483	2859
661.538	2519
661.592	3017
661.647	3304
661.701	4286
661.755	2760
661.810	2799
661.864	1870
661.919	2467
661.973	2713
662.027	2536
662.081	1796
662.136	3086
662.190	3287
662.244	3387
662.299	2116
662.353	3359
662.407	2293
662.461	3725
662.515	3524
662.569	3100
662.624	3224
662.678	2806
662.732	2617
662.786	3186
662.840	2759
662.894	2359
662.948	2109
663.002	2909
663.056	3040
663.110	1681
663.164	2822
663.218	3708
663.272	3603
663.326	3549
663.380	3845
663.434	3575
663.488	2558
663.542	3294
663.595	2786
663.649	2997
663.703	2847
663.757	3365
663.811	2459
663.864	3764
663.918	3615
663.972	3582
664.026	2493
664.079	2598
664.133	3231
664.187	2520
664.240	2601
664.294	2922
664.348	3557
664.401	2950
664.455	2500
664.508	2483
664.562	2699
664.615	2404
664.669	2403
664.722	3129
664.776	2651
664.829	2279
664.883	2171
664.936	2277
664.990	2392
665.043	3091
665.097	2898
665.150	4089
665.203	2017
665.257	2807
665.310	3075
665.363	3631
665.417	2695
665.470	3627
665.523	3463
665.576	3345
665.630	3214
665.683	3336
665.736	3225
665.789	3950
665.842	2042
665.895	3072
665.949	2713
666.002	3198
666.055	2832
666.108	3958
666.161	3069
666.214	4328
666.267	3641
666.320	5709
666.373	3606
666.426	4279
666.479	3370
666.532	3972
666.585	3910
666.638	5378
666.691	4276
666.744	4994
666.796	3451
666.849	3847
666.902	3222
666.955	2606
667.008	2732
667.060	2473
667.113	2485
667.166	3020
667.219	2366
667.271	3287
667.324	2007
667.377	3414
667.430	3057
667.482	3522
667.535	2552
667.587	4090
667.640	3353
667.693	4498
667.745	9339
667.798	8482
667.850	3248
667.903	3026
667.955	3137
668.008	3729
668.060	3696
668.113	3349
668.165	2817
668.218	3713
668.270	3117
668.322	2710
668.375	2577
668.427	3624
668.479	1857
668.532	2854
668.584	3268
668.636	2705
668.689	2360
668.741	2439
668.793	3213
668.845	3446
668.898	3313
668.950	3123
669.002	2400
669.054	3333
669.106	2313
669.158	3617
669.211	3172
669.263	3122
669.315	2540
669.367	3937
669.419	3200
669.471	5343
669.523	5072
669.575	6925
669.627	4673
669.679	4739
669.731	3480
669.783	4602
669.835	4242
669.886	5045
669.938	3554
669.990	3010
670.042	2718
670.094	3430
670.146	2058
670.197	3372
670.249	3936
670.301	3687
670.353	4495
670.404	4975
670.456	6613
670.508	9937
670.560	16466
670.611	27463
670.663	48025
670.715	127407
670.766	165404
670.818	32117
670.869	7947
670.921	5677
670.972	4289
671.024	4027
671.075	3924
671.127	3060
671.178	2331
671.230	3698
671.281	3668
671.333	4422
671.384	4348
671.436	6847
671.487	8911
671.538	12849
671.590	21662
671.641	35892
671.692	67335
671.744	120736
671.795	64602
671.846	22511
671.897	11269
671.949	7836
672.000	5696
672.051	5987
672.102	5176
672.153	3814
672.204	3951
672.256	4499
672.307	2810
672.358	3612
672.409	3588
672.460	3197
672.511	3414
672.562	3491
672.613	2055
672.664	2699
672.715	2345
672.766	2463
672.817	2942
672.868	2860
672.919	2392
672.970	2184
673.021	2279
673.071	2286
673.122	2019
673.173	3562
673.224	1810
673.275	2130
673.326	2382
673.376	2389
673.427	2194
673.478	2837
673.528	3301
673.579	2131
673.630	2020
673.680	3291
673.731	2182
673.782	2565
673.832	2078
673.883	2070
673.934	1763
673.984	2321
674.035	1831
674.085	2292
674.136	2281
674.186	3130
674.237	3987
674.287	5015
674.338	3648
674.388	2325
674.438	2354
674.489	3735
674.539	2346
674.589	3315
674.640	2466
674.690	2717
674.740	2533
674.791	2510
674.841	3127
674.891	2629
674.942	2531
674.992	1690
675.042	1904
675.092	2061
675.142	1859
675.193	2183
675.243	1532
675.293	3437
675.343	1723
675.393	2306
675.443	2802
675.493	2478
675.543	2081
675.593	1845
675.643	1811
675.693	2223
675.743	2689
675.793	2425
675.843	1588
675.893	2190
675.943	1612
675.993	1708
676.043	1379
676.093	1941
676.142	1505
676.192	2418
676.242	1449
676.292	2085
676.341	1541
676.391	2042
676.441	2072
676.491	2220
676.540	1477
676.590	2563
676.640	1225
676.689	1925
676.739	635
676.789	2358
676.838	1554
676.888	2018
676.937	1365
676.987	1367
677.037	1287
677.086	1346
677.136	1227
677.185	987
677.235	1597
677.284	1363
677.333	778
677.383	1532
677.432	1349
677.482	2011
677.531	1239
677.580	1781
677.630	735
677.679	1045
677.728	457
677.778	1614
677.827	708
677.876	1379
677.925	1691
677.975	1387
678.024	877
678.073	957
678.122	2001
678.171	1729
678.220	1672
678.269	3158
678.319	2471
678.368	2820
678.417	1659
678.466	2091
678.515	1286
678.564	1607
678.613	1899
678.662	1734
678.711	978
678.760	2104
678.809	1312
678.857	1611
678.906	1643
678.955	1496
679.004	1279
679.053	2027
679.102	680
679.151	2012
679.199	680
679.248	1098
679.297	919
679.346	1265
679.394	1116
679.443	1032
679.492	1003
679.540	1240
679.589	946
679.638	1692
679.686	1472
679.735	1286
679.784	1729
679.832	2221
679.881	274
679.929	851
679.978	1031
680.026	1662
680.075	766
680.123	992
680.172	20
680.220	1467
680.268	1129
680.317	1218
680.365	641
680.414	511
680.462	1190
680.510	1109
680.559	734
680.607	844
680.655	704
680.703	1083
680.752	720
680.800	378
680.848	937
680.896	457
680.945	730
680.993	690
681.041	732
681.089	1094
681.137	983
681.185	749
681.233	550
681.258	1082
681.281	1555
681.329	1442
681.377	797
681.380	831
681.425	888
681.473	1378
681.502	1798
681.521	2036
681.569	1067
681.617	899
681.624	931
681.665	913
681.713	1643
681.745	1780
681.761	1807
681.809	1530
681.857	2525
681.867	2408
681.904	1904
681.952	1658
681.989	1732
682.000	1702
682.048	1925
682.096	1607
682.111	1873
682.143	2349
682.191	1303
682.233	2215
682.239	2327
682.286	2253
682.334	2048
682.354	2209
682.382	2383
682.430	2738
682.476	1586
682.477	1532
682.525	1604
682.572	1823
682.598	1827
682.620	1849
682.667	2441
682.715	3772
682.720	3687
682.763	2536
682.810	3034
682.841	2773
682.857	2600
682.905	3511
682.952	3279
682.963	3225
683.000	2850
683.047	3384
683.085	3929
683.095	4081
683.142	3005
683.190	3561
683.206	3102
683.237	2096
683.284	3738
683.328	2665
683.332	2558
683.379	3630
683.426	3081
683.449	3339
683.473	3587
683.521	3471
683.568	4225
683.571	4152
683.615	2918
683.662	4193
683.693	3768
683.709	3504
683.757	3471
683.804	4631
683.814	4588
683.851	4284
683.898	4733
683.936	4439
683.945	4379
683.992	4482
684.039	5181
684.057	5180
684.086	5118
684.133	5182
684.179	5001
684.180	4960
684.227	6175
684.274	5793
684.300	5804
684.321	5872
684.368	5098
684.415	5666
684.422	5547
684.462	4511
684.509	4944
684.543	4685
684.556	4647
684.603	4862
684.649	4067
684.665	4351
684.696	4946
684.743	5278
684.786	5268
684.790	5261
684.837	5051
684.883	5702
684.908	6073
684.930	6237
684.977	6636
685.023	5574
685.029	5631
685.070	5894
685.117	5748
685.150	5555
685.164	5546
685.210	5572
685.257	6678
685.272	6705
685.303	6677
685.350	6827
685.393	6852
685.396	6864
685.443	8433
685.490	8305
685.514	8772
685.536	8759
685.583	7448
685.629	7332
685.636	7198
685.675	6589
685.722	6858
685.757	6892
685.768	6959
685.815	7570
685.861	7409
685.878	7591
685.908	7830
685.954	7246
686.000	8127
686.000	8144
686.047	8484
686.093	9457
686.121	10091
686.139	9832
686.185	9308
686.232	8038
686.242	7833
686.278	7679
686.324	7364
686.363	7234
686.370	7211
686.416	6724
686.463	7326
686.484	6942
686.509	6618
686.555	7036
686.601	7064
686.606	7128
686.647	7406
686.693	6926
686.727	7105
686.739	7248
686.785	6924
686.831	7147
686.848	7102
686.877	6904
686.923	7306
686.969	7590
686.969	7591
687.015	7783
687.061	7387
687.090	7919
687.107	8160
687.153	7703
687.199	7797
687.211	7554
687.245	7182
687.291	8605
687.332	8117
687.336	8031
687.382	8653
687.428	7686
687.453	8005
687.474	8300
687.520	8244
687.565	8359
687.574	8221
687.611	7730
687.657	8638
687.695	8655
687.702	8737
687.748	9424
687.794	9576
687.816	9932
687.839	9759
687.885	8981
687.931	8879
687.937	8794
687.976	8966
688.022	8839
688.058	9467
688.067	9559
688.113	9261
688.158	8723
688.179	8784
688.204	8964
688.249	8996
688.295	9302
688.300	9298
688.340	9321
688.386	9904
688.421	9067
688.431	8883
688.477	8915
688.522	9565
688.542	9812
688.567	9936
688.613	9341
688.658	9741
688.663	9698
688.703	9581
688.749	9479
688.784	9868
688.794	9926
688.839	9223
688.884	9647
688.905	9530
688.930	9562
688.975	9516
689.020	9873
689.026	9785
689.065	9224
689.110	9445
689.146	9463
689.155	9462
689.201	9103
689.246	9622
689.267	9616
689.291	9669
689.336	9487
689.381	9100
689.388	9124
689.426	9320
689.471	9495
689.509	9596
689.516	9652
689.561	9656
689.606	9655
689.630	9859
689.651	9970
689.696	9646
689.741	10086
689.750	10104
689.785	10255
689.830	9799
689.871	9759
689.875	9759
689.920	9458
689.965	9738
689.992	9779
690.010	9844
690.054	9498
690.099	9688
690.112	9557
690.144	9398
690.189	9945
690.233	10108
690.233	10122
690.278	9565
690.323	9368
690.354	9642
690.367	9834
690.412	9780
690.457	10116
690.474	10099
690.501	9860
690.546	9769
690.590	9187
690.595	9169
690.635	9644
690.680	9840
690.716	10029
690.724	10041
690.769	10239
690.813	10339
690.836	10001
690.857	9897
690.902	10422
690.946	10623
690.957	10810
690.991	11347
691.035	11476
691.077	11660
691.080	11711
691.124	11575
691.168	12379
691.198	12656
691.213	12612
691.257	12947
691.301	12598
691.318	12604
691.346	12370
691.390	11431
691.434	11076
691.439	10961
691.478	10932
691.522	11315
691.559	11290
691.567	11347
691.611	11976
691.655	12593
691.680	12768
691.699	12552
691.743	12004
691.787	11740
691.800	11465
691.831	11459
691.875	12055
691.919	12041
691.921	12037
691.964	12172
692.008	11883
692.041	11808
692.052	11980
692.096	12412
692.139	13084
692.162	13174
692.183	12688
692.227	12455
692.271	11532
692.282	11286
692.315	11655
692.359	12234
692.402	13183
692.403	13208
692.447	12495
692.490	12048
692.523	12130
692.534	12365
692.578	12603
692.622	12613
692.643	12933
692.666	12838
692.709	12149
692.753	11668
692.763	11524
692.797	11777
692.840	11924
692.884	12144
692.884	12169
692.928	12053
692.971	11892
693.004	11810
693.015	11804
693.059	12039
693.102	11834
693.124	11787
693.146	12179
693.189	13135
693.233	13469
693.245	13706
693.276	13990
693.320	13961
693.363	13923
693.365	13895
693.407	13700
693.450	13449
693.485	13191
693.493	13293
693.537	13786
693.580	14042
693.605	14439
693.624	14375
693.667	13558
693.710	13138
693.725	12893
693.753	13572
693.797	14577
693.840	15600
693.845	15690
693.883	15060
693.926	14156
693.966	13784
693.970	13832
694.013	13337
694.056	13422
694.086	13014
694.099	12998
694.142	13668
694.185	13632
694.206	13717
694.229	14004
694.272	14435
694.315	14978
694.326	15007
694.358	15334
694.401	16130
694.444	16640
694.446	16641
694.487	16678
694.530	16158
694.566	16048
694.573	15923
694.616	14679
694.659	13519
694.686	12620
694.702	12666
694.745	12977
694.787	13209
694.806	13312
694.830	13258
694.873	12755
694.916	12407
694.926	12362
694.959	12742
695.002	13098
695.044	13197
695.046	13185
695.087	13922
695.130	14105
695.166	14550
695.172	14560
695.215	14175
695.258	14038
695.286	13767
695.301	13694
695.343	13606
695.386	13235
695.406	13057
695.428	13279
695.471	13803
695.514	14262
695.526	14297
695.556	14444
695.599	14987
695.641	15123
695.646	15131
695.684	14899
695.726	14452
695.766	13996
695.769	14023
695.811	14012
695.854	14023
695.886	13826
695.896	13904
695.938	14191
695.981	14492
696.005	14605
696.023	14773
696.065	15109
696.108	15477
696.125	15587
696.150	15695
696.192	15878
696.235	15745
696.245	15767
696.277	15909
696.319	15798
696.361	15805
696.365	15754
696.404	15627
696.446	15595
696.485	15371
696.488	15396
696.530	15385
696.572	15190
696.604	15046
696.614	15132
696.656	15289
696.698	15524
696.724	15645
696.740	15690
696.783	15585
696.825	15566
696.844	15508
696.867	15557
696.909	15618
696.951	15586
696.964	15504
696.992	15507
697.034	15646
697.076	15665
697.083	15634
697.118	15950
697.160	16341
697.202	16599
697.203	16563
697.244	16319
697.286	15959
697.323	15686
697.327	15773
697.369	16153
697.411	16454
697.442	16723
697.453	16930
697.494	17487
697.536	18153
697.562	18429
697.578	18584
697.620	18997
697.661	19348
697.682	19499
697.703	19946
697.744	20649
697.786	21419
697.801	21627
697.828	21612
697.869	21438
697.911	21360
697.921	21278
697.952	20572
697.994	19553
698.035	18496
698.040	18326
698.077	18231
698.118	18039
698.160	17811
698.160	17761
698.201	17813
698.243	17839
698.279	17831
698.284	17938
698.325	18446
698.367	18999
698.399	19314
698.408	19221
698.449	18637
698.491	18025
698.518	17553
698.532	17695
698.573	17986
698.614	18281
698.638	18395
698.656	18447
698.697	18463
698.738	18463
698.757	18423
698.779	18593
698.820	18815
698.862	19027
698.877	19054
698.903	19243
698.944	19470
698.985	19694
698.996	19704
699.026	19706
699.067	19639
699.116	19507
699.235	18091
699.354	18670
699.474	19226
699.593	21235
699.713	20313
699.832	20180
699.951	21806
700.070	19800
700.190	17853
700.309	18554
700.428	21152
700.547	17981
700.667	17747
700.786	20779
700.905	17344
701.024	19914
701.143	17804
701.262	17356
701.381	17012
701.500	19467
701.619	21245
701.738	17269
701.857	16683
701.976	16349
702.095	16011
702.214	19981
702.333	20575
702.452	17587
702.571	17483
702.690	17142
702.809	15961
702.928	16363
703.047	15696
703.165	16731
703.284	15993
703.403	17016
703.522	18659
703.640	17896
703.759	22511
703.878	27305
703.997	17000
704.115	16490
704.234	16469
704.353	16026
704.471	13874
704.590	14603
704.708	13958
704.827	14733
704.946	14404
705.064	15963
705.183	14016
705.301	17022
705.420	19086
705.538	17935
705.656	14754
705.775	16431
705.893	17722
706.012	18705
706.130	16398
706.249	16920
706.367	17497
706.485	17725
706.604	15998
706.722	18908
706.840	22030
706.958	22213
707.077	17292
707.195	15511
707.313	15662
707.431	14956
707.549	14379
707.668	15142
707.786	15661
707.904	15657
708.022	14391
708.140	14500
708.258	14484
708.376	16080
708.494	15151
708.612	17870
708.730	21233
708.848	20111
708.966	19468
709.084	18968
709.202	17238
709.320	17266
709.438	16719
709.556	16570
709.674	15068
709.791	17312
709.909	14601
710.027	16197
710.145	15156
710.263	17031
710.380	15905
710.498	15249
710.616	16255
710.733	16252
710.851	17809
710.969	17744
711.086	15513
711.204	16307
711.322	16099
711.439	16221
711.557	15652
711.674	16292
711.792	16463
711.909	15329
712.027	14253
712.144	15059
712.262	14486
712.379	17660
712.497	21021
712.614	19638
712.732	17596
712.849	18137
712.966	21426
713.084	26910
713.201	18828
713.318	18714
713.436	17006
713.553	18622
713.670	19611
713.787	22867
713.905	21121
714.022	19313
714.139	20081
714.256	27694
714.373	42800
714.490	80074
714.608	242601
714.725	1045833
714.842	832297
714.959	61486
715.076	29934
715.193	22523
715.310	20114
715.427	17703
715.544	16848
715.661	17583
715.778	15613
715.895	18523
716.011	18130
716.128	16685
716.245	16985
716.362	23814
716.479	21093
716.596	15429
716.713	15112
716.829	15964
716.946	14749
717.063	14294
717.180	13091
717.296	13324
717.413	13853
717.530	14452
717.646	13401
717.763	13821
717.880	13440
717.996	13348
718.113	13777
718.229	13162
718.346	14126
718.462	15206
718.579	21119
718.695	40623
718.812	25074
718.928	21949
719.045	13806
719.161	13341
719.277	13652
719.394	14222
719.510	14312
719.626	14913
719.743	20489
719.859	32026
719.975	70199
720.092	305590
720.208	597371
720.324	54399
720.440	20042
720.557	21312
720.673	32438
720.789	38197
720.905	69864
721.021	19844
721.137	11623
721.253	12822
721.369	13122
721.486	16129
721.602	19839
721.718	11902
721.834	10719
721.950	12483
722.066	10163
722.181	10800
722.297	11805
722.413	11303
722.529	11022
722.645	11492
722.761	10235
722.877	10883
722.993	11614
723.108	15486
723.224	12025
723.340	11844
723.456	10080
723.571	11725
723.687	8488
723.803	10453
723.918	9888
724.034	9943
724.150	10341
724.265	12661
724.381	25862
724.497	29015
724.612	9881
724.728	9370
724.843	9694
724.959	12833
725.074	25534
725.190	26576
725.305	11028
725.421	9950
725.536	8920
725.651	9332
725.767	8270
725.882	8499
725.997	8232
726.113	9663
726.228	8234
726.343	8414
726.459	8355
726.574	8874
726.689	7786
726.804	9520
726.920	8001
727.035	8031
727.150	8726
727.265	9337
727.380	9237
727.495	8931
727.610	7712
727.725	8123
727.841	8997
727.956	10303
728.071	10334
728.186	8291
728.301	7374
728.416	9570
728.531	8644
728.645	8910
728.760	10077
728.875	12309
728.990	11458
729.105	10583
729.220	10534
729.335	10564
729.449	8425
729.564	8152
729.679	6436
729.794	7589
729.908	8134
730.023	8220
730.138	7597
730.253	8347
730.367	6318
730.482	7282
730.596	7551
730.711	9673
730.826	9071
730.940	9065
731.055	9593
731.169	8687
731.284	8005
731.398	8494
731.513	10536
731.627	10987
731.742	12835
731.856	13927
731.970	12438
732.085	16495
732.199	24680
732.313	46545
732.428	126322
732.542	359257
732.656	168086
732.771	31966
732.885	17102
732.999	14638
733.113	13900
733.227	13420
733.342	11357
733.456	11247
733.570	10204
733.684	9977
733.798	11090
733.912	9962
734.026	9389
734.140	9535
734.254	10753
734.368	17040
734.482	18579
734.596	9679
734.710	8839
734.824	9032
734.938	8993
735.052	10064
735.166	11135
735.280	10391
735.393	8813
735.507	10003
735.621	13008
735.735	20077
735.849	9741
735.962	8620
736.076	9262
736.190	9785
736.303	13319
736.417	14301
736.531	8558
736.644	9608
736.758	7363
736.872	7836
736.985	8106
737.099	6939
737.212	7385
737.326	7866
737.439	6958
737.553	7812
737.666	8459
737.780	6989
737.893	7729
738.007	7423
738.120	6405
738.233	7781
738.347	7074
738.460	7877
738.573	9413
738.687	8413
738.800	8799
738.913	12792
739.026	8177
739.140	7870
739.253	6970
739.366	7427
739.479	6464
739.592	6477
739.705	6643
739.818	7623
739.932	7869
740.045	8434
740.158	7217
740.271	8138
740.384	7283
740.497	8529
740.610	9192
740.723	8499
740.836	9513
740.949	10537
741.062	13910
741.174	9896
741.287	7736
741.400	8304
741.513	8858
741.626	11508
741.739	8162
741.851	8663
741.964	7688
742.077	8008
742.189	8692
742.302	11104
742.415	10930
742.527	8650
742.640	7024
742.753	6678
742.865	5729
742.978	6113
743.090	6368
743.203	7171
743.316	5410
743.428	6054
743.541	5731
743.653	6324
743.766	6107
743.878	6745
743.990	8490
744.103	8751
744.215	8450
744.327	6868
744.440	9790
744.552	16381
744.664	7381
744.777	6773
744.889	4338
745.001	5691
745.113	5632
745.226	5507
745.338	5257
745.450	6756
745.562	5214
745.674	5311
745.786	4921
745.898	5407
746.010	5278
746.122	6053
746.234	6395
746.347	5965
746.459	4748
746.570	5073
746.682	6303
746.794	9459
746.906	5459
747.018	5004
747.130	4869
747.242	5126
747.354	4633
747.466	6505
747.577	4911
747.689	5190
747.801	4918
747.913	4379
748.024	4401
748.136	3843
748.248	3905
748.359	4824
748.471	4725
748.583	4841
748.694	3968
748.806	5372
748.918	6451
749.029	5221
749.141	6458
749.252	5830
749.364	7098
749.475	18662
749.587	9492
749.698	5454
749.809	4865
749.921	4269
750.032	4505
750.144	4132
750.255	3669
750.366	4093
750.478	4179
750.589	4666
750.700	5206
750.811	5560
750.923	8294
751.034	21885
751.145	17020
751.256	4552
751.367	4478
751.479	4628
751.590	3254
751.701	3984
751.812	2631
751.923	3279
752.034	4492
752.145	4041
752.256	3619
752.367	4264
752.478	4171
752.589	4482
752.700	3060
752.811	3333
752.922	4327
753.032	6414
753.143	6573
753.254	3602
753.365	4666
753.476	4280
753.586	2700
753.697	4077
753.808	2453
753.919	3317
754.029	3344
754.140	4257
754.251	3537
754.361	3870
754.472	3792
754.582	4617
754.693	3468
754.804	4075
754.914	2510
755.025	3794
755.135	3700
755.246	3325
755.356	3087
755.466	4363
755.577	3458
755.687	4454
755.798	3600
755.908	2766
756.018	2722
756.129	3754
756.239	4079
756.349	4640
756.460	4411
756.570	5253
756.680	3482
756.790	4979
756.900	4977
757.011	3769
757.121	3196
757.231	4244
757.341	2735
757.451	3759
757.561	2071
757.671	3060
757.781	1647
757.891	4798
758.001	2725
758.111	3708
758.221	4095
758.331	6007
758.441	5886
758.551	9537
758.661	7805
758.771	4833
758.880	4257
758.990	5155
759.100	3832
759.210	5039
759.320	5026
759.429	4998
759.539	4975
759.649	5872
759.758	6156
759.868	7734
759.978	6137
760.087	7672
760.197	6636
760.307	7082
760.416	6027
760.526	5656
760.635	5945
760.745	7057
760.854	7788
760.964	8905
761.073	7854
761.182	8268
761.292	6134
761.401	6757
761.511	4843
761.620	4939
761.729	4379
761.839	4653
761.948	4774
762.057	5097
762.166	3782
762.276	3332
762.385	5453
762.494	4523
762.603	3354
762.712	3814
762.822	3585
762.931	3691
763.040	1565
763.149	3627
763.258	3762
763.367	3243
763.476	4003
763.585	3003
763.694	2939
763.803	4012
763.912	4181
764.021	3360
764.130	2982
764.238	4463
764.347	3697
764.456	4613
764.565	3437
764.674	4101
764.783	3350
764.891	3384
765.000	3788
765.109	5084
765.217	4186
765.326	5660
765.435	6959
765.543	6053
765.652	5413
765.761	6341
765.869	8520
765.978	12370
766.086	20912
766.195	45172
766.303	142828
766.412	529962
766.520	331380
766.629	40411
766.737	14711
766.846	10572
766.954	8046
767.062	7617
767.171	5765
767.279	5530
767.387	5025
767.496	4753
767.604	3322
767.712	4797
767.820	3241
767.928	4738
768.037	3685
768.145	5017
768.253	4633
768.361	4468
768.469	3505
768.577	4331
768.685	4504
768.793	4259
768.901	3648
769.009	4940
769.117	4059
769.225	4863
769.333	6541
769.441	10377
769.549	18599
769.657	45679
769.765	193020
769.873	410861
769.981	69364
770.088	12609
770.196	7950
770.304	6667
770.412	5790
770.519	4771
770.627	4325
770.735	4108
770.842	4402
770.950	5103
771.058	5080
771.165	4663
771.273	4429
771.380	5481
771.488	6062
771.595	5682
771.703	5541
771.810	5919
771.918	5028
772.025	6855
772.133	6655
772.240	6227
772.348	6557
772.455	6712
772.562	6209
772.670	6266
772.777	6351
772.884	5824
772.991	5044
773.099	5845
773.206	5055
773.313	6677
773.420	5200
773.528	4884
773.635	5352
773.742	5404
773.849	5771
773.956	5548
774.063	5204
774.170	4880
774.277	5446
774.384	5543
774.491	4926
774.598	5702
774.705	6308
774.812	8352
774.919	5824
775.026	5426
775.133	5615
775.239	5704
775.346	4820
775.453	5781
775.560	3791
775.667	5478
775.773	3019
775.880	5122
775.987	4755
776.093	5989
776.200	5559
776.307	4979
776.413	4824
776.520	5814
776.627	4136
776.733	4322
776.840	3980
776.946	7651
777.053	7397
777.159	13909
777.266	6870
777.372	12503
777.478	10141
777.585	7549
777.691	4214
777.798	5575
777.904	5909
778.010	9337
778.117	6678
778.223	5526
778.329	4007
778.435	3877
778.542	5319
778.648	4501
778.754	3215
778.860	4752
778.966	3659
779.072	4057
779.178	3878
779.284	4884
779.391	3675
779.497	2910
779.603	4889
779.708	3567
779.815	4586
779.920	5354
780.026	5839
780.132	4273
780.238	2822
780.344	3520
780.450	5133
780.556	3132
780.661	3434
780.767	4374
780.873	2829
780.979	4795
781.085	4394
781.190	3574
781.296	3926
781.402	3445
781.507	3940
781.613	3708
781.719	3406
781.824	4301
781.930	3613
782.035	4137
782.141	3478
782.246	3794
782.352	3806
782.457	3610
782.563	3298
782.668	3256
782.773	3178
782.879	2577
782.984	3072
783.090	5372
783.195	8705
783.300	5684
783.405	3258
783.511	3488
783.616	3661
783.721	4662
783.826	3328
783.932	4647
784.037	3777
784.142	3870
784.247	3377
784.352	4122
784.457	2873
784.562	4118
784.667	3395
784.772	3597
784.877	1822
784.982	4065
785.087	3260
785.192	3754
785.297	2248
785.402	3473
785.507	3080
785.611	3563
785.716	2586
785.821	2808
785.926	3127
786.031	3021
786.135	2696
786.240	2613
786.345	1685
786.450	3293
786.554	3490
786.659	2256
786.763	1759
786.868	3900
786.973	2693
787.077	2219
787.182	1948
787.286	2873
787.391	3167
787.495	1991
787.600	1831
787.704	2584
787.809	3174
787.913	1538
788.017	2589
788.122	2467
788.226	2178
788.330	1518
788.435	1942
788.539	2765
788.643	2316
788.747	2040
788.852	1977
788.956	2440
789.060	2556
789.164	2729
789.268	1841
789.372	2845
789.476	1844
789.580	1673
789.684	1554
789.788	2846
789.892	1712
789.996	2786
790.100	1327
790.204	2824
790.308	2723
790.412	1896
790.516	1980
790.620	2096
790.724	3481
790.828	2110
790.931	1550
791.035	2857
791.139	2472
791.242	2337
791.346	3216
791.450	3067
791.554	1633
791.657	1934
791.761	3435
791.864	3501
791.968	2339
792.072	3207
792.175	2705
792.279	2563
792.382	2469
792.486	2557
792.589	2943
792.693	3262
792.796	1600
792.899	3156
793.003	2959
793.106	1319
793.209	1670
793.313	4097
793.416	1086
793.519	3898
793.623	6101
793.726	9206
793.829	2872
793.932	2859
794.035	1854
794.138	3153
794.242	3805
794.345	3533
794.448	5146
794.551	6913
794.654	7102
794.757	4509
794.860	3864
794.963	2930
795.066	1249
795.169	3060
795.272	803
795.375	2852
795.477	702
795.580	3045
795.683	641
795.786	2633
795.889	834
795.991	2325
796.094	3112
796.197	1835
796.300	2600
796.402	1280
796.505	1204
796.608	1564
796.710	2501
796.813	2953
796.915	1903
797.018	3112
797.120	2095
797.223	827
797.326	2694
797.428	1563
797.530	1391
797.633	2208
797.735	2892
797.838	6365
797.940	4419
798.042	1028
798.145	1225
798.247	2835
798.349	-135
798.452	2652
798.554	961
798.656	1875
798.758	3683
798.860	1865
798.962	1383
799.065	2244
799.167	405
799.269	3218
799.371	4004
799.473	3909
799.575	2736
799.677	3581
799.779	4952
799.881	6505
799.983	3541
800.085	2203
800.187	1687
800.289	913
800.390	704
800.492	2101
800.594	2255
800.696	1006
800.798	950
800.899	1645
801.001	829
801.103	1403
801.205	1364
801.306	2560
801.408	622
801.509	2022
801.611	864
801.713	2129
801.814	266
801.916	1188
802.017	1479
802.119	740
802.220	1122
802.322	766
802.423	3002
802.525	1187
802.626	1505
802.727	2769
802.829	1844
802.930	-215
803.031	2175
803.133	1403
803.234	1249
803.335	1834
803.436	281
803.538	1618
803.639	291
803.740	1847
803.841	368
803.942	2164
804.043	2452
804.144	1067
804.245	1484
804.346	1453
804.447	1852
804.548	4646
804.649	4710
804.750	968
804.851	1279
804.952	632
805.053	1175
805.154	-395
805.255	1680
805.355	1098
805.456	172
805.557	982
805.658	-336
805.758	2084
805.859	637
805.960	1197
806.061	-8
806.161	736
806.262	619
806.362	814
806.463	-48
806.564	1866
806.664	919
806.765	2729
806.865	1645
806.966	1631
807.066	513
807.166	1699
807.267	1321
807.367	1393
807.468	1080
807.568	374
807.668	1297
807.769	2371
807.869	636
807.969	1527
808.069	723
808.170	1086
808.270	260
808.370	2730
808.470	3690
808.570	1721
808.670	856
808.770	1908
808.870	625
808.970	1698
809.070	247
809.170	1349
809.271	1306
809.370	1365
809.470	930
809.570	525
809.670	21
809.770	516
809.870	1174
809.970	848
810.070	186
810.169	1429
810.269	-992
810.369	2059
810.469	1427
810.568	368
810.668	50
810.768	312
810.867	548
810.967	503
811.066	66
811.166	-437
811.265	1497
811.365	523
811.464	446
811.564	1331
811.663	1125
811.763	352
811.862	942
811.962	1433
812.061	231
812.160	918
812.260	152
812.359	932
812.458	306
812.557	1964
812.657	1648
812.756	1687
812.855	197
812.954	1410
813.053	1278
813.153	1962
813.252	116
813.351	1996
813.450	-34
813.549	758
813.648	1403
813.747	119
813.846	1406
813.945	175
814.044	115
814.143	1547
814.242	523
814.341	743
814.439	1275
814.538	1066
814.637	612
814.736	915
814.835	1754
814.933	130
815.032	1463
815.131	2557
815.229	2611
815.328	4266
815.427	3054
815.525	3783
815.624	2686
815.722	3007
815.821	3349
815.919	3698
816.018	2954
816.116	4087
816.215	2608
816.313	3650
816.412	3632
816.510	4823
816.609	5320
816.707	5556
816.805	4225
816.904	5189
817.002	5094
817.100	6605
817.198	6364
817.296	5698
817.395	5851
817.493	7622
817.591	7523
817.689	9783
817.787	11302
817.885	17518
817.983	30648
818.081	65459
818.179	156041
818.277	389313
818.375	309456
818.473	91615
818.571	38387
818.669	26384
818.767	22012
818.865	22603
818.963	24638
819.061	37400
819.158	62034
819.256	133029
819.354	314053
819.452	655711
819.549	404368
819.647	124179
819.745	52199
819.842	32169
819.940	22320
820.038	16900
820.135	12495
820.233	12094
820.330	8769
820.428	6690
820.525	7653
820.623	5929
820.720	5402
820.818	5369
820.915	4563
821.012	4745
821.110	3052
821.207	5005
821.304	2455
821.402	4596
821.499	5185
821.596	6688
821.693	4879
821.791	5577
821.888	5352
821.985	12206
822.082	7695
822.179	4882
822.276	4350
822.373	2841
822.470	3049
822.567	2994
822.664	861
822.761	3715
822.858	1378
822.955	3321
823.052	2382
823.149	2862
823.246	2509
823.343	2083
823.440	2594
823.536	2461
823.633	2038
823.730	1508
823.827	3169
823.923	3103
824.020	2580
824.117	2660
824.213	2346
824.310	3167
824.407	1858
824.503	2849
824.600	1485
824.696	2027
824.793	3850
824.889	2721
824.986	2008
825.082	1969
825.179	1093
825.275	1605
825.371	2210
825.468	2694
825.564	714
825.660	2479
825.757	1915
825.853	2029
825.949	-48
826.045	1718
826.142	846
826.238	1300
826.334	1587
826.430	1644
826.526	984
826.622	1890
826.718	1852
826.814	1174
826.910	1511
827.006	613
827.102	641
827.198	3000
827.294	1248
827.390	1266
827.486	943
827.582	200
827.678	441
827.774	2368
827.869	1219
827.965	1778
828.061	927
828.157	1546
828.252	1097
828.348	77
828.444	1655
828.539	583
828.635	1056
828.731	3030
828.826	836
828.922	1535
829.017	1115
829.113	2522
829.208	1133
829.304	1846
829.399	2893
829.495	2260
829.590	1557
829.685	1175
829.781	2121
829.876	1148
829.971	267
830.066	562
830.162	1177
830.257	1824
830.352	907
830.447	2215
830.543	1571
830.638	1631
830.733	2361
830.828	1174
830.923	1951
831.018	2180
831.113	1471
831.208	683
831.303	10
831.398	890
831.493	1207
831.588	1798
831.683	293
831.778	1541
831.873	275
831.967	1698
832.062	514
832.157	640
832.252	1083
832.346	1158
832.441	2037
832.536	3627
832.631	8363
832.725	6345
832.820	1100
832.914	576
833.009	278
833.104	2580
833.198	2837
833.293	1507
833.387	682
833.482	1498
833.576	226
833.670	2501
833.765	1549
833.859	2153
833.954	2331
834.048	1030
834.142	439
834.237	696
834.331	73
834.425	569
834.519	-289
834.613	1725
834.708	-267
834.802	1025
834.896	-439
834.990	282
835.084	599
835.178	569
835.272	461
835.366	902
835.460	1978
835.554	436
835.648	-319
835.742	-30
835.836	-317
835.930	94
836.024	1336
836.117	1980
836.211	468
836.305	1966
836.399	2117
836.493	579
836.586	1097
836.680	-209
836.774	-556
836.867	1693
836.961	-422
837.055	104
837.148	26
837.242	1095
837.335	303
837.429	1796
837.522	317
837.616	1372
837.709	3121
837.803	2361
837.896	1403
837.989	1146
838.083	2356
838.176	3690
838.269	2598
838.363	1553
838.456	357
838.549	2856
838.642	3539
838.735	9683
838.829	1929
838.922	7
839.015	-11
839.108	173
839.201	1143
839.294	1676
839.387	39
839.480	645
839.573	562
839.666	1686
839.759	-597
839.852	407
839.945	785
840.038	550
840.131	-507
840.223	588
840.316	404
840.409	1228
840.502	-385
840.594	1297
840.687	-870
840.780	559
840.873	133
840.965	309
841.058	1232
841.150	3989
841.243	1312
841.336	1814
841.428	356
841.521	-185
841.613	374
841.706	874
841.798	310
841.890	928
841.983	-1339
842.075	1092
842.167	520
842.260	1528
842.352	1736
842.444	2484
842.537	3467
842.629	5268
842.721	1176
842.813	593
842.905	-628
842.997	1720
843.090	1347
843.182	2223
843.274	3475
843.366	10997
843.458	20951
843.550	11230
843.642	1482
843.734	921
843.826	1031
843.918	1539
844.009	511
844.101	261
844.193	-4
844.285	1068
844.377	220
844.469	1535
844.560	2435
844.652	2621
844.744	1192
844.835	103
844.927	792
845.019	1289
845.110	1200
845.202	352
845.293	-85
845.385	5
845.476	476
845.568	900
845.659	227
845.751	1023
845.842	-455
845.934	534
846.025	-600
846.116	823
846.208	-117
846.299	-260
846.390	-273
846.482	832
846.573	1593
846.664	2050
846.755	2293
846.846	3081
846.937	-899
847.029	508
847.120	-393
847.211	-273
847.302	1808
847.393	-1236
847.484	578
847.575	794
847.666	-538
847.757	532
847.847	-133
847.938	534
848.029	321
848.120	479
848.211	533
848.302	-177
848.392	100
848.483	550
848.574	-737
848.664	-326
848.755	449
848.846	1007
848.936	17
849.027	1102
849.118	1660
849.208	1737
849.299	4206
849.389	9132
849.480	21377
849.570	44489
849.661	86488
849.751	138303
849.841	43979
849.932	6535
850.022	1891
850.112	2799
850.203	1307
850.293	1385
850.383	69
850.474	900
850.564	442
850.654	1295
850.744	501
850.834	359
850.924	785
851.014	1762
851.104	471
851.194	471
851.284	882
851.374	2141
851.464	956
851.554	1140
851.644	1342
851.734	2221
851.824	1162
851.914	980
852.004	642
852.094	-207
852.183	82
852.273	1381
852.363	940
852.452	1538
852.542	917
852.632	1479
852.721	1045
852.811	876
852.901	764
852.990	2098
853.080	1192
853.169	2503
853.259	3522
853.348	4495
853.438	5835
853.527	9069
853.617	13561
853.706	27112
853.795	50086
853.885	111899
853.974	209767
854.063	386952
854.152	525914
854.242	199152
854.331	45383
854.420	19713
854.509	12524
854.598	9790
854.687	7863
854.777	6442
854.866	3953
854.955	3712
855.044	2646
855.133	2490
855.222	1610
855.311	1754
855.400	1568
855.488	1416
855.577	1298
855.666	2094
855.755	1527
855.844	2083
855.933	693
856.021	1511
856.110	1107
856.199	84
856.288	287
856.376	214
856.465	-184
856.554	1524
856.642	-130
856.731	1603
856.819	65
856.908	218
856.996	116
857.085	124
857.173	-326
857.262	643
857.350	-222
857.438	47
857.527	-298
857.615	495
857.703	-31
857.792	196
857.880	-79
857.968	467
858.056	646
858.145	46
858.233	-472
858.321	-50
858.409	202
858.497	4
858.585	-670
858.673	-164
858.761	-763
858.849	-201
858.937	-185
859.025	312
859.113	-90
859.201	-228
859.289	838
859.377	668
859.465	25
859.552	350
859.640	-752
859.728	729
859.816	260
859.903	951
859.991	-436
860.079	758
860.166	325
860.254	-171
860.342	-532
860.429	403
860.517	-500
860.604	3
860.692	-179
860.779	-304
860.867	207
860.954	442
861.042	843
861.129	1550
861.216	-60
861.304	455
861.391	-213
861.478	441
861.565	284
861.653	1009
861.740	28
861.827	-348
861.914	381
862.001	-357
862.089	42
862.176	866
862.263	-606
862.350	-277
862.437	119
862.524	-130
862.611	-236
862.698	911
862.785	548
862.871	2134
862.958	357
863.045	-46
863.132	198
863.219	81
863.306	-579
863.392	400
863.479	-639
863.566	-77
863.652	279
863.739	-1115
863.826	548
863.912	128
863.999	30
864.086	1150
864.172	597
864.259	44
864.345	267
864.432	721
864.518	255
864.604	879
864.691	800
864.777	1297
864.863	1382
864.950	2613
865.036	2588
865.122	4361
865.209	4587
865.295	4609
865.381	5216
865.467	7425
865.553	9459
865.639	15745
865.726	26703
865.812	57528
865.898	109043
865.984	168355
866.070	308933
866.156	298737
866.242	79121
866.328	20795
866.414	9633
866.499	8649
866.585	7085
866.671	6455
866.757	5285
866.843	4794
866.928	3331
867.014	2640
867.100	3078
867.186	3776
867.271	2997
867.357	4635
867.442	3004
867.528	3462
867.614	1648
867.699	2880
867.785	3270
867.870	3157
867.956	3903
868.041	4009
868.127	3356
868.212	3985
868.297	3420
868.383	3221
868.468	4258
868.553	6137
868.639	6090
868.724	12846
868.809	10142
868.894	2546
868.979	1050
869.065	1684
869.150	827
869.235	1538
869.320	324
869.405	1612
869.490	795
869.575	1675
869.660	844
869.745	1742
869.830	1049
869.915	2136
870.000	809
870.085	1577
870.169	2331
870.254	2186
870.339	543
870.424	402
870.509	1445
870.593	1811
870.678	1275
870.763	2175
870.847	838
870.932	811
871.016	1757
871.101	1387
871.186	672
871.270	1552
871.355	865
871.439	960
871.523	1610
871.608	778
871.692	874
871.777	2415
871.861	-7
871.945	1515
872.030	1385
872.114	882
872.198	182
872.282	1234
872.367	153
872.451	1083
872.535	801
872.619	1103
872.703	41
872.787	2145
872.871	876
872.955	516
873.039	1293
873.123	1156
873.207	820
873.291	979
873.375	1226
873.459	1396
873.543	130
873.627	1142
873.711	1303
873.794	2162
873.878	280
873.962	422
874.045	673
874.129	1748
874.137	1689
874.213	1096
874.245	990
874.296	823
874.352	387
874.380	171
874.460	1116
874.464	1154
874.547	141
874.568	496
874.631	1517
874.676	861
874.714	344
874.784	1020
874.798	1142
874.881	543
874.892	541
874.965	591
874.999	759
875.048	965
875.107	973
875.131	987
875.215	643
875.215	644
875.298	988
875.323	783
875.381	441
875.430	1329
875.465	1910
875.538	935
875.548	805
875.631	294
875.646	258
875.714	125
875.753	267
875.798	377
875.861	436
875.881	475
875.964	1388
875.968	1346
876.047	619
876.076	781
876.130	1034
876.183	1103
876.213	1139
876.291	1559
876.296	1590
876.379	180
876.398	454
876.462	1350
876.506	656
876.545	51
876.613	939
876.628	1128
876.711	672
876.721	730
876.794	1170
876.828	701
876.877	45
876.935	945
876.960	1284
877.043	398
877.043	402
877.125	1700
877.150	1865
877.208	1975
877.258	1336
877.291	1036
877.365	910
877.374	867
877.456	1012
877.472	988
877.539	980
877.579	864
877.622	821
877.687	1041
877.704	1080
877.787	881
877.794	842
877.869	318
877.901	487
877.952	890
878.008	963
878.034	939
878.115	303
878.117	290
878.199	-0
878.222	321
878.282	1297
878.329	1348
878.364	1366
878.437	1571
878.447	1569
878.529	156
878.544	226
878.611	514
878.651	320
878.694	348
878.758	914
878.776	1023
878.858	727
878.865	739
878.941	766
878.972	618
879.023	445
879.078	337
879.105	302
879.185	769
879.187	778
879.269	1482
879.292	1172
879.351	430
879.399	578
879.433	534
879.506	346
879.516	350
879.598	507
879.613	492
879.680	527
879.720	714
879.762	849
879.827	420
879.844	336
879.926	1213
879.933	1238
880.007	1119
880.040	1287
880.089	1898
880.147	3252
880.171	3710
880.253	7180
880.254	7201
880.335	9229
880.360	10245
880.417	13109
880.467	19422
880.499	23564
880.574	25426
880.580	25218
880.662	7077
880.680	5569
880.744	1726
880.787	910
880.825	382
880.893	596
880.907	680
880.989	-280
881.000	-126
881.070	755
881.106	504
881.152	402
881.213	505
881.233	376
881.315	-242
881.319	-233
881.396	448
881.426	217
881.478	-287
881.532	58
881.559	206
881.639	-400
881.641	-411
881.722	524
881.745	321
881.803	-228
881.852	88
881.885	285
881.958	318
881.966	370
882.047	1054
882.064	1057
882.129	559
882.171	843
882.210	1259
882.277	1606
882.291	1638
882.372	497
882.383	354
882.454	-290
882.489	59
882.535	394
882.596	398
882.616	418
882.697	258
882.702	244
882.778	195
882.808	500
882.859	617
882.914	164
882.940	54
883.020	92
883.021	94
883.102	-58
883.127	-42
883.183	-233
883.233	-351
883.264	-225
883.339	43
883.345	33
883.426	-131
883.445	2
883.507	414
883.551	-54
883.587	-451
883.657	-241
883.668	-60
883.749	872
883.763	940
883.830	-204
883.869	-599
883.910	-593
883.975	-547
883.991	-457
884.072	-185
884.081	-120
884.152	578
884.187	755
884.233	540
884.292	213
884.314	162
884.394	-179
884.398	-179
884.475	-141
884.504	-197
884.555	-181
884.610	-52
884.636	-40
884.716	-78
884.716	-75
884.797	371
884.821	440
884.877	400
884.927	336
884.958	148
885.033	-35
885.038	-27
885.118	-200
885.139	-188
885.199	196
885.244	484
885.279	382
885.350	-96
885.359	-100
885.439	313
885.456	239
885.520	-236
885.561	-131
885.600	166
885.667	517
885.680	566
885.760	796
885.773	784
885.840	-34
885.878	-295
885.920	-234
885.984	-347
886.000	-260
886.080	375
886.089	414
886.160	550
886.195	627
886.240	472
886.300	329
886.320	285
886.400	338
886.406	322
886.480	489
886.511	636
886.560	484
886.616	-4
886.640	52
886.720	562
886.722	568
886.800	-304
886.827	-492
886.879	-110
886.932	-4
886.959	82
887.038	632
887.039	631
887.119	116
887.143	41
887.198	366
887.248	456
887.278	266
887.354	-68
887.358	-62
887.437	-126
887.459	-69
887.517	606
887.564	1040
887.596	653
887.669	-203
887.676	-190
887.755	-97
887.774	-40
887.835	-258
887.880	-386
887.914	-103
887.985	208
887.994	180
888.073	102
888.090	80
888.153	293
888.195	384
888.232	439
888.300	655
888.311	625
888.391	209
888.405	174
888.470	612
888.510	747
888.549	648
888.615	674
888.628	719
888.708	785
888.720	809
888.787	698
888.825	560
888.866	302
888.930	-3
888.945	48
889.024	298
889.035	330
889.103	138
889.140	1
889.182	85
889.245	277
889.261	190
889.340	-278
889.349	-327
889.419	175
889.454	420
889.498	347
889.559	253
889.577	277
889.656	388
889.664	401
889.735	722
889.768	876
889.814	678
889.873	412
889.978	-2
890.083	-242
890.187	-90
890.292	558
890.397	473
890.501	548
890.606	-482
890.710	389
890.815	304
890.919	-619
891.024	3
891.128	1155
891.233	432
891.337	281
891.442	97
891.546	94
891.650	454
891.755	443
891.859	854
891.963	245
892.068	242
892.172	686
892.276	-435
892.380	-156
892.484	-276
892.589	1434
892.693	591
892.797	86
892.901	-238
893.005	-314
893.109	-564
893.213	817
893.317	164
893.421	33
893.525	-353
893.629	416
893.733	-444
893.837	-706
893.941	469
894.045	1038
894.148	-478
894.252	707
894.356	79
894.460	606
894.564	-122
894.667	-214
894.771	190
894.875	-221
894.978	-801
895.082	166
895.186	566
895.289	543
895.393	550
895.496	-475
895.600	-666
895.703	-813
895.807	-434
895.910	-368
896.014	-109
896.117	471
896.221	217
896.324	384
896.427	-28
896.531	742
896.634	565
896.737	110
896.840	39
896.944	-199
897.047	-496
897.150	-611
897.253	81
897.356	632
897.460	-445
897.563	-402
897.666	8
897.769	-145
897.872	-921
897.975	23
898.078	-405
898.181	-14
898.284	-304
898.387	621
898.490	289
898.593	481
898.695	-715
898.798	-327
898.901	15
899.004	634
899.107	-363
899.209	906
899.312	-880
899.415	216
899.518	130
899.620	98
899.723	210
899.826	229
899.928	282
900.031	-404
900.133	-337
900.236	-203
900.338	-198
900.441	617
900.543	363
900.646	-74
900.748	-351
900.851	589
900.953	340
901.055	428
901.158	-380
901.260	-449
901.362	0
901.465	-1075
901.567	-348
901.669	77
901.771	-256
901.873	68
901.976	246
902.078	739
902.180	-228
902.282	-668
902.384	-760
902.486	397
902.588	-352
902.690	408
902.792	-744
902.894	-62
902.996	-234
903.098	296
903.200	-316
903.302	379
903.404	-429
903.505	-141
903.607	-112
903.709	-81
903.811	-773
903.913	95
904.014	-1019
904.116	222
904.218	-631
904.319	197
904.421	-514
904.523	720
904.624	-11
904.726	-149
904.827	-524
904.929	-392
905.030	-157
905.132	162
905.233	-210
905.335	-94
905.436	182
905.537	707
905.639	19
905.740	485
905.841	75
905.943	200
906.044	-312
906.145	935
906.247	-228
906.348	563
906.449	254
906.550	-4
906.651	272
906.752	-585
906.854	-246
906.955	-641
907.056	-44
907.157	-47
907.258	36
907.359	-402
907.460	-516
907.561	-675
907.662	-688
907.762	31
907.863	-1125
907.964	123
908.065	130
908.166	-197
908.267	293
908.367	398
908.468	304
908.569	-89
908.670	79
908.770	200
908.871	291
908.971	665
909.072	-484
909.173	1
909.273	-445
909.374	419
909.474	-335
909.575	-210
909.675	-713
909.776	303
909.876	-758
909.977	53
910.077	604
910.177	-305
910.278	-91
910.378	276
910.478	-244
910.579	-142
910.679	-779
910.779	-2
910.879	-679
910.980	-322
911.080	12
911.180	870
911.280	-278
911.380	322
911.480	-462
911.580	-681
911.680	856
911.780	851
911.880	-188
911.980	-50
912.080	10
912.180	902
912.280	-493
912.380	89
912.480	-226
912.580	406
912.679	-597
912.779	115
912.879	209
912.979	414
913.078	-455
913.178	-123
913.278	-276
913.377	263
913.477	-312
913.577	-958
913.676	276
913.776	45
913.875	40
913.975	147
914.074	-105
914.174	8
914.273	-891
914.373	1048
914.472	-21
914.572	-369
914.671	-598
914.770	-133
914.870	418
914.969	-73
915.068	-875
915.167	-265
915.267	-448
915.366	-202
915.465	-732
915.564	332
915.663	-843
915.763	-224
915.862	17
915.961	-135
916.060	-662
916.159	55
916.258	-252
916.357	-430
916.456	522
916.555	-7
916.654	-1145
916.752	104
916.851	-304
916.950	-374
917.049	-89
917.148	-133
917.247	296
917.345	45
917.444	-753
917.543	501
917.642	-447
917.740	150
917.839	119
917.937	488
918.036	41
918.135	-92
918.233	-156
918.332	388
918.430	-113
918.529	-790
918.627	-329
918.726	225
918.824	-327
918.923	258
919.021	-1029
919.119	-85
919.218	-823
919.316	941
919.414	28
919.512	-382
919.611	-120
919.709	-105
919.807	-1188
919.905	-193
920.003	-284
920.102	387
920.200	-235
920.298	201
920.396	-956
920.494	-119
920.592	-783
920.690	612
920.788	231
920.886	124
920.984	-1043
921.082	71
921.180	630
921.277	264
921.375	671
921.473	26
921.571	463
921.669	-63
921.766	-117
921.864	429
921.962	-254
922.060	175
922.157	-235
922.255	529
922.352	-488
922.450	-225
922.548	193
922.645	346
922.743	314
922.840	898
922.938	1056
923.035	1275
923.133	809
923.230	1262
923.327	1790
923.425	2547
923.522	1728
923.619	1642
923.717	87
923.814	1504
923.911	629
924.008	1550
924.106	405
924.203	958
924.300	494
924.397	531
924.494	1317
924.591	1462
924.688	220
924.786	1122
924.883	1327
924.979	697
925.077	872
925.173	855
925.270	311
925.367	1452
925.464	721
925.561	1500
925.658	1252
925.755	1742
925.852	1146
925.948	1348
926.045	965
926.142	1715
926.239	2069
926.335	1675
926.432	1010
926.529	1300
926.625	1027
926.722	750
926.818	779
926.915	935
927.011	343
927.108	715
927.204	1084
927.301	1512
927.397	1126
927.494	848
927.590	262
927.687	843
927.783	1100
927.879	1039
927.976	558
928.072	138
928.168	985
928.264	1021
928.361	-199
928.457	862
928.553	-27
928.649	-125
928.745	168
928.841	972
928.937	487
929.033	548
929.129	489
929.225	292
929.321	1157
929.417	461
929.513	-471
929.609	-300
929.705	-288
929.801	239
929.897	-136
929.993	665
930.089	81
930.184	-50
930.280	298
930.376	637
930.471	251
930.567	507
930.663	736
930.758	968
930.854	-364
930.950	399
931.045	60
931.141	950
931.236	621
931.332	365
931.427	-1089
931.523	484
931.618	405
931.714	-39
931.809	11
931.905	440
932.000	530
932.095	-273
932.191	250
932.286	-136
932.381	-157
932.476	-706
932.572	-345
932.667	-563
932.762	75
932.857	445
932.952	-11
933.047	517
933.142	-776
933.237	20
933.332	-128
933.427	717
933.522	-171
933.617	-49
933.712	-306
933.807	280
933.902	-113
933.997	243
934.092	-299
934.187	334
934.282	-340
934.376	-808
934.471	-6
934.566	52
934.661	-117
934.755	574
934.850	459
934.945	590
935.039	-256
935.134	476
935.228	-615
935.323	901
935.417	617
935.512	-35
935.606	-745
935.701	675
935.795	55
935.890	-97
935.984	-258
936.079	17
936.173	693
936.267	-709
936.362	-845
936.456	13
936.550	46
936.644	-28
936.738	-155
936.833	120
936.927	-529
937.021	45
937.115	-860
937.209	-355
937.303	407
937.397	-491
937.491	-341
937.585	448
937.679	308
937.773	-94
937.867	-942
937.961	36
938.055	-275
938.149	444
938.243	-822
938.337	-161
938.430	-1356
938.524	380
938.618	-381
938.712	943
938.805	222
938.899	650
938.993	97
939.086	532
939.180	444
939.274	1144
939.367	524
939.461	361
939.554	-278
939.648	-79
939.741	-687
939.835	197
939.928	160
940.022	114
940.115	-483
940.208	1262
940.302	-26
940.395	228
940.488	-1106
940.582	468
940.675	-1756
940.768	-403
940.861	-274
940.954	1005
941.048	-528
941.141	40
941.234	-162
941.327	445
941.420	1472
941.513	-43
941.606	-290
941.699	327
941.792	-52
941.885	-239
941.978	561
942.071	-333
942.164	-1132
942.257	60
942.349	184
942.442	-37
942.535	-342
942.628	288
942.721	-340
942.813	-689
942.906	770
942.999	-493
943.091	-963
943.184	-128
943.277	-805
943.369	221
943.462	-474
943.554	-535
943.647	-145
943.739	-209
943.832	147
943.924	-865
944.017	-382
944.109	-1147
944.201	-785
944.294	463
944.386	-265
944.478	-857
944.571	-634
944.663	482
944.755	-525
944.847	191
944.940	-190
945.032	-565
945.124	-724
945.216	496
945.308	-1170
945.400	160
945.492	-260
945.584	646
945.676	-778
945.768	-89
945.860	88
945.952	196
946.044	265
946.136	-92
946.228	-882
946.320	-1251
946.412	-448
946.503	-550
946.595	137
946.687	-691
946.779	-808
946.870	-239
946.962	-774
947.054	274
947.145	-395
947.237	-80
947.329	-165
947.420	-52
947.512	-402
947.603	-186
947.695	-1180
947.786	-827
947.878	-944
947.969	394
948.061	-1358
948.152	-682
948.243	-520
948.335	-400
948.426	-828
948.517	-178
948.609	-502
948.700	-267
948.791	-2284
948.882	-294
948.973	-1115
949.065	-862
949.156	-388
949.247	-194
949.338	-15
949.429	-331
949.520	-552
949.611	-791
949.702	-256
949.793	405
949.884	-404
949.975	276
950.066	-1099
950.157	-288
950.247	-94
950.338	-370
950.429	-1368
950.520	-172
950.611	-484
950.701	-661
950.792	-1080
950.883	230
950.973	-806
951.064	-416
951.155	-24
951.245	-333
951.336	-803
951.427	-363
951.517	664
951.608	390
951.698	-751
951.788	5
951.879	-1399
951.969	-22
952.060	-842
952.150	-332
952.240	-518
952.331	-2153
952.421	240
952.511	-1534
952.602	-766
952.692	-1227
952.782	-176
952.872	-1238
952.962	-631
953.052	564
953.143	-1746
953.233	57
953.323	-325
953.413	-1003
953.503	433
953.593	-275
953.683	-914
953.773	-2035
953.863	-1277
953.953	-139
954.042	-285
954.132	-27
954.222	-258
954.312	-1063
954.402	-234
954.492	124
954.581	-525
954.671	-1141
954.761	-2390
954.850	808
954.940	-300
955.030	156
955.119	-1036
955.209	-480
955.298	-971
955.388	175
955.477	36
955.567	-934
955.656	-767
955.746	-424
955.835	-1314
955.925	-1005
956.014	-574
956.103	-478
956.193	-461
956.282	94
956.371	-553
956.461	-654
956.550	-958
956.639	-871
956.728	-1590
956.817	233
956.906	-609
956.995	370
957.085	-1070
957.174	-440
957.263	-1141
957.352	-151
957.441	-926
957.530	-49
957.619	-258
957.708	104
957.796	-1218
957.885	46
957.974	-698
958.063	-318
958.152	-1334
958.241	-100
958.329	-1423
958.418	-1025
958.507	-1588
958.596	28
958.684	-1770
958.773	-475
958.861	-1084
958.950	-1006
959.039	-749
959.127	-693
959.216	-821
959.304	-1101
959.393	-806
959.481	-1194
959.570	-1357
959.658	-664
959.746	-691
959.835	564
959.923	-1198
960.011	-1148
960.100	-490
960.188	-908
960.276	-833
960.365	-959
960.453	-1130
960.541	-1103
960.629	-1323
960.717	-1033
960.805	-1426
960.893	-536
960.981	-1474
961.069	557
961.158	-1013
961.245	-522
961.333	-519
961.421	33
961.509	-1180
961.597	-736
961.685	-1057
961.773	-973
961.861	-980
961.949	-621
962.036	-1810
962.124	570
962.212	-1103
962.299	-809
962.387	-1984
962.475	-250
962.562	-1636
962.650	-933
962.738	-887
962.825	-621
962.913	-793
963.000	-597
963.088	-1077
963.175	-1664
963.263	-1036
963.350	-988
963.438	-1856
963.525	-1075
963.612	-520
963.700	-537
963.787	1918
963.874	-206
963.962	-807
964.049	-1512
964.136	-1834
964.223	-1287
964.310	-860
964.398	-521
964.485	-1597
964.572	-185
964.659	-385
964.746	-377
964.833	-1222
964.920	-390
965.007	-1662
965.094	-205
965.181	-1307
965.268	-1095
965.355	-548
965.441	-1113
965.528	-2584
965.615	521
965.702	-923
965.789	-444
965.875	-1128
965.962	-1256
966.049	-1236
966.136	-1084
966.222	-1396
966.309	83
966.395	-1102
966.482	-781
966.569	-1034
966.655	-484
966.742	-2451
966.828	-679
966.915	-1571
967.001	-1169
967.087	-1607
967.174	-1175
967.260	-813
967.347	-1088
967.433	-965
967.519	415
967.605	-1528
967.692	-454
967.778	-893
967.864	-1289
967.950	-1264
968.036	-1918
968.123	-1698
968.209	-1143
968.295	-2350
968.381	931
968.467	-233
968.553	-1490
968.639	-1456
968.725	-1105
968.811	-941
968.897	80
968.983	-1776
969.069	-1116
969.154	-1180
969.240	-267
969.326	-2124
969.412	-1118
969.497	-1478
969.583	-1179
969.669	-948
969.755	-339
969.840	-1884
969.926	-393
970.012	-1375
970.097	-41
970.183	-1146
970.268	-1433
970.354	-492
970.439	-1524
970.525	-685
970.610	-1826
970.696	-1047
970.781	-918
970.866	-2255
970.952	-931
971.037	-1334
971.122	-1099
971.208	-752
971.293	-1484
971.378	-2417
971.463	-1303
971.549	-914
971.634	-2333
971.719	-1377
971.804	-1337
971.889	-1312
971.974	-1901
972.059	-1911
972.144	-1052
972.229	-1213
972.314	-1590
972.399	-1106
972.484	-1470
972.569	-1425
972.654	-2381
972.739	-761
972.824	-1006
972.908	-1950
972.993	-896
973.078	-1649
973.163	-1340
973.247	-1202
973.332	-2387
973.417	-672
973.501	-1856
973.586	-1630
973.671	-943
973.755	-1837
973.840	-928
973.924	-1120
974.009	-1186
974.093	-1726
974.178	-645
974.262	-1286
974.346	-849
974.431	-1671
974.515	-1373
974.600	-2039
974.684	-1113
974.768	-1437
974.852	-399
974.937	-2727
975.021	-1292
975.105	-1540
975.189	-1678
975.273	-626
975.358	-1784
975.442	-2163
975.526	-485
975.610	-1883
975.694	-1722
975.778	-585
975.862	-1809
975.946	-3576
976.030	555
976.114	-2290
976.198	-1167
976.281	-1344
976.365	-647
976.449	-974
976.533	-398
976.617	-2106
976.700	-1302
976.784	-1648
976.868	-1513
976.951	-1499
977.035	-1351
977.119	-1984
977.202	-1240
977.286	-1007
977.369	-707
977.453	-1321
977.536	-1169
977.620	-2676
977.703	-1490
977.787	-2398
977.870	-940
977.953	-255
978.037	-2531
978.120	-833
978.203	-1511
978.287	-785
978.370	-1114
978.453	-1951
978.536	-1234
978.620	-1778
978.703	-1321
978.786	-2079
978.869	-2075
978.952	-2377
979.035	-165
979.118	-2116
979.201	-2285
979.284	-1679
979.367	-1928
979.450	-843
979.533	-1465
979.616	-1497
979.699	-1856
979.782	-1561
979.865	-1825
979.948	-1965
980.030	-1776
980.113	-1332
980.196	-1809
980.279	-1362
980.361	-1181
980.444	-1406
980.526	-1058
980.609	-1485
980.692	-841
980.774	-1202
980.857	-1640
980.939	-575
981.022	-1360
981.104	-1874
981.187	-1522
981.269	-1430
981.352	-1002
981.434	-2417
981.516	-1377
981.599	-672
981.681	-1296
981.763	-1091
981.846	-1399
981.928	-1305
982.010	-2140
982.092	-2562
982.174	-971
982.256	-1881
982.339	-1200
982.421	-2168
982.503	-1189
982.585	-2276
982.667	-1061
982.749	-2038
982.831	-1560
982.913	-2236
982.995	-661
983.077	-1780
983.158	-730
983.240	-1901
983.322	-1329
983.404	-728
983.486	-1539
983.568	-1372
983.649	-1551
983.731	-1389
983.813	-1405
983.894	-1331
983.976	-1578
984.058	-2387
984.139	-264
984.221	-2713
984.302	-482
984.384	-1956
984.465	-1881
984.547	-1567
984.628	-1440
984.710	-1031
984.791	-1335
984.872	-884
984.954	-1256
985.035	-814
985.116	-1181
985.198	-1786
985.279	-10
985.360	-2321
985.441	-1397
985.522	-654
985.604	-1513
985.685	-3002
985.766	215
985.847	-232
985.928	-2279
986.009	-2297
986.090	-1517
986.171	-738
986.252	-1400
986.333	-1771
986.414	-1028
986.495	-1024
986.576	-1430
986.656	-1172
986.737	-1117
986.818	-1099
986.899	-1127
986.980	-2426
987.060	-422
987.141	-1982
987.222	-1257
987.302	-1572
987.383	-804
987.464	-1879
987.544	-721
987.625	-1697
987.705	-513
987.786	-1314
987.866	-1161
987.947	-1215
988.027	-1101
988.108	-2332
988.188	-1452
988.268	-1768
988.349	-2021
988.429	-1618
988.509	-143
988.589	-2121
988.670	-2073
988.750	-545
988.830	-1403
988.910	-1107
988.990	-389
989.070	-1404
989.151	-432
989.231	-1814
989.311	-213
989.391	-1177
989.471	-1182
989.551	-2169
989.631	-1732
989.711	-300
989.791	-1551
989.870	-2443
989.950	-681
990.030	-2319
990.110	-1575
990.190	-2166
990.269	-791
990.349	-1970
990.429	-1261
990.509	-1052
990.588	-772
990.668	-1952
990.747	-1458
990.827	-1593
990.907	-1409
990.986	-1781
991.066	-1349
991.145	-2093
991.225	-1690
991.304	-1094
991.383	-797
991.463	-1388
991.542	-1074
991.622	-1381
991.701	-1511
991.780	-2024
991.859	-1678
991.939	-2337
992.018	-972
992.097	-1491
992.176	-1397
992.256	-1483
992.335	-2168
992.414	-1147
992.493	-2048
992.572	-1717
992.651	-745
992.730	-1515
992.809	-1220
992.888	-2000
992.967	-1543
993.046	-1209
993.125	-2188
993.203	-1828
993.282	-1506
993.361	-1514
993.440	-837
993.519	-2220
993.597	-1071
993.676	-2108
993.755	-1252
993.834	-1499
993.912	-2918
993.991	-1339
994.069	-2229
994.148	-2188
994.226	-1857
994.305	-2047
994.384	-1988
994.462	-433
994.540	-1707
994.619	-1917
994.697	-1254
994.776	-1479
994.854	-368
994.932	-2773
995.011	-1275
995.089	-1528
995.167	-1239
995.245	-2038
995.324	-2297
995.402	-1481
995.480	-2404
995.558	-1388
995.636	-1644
995.714	-1967
995.792	-412
995.870	-2488
995.948	-1872
996.026	-1664
996.104	-2502
996.182	-1082
996.260	-1598
996.338	-1897
996.416	-2231
996.494	-2232
996.572	-1063
996.649	-2399
996.727	-1868
996.805	-1790
996.883	-1804
996.960	-1459
997.038	-1639
997.116	-2006
997.193	-2408
997.271	-1355
997.348	-2081
997.426	-1267
997.504	-2312
997.581	-1918
997.658	-677
997.736	-2636
997.813	-2060
997.891	-714
997.968	-2088
998.046	-2013
998.123	-1339
998.200	-1758
998.277	-1684
998.355	-1218
998.432	-2942
998.509	-2395
998.586	-1441
998.663	-1285
998.741	-1251
998.818	-2768
998.895	-2051
998.972	-1436
999.049	-1703
999.126	-1759
999.203	-1045
999.280	-1281
999.357	-2338
999.434	-2030
999.511	-994
999.587	-1113
999.664	-1070
999.741	-1731
999.818	-1073
999.895	-2204
999.971	-1301
1000.048	-2141
1000.125	-342
1000.202	-1989
1000.278	-1703
1000.355	-1495
1000.431	-1830
1000.508	-1915
1000.584	-1814
1000.661	-2015
1000.738	-1567
1000.814	-1830
1000.890	-1613
1000.967	-2076
1001.043	-1861
1001.120	-2297
1001.196	-977
1001.272	-2759
1001.349	-1676
1001.425	-1395
1001.501	-1602
1001.577	-2164
1001.654	-954
1001.730	-2854
1001.806	-2736
1001.882	-3050
1001.958	-1258
1002.034	-1239
1002.110	-1371
1002.186	-2732
1002.262	-1405
1002.338	-1753
1002.414	-1034
1002.490	-2416
1002.566	-2088
1002.642	-1989
1002.718	-915
1002.794	-1862
1002.870	-2115
1002.945	-1868
1003.021	-1539
1003.097	-1978
1003.173	-1185
1003.248	-2282
1003.324	-1295
1003.400	-2254
1003.475	-2148
1003.551	-1470
1003.626	-1854
1003.702	-1779
1003.777	-1399
1003.853	-2532
1003.928	-2270
1004.004	-1430
1004.079	-1324
1004.155	-2435
1004.230	-3063
1004.305	-1609
1004.381	-1705
1004.456	-1600
1004.531	-1518
1004.607	-1339
1004.682	-2071
1004.757	-2069
1004.832	-1419
1004.907	-2419
1004.982	-911
1005.057	-1881
1005.133	-1714
1005.208	-1485
1005.283	-2600
1005.358	-1397
1005.433	-2101
1005.508	-1850
1005.583	-2561
1005.657	-2433
1005.732	-1030
1005.807	-1993
1005.882	-1645
1005.957	-1763
1006.032	-1532
1006.106	-1633
1006.181	-1719
1006.256	-2602
1006.331	-2117
1006.405	-2153
1006.480	-1568
1006.554	-2352
1006.629	-2218
1006.704	-1444
1006.778	-1991
1006.853	-1768
1006.927	-1091
1007.002	-2641
1007.076	-1478
1007.150	-2336
1007.225	-1378
1007.299	-298
1007.373	-2290
1007.448	-1880
1007.522	-922
1007.596	-2095
1007.671	-2127
1007.745	-1606
1007.819	-2272
1007.893	-2068
1007.967	-1560
1008.041	-2632
1008.115	-902
1008.190	-2687
1008.264	-1653
1008.338	-3016
1008.412	-2111
1008.486	-2088
1008.560	-1429
1008.633	-2386
1008.707	-1338
1008.781	-1663
1008.855	-1343
1008.929	-1772
1009.003	-2082
1009.076	-2334
1009.150	-1426
1009.224	-1997
1009.298	-1599
1009.371	-2814
1009.445	-1495
1009.519	-2317
1009.592	-2196
1009.666	-1896
1009.739	-2024
1009.813	-3191
1009.886	-1061
1009.960	-2530
1010.033	-1742
1010.107	-1463
1010.180	-2501
1010.253	-1871
1010.327	-2224
1010.400	-1662
1010.473	-1991
1010.547	-1658
1010.620	-2639
1010.693	-1145
1010.766	-1462
1010.840	-1851
1010.913	-971
1010.986	-2592
1011.059	-1704
1011.132	-1710
1011.205	-1320
1011.278	-2303
1011.351	-1275
1011.424	-2205
1011.497	-1611
1011.570	-2392
1011.643	-2475
1011.716	-2706
1011.789	-1311
1011.862	-1449
1011.934	-1215
1012.007	-2559
1012.080	-1004
1012.153	-2528
1012.225	-515
1012.298	-2550
1012.371	-1802
1012.443	-1282
1012.516	-2164
1012.588	-1876
1012.661	-1703
1012.733	-2389
1012.806	-1240
1012.879	-2649
1012.951	-1997
1013.023	-2469
1013.096	-1154
1013.168	-1849
1013.241	-1236
1013.313	-1977
1013.385	-1927
1013.458	-2188
1013.530	-1001
1013.602	-2084
1013.674	-1045
1013.746	-2409
1013.819	-2128
1013.891	-1108
1013.963	-1710
1014.035	-2091
1014.107	-648
1014.179	-2442
1014.251	-1863
1014.323	-2009
1014.395	-1824
1014.467	-1702
1014.539	-1748
1014.611	-1969
1014.683	-2209
1014.754	-1670
1014.826	-1893
1014.898	-1529
1014.970	-3166
1015.042	-1134
1015.113	-1118
1015.185	-1905
1015.257	-2197
1015.328	-2318
1015.400	-2128
1015.471	-2067
1015.543	-2051
1015.615	-1217
1015.686	-1576
1015.757	-2112
1015.829	-2084
1015.901	-1871
1015.972	-1400
1016.043	-2297
1016.115	-1915
1016.186	-2221
1016.257	-1371
1016.328	-2126
1016.400	-1382
1016.471	-2500
1016.542	-840
1016.613	-2305
1016.685	-2217
1016.756	-1141
1016.827	-2191
1016.898	-2278
1016.969	-1451
1017.040	-1948
1017.111	-1527
1017.182	-2723
1017.253	-2133
1017.324	-2499
1017.395	-1703
1017.466	-2003
1017.537	-2172
1017.608	-1973
1017.678	-2012
1017.749	-1983
1017.820	-2048
1017.891	-2335
1017.961	-2597
1018.032	-2611
1018.103	-2240
1018.173	-1633
1018.244	-2317
1018.315	-2075
1018.385	-1268
1018.456	-2411
1018.526	-2676
1018.597	-1917
1018.667	-1641
1018.738	-2812
1018.808	-1571
1018.878	-2186
1018.949	-1594
1019.019	-1314
1019.089	-1399
1019.160	-1606
1019.230	-2523
1019.300	-2011
1019.371	-3025
1019.441	-1401
1019.511	-1970
1019.581	-1563
1019.651	-1293
1019.721	-2374
1019.791	-2240
1019.861	-1685
1019.931	-1435
1020.001	-2786
1020.071	-1181
1020.141	-2003
1020.211	-1880
1020.281	-2654
1020.351	-1510
1020.421	-2741
1020.491	-1730
1020.560	-2343
1020.630	-1165
1020.700	-1328
1020.770	-2507
1020.839	-2216
1020.909	-1767
1020.979	-2062
1021.048	-1781
1021.118	-2598
1021.187	-1570
1021.257	-1460
1021.326	-1581
1021.396	-2200
1021.465	-1175
1021.535	-2602
1021.604	-2276
1021.674	-2120
1021.743	-1082
1021.812	-2879
1021.882	-1859
1021.951	-2413
1022.020	-2294
1022.089	-2237
1022.159	-1688
1022.228	-1386
1022.297	-1596
1022.366	-1453
1022.435	-1695
1022.504	-1919
1022.573	-2279
1022.642	-1855
1022.711	-1534
1022.781	-2255
1022.849	-1979
1022.918	-2602
1022.987	-1457
1023.056	-2475
1023.125	-2126
1023.194	-2813
1023.263	-1614
1023.331	-1949
1023.400	-1853
1023.469	-3057
1023.538	-1239
1023.606	-3092
1023.675	-1491
1023.744	-2560
1023.812	-1903
1023.881	-1925
1023.949	-1465
1024.018	-1323
1024.086	-2080
1024.155	-2224
1024.223	-2253
1024.292	-2638
1024.360	-2190
1024.429	-1862
1024.497	-2576
1024.565	-2562
1024.634	-2544
1024.702	-2218
1024.770	-2105
1024.838	-2099
1024.907	-2448
1024.975	-2231
1025.043	-1788
1025.111	-2369
1025.179	-1822
1025.247	-1789
1025.315	-2159
1025.383	-2554
1025.451	-995
1025.519	-2394
1025.587	-1939
1025.655	-1525
1025.723	-2832
1025.791	-2076
1025.859	-2490
1025.927	-2185
1025.995	-2060
1026.062	-1794
1026.130	-2334
1026.198	-2148
1026.266	-2803
1026.333	-2053
1026.401	-1546
1026.469	-1928
1026.536	-2307
1026.604	-2731
1026.671	-1955
1026.739	-2101
1026.806	-1230
1026.874	-2094
1026.941	-2504
1027.009	-2745
1027.076	-2189
1027.144	-1584
1027.211	-2578
1027.278	-2009
1027.345	-1773
1027.413	-2095
1027.480	-1554
1027.547	-2210
1027.614	-2315
1027.682	-1954
1027.749	-2349
1027.816	-2399
1027.883	-1824
1027.950	-1985
1028.017	-2736
1028.084	-1021
1028.151	-2587
1028.218	-1820
1028.285	-1493
1028.352	-2239
1028.419	-1811
1028.486	-2771
1028.553	-2065
1028.619	-3176
1028.686	-1663
1028.753	-2398
1028.820	-2685
1028.886	-2767
1028.953	-1871
1029.020	-1895
1029.086	-2334
1029.153	-1808
1029.220	-1635
1029.286	-2454
1029.353	-1398
1029.419	-2638
1029.486	-2057
1029.552	-2861
1029.619	-1956
1029.685	-2908
1029.751	-1814
1029.818	-2236
1029.884	-1919
1029.951	-1296
1030.017	-2682
1030.083	-2923
1030.149	-1982
1030.216	-2965
1030.282	-1637
1030.348	-2434
1030.414	-3013
1030.480	-1780
1030.546	-1857
1030.612	-1743
1030.678	-1970
1030.744	-2696
1030.810	-1604
1030.876	-2315
1030.942	-1679
1031.008	-2759
1031.074	-1754
1031.140	-2265
1031.206	-1407
1031.272	-2972
1031.337	-2007
1031.403	-1540
1031.469	-1374
1031.534	-2204
1031.600	-1452
1031.666	-2057
1031.731	-3162
1031.797	-2188
1031.863	-1980
1031.928	-2527
1031.994	-2683
1032.059	-2386
1032.125	-2050
1032.190	-2245
1032.256	-2713
1032.321	-3433
1032.386	-1809
1032.452	-2573
1032.517	-1901
1032.582	-2800
1032.647	-1720
1032.713	-2450
1032.778	-2198
1032.843	-1869
1032.908	-1696
1032.974	-2905
1033.039	-2128
1033.104	-2391
1033.169	-2578
1033.234	-2546
1033.299	-2271
1033.364	-2067
1033.429	-1699
1033.494	-1636
1033.559	-2233
1033.624	-1880
1033.688	-1933
1033.753	-2965
1033.818	-2056
1033.883	-2272
1033.948	-1538
1034.013	-2207
1034.077	-1685
1034.142	-1081
1034.207	-1678
1034.271	-1649
1034.336	-694
1034.400	-2057
1034.465	-979
1034.530	-1759
1034.594	-2095
1034.658	-1812
1034.723	-2680
1034.787	-2505
1034.852	-2421
1034.916	-2659
1034.981	-2812
1035.045	-1791
1035.109	-1811
1035.173	-1506
1035.238	-2072
1035.302	-1579
1035.366	-2513
1035.430	-2265
1035.495	-2209
1035.559	-1289
1035.623	-2013
1035.687	-2664
1035.751	-1933
1035.815	-2219
1035.879	-1108
1035.943	-2263
1036.007	-1654
1036.071	-3327
1036.135	-2139
1036.198	-2086
1036.262	-2383
1036.326	-1745
1036.390	-1411
1036.454	-2104
1036.517	-2250
1036.581	-1272
1036.645	-1699
1036.709	-1748
1036.772	-2533
1036.836	-2635
1036.900	-2040
1036.963	-2840
1037.026	-1928
1037.090	-2507
1037.154	-2230
1037.217	-3376
1037.280	-2242
1037.344	-1680
1037.407	-2149
1037.471	-2421
1037.534	-2688
1037.597	-2018
1037.661	-1878
1037.724	-2998
1037.787	-1631
1037.850	-2505
1037.913	-2365
1037.977	-1795
1038.040	-2079
1038.103	-2788
1038.166	-1921
1038.229	-1982
1038.292	-2008
1038.355	-2315
1038.418	-2193
1038.481	-2805
1038.544	-2392
1038.607	-2930
1038.670	-2375
1038.732	-2366
1038.795	-3111
1038.858	-2905
1038.921	-1538
1038.984	-2245
1039.046	-2035
1039.109	-2666
1039.172	-2073
1039.234	-3175
1039.297	-1375
1039.360	-2072
1039.422	-2126
1039.485	-2915
1039.547	-1874
1039.610	-2717
1039.672	-1846
1039.734	-2416
1039.797	-2279
1039.859	-2891
1039.922	-1787
1039.984	-2267
1040.046	-2170
1040.109	-2546
1040.171	-2267
1040.233	-2036
1040.295	-2256
1040.358	-2696
1040.420	-1714
1040.482	-2080
1040.544	-2240
1040.606	-1934
1040.668	-2793
1040.730	-2839
1040.792	-2899
1040.854	-1880
1040.916	-2366
1040.978	-3077
1041.040	-1511
1041.102	-2452
1041.164	-2510
1041.225	-1835
1041.287	-2963
1041.349	-2716
1041.411	-2087
1041.472	-2767
1041.534	-1634
1041.596	-2224
1041.657	-1340
1041.719	-2785
1041.781	-1812
1041.842	-2228
1041.904	-1846
1041.965	-3418
1042.027	-2345
1042.088	-1725
1042.150	-1427
1042.211	-2343
1042.272	-2007
1042.334	-2494
1042.395	-2733
1042.456	-2658
1042.518	-2371
1042.579	-2666
1042.640	-2107
1042.701	-3276
1042.763	-2564
1042.824	-2604
1042.885	-3020
1042.946	-2323
1043.007	-2371
1043.068	-1859
1043.129	-1158
1043.190	-2658
1043.251	-1351
1043.312	-2778
1043.373	-2067
1043.434	-3223
1043.495	-2573
1043.556	-1842
1043.616	-2036
1043.677	-2207
1043.738	-2286
1043.799	-2287
1043.859	-2203
1043.920	-2197
1043.981	-2557
1044.041	-1633
1044.102	-1644
1044.162	-2409
1044.223	-2480
1044.284	-2547
1044.344	-2129
1044.405	-2413
1044.465	-2263
1044.525	-2769
1044.586	-1204
1044.646	-1840
1044.707	-1831
1044.767	-2798
1044.827	-1967
1044.887	-2093
1044.948	-2369
1045.008	-2886
1045.068	-2146
1045.128	-1353
1045.188	-1650
1045.249	-1549
1045.309	-1516
1045.369	-2310
1045.429	-2505
1045.489	-2672
1045.549	-1959
1045.609	-2181
1045.669	-1952
1045.729	-3029
1045.789	-2270
1045.848	-2108
1045.908	-1985
1045.968	-1905
1046.028	-1324
1046.088	-2080
1046.147	-1915
1046.207	-2674
1046.267	-1893
1046.326	-2657
1046.386	-1939
1046.446	-1570
1046.505	-1256
1046.565	-1643
1046.624	-1337
1046.684	-1692
1046.743	-328
1046.803	-612
1046.862	-731
1046.922	0
