'Start Wavelength	183.907
'End Wavelength	1046.922
'Gate Delay	5.000
'Gate Width (ms)	1.050
'Laser Output Level	0.000
'X Position	0.000
'Y Position	0.000
'Z Position	0.000
'Grid Point Number	1.000
'Shot Number	100.000
183.907	903.000
183.977	-142.000
184.047	154
184.116	-178
184.186	666
184.256	918
184.325	292
184.395	-343
184.465	1134
184.534	151
184.604	-229
184.674	542
184.743	181
184.813	794
184.883	-113
184.952	-88
185.022	1161
185.092	430
185.161	701
185.231	-159
185.301	336
185.370	720
185.440	-317
185.509	138
185.579	202
185.649	476
185.718	290
185.788	171
185.857	670
185.927	304
185.996	132
186.066	-602
186.136	-102
186.205	-89
186.275	940
186.344	-48
186.414	37
186.483	-558
186.553	863
186.622	2068
186.692	743
186.761	107
186.831	788
186.900	-12
186.970	260
187.039	799
187.109	1200
187.178	306
187.248	700
187.317	570
187.387	120
187.456	593
187.526	1347
187.595	529
187.664	496
187.734	440
187.803	1232
187.873	599
187.942	1092
188.012	265
188.081	85
188.150	1010
188.220	1973
188.289	823
188.358	1034
188.428	748
188.497	901
188.567	660
188.636	932
188.705	-141
188.775	1173
188.844	537
188.913	1080
188.983	622
189.052	973
189.121	128
189.191	899
189.260	1124
189.329	2221
189.399	590
189.468	1236
189.537	716
189.606	760
189.676	925
189.745	1166
189.814	989
189.883	1074
189.953	222
190.022	1804
190.091	4153
190.161	5798
190.230	1365
190.299	1311
190.368	506
190.437	599
190.507	722
190.576	96
190.645	565
190.714	545
190.783	662
190.853	1651
190.922	650
190.991	764
191.060	1246
191.129	218
191.198	628
191.268	554
191.337	40
191.406	1013
191.475	673
191.544	1463
191.613	356
191.682	444
191.752	712
191.821	448
191.890	921
191.959	1368
192.028	110
192.097	1580
192.166	625
192.235	-85
192.304	-457
192.373	672
192.442	872
192.511	646
192.580	558
192.650	1222
192.719	393
192.788	740
192.857	129
192.926	881
192.995	1126
193.064	881
193.133	1928
193.202	2871
193.271	2088
193.340	2314
193.409	2270
193.478	2518
193.547	2609
193.615	4315
193.684	3564
193.753	3061
193.822	2154
193.891	1071
193.960	1404
194.029	1083
194.098	1865
194.167	742
194.236	1140
194.305	182
194.374	682
194.443	426
194.512	1677
194.580	1778
194.649	1730
194.718	2133
194.787	874
194.856	584
194.925	656
194.994	1278
195.062	1500
195.131	1653
195.200	1517
195.269	2870
195.338	890
195.407	1465
195.475	802
195.544	1673
195.613	1519
195.682	1920
195.751	1882
195.819	2599
195.888	1517
195.957	2748
196.026	2122
196.094	2596
196.163	2101
196.232	2758
196.301	1191
196.369	2246
196.438	1478
196.507	1772
196.576	275
196.644	1259
196.713	1132
196.782	1532
196.850	1978
196.919	1718
196.988	1115
197.056	1017
197.125	1463
197.194	1660
197.262	1006
197.331	1484
197.400	802
197.468	1144
197.537	528
197.606	947
197.674	2678
197.743	5450
197.812	2158
197.880	4687
197.949	3185
198.017	5479
198.086	3656
198.155	2141
198.223	2419
198.292	5449
198.360	3030
198.429	1976
198.497	1056
198.566	3577
198.635	6696
198.703	2417
198.772	2278
198.840	5855
198.909	7399
198.977	2776
199.046	1401
199.114	2153
199.183	1907
199.251	1822
199.320	1502
199.388	1691
199.457	1054
199.525	2095
199.594	1024
199.662	1120
199.731	1641
199.799	2175
199.867	1876
199.936	2157
200.004	1770
200.073	2309
200.141	1015
200.210	1965
200.278	1126
200.346	1831
200.415	2395
200.483	3366
200.552	1641
200.620	1104
200.688	1640
200.757	1389
200.825	1216
200.893	2178
200.962	1643
201.030	1405
201.098	1272
201.167	1378
201.235	1465
201.303	1751
201.372	2035
201.440	2120
201.508	1744
201.577	2033
201.645	1937
201.713	1851
201.781	1668
201.850	2872
201.918	2075
201.986	2330
202.055	1965
202.123	2385
202.191	1103
202.259	1746
202.327	2383
202.396	1390
202.464	1823
202.532	2415
202.600	8939
202.669	6031
202.737	2353
202.805	2363
202.873	2224
202.941	2591
203.009	1962
203.078	2094
203.146	1692
203.214	1875
203.282	1104
203.350	1699
203.418	1795
203.487	2318
203.555	2118
203.623	2102
203.691	1558
203.759	1957
203.827	1391
203.895	1111
203.963	1608
204.031	1724
204.099	2144
204.168	1794
204.236	2383
204.304	2148
204.372	2598
204.440	2100
204.508	1752
204.576	1962
204.644	1718
204.712	1833
204.780	1437
204.848	1705
204.916	1741
204.984	2304
205.052	1216
205.120	2405
205.188	1671
205.256	1783
205.324	1810
205.392	1491
205.460	2088
205.528	2571
205.596	2722
205.664	2638
205.732	1494
205.799	7440
205.867	13035
205.935	3847
206.003	2539
206.071	2132
206.139	2561
206.207	2893
206.275	2210
206.343	2387
206.411	2011
206.478	2499
206.546	2468
206.614	3444
206.682	1632
206.750	2251
206.818	3298
206.885	4520
206.953	1218
207.021	2351
207.089	2532
207.157	1400
207.225	2548
207.292	1974
207.360	2806
207.428	2829
207.496	2024
207.563	2661
207.631	2161
207.699	2148
207.767	1715
207.834	1936
207.902	2639
207.970	3031
208.038	1978
208.105	2341
208.173	2952
208.241	4261
208.309	4393
208.376	3312
208.444	6478
208.512	4393
208.579	2433
208.647	3834
208.715	3588
208.782	2928
208.850	3073
208.918	3149
208.985	1793
209.053	3271
209.120	2501
209.188	2200
209.256	2949
209.323	2951
209.391	3216
209.459	4192
209.526	2891
209.594	2764
209.661	2574
209.729	3355
209.796	3065
209.864	3556
209.932	1894
209.999	3164
210.067	3484
210.134	3208
210.202	3170
210.269	5475
210.337	4078
210.404	3153
210.472	2590
210.539	3508
210.607	3393
210.674	3681
210.742	3043
210.809	2758
210.877	3635
210.944	4851
211.012	2741
211.079	4698
211.146	2963
211.214	2864
211.281	4288
211.349	5094
211.416	3522
211.484	4323
211.551	3293
211.618	3902
211.686	3655
211.753	2519
211.821	3143
211.888	3593
211.955	3092
212.023	3348
212.090	3279
212.157	3833
212.225	4426
212.292	7601
212.359	13597
212.427	34520
212.494	16864
212.561	7451
212.629	4923
212.696	4717
212.763	4359
212.831	3921
212.898	4127
212.965	3361
213.032	3486
213.100	3886
213.167	3773
213.234	5052
213.301	3942
213.369	4480
213.436	3200
213.503	4063
213.570	4445
213.638	4159
213.705	2581
213.772	3350
213.839	4423
213.906	5080
213.973	3902
214.041	3276
214.108	3266
214.175	3633
214.242	3225
214.309	3390
214.376	3619
214.444	3726
214.511	4276
214.578	4887
214.645	3733
214.712	3638
214.779	4927
214.846	3987
214.913	5053
214.980	5565
215.048	5152
215.115	6383
215.182	5675
215.249	4711
215.316	3715
215.383	4293
215.450	3075
215.517	4451
215.584	3775
215.651	3681
215.718	3614
215.785	5046
215.852	4347
215.919	5355
215.986	5029
216.053	3734
216.120	3350
216.187	4562
216.254	4223
216.321	4452
216.388	4406
216.455	5054
216.522	4116
216.589	5362
216.656	7661
216.722	9455
216.789	6653
216.856	6992
216.923	5481
216.990	5744
217.057	4861
217.124	6462
217.191	5490
217.258	7465
217.324	8621
217.391	9269
217.458	7412
217.525	6247
217.592	4844
217.659	4551
217.725	6276
217.792	7322
217.859	7783
217.926	3825
217.993	3719
218.059	4470
218.126	3078
218.193	4015
218.260	3012
218.327	3567
218.393	3489
218.460	3057
218.527	1822
218.594	3731
218.660	7141
218.727	8416
218.794	3886
218.860	4303
218.927	3516
218.994	3134
219.061	2856
219.127	4915
219.194	6834
219.261	4122
219.327	2399
219.394	3311
219.461	1782
219.527	3427
219.594	4988
219.661	4118
219.727	2281
219.794	3601
219.860	2529
219.927	3987
219.994	5228
220.060	9794
220.127	7095
220.193	5604
220.260	4450
220.326	7452
220.393	10871
220.460	13752
220.526	8690
220.593	7077
220.659	6733
220.726	7988
220.792	17043
220.859	14903
220.925	17031
220.992	23492
221.058	23812
221.125	24048
221.191	19253
221.258	8193
221.324	6024
221.391	5736
221.457	4896
221.524	4499
221.590	6387
221.657	21028
221.723	15897
221.789	13753
221.856	13174
221.922	7390
221.989	5397
222.055	3658
222.121	2696
222.188	6130
222.254	5231
222.321	3040
222.387	2460
222.453	3729
222.520	2890
222.586	3065
222.652	3284
222.719	2901
222.785	3501
222.851	2213
222.918	3000
222.984	3257
223.050	3548
223.116	2838
223.183	3673
223.249	3526
223.315	2201
223.382	2757
223.448	2049
223.514	2068
223.580	2397
223.647	2917
223.713	2698
223.779	2296
223.845	2911
223.911	3324
223.978	1941
224.044	2907
224.110	1790
224.176	3143
224.242	3239
224.309	2141
224.375	1872
224.441	2398
224.507	2150
224.573	2314
224.639	2287
224.705	2232
224.772	2054
224.838	1816
224.904	3392
224.970	2737
225.036	2291
225.102	3062
225.168	3455
225.234	2973
225.300	3145
225.366	3398
225.432	1978
225.499	2438
225.565	3605
225.631	3492
225.697	3311
225.763	5085
225.829	4296
225.895	5611
225.961	8294
226.027	6604
226.093	5488
226.159	7524
226.225	10037
226.291	20697
226.357	36207
226.423	19615
226.489	11734
226.554	9292
226.620	7635
226.686	8606
226.752	13546
226.818	20335
226.884	46098
226.950	42565
227.016	17230
227.082	10784
227.148	7734
227.214	8182
227.279	6149
227.345	5314
227.411	4654
227.477	5694
227.543	11628
227.609	11514
227.674	7566
227.740	4733
227.806	4494
227.872	4308
227.938	4598
228.003	7069
228.069	4423
228.135	3806
228.201	3365
228.267	3246
228.332	4867
228.398	5829
228.464	4464
228.530	3708
228.595	3126
228.661	3342
228.727	6468
228.792	6550
228.858	3235
228.924	3287
228.990	6063
229.055	4384
229.121	5547
229.187	3793
229.252	4539
229.318	3742
229.384	4356
229.449	5267
229.515	1912
229.581	1578
229.646	3977
229.712	4591
229.777	8956
229.843	10432
229.909	7169
229.974	8175
230.040	7152
230.105	5750
230.171	6255
230.236	8008
230.302	12044
230.368	10019
230.433	4262
230.499	5991
230.564	5571
230.630	3770
230.695	4358
230.761	4017
230.826	3362
230.892	7036
230.957	4815
231.023	4164
231.088	4573
231.154	4201
231.219	3491
231.284	6043
231.350	6797
231.415	3647
231.481	4267
231.546	2441
231.612	3131
231.677	3814
231.742	2401
231.808	4558
231.873	3259
231.939	2505
232.004	7941
232.069	8326
232.135	4888
232.200	4406
232.265	3059
232.331	3024
232.396	2795
232.461	3110
232.527	2176
232.592	2960
232.657	4044
232.723	7382
232.788	6721
232.853	3834
232.918	2881
232.984	3048
233.049	2919
233.114	6519
233.179	7019
233.245	10315
233.310	14054
233.375	4540
233.440	3824
233.506	3099
233.571	3096
233.636	3243
233.701	2920
233.766	8434
233.832	11628
233.897	5091
233.962	3919
234.027	6209
234.092	4843
234.157	4000
234.222	4654
234.288	7734
234.353	26042
234.418	22567
234.483	13052
234.548	9302
234.613	7350
234.678	6984
234.743	6626
234.808	25167
234.873	18594
234.938	7797
235.004	5623
235.069	6173
235.134	5838
235.199	5374
235.264	4572
235.329	3797
235.394	5902
235.459	6859
235.524	6177
235.589	5583
235.654	4758
235.719	3369
235.784	5307
235.849	5761
235.913	14089
235.978	14366
236.043	17698
236.108	8274
236.173	6489
236.238	8007
236.303	4521
236.368	5015
236.433	9433
236.498	18643
236.563	11190
236.627	16629
236.692	56574
236.757	50435
236.822	21005
236.887	16307
236.952	12643
237.017	10647
237.081	10620
237.146	12828
237.211	25295
237.276	54181
237.341	99599
237.405	52671
237.470	20440
237.535	16877
237.600	10928
237.664	8047
237.729	6060
237.794	8170
237.859	17289
237.923	14532
237.988	9342
238.053	12172
238.118	13412
238.182	30593
238.247	32601
238.312	15243
238.376	11829
238.441	8526
238.506	7274
238.570	4843
238.635	5713
238.700	4867
238.764	4826
238.829	14156
238.893	20106
238.958	9470
239.023	8646
239.087	5721
239.152	6490
239.216	4760
239.281	4977
239.346	4326
239.410	4597
239.475	6215
239.539	29737
239.604	28823
239.668	8946
239.733	6133
239.797	7749
239.862	19909
239.926	28934
239.991	13594
240.055	7750
240.120	6019
240.184	5048
240.249	4927
240.313	4718
240.378	5682
240.442	16599
240.507	33703
240.571	10915
240.635	14990
240.700	21183
240.764	8240
240.829	5128
240.893	3396
240.957	5736
241.022	17108
241.086	34788
241.151	17552
241.215	6231
241.279	9263
241.344	18316
241.408	9739
241.472	6590
241.537	6939
241.601	6079
241.665	5155
241.730	5030
241.794	6868
241.858	5313
241.922	5895
241.987	5708
242.051	4673
242.115	4089
242.179	5737
242.244	5167
242.308	6639
242.372	6013
242.436	7022
242.501	6201
242.565	5452
242.629	4268
242.693	6011
242.757	3815
242.822	5556
242.886	6154
242.950	6799
243.014	6873
243.078	7631
243.142	7414
243.206	5645
243.271	7599
243.335	6653
243.399	11201
243.463	37138
243.527	109035
243.591	38371
243.655	15271
243.719	9044
243.783	10151
243.847	14273
243.911	19359
243.975	20993
244.040	14445
244.104	9464
244.168	6012
244.232	9412
244.296	14412
244.360	17246
244.424	10284
244.488	8177
244.552	7962
244.615	4696
244.679	5993
244.743	7401
244.807	8385
244.871	5953
244.935	5321
244.999	4736
245.063	5326
245.127	6389
245.191	11587
245.255	12796
245.319	8338
245.383	8014
245.446	6979
245.510	4979
245.574	6110
245.638	6949
245.702	5409
245.766	16868
245.829	11751
245.893	7531
245.957	6349
246.021	7794
246.085	6897
246.149	10097
246.212	20762
246.276	31594
246.340	14521
246.404	11053
246.467	11238
246.531	16612
246.595	11128
246.659	10492
246.722	8528
246.786	11879
246.850	11316
246.913	15429
246.977	7565
247.041	8160
247.104	9307
247.168	8942
247.232	19029
247.295	42580
247.359	21928
247.423	10763
247.486	18971
247.550	12564
247.614	8811
247.677	12257
247.741	7993
247.804	7091
247.868	9739
247.932	16585
247.995	39718
248.059	16608
248.122	8617
248.186	11161
248.249	17349
248.313	60703
248.376	68359
248.440	43352
248.503	17299
248.567	14559
248.630	19646
248.694	26041
248.757	30949
248.821	68200
248.884	41310
248.948	35548
249.011	51681
249.075	78202
249.138	69866
249.202	27612
249.265	19115
249.328	24686
249.392	17476
249.455	13441
249.519	10353
249.582	13975
249.645	21190
249.709	18452
249.772	12177
249.835	12197
249.899	14191
249.962	11358
250.025	10509
250.089	24628
250.152	36215
250.215	18470
250.279	13190
250.342	14121
250.405	14640
250.468	12506
250.532	17059
250.595	26107
250.658	88854
250.721	162180
250.785	57789
250.848	30352
250.911	18170
250.974	17345
251.038	21698
251.101	43095
251.164	24993
251.227	24321
251.290	22430
251.354	32481
251.417	125483
251.480	138103
251.543	87914
251.606	231489
251.669	190441
251.732	70058
251.795	65337
251.859	66818
251.922	148759
251.985	94783
252.048	33473
252.111	24649
252.174	22393
252.237	37326
252.300	82969
252.363	90698
252.426	191971
252.489	88075
252.552	42239
252.615	29745
252.678	29530
252.741	60132
252.804	85671
252.867	195341
252.930	118616
252.993	61086
253.056	35747
253.119	27796
253.182	20627
253.245	38543
253.308	28666
253.371	24412
253.434	22336
253.497	20498
253.559	38447
253.622	28893
253.685	32087
253.748	35219
253.811	18142
253.874	22688
253.937	22680
254.000	15756
254.062	25428
254.125	42737
254.188	33917
254.251	32565
254.314	16061
254.376	27695
254.439	32101
254.502	28024
254.565	26312
254.628	47942
254.690	29591
254.753	16473
254.816	13756
254.878	15722
254.941	28968
255.004	32679
255.067	14910
255.129	14250
255.192	8690
255.255	8117
255.317	9842
255.380	8540
255.443	6725
255.505	6701
255.568	6230
255.631	7335
255.693	7453
255.756	6720
255.819	6987
255.881	5033
255.944	6200
256.006	6993
256.069	6782
256.132	6303
256.194	9425
256.257	28517
256.319	21424
256.382	20659
256.444	10625
256.507	9060
256.569	7264
256.632	8585
256.694	15625
256.757	29486
256.819	90699
256.882	39215
256.944	16825
257.007	14358
257.069	14377
257.132	10142
257.194	8589
257.257	7866
257.319	7505
257.381	9720
257.444	23804
257.506	98229
257.569	118271
257.631	67731
257.693	34736
257.756	18556
257.818	16907
257.880	10320
257.943	9098
258.005	8664
258.067	7566
258.130	7580
258.192	9129
258.254	21520
258.317	14038
258.379	9895
258.441	22689
258.503	26245
258.566	31286
258.628	48819
258.690	12324
258.753	11683
258.815	18149
258.877	11996
258.939	8240
259.001	7881
259.064	7004
259.126	10527
259.188	15171
259.250	11460
259.312	12623
259.375	34123
259.437	24185
259.499	10120
259.561	8106
259.623	8744
259.685	7405
259.747	9310
259.809	29038
259.872	63931
259.934	81760
259.996	76998
260.058	19560
260.120	10753
260.182	9097
260.244	7402
260.306	6842
260.368	7388
260.430	6135
260.492	12039
260.554	26011
260.616	28152
260.678	40335
260.740	67964
260.802	17266
260.864	12349
260.926	10450
260.988	11071
261.050	9038
261.112	15722
261.174	50623
261.236	53562
261.298	16073
261.359	26664
261.421	42938
261.483	12165
261.545	10096
261.607	7066
261.669	8262
261.731	16475
261.793	43732
261.854	19171
261.916	11116
261.978	8477
262.040	8915
262.102	8709
262.164	16493
262.225	14094
262.287	7715
262.349	20055
262.411	17958
262.472	9236
262.534	16647
262.596	43058
262.658	13804
262.719	8039
262.781	12099
262.843	39178
262.904	20175
262.966	11880
263.028	15794
263.090	65577
263.151	188455
263.213	60523
263.275	26746
263.336	13907
263.398	10959
263.459	7155
263.521	7459
263.583	18143
263.644	14279
263.706	6576
263.767	5101
263.829	4799
263.891	3785
263.952	4512
264.014	3763
264.075	6354
264.137	11452
264.198	9344
264.260	4699
264.321	5759
264.383	11641
264.444	23786
264.506	8072
264.567	6661
264.629	9164
264.690	15292
264.752	8719
264.813	6589
264.875	5247
264.936	6402
264.998	4853
265.059	5037
265.120	6007
265.182	9216
265.243	40842
265.305	45809
265.366	12949
265.427	7663
265.489	6407
265.550	4985
265.611	7206
265.673	6683
265.734	5140
265.795	5385
265.857	4850
265.918	6260
265.979	12917
266.040	69594
266.102	63183
266.163	17659
266.224	12878
266.286	9691
266.347	6977
266.408	7390
266.469	7650
266.530	6869
266.592	5974
266.653	12980
266.714	21180
266.775	7619
266.836	5885
266.898	6732
266.959	8214
267.020	6756
267.081	6416
267.142	6263
267.203	6284
267.264	5626
267.326	8239
267.387	5980
267.448	5130
267.509	5704
267.570	6381
267.631	5056
267.692	5811
267.753	11216
267.814	6404
267.875	11146
267.936	26637
267.997	11318
268.058	10328
268.119	6585
268.180	7246
268.241	5822
268.302	4946
268.363	4459
268.424	5405
268.485	6373
268.546	4643
268.607	3994
268.668	4271
268.729	4184
268.790	4513
268.851	6619
268.912	13896
268.972	18938
269.033	9796
269.094	6039
269.155	5109
269.216	4953
269.277	5350
269.338	5430
269.398	4819
269.459	6034
269.520	7839
269.581	10940
269.642	12978
269.702	9233
269.763	6670
269.824	6633
269.885	8263
269.945	13367
270.006	5779
270.067	4053
270.128	4720
270.188	5226
270.249	5617
270.310	4611
270.370	4608
270.431	5905
270.492	4226
270.553	5967
270.613	11362
270.674	24759
270.734	11865
270.795	6684
270.856	8662
270.916	9237
270.977	6127
271.038	7686
271.098	6731
271.159	11447
271.219	13247
271.280	6571
271.340	5787
271.401	7328
271.462	21738
271.522	11825
271.583	7051
271.643	7761
271.704	6047
271.764	8422
271.825	17274
271.885	54137
271.946	81270
272.006	27609
272.066	32383
272.127	63488
272.187	20480
272.248	12892
272.308	12780
272.369	41838
272.429	26593
272.489	17758
272.550	19234
272.610	19008
272.671	16679
272.731	14413
272.791	26738
272.852	14656
272.912	12466
272.972	8845
273.033	7957
273.093	13825
273.153	12870
273.214	10122
273.274	10851
273.334	28741
273.394	66427
273.455	28604
273.515	24004
273.575	55349
273.635	26333
273.696	33196
273.756	65038
273.816	29280
273.876	17909
273.936	35735
273.997	71180
274.057	18907
274.117	14291
274.177	18559
274.237	69446
274.297	68843
274.358	52032
274.418	50833
274.478	39242
274.538	17093
274.598	15763
274.658	52877
274.718	71666
274.778	29827
274.838	15764
274.898	30282
274.958	101612
275.018	70722
275.078	46172
275.138	19863
275.198	13036
275.258	10797
275.318	12599
275.378	19948
275.438	19785
275.498	15431
275.558	39734
275.618	88914
275.678	50832
275.738	27235
275.798	20862
275.858	11627
275.918	7607
275.978	9605
276.038	9510
276.098	7928
276.157	14370
276.217	42144
276.277	23224
276.337	15312
276.397	9661
276.457	12309
276.517	8669
276.576	7719
276.636	8725
276.696	14664
276.756	26067
276.815	23060
276.875	11369
276.935	12903
276.995	11470
277.055	8077
277.114	8363
277.174	11227
277.234	33947
277.293	17575
277.353	10574
277.413	7863
277.472	8828
277.532	9702
277.592	11963
277.651	39314
277.711	83890
277.771	28841
277.830	85138
277.890	78658
277.950	48725
278.009	142361
278.069	62213
278.128	56753
278.188	86648
278.248	37402
278.307	87017
278.367	59960
278.426	18925
278.486	14073
278.545	10715
278.605	9402
278.664	9464
278.724	11694
278.783	23328
278.843	65942
278.902	21375
278.962	14592
279.021	16415
279.081	31296
279.140	31013
279.199	18742
279.259	17581
279.318	20139
279.378	26794
279.437	48340
279.496	145048
279.556	417675
279.615	390853
279.675	116366
279.734	64040
279.793	84980
279.853	122378
279.912	47121
279.971	27884
280.031	25481
280.090	38301
280.149	69552
280.208	70654
280.268	274200
280.327	330098
280.386	89603
280.445	53732
280.505	45643
280.564	25044
280.623	20258
280.682	23765
280.742	35047
280.801	14950
280.860	11931
280.919	10106
280.978	9344
281.037	9538
281.097	9149
281.156	9777
281.215	8885
281.274	11353
281.333	38867
281.392	35845
281.451	11210
281.510	8692
281.569	8157
281.628	7867
281.688	7379
281.747	7187
281.806	8245
281.865	7246
281.924	7108
281.983	6349
282.042	5965
282.101	6611
282.160	5722
282.219	6362
282.278	7620
282.337	20838
282.396	17185
282.454	7976
282.513	9261
282.572	31403
282.631	21500
282.690	8037
282.749	7201
282.808	8282
282.867	9008
282.926	7996
282.985	6263
283.043	5809
283.102	7496
283.161	8100
283.220	16475
283.279	39353
283.338	14289
283.396	8922
283.455	9407
283.514	10120
283.573	18967
283.631	15631
283.690	8963
283.749	8163
283.808	15321
283.866	18977
283.925	8442
283.984	7895
284.043	11570
284.101	12947
284.160	9133
284.219	10826
284.277	12305
284.336	21018
284.395	47478
284.453	42970
284.512	18698
284.570	21614
284.629	21985
284.688	20796
284.746	23508
284.805	26614
284.863	34503
284.922	42881
284.981	50705
285.039	71335
285.098	118492
285.156	250015
285.215	394287
285.273	403257
285.332	281593
285.390	154966
285.449	97802
285.507	66535
285.566	51068
285.624	38622
285.683	29122
285.741	22880
285.799	20090
285.858	18257
285.916	17333
285.975	13269
286.033	12012
286.091	10346
286.150	11245
286.208	10636
286.267	12347
286.325	12335
286.383	14843
286.442	13401
286.500	9830
286.558	10712
286.616	8186
286.675	10536
286.733	10961
286.791	10203
286.850	9872
286.908	11177
286.966	18765
287.024	9859
287.083	7572
287.141	6570
287.199	7587
287.257	9940
287.315	9219
287.374	9390
287.432	19310
287.490	14181
287.548	9039
287.606	8115
287.664	8413
287.723	9369
287.781	13657
287.839	8778
287.897	9965
287.955	13821
288.013	22117
288.071	48420
288.129	166554
288.187	472881
288.245	231290
288.303	72046
288.361	41709
288.419	30316
288.477	21764
288.535	16333
288.593	12483
288.651	10566
288.709	7702
288.767	7363
288.825	7419
288.883	6106
288.941	7684
288.999	7231
289.057	6120
289.115	5052
289.173	6386
289.231	6117
289.289	7187
289.346	7030
289.404	7665
289.462	10989
289.520	11872
289.578	6319
289.636	3568
289.694	4481
289.751	4984
289.809	4643
289.867	4471
289.925	5915
289.983	7711
290.040	4531
290.098	4041
290.156	5299
290.214	6941
290.271	4127
290.329	4050
290.387	3683
290.444	3547
290.502	2772
290.560	4313
290.617	3539
290.675	4312
290.733	3625
290.790	6164
290.848	3809
290.906	6857
290.963	5274
291.021	5075
291.078	5374
291.136	6874
291.194	13592
291.251	30408
291.309	10575
291.366	4896
291.424	4455
291.481	5352
291.539	5955
291.596	6435
291.654	3223
291.711	3222
291.769	4413
291.826	10460
291.884	7299
291.941	3872
291.999	3851
292.056	5479
292.114	5894
292.171	3720
292.228	4727
292.286	5796
292.343	11208
292.401	14364
292.458	10554
292.515	6884
292.573	7932
292.630	7072
292.687	8124
292.745	6059
292.802	6734
292.859	16588
292.917	37216
292.974	24695
293.031	9213
293.089	6323
293.146	5098
293.203	4613
293.260	4286
293.318	7264
293.375	7409
293.432	4611
293.489	4191
293.546	5046
293.604	9547
293.661	27509
293.718	65691
293.775	31602
293.832	15537
293.889	14018
293.947	15257
294.004	10807
294.061	8713
294.118	16314
294.175	30906
294.232	30387
294.289	14200
294.346	8703
294.403	7798
294.460	7988
294.517	6466
294.574	6264
294.631	5497
294.688	7039
294.745	16652
294.802	60241
294.859	57383
294.916	25624
294.973	17946
295.030	13207
295.087	10367
295.144	7503
295.201	6712
295.258	6034
295.315	9454
295.372	24397
295.429	52138
295.486	23172
295.542	11515
295.599	17385
295.656	29726
295.713	26184
295.770	44248
295.827	19496
295.883	9558
295.940	8273
295.997	13723
296.054	14144
296.111	7719
296.167	5564
296.224	4496
296.281	4162
296.338	4012
296.394	4641
296.451	8310
296.508	19619
296.564	38862
296.621	24937
296.678	46965
296.734	78426
296.791	28953
296.848	15667
296.904	15097
296.961	31215
297.018	52938
297.074	43290
297.131	17743
297.187	14119
297.244	17820
297.301	49942
297.357	103011
297.414	37691
297.470	14543
297.527	11347
297.583	9909
297.640	10087
297.696	7097
297.753	5611
297.809	4972
297.866	3335
297.922	4411
297.979	4764
298.035	6107
298.092	11730
298.148	30732
298.204	32304
298.261	16314
298.317	22227
298.374	62933
298.430	42867
298.486	20225
298.543	17929
298.599	18615
298.656	26253
298.712	29790
298.768	59790
298.824	48939
298.881	18910
298.937	10409
298.993	8366
299.050	10166
299.106	9426
299.162	7727
299.218	8614
299.275	6641
299.331	8743
299.387	15551
299.443	54801
299.500	66507
299.556	28143
299.612	13228
299.668	13619
299.724	16319
299.780	16702
299.837	11265
299.893	16102
299.949	46738
300.005	63471
300.061	44905
300.117	82544
300.173	45182
300.229	19443
300.285	21671
300.341	24965
300.397	14006
300.453	9824
300.510	10026
300.566	10688
300.622	11406
300.678	27838
300.734	53207
300.790	47654
300.845	62198
300.901	39532
300.957	48933
301.013	42108
301.069	16639
301.125	12323
301.181	12725
301.237	10270
301.293	7652
301.349	8800
301.405	10058
301.461	12670
301.516	23038
301.572	17651
301.628	17252
301.684	16545
301.740	26020
301.796	46422
301.851	28863
301.907	39182
301.963	41544
302.019	58342
302.074	160421
302.130	171291
302.186	89746
302.242	37036
302.297	23204
302.353	20780
302.409	36544
302.464	38381
302.520	28048
302.576	56649
302.631	70537
302.687	39294
302.743	17249
302.798	11013
302.854	9453
302.910	9453
302.965	11542
303.021	20724
303.076	20679
303.132	22306
303.187	28157
303.243	14831
303.299	8736
303.354	6947
303.410	6813
303.465	7001
303.521	6570
303.576	7472
303.632	8941
303.687	17559
303.743	52873
303.798	48935
303.853	19571
303.909	10292
303.964	8947
304.020	12704
304.075	20664
304.130	19364
304.186	30884
304.241	33323
304.297	26283
304.352	14210
304.358	13697
304.407	9518
304.449	8893
304.463	8685
304.518	9142
304.539	9109
304.573	9007
304.629	9295
304.630	9403
304.684	15596
304.720	30773
304.739	38029
304.794	65132
304.811	56381
304.850	34218
304.902	15295
304.905	14170
304.960	9620
304.992	10611
305.015	11387
305.071	10785
305.083	10616
305.126	9515
305.173	6763
305.181	6409
305.236	6572
305.264	6731
305.292	7188
305.347	10799
305.354	11257
305.402	13659
305.445	14462
305.457	14608
305.512	14551
305.535	15015
305.567	15637
305.622	15607
305.626	15962
305.678	32060
305.716	58909
305.733	65820
305.788	79785
305.807	68950
305.843	53481
305.897	64879
305.898	64890
305.953	66108
305.988	43743
306.008	32900
306.063	20012
306.078	17930
306.118	13839
306.168	9947
306.173	9682
306.228	8417
306.259	7439
306.283	7010
306.338	7243
306.349	7418
306.393	8684
306.440	11126
306.448	11354
306.503	11551
306.530	11499
306.558	15571
306.613	30244
306.620	32551
306.668	54862
306.711	78880
306.723	78364
306.778	60896
306.801	45662
306.833	30897
306.888	15569
306.892	14799
306.943	11572
306.982	9972
306.997	9655
307.052	9173
307.072	9316
307.107	10139
307.162	11178
307.163	11201
307.217	16326
307.253	19340
307.272	19955
307.327	21873
307.343	21160
307.381	20056
307.434	20548
307.436	21430
307.491	43265
307.524	61631
307.546	65175
307.600	70558
307.614	66200
307.655	43253
307.704	20854
307.710	20459
307.765	22628
307.795	25930
307.819	29893
307.874	42708
307.885	43416
307.929	38549
307.975	32498
307.984	34204
308.038	50832
308.065	62435
308.093	118591
308.148	244923
308.156	269273
308.202	393607
308.246	494802
308.257	475042
308.312	262828
308.336	176771
308.366	136875
308.421	88922
308.426	83982
308.475	56057
308.517	37827
308.530	36206
308.585	31658
308.607	30319
308.639	30799
308.694	33151
308.697	33300
308.748	49362
308.787	64735
308.803	64155
308.857	55689
308.877	50465
308.912	50244
308.967	54832
308.967	54807
309.021	83837
309.058	105987
309.076	134735
309.130	230045
309.148	262841
309.185	425942
309.238	682020
309.239	684908
309.293	745249
309.328	724238
309.348	630498
309.402	334415
309.418	255168
309.457	191572
309.508	123868
309.511	124030
309.566	131943
309.598	138624
309.620	175273
309.674	275055
309.688	300692
309.729	282407
309.778	240916
309.783	235214
309.837	158362
309.868	116578
309.892	128863
309.946	162330
309.959	171630
310.001	204562
310.049	237537
310.055	228617
310.109	134073
310.139	80807
310.163	67310
310.218	42865
310.229	38194
310.272	30744
310.319	22956
310.326	22410
310.381	18988
310.409	17223
310.435	16590
310.489	15443
310.499	15243
310.543	14898
310.589	14654
310.598	14684
310.652	14628
310.679	14405
310.706	13697
310.760	12374
310.769	12154
310.814	11776
310.859	11263
310.868	11418
310.923	12161
310.948	12587
310.977	14427
311.031	17999
311.038	18436
311.085	17193
311.128	15580
311.139	15374
311.193	14225
311.218	13630
311.247	12938
311.301	11790
311.308	11587
311.356	11774
311.398	11961
311.410	11794
311.464	10903
311.488	10426
311.518	11167
311.572	12489
311.578	12613
311.626	19993
311.668	26398
311.680	25271
311.734	19600
311.758	17029
311.788	17629
311.842	18655
311.847	18703
311.896	22879
311.937	26415
311.950	26377
312.004	25807
312.027	25446
312.058	22548
312.112	17229
312.117	16643
312.165	14827
312.207	13193
312.297	15986
312.386	13406
312.476	22026
312.566	49300
312.656	20749
312.745	10745
312.835	13258
312.925	14959
313.015	12812
313.104	13276
313.194	17332
313.284	16106
313.374	25902
313.463	20948
313.553	13617
313.643	12561
313.732	11097
313.822	10212
313.912	12829
314.001	17104
314.091	15719
314.180	19213
314.270	24036
314.360	23933
314.449	23405
314.539	13582
314.628	11747
314.718	14563
314.808	17826
314.897	13182
314.987	14101
315.076	22190
315.166	28189
315.255	20376
315.345	24170
315.434	21192
315.524	21985
315.613	27113
315.703	42463
315.792	64547
315.881	206766
315.971	71923
316.060	48895
316.150	44366
316.239	40850
316.328	18194
316.418	14324
316.507	16682
316.597	25452
316.686	21696
316.775	23492
316.865	39639
316.954	14528
317.043	12216
317.133	16491
317.222	14483
317.311	14458
317.400	15153
317.490	25831
317.579	33615
317.668	24569
317.757	44034
317.847	104433
317.936	363400
318.025	142972
318.114	82076
318.203	46423
318.293	47757
318.382	95354
318.471	71182
318.560	75486
318.649	92156
318.738	26776
318.828	29113
318.917	30494
319.006	25910
319.095	55012
319.184	134259
319.273	106688
319.362	74078
319.451	26166
319.540	24887
319.629	63412
319.718	106383
319.807	36922
319.896	56007
319.985	176324
320.074	81149
320.163	22527
320.252	31007
320.341	22572
320.430	23493
320.519	51367
320.608	27682
320.697	20108
320.786	22751
320.875	35142
320.964	48042
321.053	75777
321.142	110613
321.230	112534
321.319	71764
321.408	175213
321.497	63991
321.586	71170
321.675	56701
321.764	58767
321.852	41099
321.941	104819
322.030	69419
322.119	66708
322.207	184877
322.296	76333
322.385	46236
322.474	69344
322.562	237298
322.651	102903
322.740	80838
322.829	101584
322.917	67612
323.006	58614
323.095	54947
323.183	30568
323.272	48883
323.361	77296
323.449	172133
323.538	58824
323.626	121490
323.715	70682
323.804	33955
323.892	112374
323.981	79810
324.069	25203
324.158	52698
324.246	49354
324.335	35942
324.424	68989
324.512	26349
324.601	41685
324.689	104032
324.778	203662
324.866	62597
324.954	19894
325.043	21735
325.131	34208
325.220	42113
325.308	49795
325.397	44533
325.485	30277
325.574	14222
325.662	15631
325.750	20703
325.839	15108
325.927	11936
326.015	20184
326.104	20546
326.192	27258
326.280	13695
326.369	15261
326.457	27783
326.545	55541
326.634	22655
326.722	11883
326.810	14448
326.898	13696
326.987	18009
327.075	50113
327.163	41083
327.251	25462
327.340	74775
327.428	115172
327.516	20021
327.604	16202
327.692	12974
327.781	13200
327.869	21487
327.957	18283
328.045	23756
328.133	10598
328.221	14111
328.309	15423
328.397	13937
328.485	22686
328.574	33032
328.662	125552
328.750	54041
328.838	15679
328.926	12350
329.014	11973
329.102	22015
329.190	44359
329.278	35116
329.366	11221
329.454	9669
329.542	9081
329.630	9676
329.718	12223
329.806	19353
329.893	14557
329.981	16106
330.069	28935
330.157	98908
330.245	290809
330.333	145489
330.421	31321
330.509	38547
330.597	150715
330.684	88561
330.772	24751
330.860	19164
330.948	23732
331.036	15168
331.123	9287
331.211	9375
331.299	12184
331.387	23350
331.475	43311
331.562	17471
331.650	11194
331.738	12448
331.825	12819
331.913	9619
332.001	10066
332.089	13431
332.176	21265
332.264	48554
332.352	40539
332.439	19538
332.527	14256
332.614	10122
332.702	14106
332.790	14131
332.877	34159
332.965	68423
333.052	40197
333.140	41933
333.228	118948
333.315	32703
333.403	18922
333.490	36035
333.578	55936
333.665	168355
333.753	73664
333.840	19809
333.928	19096
334.015	34318
334.103	51430
334.190	152010
334.278	43696
334.365	25907
334.452	23210
334.540	16649
334.627	19964
334.715	27403
334.802	48329
334.889	184395
334.977	187688
335.064	39420
335.151	23015
335.239	18736
335.326	24747
335.413	77665
335.501	101519
335.588	23173
335.675	17731
335.762	19531
335.850	30673
335.937	32368
336.024	64457
336.111	205564
336.199	100662
336.286	31125
336.373	17484
336.460	13577
336.547	14095
336.635	17773
336.722	19336
336.809	16897
336.896	27189
336.983	61521
337.070	119972
337.157	160328
337.245	113483
337.332	75776
337.419	16371
337.506	10964
337.593	12690
337.680	31672
337.767	87070
337.854	36121
337.941	40316
338.028	52817
338.115	21398
338.202	18586
338.289	35400
338.376	120767
338.463	41014
338.550	53927
338.637	55229
338.724	25004
338.811	32658
338.898	11259
338.984	10451
339.071	13629
339.158	21594
339.245	67076
339.332	39201
339.419	30543
339.506	26556
339.593	9727
339.679	13686
339.766	12503
339.853	20454
339.940	52925
340.027	15819
340.113	17608
340.200	27069
340.287	18051
340.374	25822
340.460	47421
340.547	22214
340.634	37620
340.720	142229
340.807	79548
340.894	16811
340.980	15751
341.067	15387
341.154	17977
341.240	32022
341.327	74515
341.414	28786
341.500	37580
341.587	17035
341.674	14883
341.760	47305
341.847	58021
341.933	18356
342.020	8120
342.106	11140
342.193	18570
342.279	39572
342.366	29890
342.452	50909
342.539	27668
342.625	63806
342.712	158966
342.798	64471
342.885	25218
342.971	10493
343.058	8528
343.144	12871
343.230	13222
343.317	18785
343.403	18066
343.490	9680
343.576	10773
343.662	15095
343.749	17238
343.835	22837
343.921	41705
344.008	223805
344.094	496990
344.180	113306
344.267	47440
344.353	149123
344.439	142484
344.525	73194
344.612	34153
344.698	27557
344.784	18568
344.870	12381
344.957	15447
345.043	28407
345.129	21665
345.215	45557
345.301	29683
345.387	18632
345.474	8324
345.560	9599
345.646	11648
345.732	12480
345.818	23214
345.904	19649
345.990	19975
346.076	16743
346.162	30445
346.249	17273
346.335	12660
346.421	16088
346.507	60148
346.593	210957
346.679	49642
346.765	15528
346.851	15938
346.937	17417
347.023	13292
347.108	19068
347.194	16512
347.280	16195
347.366	22567
347.452	63866
347.538	254270
347.624	182388
347.710	143307
347.796	21991
347.882	12887
347.967	10507
348.053	11730
348.139	12658
348.225	11705
348.311	13645
348.397	12471
348.482	18351
348.568	21518
348.654	11808
348.740	18519
348.825	22787
348.911	31140
348.997	113706
349.083	214335
349.168	35063
349.254	21685
349.340	21812
349.425	11483
349.511	21451
349.597	21627
349.682	51061
349.768	158469
349.854	69342
349.939	13457
350.025	11591
350.110	11990
350.196	10661
350.282	9383
350.367	8058
350.453	15409
350.538	18211
350.624	21266
350.709	17699
350.795	11160
350.880	15191
350.966	15394
351.051	22371
351.137	13663
351.222	17283
351.308	53430
351.393	144592
351.479	44645
351.564	20352
351.649	14406
351.735	10811
351.820	10154
351.906	13284
351.991	19348
352.076	92236
352.162	136270
352.247	29134
352.332	21916
352.418	53530
352.503	61000
352.588	211110
352.673	172365
352.759	43013
352.844	21525
352.929	23821
353.014	33334
353.100	20899
353.185	38973
353.270	61405
353.355	56296
353.441	17872
353.526	17618
353.611	52646
353.696	61116
353.781	34492
353.866	16415
353.952	18852
354.037	51674
354.122	118180
354.207	106864
354.292	38490
354.377	16206
354.462	14350
354.547	24035
354.632	19019
354.717	25637
354.802	44422
354.887	17907
354.972	12026
355.057	10672
355.142	10717
355.227	18787
355.312	36089
355.397	79749
355.482	189044
355.567	87782
355.652	61620
355.737	64797
355.822	186300
355.907	147156
355.991	25767
356.076	15932
356.161	13660
356.246	12984
356.331	16558
356.416	40693
356.501	267511
356.585	277561
356.670	50923
356.755	31216
356.840	47487
356.924	202916
357.009	675912
357.094	249849
357.179	66579
357.263	43676
357.348	42263
357.433	42081
357.517	41137
357.602	31721
357.687	29324
357.771	72188
357.856	282564
357.941	144604
358.025	152878
358.110	610423
358.195	285036
358.279	54977
358.364	42031
358.448	140995
358.533	364230
358.617	259117
358.702	249312
358.787	91823
358.871	56818
358.956	47094
359.040	18295
359.125	15870
359.209	26394
359.294	143436
359.378	247545
359.462	68818
359.547	27755
359.631	15889
359.716	13665
359.800	13610
359.885	20344
359.969	19023
360.053	14834
360.138	15945
360.222	30800
360.306	59941
360.391	49203
360.475	149392
360.559	305741
360.644	167271
360.728	104453
360.812	148156
360.896	396654
360.981	169432
361.065	91000
361.149	27379
361.233	27711
361.318	23446
361.402	28321
361.486	22434
361.570	18725
361.654	28405
361.739	70911
361.823	271478
361.907	394890
361.991	81263
362.075	50597
362.159	118421
362.243	77512
362.327	73430
362.411	78938
362.495	43618
362.580	25355
362.664	17803
362.748	19757
362.832	25963
362.916	47584
363.000	135475
363.084	363007
363.168	477202
363.252	119794
363.336	44935
363.420	51953
363.503	117168
363.587	125785
363.671	40291
363.755	35171
363.839	51656
363.923	29663
364.007	65427
364.091	61973
364.175	59701
364.258	193115
364.342	191982
364.426	262309
364.510	145419
364.594	68079
364.677	78670
364.761	349013
364.845	240290
364.929	99470
365.013	79004
365.096	65107
365.180	76120
365.264	51541
365.347	167626
365.431	71058
365.515	26148
365.598	23227
365.682	18823
365.766	21318
365.849	22256
365.933	22067
366.017	21172
366.100	14614
366.184	9541
366.267	13788
366.351	14964
366.435	13775
366.518	11399
366.602	11482
366.685	15467
366.769	19500
366.852	25625
366.936	49981
367.019	36366
367.103	18543
367.186	23673
367.270	12830
367.353	11405
367.436	15469
367.520	14271
367.603	22900
367.687	37099
367.770	68186
367.853	35756
367.937	107312
368.020	177390
368.104	47316
368.187	49880
368.270	69092
368.353	57321
368.437	58932
368.520	81656
368.603	77449
368.687	134385
368.770	248112
368.853	61774
368.936	55190
369.020	40970
369.103	22012
369.186	16146
369.269	19118
369.352	43819
369.436	58553
369.519	36852
369.602	19395
369.685	20210
369.768	24577
369.851	17176
369.934	14212
370.018	21150
370.101	57634
370.184	38365
370.267	25458
370.350	49652
370.433	71918
370.516	192567
370.599	253804
370.682	93565
370.765	141559
370.848	161924
370.931	288772
371.014	94584
371.097	25588
371.180	20273
371.263	13971
371.346	11586
371.429	14392
371.511	16261
371.594	35631
371.677	45289
371.760	36206
371.843	47951
371.926	218072
372.009	488131
372.091	156230
372.174	111072
372.257	256459
372.340	98997
372.423	64436
372.505	56027
372.588	33756
372.671	93644
372.754	298137
372.836	137733
372.919	58124
373.002	96709
373.085	50409
373.167	53406
373.250	133201
373.332	266232
373.415	333071
373.498	676559
373.580	249555
373.663	361364
373.746	456871
373.828	110973
373.911	46685
373.993	41100
374.076	94218
374.159	84965
374.241	73880
374.324	259804
374.406	167853
374.489	194478
374.571	544648
374.654	222981
374.736	107802
374.819	330580
374.901	470924
374.983	478540
375.066	86650
375.148	30971
375.231	79281
375.313	145300
375.395	64627
375.478	23279
375.560	20168
375.643	30060
375.725	100961
375.807	417615
375.890	277619
375.972	90338
376.054	62086
376.136	64528
376.219	38032
376.301	121156
376.383	370144
376.465	139596
376.548	108192
376.630	115942
376.712	324077
376.794	144220
376.877	23512
376.959	15337
377.041	17621
377.123	20398
377.205	22408
377.287	11286
377.369	12486
377.452	14011
377.534	14636
377.616	15109
377.698	15967
377.780	13337
377.862	17077
377.944	16763
378.026	10674
378.108	11456
378.190	12416
378.272	12098
378.354	9952
378.436	9926
378.518	20493
378.600	58662
378.682	64270
378.764	181272
378.846	132531
378.928	38220
379.010	57877
379.091	31341
379.173	17362
379.255	15869
379.337	27004
379.419	87439
379.501	245448
379.583	92287
379.664	27772
379.746	73450
379.828	175117
379.910	239945
379.991	200251
380.073	36032
380.155	25620
380.237	20946
380.318	14997
380.400	19304
380.482	47810
380.564	71169
380.645	69453
380.727	65916
380.809	36621
380.890	25890
380.972	21968
381.053	20794
381.135	25395
381.217	64665
381.298	187015
381.380	90225
381.461	73081
381.543	327154
381.624	390350
381.706	78251
381.787	42319
381.869	46435
381.951	139797
382.032	511015
382.113	323133
382.195	85580
382.276	59440
382.358	122118
382.439	305167
382.521	321362
382.602	491936
382.684	255227
382.765	496378
382.846	713551
382.928	1225255
383.009	694809
383.090	531457
383.172	1578312
383.253	2069710
383.334	750147
383.416	558135
383.497	320168
383.578	238245
383.659	458987
383.741	1384446
383.822	2704858
383.903	1475940
383.984	537845
384.066	640185
384.147	394605
384.228	107683
384.309	85448
384.390	64676
384.471	48264
384.553	50000
384.634	62233
384.715	66886
384.796	40435
384.877	51496
384.958	176223
385.039	208375
385.120	79470
385.201	38795
385.282	42544
385.363	41438
385.444	49022
385.525	77454
385.606	230565
385.687	191439
385.768	49199
385.849	60535
385.930	238611
386.011	392724
386.092	109201
386.173	33337
386.254	22487
386.335	24208
386.416	29877
386.496	108140
386.577	171727
386.658	53993
386.739	35259
386.820	26706
386.901	21686
386.981	24264
387.062	20195
387.143	45054
387.224	173965
387.304	151014
387.385	54019
387.466	32255
387.547	34003
387.627	31126
387.708	63824
387.789	288881
387.869	346818
387.950	89780
388.031	21533
388.111	16573
388.192	28442
388.273	38555
388.353	34103
388.434	28140
388.514	58451
388.595	249319
388.676	333473
388.756	168567
388.837	168723
388.917	102990
388.998	23207
389.078	21831
389.159	21195
389.239	21340
389.320	35433
389.400	33897
389.480	58833
389.561	172312
389.641	83628
389.722	34572
389.802	56930
389.883	70579
389.963	198496
390.043	112434
390.124	31200
390.204	63236
390.284	207028
390.365	125664
390.445	103087
390.525	373054
390.605	353076
390.686	111615
390.766	41180
390.846	27170
390.927	20271
391.007	20349
391.087	20830
391.167	26310
391.247	19907
391.328	23453
391.408	29121
391.488	22057
391.568	16196
391.648	30741
391.728	41864
391.808	41152
391.888	54073
391.969	104956
392.049	159234
392.129	61374
392.209	74221
392.289	197304
392.369	98034
392.449	52018
392.529	46066
392.609	51908
392.689	66188
392.769	201939
392.849	177564
392.929	111683
393.009	263814
393.089	242339
393.169	252671
393.248	728084
393.328	2042159
393.408	2086466
393.488	737761
393.568	241268
393.648	123006
393.728	78172
393.807	57326
393.887	48173
393.967	41351
394.047	47440
394.127	55412
394.206	78265
394.286	235030
394.366	979400
394.446	1037734
394.525	257641
394.605	72560
394.685	51963
394.764	70739
394.844	111753
394.924	89666
395.003	45540
395.083	36224
395.163	33251
395.242	31767
395.322	31407
395.402	23284
395.481	28839
395.561	56824
395.640	148401
395.720	139481
395.799	139602
395.879	112767
395.958	102434
396.038	343934
396.117	1272398
396.197	1373527
396.276	418053
396.356	147154
396.435	100281
396.515	85000
396.594	118811
396.673	220303
396.753	716967
396.832	1866041
396.912	1441887
396.991	424315
397.070	127873
397.150	71113
397.229	48920
397.308	61043
397.388	97227
397.467	51676
397.546	28266
397.625	29578
397.705	38025
397.784	36114
397.863	21537
397.942	15777
398.022	15415
398.101	36978
398.180	93046
398.259	47651
398.338	25169
398.417	28272
398.497	17883
398.576	16240
398.655	13800
398.734	12458
398.813	11378
398.892	32594
398.971	101429
399.050	54694
399.129	16494
399.208	11490
399.287	11447
399.366	8835
399.445	10493
399.524	10948
399.603	12917
399.682	27838
399.761	59153
399.840	121731
399.919	83375
399.998	15720
400.077	9697
400.156	9322
400.235	12278
400.313	9293
400.392	17062
400.471	93461
400.550	152594
400.629	39948
400.708	17723
400.786	12774
400.865	22046
400.944	28389
401.023	20097
401.102	7865
401.180	7439
401.259	7627
401.338	10102
401.416	18897
401.495	16417
401.574	9836
401.652	10217
401.731	16067
401.810	15904
401.888	9939
401.967	7456
402.046	12114
402.124	15428
402.203	22041
402.281	13283
402.360	17286
402.438	30956
402.517	21850
402.596	10324
402.674	8928
402.753	7183
402.831	8267
402.910	12556
402.988	57026
403.066	200619
403.145	109198
403.223	60570
403.302	165836
403.380	118880
403.459	120604
403.537	47006
403.615	18080
403.694	7855
403.772	7042
403.850	8029
403.929	7213
404.007	9923
404.085	24314
404.164	32075
404.242	11747
404.320	14466
404.398	29806
404.477	83167
404.555	388787
404.633	326900
404.711	51413
404.789	17522
404.868	16238
404.946	10466
405.024	6519
405.102	7714
405.180	7456
405.258	8218
405.336	7930
405.415	9507
405.493	19962
405.571	21269
405.649	8302
405.727	8211
405.805	14181
405.883	16516
405.961	13668
406.039	12230
406.117	9151
406.195	22176
406.273	97365
406.351	347046
406.429	189594
406.507	26901
406.585	11968
406.663	15635
406.740	22275
406.818	19862
406.896	10150
406.974	12341
407.052	32048
407.130	206847
407.208	285848
407.285	54157
407.363	13253
407.441	12929
407.519	10516
407.596	14376
407.674	31875
407.752	77429
407.830	65507
407.907	25556
407.985	15443
408.063	9745
408.141	5400
408.218	11540
408.296	15522
408.373	16293
408.451	18286
408.529	16912
408.606	7945
408.684	6766
408.762	4736
408.839	5227
408.917	5075
408.994	6967
409.072	7780
409.149	8653
409.227	15359
409.304	19189
409.382	16006
409.459	18455
409.537	25101
409.614	24427
409.692	16872
409.769	18130
409.846	26226
409.924	33365
410.001	26355
410.079	18787
410.156	13982
410.233	13542
410.311	12534
410.388	10554
410.465	13210
410.543	13958
410.620	8463
410.697	12773
410.775	17533
410.852	8614
410.929	16288
411.006	21381
411.083	11545
411.161	28332
411.238	25150
411.315	12899
411.392	8879
411.469	16499
411.547	16763
411.624	10555
411.701	8919
411.778	14411
411.855	34551
411.932	19251
412.009	8945
412.086	8106
412.163	9918
412.240	11090
412.317	13099
412.394	11069
412.471	5929
412.548	7159
412.625	9345
412.702	11836
412.779	20833
412.856	14470
412.933	6645
413.010	6564
413.087	15375
413.164	88643
413.241	123350
413.318	31290
413.395	18640
413.471	30054
413.548	13650
413.625	8206
413.702	11682
413.779	8353
413.855	4773
413.932	4197
414.009	3603
414.086	5147
414.162	5917
414.239	14846
414.316	82718
414.393	191113
414.469	65924
414.546	8703
414.623	5711
414.699	7103
414.776	11817
414.853	6996
414.929	8140
415.006	6931
415.082	6443
415.159	6924
415.236	6904
415.312	10220
415.389	23736
415.465	32863
415.542	15771
415.618	11333
415.695	20858
415.771	14298
415.848	11344
415.924	9723
416.000	6073
416.077	6164
416.153	4146
416.230	3341
416.306	3720
416.383	5085
416.459	4776
416.535	5299
416.612	4793
416.688	6222
416.764	7493
416.841	7310
416.917	7525
416.993	8047
417.069	10694
417.146	14855
417.222	19409
417.298	13149
417.374	7649
417.451	9675
417.527	14753
417.603	17431
417.679	11265
417.755	9028
417.831	4841
417.908	6014
417.984	4136
418.060	5937
418.136	26897
418.212	36059
418.288	12298
418.364	6526
418.440	8432
418.516	14723
418.592	13187
418.668	36376
418.744	64862
418.820	46008
418.896	11782
418.972	5701
419.048	9026
419.124	28184
419.200	23434
419.276	6410
419.352	4030
419.428	5753
419.504	10316
419.579	14995
419.655	10988
419.731	11692
419.807	41601
419.883	80043
419.959	51979
420.034	14677
420.110	28501
420.186	119433
420.262	87889
420.337	16314
420.413	14083
420.489	8853
420.565	6178
420.640	7539
420.716	8888
420.792	6660
420.867	8771
420.943	9062
421.019	19310
421.094	15541
421.170	7938
421.245	5989
421.321	8417
421.397	10198
421.472	17104
421.548	43731
421.623	33491
421.699	17742
421.774	17178
421.850	15416
421.925	30106
422.001	25711
422.076	19024
422.152	24192
422.227	40172
422.302	43564
422.378	62549
422.453	114292
422.529	265448
422.604	702200
422.679	1021556
422.755	745280
422.830	291734
422.905	114975
422.981	65228
423.056	42024
423.131	31445
423.207	23956
423.282	27019
423.357	46970
423.432	32751
423.508	30585
423.583	69368
423.658	49319
423.733	16888
423.808	17698
423.883	23507
423.959	20838
424.034	16513
424.109	12982
424.184	8204
424.259	7545
424.334	7520
424.409	6716
424.484	8512
424.559	10519
424.634	10006
424.709	17374
424.784	19252
424.859	11624
424.934	20347
425.009	86939
425.084	139843
425.159	48878
425.234	10956
425.309	15058
425.384	96873
425.459	173550
425.534	41716
425.609	7714
425.683	5961
425.758	6607
425.833	7660
425.908	12388
425.983	55752
426.058	149136
426.132	60083
426.207	11051
426.282	10866
426.357	7868
426.431	5737
426.506	5666
426.581	6689
426.655	6353
426.730	7395
426.805	7601
426.879	8737
426.954	8001
427.029	23041
427.103	127484
427.178	298780
427.253	121685
427.327	18407
427.402	45781
427.476	158332
427.551	79723
427.625	11955
427.700	8896
427.774	5045
427.849	6481
427.923	5074
427.998	6093
428.072	8478
428.147	19928
428.221	93541
428.296	260882
428.370	128953
428.444	18642
428.519	13658
428.593	20322
428.667	17238
428.742	22389
428.816	33153
428.890	167568
428.965	331869
429.039	119905
429.113	30259
429.188	12928
429.262	7456
429.336	19770
429.410	64498
429.485	35628
429.559	18452
429.633	15238
429.707	8975
429.781	27226
429.855	152684
429.930	242474
430.004	90593
430.078	90119
430.152	109870
430.226	320641
430.300	308698
430.374	50021
430.448	16497
430.522	35162
430.596	89086
430.670	77754
430.744	300791
430.818	419587
430.892	83887
430.966	16335
431.040	7654
431.114	5048
431.188	4394
431.262	5588
431.336	5573
431.410	12634
431.484	34978
431.557	28873
431.631	6403
431.705	10923
431.779	50396
431.853	222776
431.927	146409
432.000	18917
432.074	6762
432.148	6710
432.222	5727
432.295	4655
432.369	5771
432.443	15067
432.516	108851
432.590	281158
432.664	93745
432.737	13039
432.811	4297
432.885	3708
432.958	3859
433.032	3144
433.106	1984
433.179	3110
433.253	3121
433.326	3591
433.400	2087
433.473	3199
433.547	1962
433.620	4863
433.694	17282
433.767	16557
433.841	6104
433.914	9177
433.988	11719
434.061	4768
434.134	3608
434.208	2721
434.281	2262
434.355	4638
434.428	12659
434.501	10793
434.575	2796
434.648	3775
434.721	2592
434.795	3629
434.868	2413
434.941	2931
435.014	3807
435.088	9190
435.161	25555
435.234	30718
435.307	24293
435.381	13079
435.454	10241
435.527	13869
435.600	12258
435.673	10274
435.746	7715
435.819	6894
435.892	6208
435.966	8208
436.039	5576
436.112	4585
436.185	2512
436.258	2878
436.331	2219
436.404	2231
436.477	1400
436.550	2291
436.623	2484
436.696	4041
436.769	5368
436.842	4367
436.915	4569
436.987	8934
437.060	5449
437.133	4716
437.206	2493
437.279	3445
437.352	3310
437.425	4514
437.498	5392
437.570	16337
437.643	14512
437.716	5575
437.789	3590
437.861	13536
437.934	35490
438.007	15493
438.080	5108
438.152	6914
438.225	19949
438.298	141779
438.370	367729
438.443	144273
438.516	37542
438.588	9180
438.661	4046
438.734	4709
438.806	6475
438.879	7348
438.951	10290
439.024	18619
439.096	6893
439.169	3881
439.241	2372
439.314	3635
439.386	5091
439.459	8496
439.531	15483
439.604	7769
439.676	2488
439.749	2836
439.821	2204
439.893	2483
439.966	3205
440.038	6384
440.110	7195
440.183	4245
440.255	4229
440.327	10521
440.400	55991
440.472	243930
440.544	144529
440.617	19564
440.689	13347
440.761	19371
440.833	30233
440.905	18230
440.978	3932
441.050	3092
441.122	3556
441.194	2938
441.266	3294
441.338	4179
441.411	12807
441.483	85129
441.555	117411
441.627	21592
441.699	8216
441.771	7694
441.843	4159
441.915	3460
441.987	3256
442.059	3935
442.131	5770
442.203	9581
442.275	12675
442.347	11676
442.419	20793
442.491	109309
442.563	251127
442.635	92389
442.706	38390
442.778	28900
442.850	8570
442.922	6007
442.994	7193
443.066	11349
443.137	9946
443.209	9833
443.281	15417
443.353	34065
443.425	134525
443.496	466518
443.568	419212
443.640	141100
443.711	27590
443.783	12241
443.855	7620
443.926	6116
443.998	5460
444.070	6454
444.141	7527
444.213	16260
444.285	17481
444.356	12401
444.428	8203
444.499	4415
444.571	3799
444.642	4727
444.714	6939
444.785	14762
444.857	11102
444.928	16719
445.000	11440
445.071	13981
445.143	18991
445.214	18393
445.285	28076
445.357	74975
445.428	305700
445.500	661704
445.571	378815
445.642	195908
445.714	61155
445.785	37048
445.856	17937
445.928	22838
445.999	16571
446.070	12888
446.141	13728
446.213	18182
446.284	8422
446.355	5479
446.426	4451
446.497	6184
446.569	8026
446.640	16853
446.711	15296
446.782	4945
446.853	6045
446.924	8808
446.995	7635
447.066	5112
447.138	6836
447.209	4518
447.280	1901
447.351	3283
447.422	2081
447.493	4669
447.564	9859
447.635	16399
447.706	5212
447.777	2185
447.847	2280
447.918	2249
447.989	4059
448.060	6560
448.131	11835
448.202	14820
448.273	14158
448.344	5417
448.414	4178
448.485	4644
448.556	2784
448.627	2905
448.698	2312
448.768	1803
448.839	2363
448.910	6343
448.981	6923
449.051	4550
449.122	2312
449.193	2084
449.263	2895
449.334	2948
449.405	7199
449.475	20851
449.546	10456
449.616	7944
449.687	10078
449.758	6231
449.828	2432
449.899	3140
449.969	2304
450.040	3234
450.110	3923
450.181	4663
450.251	3704
450.322	2249
450.392	3100
450.463	1979
450.533	1178
450.604	2393
450.674	1747
450.744	3257
450.815	2471
450.885	2836
450.955	2513
451.026	3022
451.096	2874
451.166	2885
451.237	7289
451.307	15657
451.377	6900
451.447	2950
451.518	2787
451.588	2336
451.658	2345
451.728	4925
451.799	16888
451.869	17552
451.939	4121
452.009	2725
452.079	1289
452.149	2463
452.219	4864
452.289	18303
452.360	12110
452.430	5131
452.500	5744
452.570	9101
452.640	12888
452.710	28946
452.780	35285
452.850	37205
452.920	35197
452.990	11363
453.060	7692
453.129	11502
453.199	9825
453.269	23878
453.339	46508
453.409	69193
453.479	69950
453.549	96365
453.619	97209
453.688	36150
453.758	6307
453.828	4778
453.898	3783
453.968	3405
454.037	4199
454.087	4428
454.107	4527
454.168	2796
454.177	2544
454.247	2429
454.249	2439
454.316	2466
454.330	2454
454.386	2413
454.411	5204
454.456	9871
454.492	12034
454.525	14016
454.574	9592
454.595	7664
454.655	4792
454.665	4346
454.734	3724
454.736	3820
454.804	7133
454.817	8810
454.873	15744
454.898	16490
454.943	17803
454.979	13061
455.013	8738
455.060	5515
455.082	4174
455.141	3843
455.152	3772
455.221	11888
455.222	12010
455.291	21270
455.303	20829
455.360	18205
455.384	23613
455.430	32838
455.465	25098
455.499	17853
455.546	15672
455.569	14695
455.627	10945
455.638	10294
455.707	3742
455.708	3742
455.777	2071
455.789	2098
455.846	2345
455.869	2278
455.916	1986
455.950	2038
455.985	2177
456.031	2659
456.054	2863
456.112	2576
456.124	2539
456.193	2497
456.193	2489
456.262	1887
456.274	2111
456.332	3320
456.355	3675
456.401	3998
456.436	3729
456.470	3627
456.516	2791
456.540	2382
456.597	2444
456.609	2455
456.678	2842
456.678	2837
456.747	1766
456.759	1626
456.817	1629
456.840	1980
456.886	2259
456.920	2449
456.955	2802
457.001	2906
457.024	2933
457.082	3076
457.093	3112
457.162	5616
457.163	5626
457.232	5357
457.243	5035
457.301	3454
457.324	2841
457.370	2002
457.405	2165
457.439	2429
457.485	2730
457.508	2753
457.566	2518
457.577	2609
457.646	4012
457.647	4037
457.715	6967
457.727	7821
457.784	12412
457.808	17116
457.853	24835
457.889	30041
457.922	32631
457.969	21577
457.991	19076
458.050	21310
458.060	21556
458.129	38308
458.130	38719
458.198	49029
458.211	43963
458.267	22556
458.292	16249
458.336	8628
458.372	7912
458.405	9722
458.453	14193
458.474	17086
458.533	32272
458.543	33952
458.611	70020
458.614	69977
458.680	49925
458.694	40973
458.749	15973
458.775	11992
458.818	6750
458.855	5134
458.887	4153
458.936	3669
458.955	3383
459.016	3218
459.024	3341
459.093	4129
459.097	4176
459.162	4030
459.177	4099
459.230	4607
459.257	5093
459.299	5616
459.338	5172
459.368	4991
459.418	5776
459.437	5688
459.499	4370
459.505	4354
459.574	3809
459.579	3812
459.643	3343
459.659	3147
459.711	2972
459.740	3262
459.780	3317
459.820	3328
459.849	3575
459.900	3850
459.917	4025
459.981	4348
459.986	4343
460.054	5672
460.061	5802
460.123	6083
460.141	5475
460.191	4615
460.222	5055
460.260	5801
460.302	7803
460.328	8384
460.382	5969
460.397	5384
460.462	3921
460.465	3939
460.534	5051
460.543	5302
460.602	14154
460.623	17708
460.671	26300
460.703	38187
460.739	41674
460.783	37001
460.808	32628
460.864	9198
460.876	6290
460.944	2910
460.945	2882
461.013	3968
461.024	4007
461.081	3992
461.104	4328
461.150	4527
461.184	4274
461.218	4195
461.264	3487
461.286	3364
461.345	4124
461.355	4023
461.423	2893
461.425	2856
461.491	3677
461.505	4004
461.559	5525
461.585	6608
461.628	9116
461.665	11441
461.696	12588
461.745	15886
461.764	15297
461.825	7325
461.832	7006
461.901	4378
461.905	4433
461.969	4283
461.985	3979
462.037	3368
462.065	3222
462.105	3065
462.145	2878
462.173	3885
462.225	6297
462.241	6671
462.305	9106
462.310	9073
462.378	8283
462.385	7756
462.446	4716
462.465	4507
462.514	4731
462.545	4986
462.582	5154
462.625	5642
462.650	5302
462.705	3288
462.718	3152
462.785	2826
462.786	2827
462.854	3278
462.865	3424
462.922	4758
462.945	5302
462.990	4716
463.025	3771
463.058	3376
463.104	2910
463.126	2737
463.184	2701
463.194	2841
463.262	3370
463.264	3414
463.330	3733
463.344	3713
463.398	4120
463.424	4183
463.466	3495
463.504	3231
463.533	3585
463.583	3737
463.601	3807
463.663	4052
463.669	4115
463.737	5410
463.743	5541
463.805	7675
463.823	8175
463.873	10245
463.903	11766
463.940	12740
463.982	14392
464.008	12661
464.062	6657
464.076	6009
464.142	2617
464.144	2605
464.211	3431
464.221	3610
464.279	3579
464.301	3538
464.347	4329
464.381	5077
464.414	5352
464.461	5555
464.482	6654
464.540	9699
464.550	9805
464.617	11439
464.620	11475
464.685	9310
464.699	8392
464.753	7896
464.779	8170
464.820	8559
464.859	9010
464.888	8139
464.938	6370
464.956	6858
465.018	8745
465.023	8723
465.091	8568
465.098	8526
465.158	9824
465.177	10427
465.226	9882
465.257	9154
465.293	8531
465.336	7437
465.361	7554
465.416	8330
465.428	8684
465.495	11113
465.496	11133
465.563	12427
465.575	12752
465.631	15481
465.654	16818
465.698	12446
465.734	7920
465.765	6947
465.813	5727
465.833	5712
465.893	6107
465.900	6156
465.968	6603
465.972	6620
466.035	5654
466.052	5417
466.102	6276
466.131	6793
466.170	6471
466.210	6042
466.237	6204
466.290	6549
466.304	6757
466.369	7598
466.372	7626
466.439	8342
466.449	8428
466.506	8411
466.528	8413
466.573	11014
466.607	12914
466.641	15916
466.687	20182
466.708	22386
466.766	28727
466.775	27187
466.842	15117
466.845	14526
466.909	11621
466.925	11010
466.977	9574
467.004	8851
467.044	9096
467.083	9359
467.111	10132
467.163	11568
467.178	11930
467.242	13411
467.245	13314
467.312	11029
467.321	10722
467.379	10328
467.400	10160
467.446	10525
467.480	10772
467.559	10137
467.638	8837
467.717	8986
467.796	10164
467.875	12105
467.955	10042
468.034	12521
468.113	20820
468.192	29079
468.271	11503
468.350	10134
468.429	12466
468.508	14079
468.588	10137
468.667	8254
468.746	7769
468.825	9097
468.904	6889
468.983	8358
469.062	10728
469.141	12036
469.220	7325
469.299	7946
469.378	7778
469.456	10195
469.535	10335
469.614	8869
469.693	8714
469.772	11098
469.851	13093
469.930	11402
470.009	9320
470.088	10521
470.166	13707
470.245	26717
470.324	32707
470.403	21153
470.482	11174
470.560	9477
470.639	10193
470.718	12308
470.797	9351
470.875	9004
470.954	10773
471.033	12205
471.111	6268
471.190	6769
471.269	6287
471.347	6612
471.426	5821
471.505	8014
471.583	8760
471.662	9459
471.740	8328
471.819	8869
471.898	7099
471.976	7796
472.055	6384
472.133	7811
472.212	8895
472.290	9855
472.369	7522
472.447	6727
472.526	6276
472.604	7308
472.683	7875
472.761	9269
472.839	7170
472.918	7519
472.996	7310
473.075	8505
473.153	6228
473.231	6260
473.310	7584
473.388	8497
473.466	6574
473.545	10044
473.623	12876
473.701	13017
473.780	8149
473.858	5839
473.936	8833
474.014	7444
474.093	8243
474.171	9881
474.249	10283
474.327	9105
474.405	6808
474.484	7454
474.562	6936
474.640	7051
474.718	6451
474.796	8338
474.874	7197
474.952	6535
475.030	6083
475.108	7578
475.187	7420
475.265	9237
475.343	13327
475.421	16176
475.499	7379
475.577	8374
475.655	9688
475.733	12884
475.811	18836
475.889	16795
475.966	12899
476.044	7401
476.122	8595
476.200	12652
476.278	10279
476.356	6186
476.434	6581
476.512	8697
476.590	11908
476.667	11289
476.745	5641
476.823	7646
476.901	5519
476.979	5217
477.056	5891
477.134	5843
477.212	6884
477.290	6420
477.367	5110
477.445	5936
477.523	4560
477.601	6530
477.678	5533
477.756	6596
477.834	6654
477.911	5616
477.989	5346
478.066	6152
478.144	5717
478.222	8779
478.299	14348
478.377	15793
478.454	5030
478.532	5421
478.609	5396
478.687	7325
478.764	5203
478.842	6953
478.919	7881
478.997	7372
479.074	3907
479.152	5627
479.229	5874
479.307	5257
479.384	4243
479.461	5223
479.539	3814
479.616	5758
479.694	4602
479.771	5659
479.848	4705
479.926	6400
480.003	8880
480.080	6695
480.157	4093
480.235	5224
480.312	5137
480.389	4708
480.467	7376
480.544	9132
480.621	4878
480.698	5658
480.775	6434
480.853	6517
480.930	4916
481.007	5119
481.084	5232
481.161	5594
481.238	5873
481.315	4348
481.392	4565
481.470	5028
481.547	3831
481.624	4855
481.701	3715
481.778	5905
481.855	5533
481.932	7779
482.009	10530
482.086	8962
482.163	5554
482.240	10594
482.317	20664
482.393	17147
482.470	5394
482.547	6190
482.624	4634
482.701	5254
482.778	5443
482.855	5411
482.932	5072
483.009	5141
483.085	6319
483.162	6932
483.239	7717
483.316	5967
483.393	5547
483.469	5291
483.546	4982
483.623	6455
483.699	4553
483.776	5088
483.853	5477
483.930	8093
484.006	16264
484.083	27702
484.160	22716
484.236	35945
484.313	29349
484.389	21793
484.466	18291
484.543	17252
484.619	17626
484.696	20209
484.772	18650
484.849	17879
484.925	16050
485.002	16483
485.078	17505
485.155	17847
485.231	14607
485.308	14277
485.384	15106
485.461	17453
485.537	21620
485.614	27877
485.690	16122
485.766	15030
485.843	16317
485.919	24478
485.995	28263
486.072	16070
486.148	13968
486.224	14774
486.301	13043
486.377	16511
486.453	16470
486.530	17158
486.606	19695
486.682	24590
486.758	24468
486.835	26656
486.911	21380
486.987	32607
487.063	48291
487.139	68553
487.215	49101
487.292	24146
487.368	17079
487.444	19875
487.520	25436
487.596	25191
487.672	37409
487.748	106954
487.824	168298
487.900	66078
487.976	22453
488.052	20160
488.128	24078
488.204	19810
488.280	16442
488.356	17213
488.432	25212
488.508	37754
488.584	19586
488.660	16264
488.736	16773
488.812	16632
488.888	21556
488.964	27972
489.039	62612
489.115	103599
489.191	67948
489.267	16653
489.343	13430
489.418	11829
489.494	11823
489.570	9872
489.646	12387
489.722	12571
489.797	11832
489.873	14946
489.949	25974
490.024	25620
490.100	11024
490.176	11545
490.251	15485
490.327	21721
490.403	14077
490.478	12167
490.554	8880
490.629	11234
490.705	9976
490.781	10370
490.856	9898
490.932	13702
491.007	13901
491.083	12244
491.158	10502
491.234	12685
491.309	19040
491.385	23061
491.460	10544
491.536	11698
491.611	12001
491.686	13053
491.762	17890
491.837	41302
491.913	67587
491.988	94794
492.063	132998
492.139	35099
492.214	17475
492.289	11482
492.365	9439
492.440	11577
492.515	9750
492.590	10397
492.666	8273
492.741	11303
492.816	13812
492.891	9359
492.967	9534
493.042	8368
493.117	8379
493.192	9835
493.267	14788
493.342	40330
493.418	57454
493.493	15380
493.568	8072
493.643	8541
493.718	10556
493.793	14473
493.868	19163
493.943	15295
494.018	9792
494.093	8035
494.168	7604
494.243	7969
494.318	7304
494.393	6800
494.468	6923
494.543	7915
494.618	9207
494.693	9103
494.768	6332
494.842	7966
494.917	6442
494.992	9222
495.067	7455
495.142	7751
495.217	7328
495.292	8954
495.366	9626
495.441	12476
495.516	15588
495.591	21678
495.665	86073
495.740	222691
495.815	116779
495.890	13610
495.964	7213
496.039	11811
496.114	8892
496.188	10656
496.263	9293
496.338	8573
496.412	8809
496.487	11634
496.561	12833
496.636	14949
496.710	9871
496.785	10780
496.860	10794
496.934	10124
497.009	9997
497.083	10427
497.158	9636
497.232	12399
497.307	14107
497.381	13172
497.455	13815
497.530	17752
497.604	14742
497.679	15445
497.753	21668
497.827	30220
497.902	31086
497.976	31330
498.050	53617
498.125	187130
498.199	233852
498.273	60243
498.348	44993
498.422	35048
498.496	29413
498.570	27464
498.645	18161
498.719	15112
498.793	16654
498.867	22595
498.941	26746
499.016	70465
499.090	193206
499.164	95870
499.238	12584
499.312	11799
499.386	14074
499.460	13661
499.534	10465
499.609	13985
499.683	15659
499.757	15003
499.831	27950
499.905	116581
499.979	134467
500.053	22205
500.127	22282
500.201	23284
500.275	12197
500.349	11822
500.422	12916
500.496	20087
500.570	43340
500.644	83848
500.718	130553
500.792	43069
500.866	9713
500.940	11038
501.013	8364
501.087	10972
501.161	20984
501.235	25860
501.309	34370
501.382	95645
501.456	108081
501.530	26079
501.603	30180
501.677	18084
501.751	5797
501.825	10322
501.898	13330
501.972	36901
502.046	29894
502.119	8759
502.193	19570
502.266	42909
502.340	26260
502.413	17678
502.487	35959
502.561	23626
502.634	9999
502.708	10202
502.781	8316
502.855	7827
502.928	4106
503.002	5826
503.075	5047
503.149	6574
503.222	5961
503.295	5764
503.369	6496
503.442	8545
503.516	26256
503.589	70903
503.662	52936
503.736	16692
503.809	32999
503.882	33462
503.956	41169
504.029	50981
504.102	63896
504.175	101221
504.249	37719
504.322	14034
504.395	9386
504.468	6691
504.542	5580
504.615	4359
504.688	5464
504.761	3905
504.834	7839
504.907	11400
504.980	19652
505.053	9337
505.127	9072
505.200	14766
505.273	6961
505.346	5097
505.419	4182
505.492	4981
505.565	2611
505.638	4197
505.711	2418
505.784	2979
505.857	2758
505.930	5067
506.003	2097
506.076	5335
506.149	4470
506.221	5820
506.294	7281
506.367	13942
506.440	50298
506.513	39771
506.586	7539
506.659	4973
506.731	4958
506.804	6571
506.877	11326
506.950	7354
507.022	4046
507.095	4541
507.168	6782
507.241	7698
507.313	4061
507.386	5395
507.459	11127
507.531	7718
507.604	3562
507.677	6088
507.749	2721
507.822	7642
507.894	15144
507.967	21871
508.040	11746
508.112	9335
508.185	8331
508.257	6810
508.330	13985
508.402	8577
508.475	6299
508.547	7937
508.620	6635
508.692	9986
508.765	7326
508.837	5491
508.909	5476
508.982	5340
509.054	7429
509.127	6746
509.199	5627
509.271	5632
509.344	5169
509.416	5525
509.488	5420
509.560	6861
509.633	7448
509.705	8682
509.777	7670
509.849	12451
509.922	7964
509.994	6709
510.066	6187
510.138	6175
510.210	16114
510.283	15236
510.355	11457
510.427	10895
510.499	9960
510.571	10747
510.643	8468
510.715	16701
510.787	15459
510.859	11024
510.931	10123
511.003	15323
511.076	16366
511.148	7445
511.219	7455
511.291	10145
511.363	11759
511.435	7998
511.507	6112
511.579	7456
511.651	7294
511.723	7698
511.795	6221
511.867	6680
511.939	7914
512.010	12464
512.082	12280
512.154	8565
512.226	8123
512.298	12636
512.369	20978
512.441	16355
512.513	16784
512.585	12013
512.656	11964
512.728	12799
512.800	9678
512.871	9810
512.943	9964
513.015	7800
513.086	10111
513.158	11310
513.230	10458
513.301	16415
513.373	23119
513.444	12265
513.516	9106
513.588	8980
513.659	10324
513.731	14938
513.802	11283
513.874	25121
513.945	51013
514.016	20857
514.088	9254
514.159	10160
514.231	14963
514.302	20232
514.374	13665
514.445	11299
514.516	18179
514.588	15075
514.659	11103
514.730	15553
514.802	17460
514.873	14551
514.944	15563
515.016	13218
515.087	14345
515.158	14902
515.229	18419
515.301	16035
515.372	21387
515.443	13178
515.514	10317
515.585	9129
515.656	11009
515.728	10080
515.799	7992
515.870	10985
515.941	11305
516.012	11059
516.083	15701
516.154	18449
516.225	26334
516.296	27539
516.367	23593
516.438	27901
516.509	35886
516.580	51565
516.651	171670
516.722	675222
516.793	409889
516.864	58361
516.935	48977
517.006	54626
517.077	71730
517.148	160887
517.219	692947
517.289	1368634
517.360	282587
517.431	64575
517.502	24775
517.573	21542
517.643	19734
517.714	21973
517.785	24267
517.856	27099
517.926	34056
517.997	44198
518.068	56163
518.138	77079
518.209	113089
518.280	440065
518.350	1769998
518.421	966850
518.492	100389
518.562	41988
518.633	29545
518.703	29091
518.774	43945
518.845	113129
518.915	137580
518.986	43367
519.056	25483
519.127	40362
519.197	56137
519.268	84805
519.338	53757
519.408	17834
519.479	25975
519.549	22540
519.620	14394
519.690	11038
519.760	9357
519.831	11603
519.901	11937
519.971	9800
520.042	8650
520.112	11999
520.182	16239
520.253	22939
520.323	18689
520.393	45615
520.463	114461
520.534	63787
520.604	164274
520.674	65757
520.744	34228
520.814	152895
520.885	163915
520.955	28982
521.025	72112
521.095	41852
521.165	10386
521.235	8342
521.305	7291
521.375	8434
521.445	9647
521.515	14120
521.585	16747
521.655	16007
521.725	12567
521.795	13082
521.865	5602
521.935	11809
522.005	8988
522.075	7289
522.145	8879
522.215	7715
522.285	9943
522.355	13472
522.424	22896
522.494	22735
522.564	16079
522.634	33784
522.704	116396
522.774	60875
522.843	10715
522.913	10023
522.983	13155
523.053	11016
523.122	9905
523.192	13379
523.262	57755
523.331	73812
523.401	13211
523.471	7545
523.540	7480
523.610	5978
523.680	6238
523.749	5902
523.819	7458
523.888	6650
523.958	6151
524.027	5793
524.097	6511
524.166	6683
524.236	7237
524.305	9559
524.375	5099
524.444	5628
524.514	8220
524.583	6058
524.653	7166
524.722	9833
524.791	8591
524.861	8534
524.930	4240
524.999	6667
525.069	11384
525.138	7908
525.207	6393
525.277	6931
525.346	6934
525.415	6971
525.484	7683
525.554	8480
525.623	9441
525.692	9995
525.761	11246
525.830	12367
525.900	14948
525.969	22594
526.038	37437
526.107	71884
526.176	241510
526.245	242128
526.314	72067
526.383	119383
526.452	192197
526.522	267659
526.591	353130
526.660	95967
526.729	47908
526.797	42622
526.867	79656
526.935	356509
527.004	698956
527.073	489745
527.142	45646
527.211	17483
527.280	14184
527.349	15775
527.418	7159
527.487	10341
527.555	9214
527.624	7995
527.693	4046
527.762	6634
527.831	4061
527.899	6168
527.968	5311
528.037	4553
528.106	8273
528.174	17145
528.243	12511
528.312	15987
528.380	28087
528.449	8004
528.518	5792
528.586	3346
528.655	5069
528.723	3758
528.792	3049
528.861	4680
528.929	2738
528.998	4924
529.066	2781
529.135	3865
529.203	2853
529.272	3211
529.340	4262
529.409	6905
529.477	4227
529.545	5399
529.614	9565
529.682	11933
529.751	12060
529.819	20869
529.887	11256
529.956	5266
530.024	5227
530.092	5212
530.161	6607
530.229	14003
530.297	7137
530.365	5464
530.434	4318
530.502	3480
530.570	4349
530.638	2774
530.707	5123
530.775	6537
530.843	3669
530.911	3785
530.979	4616
531.047	3918
531.115	3590
531.183	4473
531.252	4261
531.320	4405
531.388	3665
531.456	4567
531.524	2080
531.592	5441
531.660	5839
531.728	3717
531.796	3453
531.864	5346
531.932	4897
532.000	4406
532.067	5385
532.135	6209
532.203	8589
532.271	7111
532.339	15553
532.407	50537
532.475	36859
532.542	12108
532.610	12931
532.678	17560
532.746	74827
532.814	256614
532.881	84516
532.949	14059
533.017	7281
533.084	6731
533.152	5150
533.220	5394
533.287	6810
533.355	5876
533.423	4612
533.490	4838
533.558	4343
533.625	5955
533.693	6087
533.761	6825
533.828	6192
533.896	5997
533.963	14400
534.031	22204
534.098	29782
534.166	15844
534.233	6431
534.300	7416
534.368	7224
534.435	7197
534.503	10781
534.570	21874
534.637	15847
534.705	11202
534.772	15039
534.840	28373
534.907	102298
534.974	182301
535.041	25809
535.109	10200
535.176	6729
535.243	6511
535.310	6621
535.378	7057
535.445	6127
535.512	6113
535.579	6199
535.646	5787
535.714	5933
535.781	9145
535.848	7684
535.915	8397
535.982	5723
536.049	6489
536.116	8732
536.183	6518
536.250	6501
536.317	8359
536.384	8764
536.451	15883
536.518	18484
536.585	11197
536.652	13438
536.719	21819
536.786	19655
536.853	12553
536.920	18226
536.987	31579
537.053	29538
537.120	110843
537.187	129004
537.254	14573
537.321	8753
537.388	10885
537.454	6090
537.521	7328
537.588	6879
537.654	9294
537.721	10170
537.788	10916
537.855	7958
537.921	10111
537.988	8341
538.055	9108
538.121	7579
538.188	8968
538.254	14004
538.321	34750
538.388	23949
538.454	9387
538.521	9255
538.587	8500
538.654	7069
538.720	7968
538.787	7700
538.853	8610
538.920	9579
538.986	11158
539.053	8604
539.119	9709
539.185	9558
539.252	11738
539.318	19258
539.385	16004
539.451	12175
539.517	12773
539.583	14392
539.650	28538
539.716	92398
539.782	35360
539.849	10645
539.915	10332
539.981	10729
540.047	14490
540.114	13174
540.180	12552
540.246	11346
540.312	16642
540.378	32615
540.444	38765
540.510	33066
540.576	104971
540.643	44328
540.709	11189
540.775	9471
540.841	10475
540.907	15685
540.973	41594
541.039	30380
541.105	23184
541.171	12673
541.237	10265
541.303	10651
541.369	13693
541.435	16369
541.500	31882
541.566	22986
541.632	9812
541.698	8390
541.764	10125
541.830	7687
541.896	8480
541.961	9504
542.027	9087
542.093	9903
542.159	12034
542.224	10502
542.290	16926
542.356	28826
542.421	41374
542.487	17811
542.553	11796
542.618	10781
542.684	11026
542.750	11423
542.815	12933
542.881	19770
542.947	83286
543.012	83287
543.078	12710
543.143	9048
543.209	11006
543.274	10693
543.340	12465
543.405	28967
543.471	61511
543.536	16263
543.602	9721
543.667	7795
543.732	10544
543.798	8734
543.863	9479
543.928	9277
543.994	8649
544.059	9511
544.124	9872
544.190	8961
544.255	11325
544.320	11334
544.386	11884
544.451	16418
544.516	21193
544.581	18466
544.646	48670
544.712	101143
544.777	22402
544.842	12061
544.907	11911
544.972	10204
545.037	10653
545.102	11902
545.168	12442
545.233	13009
545.298	14097
545.363	15259
545.428	17530
545.493	29908
545.558	76992
545.623	38950
545.688	13331
545.753	11984
545.818	12546
545.883	13109
545.947	12864
546.012	12922
546.077	13529
546.142	14266
546.207	14247
546.272	19517
546.337	22409
546.401	17992
546.466	16673
546.531	14025
546.596	17255
546.661	17672
546.725	18758
546.790	15495
546.855	19062
546.919	17995
546.984	22498
547.049	22332
547.113	26192
547.178	26076
547.243	30649
547.307	35432
547.372	40345
547.436	40450
547.501	39539
547.565	42478
547.630	45026
547.695	42642
547.759	40480
547.823	39737
547.888	38491
547.952	38552
548.017	40562
548.081	44015
548.146	46924
548.210	45344
548.274	44753
548.339	45501
548.403	40910
548.468	37790
548.532	38346
548.596	37932
548.660	38928
548.725	43264
548.789	48374
548.853	48269
548.917	42012
548.982	44661
549.046	41795
549.110	34671
549.174	35505
549.238	39273
549.303	44302
549.367	46960
549.431	44784
549.495	41916
549.559	41219
549.623	46294
549.687	54599
549.751	59583
549.815	62913
549.879	60493
549.943	58396
550.007	60882
550.071	61759
550.135	61190
550.199	55903
550.263	52381
550.327	50105
550.391	51553
550.455	55025
550.519	57679
550.582	62783
550.646	73126
550.710	81634
550.774	71165
550.838	69218
550.901	70218
550.965	75812
551.029	79662
551.093	84098
551.156	92152
551.220	113500
551.284	142352
551.347	105230
551.411	92201
551.475	95749
551.538	77534
551.602	71806
551.666	65340
551.729	62042
551.793	59082
551.856	60191
551.920	58724
551.983	59073
552.047	58413
552.110	58236
552.174	57980
552.237	60849
552.301	58018
552.364	54764
552.428	51870
552.491	54785
552.554	58044
552.618	58991
552.681	62176
552.745	64193
552.808	91227
552.871	131882
552.934	85958
552.998	62330
553.061	57073
553.124	54993
553.187	53334
553.251	55278
553.314	54352
553.377	55868
553.440	59976
553.503	74803
553.567	93971
553.630	62695
553.693	58640
553.756	58043
553.819	55427
553.882	53320
553.945	53606
554.008	54896
554.071	53159
554.134	56290
554.197	51730
554.260	50895
554.323	53255
554.386	53598
554.449	55031
554.512	55764
554.575	52338
554.638	53240
554.701	50907
554.764	51847
554.827	49840
554.889	47630
554.952	43437
555.015	44822
555.078	44131
555.141	46169
555.203	43872
555.266	44565
555.329	44665
555.391	43476
555.454	44509
555.517	44145
555.580	41964
555.642	38131
555.705	38203
555.768	38001
555.830	38138
555.893	35966
555.955	34284
556.018	34502
556.080	33943
556.143	35870
556.206	34698
556.268	36238
556.330	35808
556.393	35265
556.455	33067
556.518	36345
556.580	37282
556.643	31099
556.705	29320
556.767	28889
556.830	30464
556.892	32323
556.955	42176
557.017	36715
557.079	28094
557.142	29042
557.204	30183
557.266	49782
557.328	46545
557.391	25501
557.453	23251
557.515	25587
557.577	28610
557.639	31402
557.701	25754
557.764	25200
557.826	26243
557.888	29426
557.950	29091
558.012	31835
558.074	38975
558.136	82286
558.198	240895
558.260	105486
558.322	37181
558.384	38348
558.446	43689
558.508	49683
558.570	58538
558.632	86811
558.694	122695
558.756	132919
558.818	376101
558.880	1122077
558.942	418097
559.003	253584
559.065	152001
559.127	54667
559.189	51579
559.251	57137
559.312	76185
559.374	175619
559.436	682463
559.498	422698
559.559	65314
559.621	52176
559.683	55097
559.744	84922
559.806	283447
559.868	538243
559.929	111166
559.991	52533
560.052	71494
560.114	218632
560.176	167252
560.237	116373
560.299	234352
560.360	58486
560.422	21798
560.483	19201
560.545	16365
560.606	16245
560.667	13630
560.729	14491
560.790	14052
560.852	13828
560.913	14813
560.974	14542
561.036	12951
561.097	14849
561.158	14607
561.220	15619
561.281	13508
561.342	15511
561.403	17629
561.465	23227
561.526	53663
561.587	81154
561.648	22994
561.709	13995
561.771	14363
561.832	13328
561.893	13573
561.954	13732
562.015	12355
562.076	12947
562.137	13499
562.198	13273
562.259	11942
562.320	13523
562.381	15493
562.442	22957
562.503	19083
562.564	13893
562.625	12969
562.686	13153
562.747	15296
562.808	14650
562.869	12740
562.930	14184
562.991	12495
563.051	12585
563.112	12035
563.173	11815
563.234	11150
563.294	12462
563.355	10907
563.416	13755
563.477	11541
563.537	12745
563.598	12901
563.659	13105
563.720	11738
563.780	13694
563.841	13890
563.901	13213
563.962	11490
564.023	11891
564.083	11857
564.144	13180
564.204	11505
564.265	12487
564.325	12419
564.386	19384
564.446	19609
564.507	13119
564.567	11981
564.628	12672
564.688	11028
564.749	11340
564.809	13405
564.869	14527
564.930	13118
564.990	13081
565.050	11609
565.111	12852
565.171	11253
565.231	11844
565.292	12346
565.352	11590
565.412	12246
565.472	13139
565.532	14600
565.593	12949
565.653	11907
565.713	14344
565.773	13670
565.833	17575
565.893	23593
565.953	15374
566.013	12005
566.074	13812
566.134	15807
566.194	20218
566.254	24132
566.314	18089
566.374	13694
566.434	15709
566.494	14354
566.554	15422
566.614	15262
566.673	16134
566.733	16860
566.793	16810
566.853	17554
566.913	17662
566.973	17158
567.033	18845
567.092	19635
567.152	19411
567.212	20087
567.272	18581
567.331	19774
567.391	19854
567.451	21417
567.511	24222
567.570	24892
567.630	20231
567.690	19414
567.749	20276
567.809	21063
567.868	25029
567.928	26991
567.988	29695
568.047	33918
568.107	41895
568.166	57328
568.226	93809
568.285	139020
568.345	112260
568.404	83143
568.464	70488
568.523	63878
568.582	65563
568.642	72511
568.701	91084
568.761	137622
568.820	234633
568.879	224790
568.939	149039
568.998	106074
569.057	78515
569.116	61646
569.176	49080
569.235	40335
569.294	35373
569.353	30697
569.413	29283
569.472	25355
569.531	24686
569.590	21075
569.649	21133
569.708	19310
569.767	21177
569.827	24218
569.886	22547
569.945	16423
570.004	18229
570.063	16525
570.122	18487
570.181	17498
570.240	16484
570.299	17649
570.358	20510
570.417	14785
570.475	15181
570.534	15546
570.593	16956
570.652	16489
570.711	17705
570.770	15756
570.829	17466
570.887	17630
570.946	20355
571.005	15226
571.064	15221
571.122	18075
571.181	18206
571.240	14556
571.299	14116
571.357	12576
571.416	13187
571.475	14001
571.533	15722
571.592	13258
571.650	13415
571.709	12921
571.768	13709
571.826	13602
571.885	12998
571.943	11220
572.002	11756
572.060	11428
572.119	12432
572.177	11671
572.236	11200
572.294	10576
572.352	12358
572.411	11818
572.469	12393
572.528	11535
572.586	12952
572.644	13958
572.703	20036
572.761	13369
572.819	11003
572.877	10157
572.936	11299
572.994	10433
573.052	10534
573.110	11045
573.169	12952
573.227	10805
573.285	12019
573.343	10920
573.401	11321
573.459	10711
573.517	9805
573.576	10632
573.634	11774
573.692	13052
573.750	11572
573.808	9997
573.866	10645
573.924	12579
573.982	12726
574.040	10769
574.098	11104
574.155	10409
574.213	10535
574.271	9462
574.329	12164
574.387	9988
574.445	9732
574.503	8837
574.560	10115
574.618	9142
574.676	10165
574.734	9900
574.792	10642
574.849	10033
574.907	9648
574.965	9247
575.022	9385
575.080	8433
575.138	10112
575.195	9583
575.253	11286
575.311	11562
575.368	10852
575.426	8053
575.483	10023
575.541	9340
575.598	8928
575.656	9821
575.713	9681
575.771	10331
575.828	10010
575.886	9348
575.943	11031
576.001	9885
576.058	9909
576.115	9598
576.173	11883
576.230	13195
576.287	16407
576.345	12981
576.402	10246
576.459	11402
576.517	10624
576.574	10266
576.631	11342
576.688	9645
576.746	9472
576.803	9724
576.860	8554
576.917	8912
576.974	9940
577.031	9723
577.089	9886
577.146	9071
577.203	10223
577.260	10621
577.317	10974
577.374	10545
577.431	10531
577.488	10022
577.545	10650
577.602	9520
577.659	9718
577.716	9849
577.773	10706
577.830	8880
577.886	10279
577.943	8589
578.000	10081
578.057	11166
578.114	11396
578.171	10418
578.227	11427
578.284	9709
578.341	11653
578.398	11217
578.454	12501
578.511	11779
578.568	12824
578.625	11666
578.681	11289
578.738	9460
578.794	11212
578.851	9731
578.908	11297
578.964	10785
579.021	11489
579.077	11746
579.134	12463
579.190	10717
579.247	10178
579.303	11155
579.360	9686
579.416	10819
579.473	9194
579.529	9229
579.586	10686
579.642	11122
579.698	10373
579.755	10922
579.811	11394
579.867	9845
579.924	10613
579.980	9500
580.036	11335
580.093	11104
580.149	12120
580.205	11325
580.261	11599
580.317	11203
580.374	11399
580.430	13176
580.486	12529
580.542	11000
580.598	12228
580.619	12055
580.654	11754
580.692	11697
580.710	11671
580.765	11113
580.767	11091
580.823	12628
580.838	12305
580.879	11427
580.911	11346
580.935	11277
580.984	11540
580.991	11578
581.047	12213
581.057	11995
581.103	10994
581.130	11154
581.159	11315
581.203	11860
581.215	11993
581.270	12199
581.276	12099
581.326	11101
581.349	11333
581.382	11696
581.422	11964
581.438	12031
581.494	12186
581.494	12188
581.550	11880
581.567	12339
581.606	13228
581.640	12960
581.661	12830
581.713	13238
581.717	13255
581.773	12829
581.786	12705
581.829	12349
581.859	12018
581.885	11681
581.932	13021
581.940	13283
581.996	12921
582.004	13061
582.052	13540
582.077	12901
582.107	12271
582.150	13942
582.163	14433
582.219	13558
582.223	13606
582.274	14134
582.296	14231
582.330	14230
582.368	14660
582.386	14949
582.441	14121
582.441	14112
582.497	14490
582.514	14379
582.552	14243
582.587	14573
582.608	14731
582.659	14724
582.663	14715
582.719	15191
582.732	15124
582.774	15043
582.805	15439
582.830	15740
582.877	15794
582.885	15752
582.941	15884
582.950	15896
582.996	16360
583.023	16443
583.052	16454
583.095	16496
583.107	16484
583.162	17747
583.168	17731
583.218	17417
583.240	17401
583.273	17442
583.313	17318
583.328	17301
583.384	18551
583.385	18531
583.439	17897
583.458	17737
583.494	17421
583.531	17525
583.549	17638
583.603	18532
583.605	18555
583.660	17978
583.676	18326
583.715	19449
583.748	19472
583.770	19561
583.820	20490
583.825	20537
583.881	19637
583.893	19743
583.936	20492
583.965	20523
583.991	20373
584.038	20335
584.046	20415
584.101	21198
584.110	21351
584.156	21931
584.183	21784
584.211	21567
584.255	21527
584.266	21558
584.321	20928
584.328	21111
584.376	23078
584.400	23220
584.431	23340
584.472	23891
584.486	24095
584.541	24376
584.545	24434
584.596	25807
584.617	25893
584.651	26157
584.689	26914
584.706	27225
584.761	27600
584.762	27575
584.816	27912
584.834	28255
584.871	29031
584.906	29859
584.926	30354
584.978	30994
584.980	31080
585.035	32972
585.051	33753
585.090	36009
585.123	37196
585.145	38200
585.195	41563
585.200	42037
585.254	47061
585.267	48356
585.309	53412
585.340	57305
585.364	60625
585.412	66625
585.419	67747
585.473	76876
585.484	78863
585.528	96142
585.556	111775
585.583	155749
585.628	246348
585.637	287367
585.692	586956
585.700	639297
585.747	800743
585.772	754188
585.801	507363
585.845	189086
585.856	160373
585.910	89622
585.917	81644
585.965	68669
585.989	62959
586.019	59691
586.061	56000
586.074	55932
586.128	56249
586.133	56204
586.183	57399
586.205	57703
586.237	57392
586.277	56088
586.292	56016
586.346	56165
586.349	56019
586.401	55769
586.421	56128
586.455	57986
586.493	59862
586.509	62198
586.564	69723
586.565	69835
586.618	84631
586.637	87628
586.672	82809
586.709	76025
586.727	75731
586.781	77844
586.781	78006
586.835	73606
586.853	72506
586.889	71923
586.925	71076
586.944	71876
586.996	75148
586.998	75415
587.052	77352
587.068	77981
587.106	80394
587.140	81595
587.161	82787
587.212	86301
587.215	86722
587.269	90407
587.284	91453
587.323	95029
587.356	96844
587.377	98803
587.427	104414
587.431	105132
587.485	110783
587.499	111974
587.539	116976
587.571	120560
587.593	124020
587.643	131317
587.648	132506
587.702	141718
587.715	143853
587.755	153356
587.786	159246
587.810	164842
587.858	176987
587.864	179182
587.917	195849
587.930	199430
587.971	216646
588.001	228166
588.025	239741
588.073	261734
588.079	266061
588.133	300250
588.145	307280
588.187	342080
588.217	365442
588.241	390926
588.288	440001
588.295	449466
588.348	522151
588.360	536753
588.402	612960
588.431	665083
588.456	722098
588.503	829803
588.510	853790
588.564	1035031
588.575	1071816
588.617	1294015
588.646	1446792
588.671	1668720
588.718	2098482
588.725	2210434
588.778	3068483
588.789	3243547
588.832	3974565
588.861	4470598
588.886	4577344
588.932	4655136
588.939	4652463
588.993	4344360
589.004	4312414
589.047	4616740
589.075	4692672
589.100	4294143
589.147	3466068
589.154	3364484
589.207	2550904
589.218	2383796
589.261	2190819
589.290	2064843
589.314	2154445
589.361	2333131
589.368	2430379
589.421	3212718
589.433	3377349
589.475	4105294
589.504	4607304
589.528	4659949
589.576	4566354
589.582	4576165
589.635	4553930
589.647	4509246
589.689	3531218
589.718	2815532
589.742	2375512
589.790	1519110
589.795	1480312
589.849	1092767
589.861	1001836
589.902	851320
589.932	736999
589.955	682470
590.004	563783
590.009	558431
590.062	482384
590.075	462444
590.115	421981
590.146	388546
590.168	374172
590.218	338553
590.222	337507
590.275	308786
590.289	300357
590.328	284642
590.360	270080
590.381	263741
590.431	245791
590.435	245769
590.488	230698
590.503	225802
590.541	220101
590.574	213407
590.594	209488
590.645	197324
590.647	197716
590.700	188627
590.716	185321
590.753	180420
590.787	174478
590.806	172835
590.859	166288
590.859	166825
590.912	161523
590.930	159286
590.965	158452
591.001	156266
591.018	155235
591.071	150419
591.072	149798
591.124	147354
591.143	145805
591.177	145347
591.214	143443
591.230	143982
591.283	144600
591.285	144050
591.336	144118
591.356	143532
591.389	142717
591.427	140095
591.442	138195
591.495	129321
591.498	128168
591.547	126983
591.569	125792
591.600	124628
591.640	121853
591.653	122095
591.706	121149
591.711	120581
591.759	121940
591.782	121879
591.811	123188
591.853	124034
591.864	123701
591.917	119373
591.924	118271
591.969	117418
591.995	116287
592.022	116651
592.066	115906
592.075	116860
592.127	120010
592.137	120114
592.180	123382
592.208	124645
592.233	121837
592.279	115078
592.285	115432
592.338	114592
592.350	113924
592.390	112758
592.421	111140
592.443	111843
592.491	111912
592.495	112362
592.548	112415
592.562	111974
592.600	111220
592.633	109756
592.653	110667
592.704	111255
592.705	111892
592.775	111465
592.846	112962
592.916	116936
592.987	122782
593.058	113441
593.128	107870
593.199	107512
593.270	106195
593.341	106087
593.411	111135
593.482	112031
593.553	108228
593.623	105348
593.694	108181
593.764	110814
593.835	106968
593.906	107043
593.976	107357
594.047	110666
594.117	117092
594.188	117326
594.258	110459
594.329	109942
594.399	111481
594.470	111392
594.540	113321
594.611	114729
594.681	113914
594.751	115966
594.822	121890
594.892	125693
594.963	125439
595.033	123916
595.103	126049
595.174	128621
595.244	144174
595.314	155008
595.384	130474
595.455	130332
595.525	133879
595.595	138650
595.665	137767
595.736	134147
595.806	136035
595.876	135884
595.946	138075
596.016	138869
596.087	145131
596.157	143228
596.227	143116
596.297	151895
596.367	158701
596.437	167435
596.507	175071
596.577	183312
596.647	169394
596.717	174082
596.787	176894
596.857	173293
596.927	175269
596.997	174712
597.067	177385
597.137	182074
597.207	182085
597.277	183916
597.347	174201
597.417	171157
597.487	172580
597.557	178130
597.626	181745
597.696	186801
597.766	186173
597.836	188952
597.906	165365
597.975	159423
598.045	161350
598.115	166857
598.185	178619
598.254	199217
598.324	215758
598.394	223965
598.464	214921
598.533	207742
598.603	191080
598.672	190671
598.742	191087
598.812	188229
598.881	194173
598.951	191274
599.020	193104
599.090	198403
599.159	201664
599.229	195393
599.299	189925
599.368	194461
599.437	190642
599.507	178408
599.576	173898
599.646	171222
599.715	171106
599.785	169373
599.854	164261
599.924	165768
599.993	161200
600.062	163364
600.132	167693
600.201	179280
600.270	206989
600.340	214469
600.409	206978
600.478	204591
600.547	210085
600.617	191830
600.686	159612
600.755	147139
600.824	148304
600.894	139701
600.963	134275
601.032	132197
601.101	127925
601.170	123754
601.239	123186
601.308	128499
601.378	124937
601.447	119738
601.516	122327
601.585	128351
601.654	139097
601.723	127768
601.792	128439
601.861	133772
601.930	145832
601.999	150414
602.068	142630
602.137	152818
602.206	154579
602.275	149568
602.343	166262
602.412	162729
602.481	146528
602.550	144621
602.619	147996
602.688	151513
602.756	149009
602.825	147196
602.894	151197
602.963	154706
603.032	155476
603.100	155514
603.169	155425
603.238	154991
603.307	156088
603.375	158465
603.444	161550
603.513	164779
603.581	168126
603.650	169992
603.719	167119
603.787	169830
603.856	178462
603.924	183200
603.993	189080
604.061	190053
604.130	201815
604.198	205705
604.267	207186
604.335	207726
604.404	210742
604.472	212893
604.541	214832
604.609	218167
604.678	217927
604.746	219145
604.815	227154
604.883	228480
604.951	229155
605.020	233015
605.088	237127
605.156	244436
605.225	246250
605.293	244172
605.361	246572
605.429	251055
605.498	259942
605.566	268177
605.634	276989
605.702	284453
605.771	292879
605.839	291869
605.907	284595
605.975	273675
606.043	269176
606.111	268791
606.180	269646
606.248	268135
606.316	266885
606.384	267077
606.452	283446
606.520	313809
606.588	293677
606.656	284065
606.724	277471
606.792	261253
606.860	234964
606.928	213353
606.996	206422
607.064	203587
607.132	207740
607.200	220813
607.267	226966
607.335	232790
607.403	237612
607.471	228466
607.539	223035
607.607	226136
607.674	201815
607.742	204045
607.810	206116
607.878	202719
607.946	204419
608.013	215178
608.081	221782
608.149	222615
608.216	226990
608.284	230392
608.352	231455
608.419	229952
608.487	233221
608.555	223685
608.622	227205
608.690	240561
608.757	265967
608.825	273818
608.893	270689
608.960	268458
609.028	261697
609.095	251916
609.163	240927
609.230	215616
609.298	197568
609.365	210754
609.432	224902
609.500	244172
609.567	279375
609.635	322242
609.702	336580
609.769	319636
609.837	256130
609.904	225546
609.971	237981
610.039	281804
610.106	407881
610.173	855060
610.241	2011980
610.308	1263303
610.375	469016
610.442	278873
610.509	237989
610.577	232281
610.644	230379
610.711	238337
610.778	240460
610.845	249235
610.912	266246
610.980	278680
611.047	280749
611.114	275648
611.181	261186
611.248	255341
611.315	272880
611.382	278022
611.449	289147
611.516	292306
611.583	290409
611.650	293949
611.717	298932
611.784	310872
611.851	335830
611.918	377423
611.984	463530
612.051	719633
612.118	1607772
612.185	3937196
612.252	2476755
612.319	600072
612.386	428225
612.452	373538
612.519	349824
612.586	345592
612.653	341334
612.719	348590
612.786	333232
612.853	304458
612.919	297746
612.986	301856
613.053	282737
613.120	265184
613.186	256730
613.253	258279
613.319	257699
613.386	260377
613.453	269370
613.519	283847
613.586	306767
613.652	353262
613.719	319272
613.785	302168
613.852	270769
613.918	267365
613.985	271536
614.051	294553
614.118	317466
614.184	303904
614.250	268550
614.317	271082
614.383	266496
614.449	269748
614.516	270409
614.582	271378
614.648	266448
614.715	264694
614.781	258485
614.847	258897
614.914	259723
614.980	253146
615.046	254050
615.112	262032
615.179	266671
615.245	278693
615.311	300113
615.377	371209
615.443	395564
615.509	322238
615.575	304947
615.642	295520
615.708	306393
615.774	325000
615.840	363512
615.906	427492
615.972	602831
616.038	1085306
616.104	2181952
616.170	4682656
616.236	3973721
616.302	956005
616.368	620913
616.434	435135
616.500	382567
616.565	424089
616.631	533361
616.697	437401
616.763	448449
616.829	706374
616.895	1286625
616.961	1243427
617.026	539824
617.092	339662
617.158	296679
617.224	281899
617.289	257610
617.355	243635
617.421	235995
617.487	234440
617.552	220230
617.618	219614
617.684	217735
617.749	217287
617.815	209478
617.880	202932
617.946	205074
618.012	211848
618.077	213266
618.143	203342
618.208	204826
618.274	220707
618.339	222870
618.405	183460
618.470	183370
618.536	184709
618.601	183658
618.667	170817
618.732	160346
618.798	158876
618.863	157946
618.928	156848
618.994	164703
619.059	176547
619.124	220659
619.190	175711
619.255	156266
619.320	157117
619.386	155347
619.451	154362
619.516	147182
619.581	150640
619.647	153348
619.712	154985
619.777	145508
619.842	149884
619.907	156307
619.972	155679
620.038	155428
620.103	149099
620.168	147033
620.233	149584
620.298	149621
620.363	151088
620.428	153823
620.493	159745
620.558	161103
620.623	162812
620.688	162069
620.753	160822
620.818	163662
620.883	165382
620.948	165365
621.013	162579
621.078	160848
621.143	162439
621.207	168284
621.272	166368
621.337	167002
621.402	160961
621.467	169284
621.532	169918
621.596	163768
621.661	155254
621.726	151374
621.791	153843
621.855	159767
621.920	162096
621.985	157521
622.049	163423
622.114	160008
622.179	159567
622.243	166926
622.308	169939
622.373	177193
622.437	173351
622.502	161944
622.566	159642
622.631	162141
622.695	164904
622.760	163295
622.824	164303
622.889	169820
622.953	183354
623.018	245561
623.082	234790
623.147	179372
623.211	174587
623.276	175601
623.340	163384
623.404	155982
623.469	153128
623.533	156068
623.597	154352
623.662	153235
623.726	141315
623.790	133036
623.854	128991
623.919	135605
623.983	138249
624.047	139190
624.111	139658
624.176	143877
624.240	155658
624.304	162812
624.368	141649
624.432	141950
624.496	149110
624.560	169834
624.625	179472
624.689	155943
624.753	160164
624.817	152041
624.881	148453
624.945	134798
625.009	131244
625.073	138019
625.137	153121
625.201	180796
625.265	172780
625.329	142468
625.393	149469
625.456	144787
625.520	149167
625.584	156138
625.648	165700
625.712	185458
625.776	251668
625.839	257426
625.903	151848
625.967	126357
626.031	150976
626.095	198451
626.158	142552
626.222	109953
626.286	102234
626.349	98766
626.413	95763
626.477	103914
626.540	97183
626.604	94458
626.668	92177
626.731	91543
626.795	93783
626.858	94295
626.922	92145
626.986	91745
627.049	90801
627.113	94221
627.176	91360
627.240	88820
627.303	90366
627.366	90325
627.430	94436
627.493	90677
627.557	88395
627.620	90127
627.684	94699
627.747	95336
627.810	88174
627.874	81470
627.937	77545
628.000	84757
628.064	81605
628.127	71874
628.190	72919
628.253	71648
628.317	69760
628.380	66848
628.443	66670
628.506	68724
628.569	64435
628.632	58661
628.696	60531
628.759	60297
628.822	57796
628.885	57615
628.948	57954
629.011	58819
629.074	58152
629.137	55005
629.200	54859
629.263	59131
629.326	53243
629.389	53379
629.452	53199
629.515	53645
629.578	54296
629.641	57633
629.704	56576
629.767	58531
629.830	52562
629.892	52326
629.955	52777
630.018	59033
630.081	66889
630.144	82460
630.207	63283
630.269	60136
630.332	54869
630.395	52171
630.458	49763
630.520	50087
630.583	50480
630.646	49445
630.708	49602
630.771	49608
630.834	53292
630.896	50102
630.959	50737
631.021	49324
631.084	51311
631.146	54139
631.209	55235
631.272	52090
631.334	53016
631.397	53977
631.459	55763
631.522	62639
631.584	60354
631.646	64591
631.709	71263
631.771	85116
631.834	67579
631.896	59480
631.958	55061
632.021	55476
632.083	50669
632.145	52054
632.208	52869
632.270	53092
632.332	47265
632.395	46948
632.457	48535
632.519	48748
632.581	48089
632.643	47343
632.706	47853
632.768	45796
632.830	47553
632.892	47643
632.954	47897
633.016	49880
633.078	48272
633.141	48424
633.203	47826
633.265	47963
633.327	48393
633.389	49621
633.451	57751
633.513	66439
633.575	59881
633.637	66625
633.698	63763
633.760	54371
633.822	55393
633.884	56403
633.946	56825
634.008	58130
634.070	61873
634.132	67167
634.193	72940
634.255	78308
634.317	78739
634.379	79749
634.441	70055
634.502	63779
634.564	57568
634.626	54117
634.687	52127
634.749	49143
634.811	49574
634.873	46992
634.934	48870
634.996	48650
635.057	47560
635.119	48352
635.181	50510
635.242	50186
635.304	48712
635.365	51539
635.427	50174
635.488	53694
635.550	49274
635.611	50429
635.673	50382
635.734	56195
635.796	60445
635.857	66916
635.918	67659
635.980	74560
636.041	80502
636.102	87183
636.164	86261
636.225	83037
636.286	71071
636.348	65156
636.409	57066
636.470	52272
636.531	51336
636.593	50810
636.654	47990
636.715	44859
636.776	43470
636.838	41966
636.899	41697
636.960	39999
637.021	40040
637.082	39407
637.143	39960
637.204	37418
637.265	37506
637.326	38663
637.387	38772
637.448	37870
637.509	38915
637.570	38113
637.631	38762
637.692	35611
637.753	35719
637.814	37117
637.875	35582
637.936	36290
637.997	37984
638.058	37985
638.119	37198
638.179	35806
638.240	34370
638.301	35075
638.362	34534
638.423	33536
638.483	34731
638.544	31610
638.605	33025
638.666	31129
638.726	34114
638.787	32568
638.848	32698
638.908	31897
638.969	31770
639.030	31276
639.090	31458
639.151	33355
639.211	39555
639.272	51737
639.332	83291
639.393	47095
639.453	36848
639.514	37692
639.574	32621
639.635	30711
639.695	32054
639.756	33012
639.816	36716
639.877	45772
639.937	76427
639.997	99810
640.058	41692
640.118	31609
640.178	32101
640.239	30997
640.299	30392
640.359	30312
640.420	32169
640.480	37221
640.540	42915
640.600	43521
640.661	40554
640.721	41930
640.781	51247
640.841	38779
640.901	33704
640.961	33865
641.021	38956
641.082	49241
641.142	65123
641.202	42048
641.262	29323
641.322	29362
641.382	27398
641.442	28898
641.502	28171
641.562	29937
641.622	28851
641.682	33097
641.742	37514
641.802	36979
641.861	33073
641.921	32992
641.981	38139
642.041	38315
642.101	48930
642.161	32559
642.221	27416
642.280	27090
642.340	26043
642.400	26175
642.460	27388
642.519	27308
642.579	27660
642.639	29027
642.698	25524
642.758	31499
642.818	28725
642.877	28951
642.937	32797
642.997	39798
643.056	58731
643.116	35352
643.175	31932
643.235	29940
643.294	31402
643.354	34778
643.414	38910
643.473	48066
643.532	63513
643.592	92748
643.651	151796
643.711	280321
643.770	583194
643.830	1452187
643.889	2853991
643.948	641587
644.008	118858
644.067	71505
644.126	53048
644.186	43537
644.245	37438
644.304	33203
644.363	35044
644.423	30977
644.482	32770
644.541	34641
644.600	34764
644.659	45880
644.719	58894
644.778	93220
644.837	164263
644.896	354226
644.955	805932
645.014	237950
645.073	56872
645.132	40973
645.191	38066
645.250	35627
645.309	36823
645.368	40776
645.427	53301
645.486	93029
645.545	153797
645.604	47625
645.663	33031
645.722	33941
645.781	37977
645.840	44017
645.898	57773
645.957	86210
646.016	140717
646.075	268016
646.134	551251
646.192	1528232
646.251	2065410
646.310	292041
646.369	83104
646.427	65299
646.486	46824
646.545	37681
646.603	33994
646.662	31050
646.721	30098
646.779	31258
646.838	33675
646.896	43334
646.955	58932
647.014	95726
647.072	189448
647.131	517222
647.189	223530
647.248	37263
647.306	29526
647.365	26413
647.423	22919
647.481	24449
647.540	22018
647.598	21468
647.657	21598
647.715	22023
647.773	20621
647.832	21213
647.890	19509
647.948	18440
648.007	20709
648.065	19382
648.123	19667
648.181	22144
648.240	20544
648.298	19281
648.356	18400
648.414	18902
648.472	19686
648.531	18985
648.589	18142
648.647	18725
648.705	19266
648.763	19303
648.821	21771
648.879	21279
648.937	26871
648.995	33333
649.053	43705
649.111	69617
649.169	119024
649.227	222985
649.285	483860
649.343	1374095
649.401	595563
649.459	153571
649.516	83682
649.574	43834
649.632	53504
649.690	57560
649.748	51461
649.806	74213
649.863	134476
649.921	361005
649.979	215763
650.037	33835
650.094	22112
650.152	21381
650.210	18766
650.268	19272
650.325	18212
650.383	20562
650.440	16165
650.498	16992
650.556	15735
650.613	14853
650.671	16676
650.728	16035
650.786	17773
650.843	23649
650.901	17125
650.958	15078
651.016	14187
651.073	14057
651.131	12788
651.188	13100
651.246	15226
651.303	13169
651.360	14069
651.418	14026
651.475	14291
651.532	13272
651.590	14263
651.647	13186
651.704	13667
651.762	14260
651.819	15351
651.876	13964
651.933	13186
651.990	13954
652.048	11228
652.105	12483
652.162	12144
652.219	11915
652.276	13450
652.333	12824
652.390	11788
652.448	12971
652.505	12501
652.562	13045
652.619	13719
652.676	16542
652.733	16278
652.790	12155
652.847	10997
652.904	12393
652.961	11377
653.017	12043
653.074	12787
653.131	13731
653.188	12236
653.245	12011
653.302	12560
653.359	12105
653.415	13068
653.472	12031
653.529	12713
653.586	11620
653.642	11491
653.699	12031
653.756	10331
653.813	11685
653.869	12486
653.926	11821
653.983	11675
654.039	11250
654.096	11253
654.152	12371
654.209	10428
654.266	12194
654.322	11654
654.379	12946
654.435	14519
654.492	15702
654.548	22419
654.605	33301
654.661	15917
654.717	12347
654.774	12158
654.830	12063
654.887	12010
654.943	12442
655.000	13869
655.056	12020
655.112	12663
655.168	11464
655.225	12954
655.281	13368
655.337	14310
655.394	18950
655.450	15424
655.506	15081
655.562	19347
655.618	16590
655.675	10933
655.731	11554
655.787	11251
655.843	12144
655.899	10729
655.955	11086
656.011	11587
656.067	10333
656.123	11539
656.179	12464
656.235	12677
656.291	10588
656.347	13147
656.403	11603
656.459	11986
656.515	13075
656.571	12708
656.627	12140
656.683	12062
656.739	12593
656.795	12807
656.850	14126
656.906	16856
656.962	14219
657.018	11475
657.074	13945
657.129	16331
657.185	23019
657.241	43297
657.297	24944
657.352	12767
657.408	11357
657.464	14470
657.519	10955
657.575	9981
657.630	10334
657.686	9698
657.742	9978
657.797	10771
657.853	9750
657.908	10691
657.964	9415
658.019	10419
658.075	10534
658.130	10799
658.186	8844
658.241	9843
658.297	10051
658.352	10120
658.407	10996
658.463	10156
658.518	9659
658.573	9460
658.629	10722
658.684	9800
658.739	10212
658.795	8208
658.850	9732
658.905	10081
658.960	10463
659.016	9483
659.071	11616
659.126	13449
659.181	14948
659.236	27117
659.291	27157
659.346	15804
659.401	13511
659.457	11545
659.512	11454
659.567	11594
659.622	9725
659.677	10763
659.732	10097
659.787	10252
659.842	10702
659.897	11889
659.952	9272
660.007	9512
660.061	9552
660.116	8303
660.171	10453
660.226	9363
660.281	10099
660.336	8152
660.391	10683
660.445	9161
660.500	10150
660.555	10110
660.610	9872
660.664	9910
660.719	8834
660.774	9823
660.828	10792
660.883	10821
660.938	10067
660.992	8299
661.047	9359
661.101	8268
661.156	10136
661.211	7804
661.265	9605
661.320	9551
661.374	8127
661.429	8961
661.483	9094
661.538	8503
661.592	8668
661.647	9140
661.701	10010
661.755	8157
661.810	9553
661.864	8692
661.919	8232
661.973	9537
662.027	8356
662.081	8459
662.136	8382
662.190	9007
662.244	9260
662.299	8905
662.353	9217
662.407	8377
662.461	9875
662.515	9247
662.569	8907
662.624	8914
662.678	8941
662.732	9456
662.786	8893
662.840	8594
662.894	9233
662.948	8843
663.002	9009
663.056	8916
663.110	8925
663.164	8932
663.218	9422
663.272	9985
663.326	11177
663.380	10805
663.434	10063
663.488	8989
663.542	9140
663.595	9351
663.649	9176
663.703	8774
663.757	9630
663.811	8165
663.864	8856
663.918	9419
663.972	9043
664.026	8969
664.079	9067
664.133	9406
664.187	8863
664.240	8789
664.294	9792
664.348	8619
664.401	9232
664.455	8850
664.508	8529
664.562	8767
664.615	8584
664.669	8168
664.722	8045
664.776	8338
664.829	9741
664.883	8496
664.936	8229
664.990	9567
665.043	9618
665.097	9333
665.150	10664
665.203	8817
665.257	8926
665.310	9353
665.363	9328
665.417	9960
665.470	9238
665.523	9168
665.576	10073
665.630	9726
665.683	9196
665.736	9979
665.789	9514
665.842	8695
665.895	9978
665.949	9076
666.002	8977
666.055	9005
666.108	11125
666.161	10032
666.214	10704
666.267	11168
666.320	13127
666.373	11085
666.426	10543
666.479	9969
666.532	10239
666.585	10822
666.638	11379
666.691	9884
666.744	11547
666.796	10952
666.849	10564
666.902	10632
666.955	9380
667.008	9263
667.060	9141
667.113	8436
667.166	9198
667.219	8983
667.271	9727
667.324	9275
667.377	9299
667.430	8967
667.482	10765
667.535	10333
667.587	11111
667.640	11862
667.693	15794
667.745	29517
667.798	26734
667.850	10661
667.903	10121
667.955	9563
668.008	9372
668.060	10825
668.113	9914
668.165	10573
668.218	9751
668.270	9690
668.322	9843
668.375	9848
668.427	9393
668.479	8659
668.532	10560
668.584	9422
668.636	8880
668.689	9902
668.741	8942
668.793	9281
668.845	10263
668.898	10166
668.950	9702
669.002	9757
669.054	9588
669.106	9267
669.158	9621
669.211	9562
669.263	9271
669.315	11327
669.367	11420
669.419	11906
669.471	13034
669.523	14923
669.575	19433
669.627	16046
669.679	12840
669.731	11727
669.783	13159
669.835	13752
669.886	14072
669.938	11653
669.990	11201
670.042	10986
670.094	11975
670.146	13312
670.197	15106
670.249	18905
670.301	21708
670.353	30700
670.404	43424
670.456	65046
670.508	104154
670.560	176245
670.611	311085
670.663	553159
670.715	1348173
670.766	1913282
670.818	496111
670.869	91020
670.921	50187
670.972	37146
671.024	28957
671.075	23718
671.127	19147
671.178	16816
671.230	16786
671.281	16881
671.333	16640
671.384	16920
671.436	19152
671.487	24540
671.538	30781
671.590	44512
671.641	67702
671.692	117003
671.744	204129
671.795	138755
671.846	55250
671.897	30827
671.949	22192
672.000	17693
672.051	15519
672.102	14015
672.153	12227
672.204	11865
672.256	12049
672.307	10959
672.358	10796
672.409	9720
672.460	10236
672.511	9890
672.562	9679
672.613	9136
672.664	9403
672.715	9894
672.766	8730
672.817	8760
672.868	9047
672.919	8245
672.970	8161
673.021	8564
673.071	8165
673.122	8243
673.173	8502
673.224	7663
673.275	7966
673.326	7662
673.376	8182
673.427	7056
673.478	7713
673.528	8923
673.579	7911
673.630	7242
673.680	8961
673.731	7618
673.782	7755
673.832	7913
673.883	7522
673.934	8099
673.984	7569
674.035	8441
674.085	8393
674.136	8555
674.186	8490
674.237	9174
674.287	11686
674.338	8844
674.388	7771
674.438	8468
674.489	8869
674.539	9072
674.589	9089
674.640	8399
674.690	8333
674.740	7775
674.791	8970
674.841	8681
674.891	8301
674.942	8320
674.992	8374
675.042	7198
675.092	6378
675.142	6567
675.193	6534
675.243	7484
675.293	7937
675.343	7863
675.393	7495
675.443	7406
675.493	7149
675.543	6884
675.593	7129
675.643	7417
675.693	7351
675.743	7058
675.793	6681
675.843	6024
675.893	7173
675.943	5874
675.993	6294
676.043	6834
676.093	5747
676.142	5677
676.192	6938
676.242	6433
676.292	6394
676.341	6410
676.391	6786
676.441	6009
676.491	6071
676.540	6215
676.590	6280
676.640	5769
676.689	6095
676.739	5194
676.789	6341
676.838	5361
676.888	5792
676.937	5921
676.987	6027
677.037	5235
677.086	4976
677.136	4653
677.185	5673
677.235	5595
677.284	5968
677.333	5004
677.383	5107
677.432	4158
677.482	5691
677.531	4525
677.580	5123
677.630	5801
677.679	5339
677.728	5470
677.778	5692
677.827	5566
677.876	5528
677.925	5212
677.975	5238
678.024	5258
678.073	6032
678.122	5709
678.171	6001
678.220	6366
678.269	7154
678.319	7861
678.368	8389
678.417	7441
678.466	6442
678.515	6382
678.564	6171
678.613	4934
678.662	6683
678.711	6556
678.760	4758
678.809	5211
678.857	5585
678.906	5897
678.955	5946
679.004	5906
679.053	5534
679.102	6020
679.151	5920
679.199	5641
679.248	5737
679.297	6112
679.346	5293
679.394	4830
679.443	5017
679.492	4917
679.540	5517
679.589	5613
679.638	5916
679.686	5322
679.735	5479
679.784	5815
679.832	6538
679.881	5876
679.929	4935
679.978	5395
680.026	4693
680.075	5521
680.123	4977
680.172	4460
680.220	5456
680.268	4431
680.317	3891
680.365	5262
680.414	4764
680.462	5475
680.510	5137
680.559	5078
680.607	4503
680.655	5368
680.703	5061
680.752	4757
680.800	4194
680.848	4385
680.896	4560
680.945	4425
680.993	5640
681.041	4887
681.089	5255
681.137	4742
681.185	4034
681.233	4319
681.258	4332
681.281	4301
681.329	3655
681.377	4660
681.380	4717
681.425	4940
681.473	5691
681.502	5378
681.521	5080
681.569	5937
681.617	5633
681.624	5624
681.665	5267
681.713	5268
681.745	5572
681.761	5650
681.809	5151
681.857	5742
681.867	5781
681.904	5741
681.952	6363
681.989	6158
682.000	6037
682.048	6233
682.096	6228
682.111	6110
682.143	5727
682.191	5851
682.233	6200
682.239	6208
682.286	6290
682.334	5951
682.354	6137
682.382	6308
682.430	7063
682.476	5960
682.477	5898
682.525	6977
682.572	6842
682.598	6289
682.620	5786
682.667	7142
682.715	7265
682.720	7347
682.763	7702
682.810	7964
682.841	7652
682.857	7405
682.905	8047
682.952	7997
682.963	8168
683.000	8557
683.047	7796
683.085	8060
683.095	8114
683.142	7917
683.190	7842
683.206	7662
683.237	7194
683.284	8615
683.328	7302
683.332	7159
683.379	8273
683.426	7783
683.449	7893
683.473	7978
683.521	8055
683.568	8218
683.571	8284
683.615	8710
683.662	9258
683.693	8733
683.709	8389
683.757	9529
683.804	9829
683.814	9595
683.851	8775
683.898	10261
683.936	10273
683.945	10210
683.992	10388
684.039	10871
684.057	11098
684.086	11457
684.133	11233
684.179	10655
684.180	10593
684.227	11072
684.274	11453
684.300	11686
684.321	11908
684.368	10517
684.415	10506
684.422	10610
684.462	10837
684.509	10205
684.543	10481
684.556	10613
684.603	10366
684.649	10216
684.665	10407
684.696	10872
684.743	11182
684.786	11778
684.790	11801
684.837	12071
684.883	11580
684.908	11752
684.930	11761
684.977	12567
685.023	11857
685.029	11834
685.070	11530
685.117	11300
685.150	11748
685.164	11974
685.210	12725
685.257	13053
685.272	13015
685.303	12791
685.350	13564
685.393	13584
685.396	13602
685.443	14835
685.490	16320
685.514	16032
685.536	15182
685.583	14253
685.629	13626
685.636	13567
685.675	13533
685.722	13707
685.757	13699
685.768	13723
685.815	13911
685.861	13837
685.878	13796
685.908	13706
685.954	13500
686.000	13883
686.000	13883
686.047	15179
686.093	16300
686.121	16585
686.139	16365
686.185	15722
686.232	14431
686.242	14331
686.278	14086
686.324	14199
686.363	13723
686.370	13667
686.416	13457
686.463	13535
686.484	13413
686.509	13289
686.555	13390
686.601	13515
686.606	13553
686.647	13800
686.693	13828
686.727	13694
686.739	13704
686.785	13617
686.831	14366
686.848	14327
686.877	14036
686.923	13610
686.969	13827
686.969	13828
687.015	14367
687.061	14729
687.090	14962
687.107	14885
687.153	14908
687.199	14879
687.211	14737
687.245	14815
687.291	15577
687.332	15724
687.336	15706
687.382	16350
687.428	15402
687.453	15458
687.474	15439
687.520	15691
687.565	15417
687.574	15343
687.611	15361
687.657	15370
687.695	15856
687.702	15999
687.748	17471
687.794	18095
687.816	18181
687.839	17771
687.885	17155
687.931	16800
687.937	16758
687.976	17019
688.022	16940
688.058	16901
688.067	16905
688.113	16520
688.158	17067
688.179	17215
688.204	17304
688.249	17559
688.295	17376
688.300	17345
688.340	17364
688.386	17522
688.421	17230
688.431	17136
688.477	16961
688.522	17766
688.542	17565
688.567	17433
688.613	18272
688.658	18022
688.663	18034
688.703	17766
688.749	17416
688.784	16761
688.794	16669
688.839	17111
688.884	17032
688.905	16896
688.930	16827
688.975	16976
689.020	17545
689.026	17535
689.065	17514
689.110	17324
689.146	17206
689.155	17202
689.201	17550
689.246	17906
689.267	17805
689.291	17701
689.336	17761
689.381	17794
689.388	17733
689.426	17554
689.471	17755
689.509	17516
689.516	17499
689.561	17544
689.606	17835
689.630	17804
689.651	17797
689.696	17381
689.741	17990
689.750	18127
689.785	18687
689.830	18410
689.871	18132
689.875	18117
689.920	17832
689.965	17906
689.992	17990
690.010	18159
690.054	18483
690.099	18405
690.112	18411
690.144	18402
690.189	18158
690.233	18164
690.233	18187
690.278	18337
690.323	18424
690.354	18012
690.367	17956
690.412	18275
690.457	18343
690.474	18491
690.501	18493
690.546	18197
690.590	18250
690.595	18158
690.635	18177
690.680	18736
690.716	18974
690.724	19046
690.769	19589
690.813	20018
690.836	19961
690.857	20395
690.902	21990
690.946	23332
690.957	23598
690.991	25478
691.035	28615
691.077	30846
691.080	30896
691.124	30880
691.168	30646
691.198	30296
691.213	29443
691.257	27546
691.301	25203
691.318	24258
691.346	23514
691.390	22414
691.434	21560
691.439	21403
691.478	21542
691.522	21661
691.559	21907
691.567	22049
691.611	22652
691.655	22967
691.680	23035
691.699	22750
691.743	22409
691.787	22083
691.800	21876
691.831	21736
691.875	21593
691.919	21575
691.921	21531
691.964	21665
692.008	21638
692.041	21889
692.052	21961
692.096	22076
692.139	21938
692.162	21963
692.183	22095
692.227	22274
692.271	22235
692.282	22171
692.315	22412
692.359	22797
692.402	23522
692.403	23567
692.447	23364
692.490	23692
692.523	23893
692.534	23954
692.578	23753
692.622	23750
692.643	23620
692.666	23201
692.709	22336
692.753	21317
692.763	21133
692.797	21464
692.840	21654
692.884	21990
692.884	22036
692.928	22445
692.971	22975
693.004	23388
693.015	23365
693.059	22975
693.102	22526
693.124	22325
693.146	22722
693.189	23380
693.233	24160
693.245	24327
693.276	24624
693.320	24597
693.363	24803
693.365	24764
693.407	24791
693.450	24702
693.485	24591
693.493	24802
693.537	25835
693.580	26448
693.605	27002
693.624	27988
693.667	29936
693.710	32096
693.725	32907
693.753	37399
693.797	44023
693.840	50838
693.845	51511
693.883	49870
693.926	47717
693.966	45630
693.970	45171
694.013	39642
694.056	34484
694.086	30343
694.099	29866
694.142	29088
694.185	27854
694.206	27125
694.229	26966
694.272	26883
694.315	26858
694.326	26678
694.358	27145
694.401	28141
694.444	29397
694.446	29372
694.487	28922
694.530	28262
694.566	27892
694.573	27710
694.616	26023
694.659	24445
694.686	23473
694.702	23536
694.745	23447
694.787	23424
694.806	23261
694.830	23388
694.873	23923
694.916	23952
694.926	23939
694.959	24029
695.002	24578
695.044	24571
695.046	24535
695.087	25379
695.130	25653
695.166	26055
695.172	26040
695.215	25586
695.258	25012
695.286	24719
695.301	24823
695.343	24839
695.386	24758
695.406	24656
695.428	24747
695.471	25034
695.514	25246
695.526	25219
695.556	25546
695.599	26242
695.641	26498
695.646	26481
695.684	26370
695.726	26383
695.766	25941
695.769	25977
695.811	25954
695.854	25891
695.886	25702
695.896	25759
695.938	25802
695.981	25775
696.005	25752
696.023	25897
696.065	26150
696.108	26569
696.125	26563
696.150	26797
696.192	27066
696.235	27488
696.245	27470
696.277	27233
696.319	27100
696.361	26852
696.365	26767
696.404	26712
696.446	26669
696.485	26455
696.488	26533
696.530	26736
696.572	27031
696.604	27205
696.614	27277
696.656	27208
696.698	27249
696.724	27128
696.740	27248
696.783	27418
696.825	27841
696.844	27829
696.867	27886
696.909	27974
696.951	27967
696.964	27942
696.992	27923
697.034	27636
697.076	27518
697.083	27422
697.118	27819
697.160	28185
697.202	28497
697.203	28440
697.244	28289
697.286	27869
697.323	27460
697.327	27600
697.369	28200
697.411	28899
697.442	29344
697.453	29426
697.494	29363
697.536	29423
697.562	29367
697.578	29852
697.620	30985
697.661	32015
697.682	32485
697.703	33359
697.744	34892
697.786	36543
697.801	37016
697.828	36943
697.869	36611
697.911	36302
697.921	36146
697.952	34866
697.994	33099
698.035	31298
698.040	30990
698.077	30619
698.118	30197
698.160	29812
698.160	29735
698.201	29844
698.243	29892
698.279	29887
698.284	30039
698.325	30709
698.367	31399
698.399	31853
698.408	31746
698.449	30909
698.491	30066
698.518	29400
698.532	29642
698.573	30187
698.614	30737
698.638	30965
698.656	31074
698.697	31137
698.738	31204
698.757	31166
698.779	31367
698.820	31579
698.862	31808
698.877	31808
698.903	31875
698.944	31864
698.985	31848
698.996	31764
699.026	31662
699.067	31412
699.116	31037
699.235	30567
699.354	31262
699.474	30823
699.593	32961
699.713	31995
699.832	31315
699.951	33088
700.070	31973
700.190	29469
700.309	29721
700.428	31322
700.547	29343
700.667	30399
700.786	32972
700.905	29698
701.024	30699
701.143	29685
701.262	28411
701.381	28141
701.500	31266
701.619	34674
701.738	28574
701.857	28823
701.976	26516
702.095	26877
702.214	32037
702.333	33420
702.452	30221
702.571	28948
702.690	28919
702.809	28271
702.928	27054
703.047	28102
703.165	27505
703.284	26619
703.403	27047
703.522	27896
703.640	28893
703.759	32848
703.878	36056
703.997	27525
704.115	26290
704.234	27064
704.353	26214
704.471	26630
704.590	25423
704.708	25316
704.827	23803
704.946	25673
705.064	26095
705.183	25098
705.301	27826
705.420	32393
705.538	30079
705.656	27856
705.775	28473
705.893	38772
706.012	39382
706.130	27874
706.249	27869
706.367	27522
706.485	29499
706.604	28579
706.722	30245
706.840	35043
706.958	35400
707.077	28301
707.195	26598
707.313	26445
707.431	25190
707.549	24453
707.668	24444
707.786	26690
707.904	24458
708.022	25923
708.140	24964
708.258	25411
708.376	25947
708.494	24608
708.612	27265
708.730	32390
708.848	31334
708.966	31195
709.084	29432
709.202	28185
709.320	28184
709.438	28003
709.556	27112
709.674	26951
709.791	27400
709.909	26536
710.027	26898
710.145	26866
710.263	28304
710.380	26063
710.498	26690
710.616	26138
710.733	25761
710.851	27280
710.969	26503
711.086	26551
711.204	26641
711.322	25142
711.439	25447
711.557	25585
711.674	25965
711.792	25934
711.909	26490
712.027	26408
712.144	25436
712.262	25538
712.379	26798
712.497	32857
712.614	31674
712.732	28749
712.849	28427
712.966	33024
713.084	38125
713.201	32055
713.318	30529
713.436	29187
713.553	28802
713.670	30921
713.787	32156
713.905	32790
714.022	29827
714.139	30965
714.256	39622
714.373	53600
714.490	95018
714.608	264508
714.725	1124005
714.842	905483
714.959	74547
715.076	39960
715.193	33635
715.310	31472
715.427	27131
715.544	28057
715.661	27473
715.778	27035
715.895	28276
716.011	29109
716.128	26548
716.245	28251
716.362	32798
716.479	33785
716.596	26043
716.713	25814
716.829	24361
716.946	25396
717.063	23334
717.180	22695
717.296	22566
717.413	22900
717.530	23222
717.646	22776
717.763	22377
717.880	22048
717.996	22176
718.113	23931
718.229	23272
718.346	22305
718.462	24296
718.579	33065
718.695	57510
718.812	35798
718.928	28560
719.045	23510
719.161	22377
719.277	21721
719.394	21569
719.510	23002
719.626	25587
719.743	30793
719.859	42493
719.975	81181
720.092	330864
720.208	628257
720.324	68110
720.440	28301
720.557	29395
720.673	45277
720.789	45015
720.905	68684
721.021	28222
721.137	20084
721.253	22414
721.369	23001
721.486	23262
721.602	27083
721.718	19644
721.834	18804
721.950	21054
722.066	19222
722.181	18559
722.297	21271
722.413	18402
722.529	19265
722.645	18188
722.761	18433
722.877	18202
722.993	19298
723.108	21967
723.224	19546
723.340	18561
723.456	17470
723.571	18278
723.687	16974
723.803	17931
723.918	17736
724.034	19137
724.150	16536
724.265	19964
724.381	31397
724.497	33896
724.612	16293
724.728	15792
724.843	17112
724.959	19391
725.074	30247
725.190	30582
725.305	17432
725.421	17734
725.536	15219
725.651	16703
725.767	15505
725.882	16186
725.997	15702
726.113	17433
726.228	15430
726.343	16130
726.459	14935
726.574	16466
726.689	15518
726.804	15485
726.920	15835
727.035	15437
727.150	16320
727.265	16416
727.380	17087
727.495	15049
727.610	14328
727.725	16091
727.841	16720
727.956	21542
728.071	19796
728.186	15866
728.301	14980
728.416	16678
728.531	15620
728.645	14553
728.760	16761
728.875	18409
728.990	17257
729.105	17267
729.220	18155
729.335	16845
729.449	14740
729.564	14936
729.679	13294
729.794	14122
729.908	14139
730.023	14636
730.138	13711
730.253	14181
730.367	13270
730.482	14223
730.596	14920
730.711	16623
730.826	16215
730.940	16341
731.055	16955
731.169	15368
731.284	14530
731.398	15036
731.513	16231
731.627	16941
731.742	18359
731.856	20745
731.970	19934
732.085	23436
732.199	32024
732.313	53245
732.428	136398
732.542	371157
732.656	171922
732.771	39041
732.885	25021
732.999	21893
733.113	21264
733.227	19464
733.342	18421
733.456	18136
733.570	17045
733.684	16514
733.798	17454
733.912	17376
734.026	15484
734.140	17828
734.254	17714
734.368	23513
734.482	24000
734.596	16206
734.710	15900
734.824	16582
734.938	15515
735.052	15904
735.166	17826
735.280	15500
735.393	16345
735.507	18512
735.621	20456
735.735	25266
735.849	16033
735.962	15375
736.076	16190
736.190	15422
736.303	19747
736.417	21386
736.531	15501
736.644	15413
736.758	13523
736.872	14908
736.985	14717
737.099	14469
737.212	13958
737.326	13741
737.439	14770
737.553	14541
737.666	14457
737.780	13534
737.893	14162
738.007	13365
738.120	13139
738.233	13836
738.347	13792
738.460	13220
738.573	15569
738.687	15636
738.800	15901
738.913	20177
739.026	15520
739.140	13171
739.253	13922
739.366	14086
739.479	12483
739.592	13059
739.705	13019
739.818	15097
739.932	15704
740.045	17136
740.158	13951
740.271	13821
740.384	13064
740.497	13317
740.610	14462
740.723	14563
740.836	15320
740.949	15758
741.062	21570
741.174	17067
741.287	13112
741.400	13645
741.513	14327
741.626	14987
741.739	14506
741.851	14253
741.964	13621
742.077	13226
742.189	13194
742.302	14955
742.415	15282
742.527	12468
742.640	12719
742.753	11944
742.865	12139
742.978	11541
743.090	12052
743.203	12392
743.316	11918
743.428	11191
743.541	11784
743.653	11090
743.766	10963
743.878	11658
743.990	13523
744.103	13938
744.215	12150
744.327	12835
744.440	17149
744.552	24905
744.664	14336
744.777	11417
744.889	9539
745.001	10899
745.113	11459
745.226	11319
745.338	11048
745.450	11481
745.562	11397
745.674	10462
745.786	11590
745.898	10768
746.010	11349
746.122	13849
746.234	15039
746.347	11363
746.459	10642
746.570	9238
746.682	10463
746.794	10839
746.906	10900
747.018	10582
747.130	11014
747.242	10335
747.354	10439
747.466	11180
747.577	9231
747.689	10993
747.801	9964
747.913	9639
748.024	9705
748.136	9311
748.248	9526
748.359	9472
748.471	9910
748.583	9432
748.694	9232
748.806	11419
748.918	11706
749.029	10594
749.141	12011
749.252	12302
749.364	15165
749.475	27266
749.587	15428
749.698	10052
749.809	9430
749.921	9751
750.032	9019
750.144	8473
750.255	9815
750.366	9035
750.478	9293
750.589	10398
750.700	10740
750.811	11844
750.923	15358
751.034	32381
751.145	27353
751.256	10634
751.367	9401
751.479	9691
751.590	9505
751.701	9293
751.812	9018
751.923	9034
752.034	10305
752.145	8010
752.256	9335
752.367	8940
752.478	9126
752.589	9080
752.700	8381
752.811	8845
752.922	9309
753.032	11514
753.143	11280
753.254	8654
753.365	9527
753.476	8340
753.586	8188
753.697	8423
753.808	8293
753.919	8337
754.029	8382
754.140	8925
754.251	8684
754.361	8400
754.472	8481
754.582	9151
754.693	8768
754.804	8416
754.914	8159
755.025	7472
755.135	7878
755.246	8994
755.356	7180
755.466	8426
755.577	8240
755.687	8690
755.798	7482
755.908	8063
756.018	8287
756.129	8659
756.239	8404
756.349	8460
756.460	9244
756.570	9907
756.680	8436
756.790	9173
756.900	10831
757.011	8550
757.121	7473
757.231	7064
757.341	8171
757.451	7893
757.561	7367
757.671	8246
757.781	7041
757.891	8467
758.001	8297
758.111	8963
758.221	8637
758.331	12060
758.441	11714
758.551	15920
758.661	13668
758.771	8936
758.880	9336
758.990	8874
759.100	8045
759.210	8068
759.320	10167
759.429	9013
759.539	8999
759.649	9780
759.758	11204
759.868	10757
759.978	10846
760.087	11236
760.197	11695
760.307	10487
760.416	10938
760.526	9707
760.635	10495
760.745	11546
760.854	11692
760.964	11942
761.073	11865
761.182	11737
761.292	10909
761.401	11881
761.511	9306
761.620	9551
761.729	9920
761.839	8529
761.948	9786
762.057	10334
762.166	9760
762.276	7987
762.385	9261
762.494	9167
762.603	8729
762.712	9266
762.822	9185
762.931	8515
763.040	7801
763.149	7873
763.258	8762
763.367	9470
763.476	7968
763.585	9130
763.694	9444
763.803	10025
763.912	10016
764.021	10645
764.130	9328
764.238	10378
764.347	10640
764.456	11151
764.565	11192
764.674	12402
764.783	12164
764.891	11936
765.000	13445
765.109	14200
765.217	15485
765.326	18641
765.435	21964
765.543	23829
765.652	25800
765.761	33138
765.869	46526
765.978	70525
766.086	124949
766.195	251278
766.303	646967
766.412	1523942
766.520	1151806
766.629	367639
766.737	143284
766.846	82648
766.954	55255
767.062	42857
767.171	33426
767.279	26033
767.387	22070
767.496	19861
767.604	18200
767.712	16359
767.820	15173
767.928	15009
768.037	14438
768.145	14087
768.253	13958
768.361	13492
768.469	12764
768.577	12843
768.685	14711
768.793	14990
768.901	15041
769.009	17727
769.117	18499
769.225	23049
769.333	32551
769.441	50354
769.549	95603
769.657	226095
769.765	724274
769.873	1200344
769.981	429250
770.088	110568
770.196	55185
770.304	37064
770.412	29726
770.519	22853
770.627	18272
770.735	17115
770.842	15448
770.950	14154
771.058	13960
771.165	12899
771.273	13257
771.380	12475
771.488	12752
771.595	12749
771.703	12375
771.810	12606
771.918	11393
772.025	12917
772.133	12559
772.240	12108
772.348	13068
772.455	12403
772.562	11818
772.670	11583
772.777	12181
772.884	11039
772.991	11893
773.099	11412
773.206	10904
773.313	12029
773.420	10660
773.528	9742
773.635	10392
773.742	10630
773.849	11058
773.956	10951
774.063	11129
774.170	10659
774.277	10943
774.384	9457
774.491	9806
774.598	10850
774.705	10944
774.812	12823
774.919	11169
775.026	10842
775.133	10863
775.239	10370
775.346	9385
775.453	9524
775.560	9700
775.667	9721
775.773	9167
775.880	9535
775.987	9142
776.093	10249
776.200	9115
776.307	8366
776.413	9112
776.520	9910
776.627	8565
776.733	9535
776.840	8260
776.946	10034
777.053	8536
777.159	11222
777.266	8476
777.372	10623
777.478	10223
777.585	9778
777.691	8302
777.798	9890
777.904	9577
778.010	15257
778.117	13272
778.223	8864
778.329	7672
778.435	7747
778.542	8837
778.648	8117
778.754	6804
778.860	9058
778.966	8086
779.072	8444
779.178	8941
779.284	6992
779.391	7560
779.497	7047
779.603	9565
779.708	8294
779.815	12294
779.920	28925
780.026	43060
780.132	10708
780.238	8374
780.344	7384
780.450	9053
780.556	7308
780.661	7310
780.767	8088
780.873	6576
780.979	8190
781.085	8168
781.190	7496
781.296	6704
781.402	7485
781.507	7506
781.613	6789
781.719	7081
781.824	6981
781.930	7204
782.035	8247
782.141	7250
782.246	6107
782.352	7031
782.457	7219
782.563	7000
782.668	7295
782.773	7440
782.879	7763
782.984	7897
783.090	10382
783.195	14323
783.300	10711
783.405	7183
783.511	6373
783.616	7503
783.721	7458
783.826	7117
783.932	7592
784.037	8001
784.142	7042
784.247	6782
784.352	6545
784.457	7268
784.562	7240
784.667	6783
784.772	5864
784.877	6482
784.982	7867
785.087	6188
785.192	6842
785.297	6531
785.402	7089
785.507	6061
785.611	6637
785.716	5688
785.821	6401
785.926	6313
786.031	6086
786.135	6519
786.240	6636
786.345	5192
786.450	6292
786.554	5205
786.659	5671
786.763	5509
786.868	6071
786.973	6855
787.077	5573
787.182	5609
787.286	6151
787.391	6265
787.495	5409
787.600	5473
787.704	5700
787.809	5208
787.913	5651
788.017	6718
788.122	5661
788.226	5659
788.330	4671
788.435	6055
788.539	6060
788.643	5503
788.747	5152
788.852	4976
788.956	5134
789.060	6000
789.164	5275
789.268	5183
789.372	5791
789.476	4793
789.580	4971
789.684	4415
789.788	6689
789.892	4885
789.996	5550
790.100	4852
790.204	5523
790.308	5349
790.412	5486
790.516	5253
790.620	5548
790.724	5783
790.828	4910
790.931	3923
791.035	6306
791.139	6183
791.242	5474
791.346	5871
791.450	5306
791.554	4956
791.657	4506
791.761	6179
791.864	6001
791.968	5683
792.072	5151
792.175	4891
792.279	4714
792.382	5834
792.486	5365
792.589	5554
792.693	5775
792.796	3999
792.899	5370
793.003	5862
793.106	4486
793.209	5364
793.313	6902
793.416	4228
793.519	6546
793.623	11186
793.726	14036
793.829	6569
793.932	5568
794.035	5012
794.138	7334
794.242	6128
794.345	6283
794.448	8917
794.551	14206
794.654	18782
794.757	21743
794.860	8157
794.963	6170
795.066	4441
795.169	5621
795.272	3576
795.375	5102
795.477	3953
795.580	4009
795.683	2937
795.786	4639
795.889	3805
795.991	5763
796.094	5432
796.197	3641
796.300	5135
796.402	3100
796.505	3221
796.608	3962
796.710	4868
796.813	4345
796.915	3452
797.018	4721
797.120	4642
797.223	3865
797.326	4743
797.428	3267
797.530	3851
797.633	5052
797.735	6077
797.838	7274
797.940	6296
798.042	3581
798.145	3705
798.247	4703
798.349	2486
798.452	4971
798.554	4039
798.656	3841
798.758	5121
798.860	4060
798.962	3147
799.065	3993
799.167	2759
799.269	5204
799.371	5382
799.473	5982
799.575	4919
799.677	4902
799.779	8683
799.881	10616
799.983	6139
800.085	4546
800.187	4473
800.289	3293
800.390	4420
800.492	3860
800.594	4560
800.696	2929
800.798	4635
800.899	3752
801.001	3901
801.103	3210
801.205	3321
801.306	3701
801.408	3450
801.509	3156
801.611	3774
801.713	3844
801.814	2472
801.916	3287
802.017	3086
802.119	2844
802.220	3464
802.322	2228
802.423	6472
802.525	3203
802.626	3787
802.727	4980
802.829	5086
802.930	2976
803.031	4446
803.133	3705
803.234	3403
803.335	3554
803.436	2494
803.538	3899
803.639	3099
803.740	3604
803.841	3128
803.942	4317
804.043	3773
804.144	2632
804.245	4579
804.346	3595
804.447	4848
804.548	7205
804.649	8627
804.750	3616
804.851	3576
804.952	3585
805.053	4086
805.154	2874
805.255	4299
805.355	2904
805.456	2270
805.557	2611
805.658	1882
805.758	3985
805.859	3658
805.960	3485
806.061	2476
806.161	2627
806.262	2690
806.362	3335
806.463	3227
806.564	3931
806.664	3531
806.765	3731
806.865	3193
806.966	3933
807.066	2952
807.166	3239
807.267	3347
807.367	3351
807.468	3379
807.568	2329
807.668	4049
807.769	3577
807.869	2917
807.969	4174
808.069	3364
808.170	3768
808.270	2738
808.370	4926
808.470	6402
808.570	3546
808.670	3813
808.770	3212
808.870	3129
808.970	3093
809.070	2827
809.170	3201
809.271	4212
809.370	3711
809.470	3349
809.570	3274
809.670	2713
809.770	3667
809.870	2749
809.970	2971
810.070	2951
810.169	3290
810.269	1868
810.369	3698
810.469	2923
810.568	3329
810.668	3549
810.768	2687
810.867	3224
810.967	2659
811.066	2890
811.166	3003
811.265	3750
811.365	2489
811.464	2630
811.564	4607
811.663	4581
811.763	2539
811.862	2829
811.962	4457
812.061	2846
812.160	3139
812.260	3599
812.359	4032
812.458	4764
812.557	11098
812.657	14490
812.756	8236
812.855	3594
812.954	3623
813.053	4372
813.153	3309
813.252	2838
813.351	4100
813.450	3074
813.549	2840
813.648	4042
813.747	3846
813.846	3565
813.945	3742
814.044	3753
814.143	3591
814.242	4238
814.341	3849
814.439	4349
814.538	4381
814.637	4462
814.736	5084
814.835	4967
814.933	5323
815.032	5873
815.131	5214
815.229	6969
815.328	7968
815.427	6100
815.525	7177
815.624	5986
815.722	5317
815.821	7055
815.919	7439
816.018	7808
816.116	8881
816.215	7708
816.313	8105
816.412	9487
816.510	9129
816.609	10699
816.707	11404
816.805	10188
816.904	11424
817.002	12937
817.100	14318
817.198	15254
817.296	14812
817.395	17525
817.493	21534
817.591	24333
817.689	31251
817.787	42185
817.885	64912
817.983	110921
818.081	221966
818.179	496538
818.277	1048183
818.375	860740
818.473	329556
818.571	149411
818.669	97690
818.767	81495
818.865	80200
818.963	92274
819.061	129692
819.158	210948
819.256	409315
819.354	864753
819.452	1438312
819.549	989500
819.647	429123
819.745	205484
819.842	124793
819.940	85976
820.038	62704
820.135	48475
820.233	40326
820.330	31425
820.428	26799
820.525	24365
820.623	20623
820.720	18147
820.818	17467
820.915	14698
821.012	14002
821.110	12069
821.207	12746
821.304	10909
821.402	11102
821.499	11134
821.596	10437
821.693	10108
821.791	11251
821.888	12085
821.985	20510
822.082	14848
822.179	10835
822.276	7487
822.373	6753
822.470	7098
822.567	7235
822.664	6280
822.761	7011
822.858	6111
822.955	6437
823.052	6730
823.149	6554
823.246	6561
823.343	4905
823.440	5628
823.536	6078
823.633	5361
823.730	4939
823.827	5875
823.923	5228
824.020	5817
824.117	5891
824.213	4822
824.310	4511
824.407	4510
824.503	5112
824.600	5184
824.696	4853
824.793	5734
824.889	4422
824.986	4171
825.082	3888
825.179	4882
825.275	5390
825.371	4819
825.468	3842
825.564	2501
825.660	4614
825.757	4245
825.853	4706
825.949	2622
826.045	3644
826.142	3699
826.238	3731
826.334	4015
826.430	3831
826.526	3880
826.622	3359
826.718	4324
826.814	3784
826.910	2985
827.006	2517
827.102	2721
827.198	4679
827.294	3121
827.390	3104
827.486	3860
827.582	2843
827.678	2324
827.774	4300
827.869	1696
827.965	5090
828.061	2505
828.157	4258
828.252	4122
828.348	2500
828.444	3140
828.539	2679
828.635	2412
828.731	4061
828.826	2400
828.922	4239
829.017	3121
829.113	3796
829.208	3014
829.304	2831
829.399	5101
829.495	2930
829.590	3978
829.685	3197
829.781	3065
829.876	3037
829.971	1838
830.066	2023
830.162	3298
830.257	3503
830.352	3183
830.447	3084
830.543	1921
830.638	2920
830.733	4369
830.828	2304
830.923	3670
831.018	2772
831.113	3963
831.208	2069
831.303	2336
831.398	2445
831.493	2242
831.588	4527
831.683	2070
831.778	2703
831.873	2618
831.967	3834
832.062	2294
832.157	1885
832.252	4090
832.346	3646
832.441	4727
832.536	6115
832.631	15291
832.725	11482
832.820	2706
832.914	3352
833.009	2549
833.104	4952
833.198	4288
833.293	3060
833.387	3651
833.482	2233
833.576	2232
833.670	3522
833.765	3420
833.859	3760
833.954	4654
834.048	2345
834.142	2942
834.237	1526
834.331	2795
834.425	3079
834.519	1427
834.613	2486
834.708	2024
834.802	2268
834.896	1792
834.990	2874
835.084	2424
835.178	2215
835.272	2363
835.366	2314
835.460	3554
835.554	2118
835.648	2313
835.742	1456
835.836	2622
835.930	2047
836.024	2515
836.117	2922
836.211	1237
836.305	3603
836.399	4263
836.493	2050
836.586	2588
836.680	2036
836.774	1246
836.867	2478
836.961	377
837.055	1505
837.148	1505
837.242	2310
837.335	2056
837.429	2411
837.522	2408
837.616	2532
837.709	3630
837.803	2663
837.896	2821
837.989	2253
838.083	2762
838.176	5321
838.269	4709
838.363	3735
838.456	2574
838.549	5408
838.642	8360
838.735	16176
838.829	6393
838.922	1691
839.015	1738
839.108	1716
839.201	1986
839.294	2938
839.387	2212
839.480	2165
839.573	2523
839.666	3651
839.759	2602
839.852	1854
839.945	3030
840.038	1762
840.131	1152
840.223	1273
840.316	2725
840.409	2198
840.502	2622
840.594	3384
840.687	992
840.780	2029
840.873	1522
840.965	2432
841.058	3103
841.150	5388
841.243	3158
841.336	2087
841.428	1169
841.521	1536
841.613	1444
841.706	2146
841.798	2222
841.890	2436
841.983	1168
842.075	2199
842.167	2057
842.260	2344
842.352	3480
842.444	3959
842.537	5408
842.629	7240
842.721	1627
842.813	2168
842.905	1193
842.997	2557
843.090	1275
843.182	3071
843.274	5151
843.366	10653
843.458	18718
843.550	12103
843.642	2610
843.734	1978
843.826	2291
843.918	3819
844.009	2323
844.101	1410
844.193	1366
844.285	1497
844.377	2832
844.469	3291
844.560	2441
844.652	2141
844.744	1715
844.835	1213
844.927	2344
845.019	2497
845.110	1480
845.202	2507
845.293	1777
845.385	1281
845.476	1308
845.568	2463
845.659	820
845.751	2063
845.842	581
845.934	1118
846.025	1208
846.116	2136
846.208	1824
846.299	1923
846.390	883
846.482	1984
846.573	1893
846.664	3088
846.755	5553
846.846	5087
846.937	652
847.029	1643
847.120	1268
847.211	1742
847.302	2107
847.393	968
847.484	2084
847.575	907
847.666	492
847.757	1174
847.847	2049
847.938	3207
848.029	1480
848.120	586
848.211	1553
848.302	1628
848.392	1406
848.483	1157
848.574	1005
848.664	2280
848.755	1386
848.846	2509
848.936	633
849.027	2029
849.118	2788
849.208	1703
849.299	4325
849.389	7115
849.480	13593
849.570	26737
849.661	51809
849.751	79417
849.841	26095
849.932	5044
850.022	2669
850.112	2344
850.203	2055
850.293	1645
850.383	1467
850.474	1565
850.564	1274
850.654	1935
850.744	2066
850.834	2425
850.924	1264
851.014	1802
851.104	2554
851.194	2049
851.284	3287
851.374	4548
851.464	2567
851.554	1577
851.644	2173
851.734	3631
851.824	3107
851.914	1782
852.004	1971
852.094	1530
852.183	1766
852.273	1421
852.363	1624
852.452	2327
852.542	970
852.632	2069
852.721	2152
852.811	1508
852.901	1632
852.990	1625
853.080	2624
853.169	3224
853.259	3008
853.348	3027
853.438	4587
853.527	7809
853.617	9998
853.706	19821
853.795	36709
853.885	81252
853.974	151413
854.063	279400
854.152	396531
854.242	139693
854.331	28047
854.420	12302
854.509	8676
854.598	7496
854.687	5340
854.777	4811
854.866	3610
854.955	4134
855.044	1925
855.133	3057
855.222	2150
855.311	2186
855.400	3006
855.488	3054
855.577	1764
855.666	2661
855.755	1743
855.844	2589
855.933	903
856.021	1856
856.110	1540
856.199	1321
856.288	1078
856.376	582
856.465	1138
856.554	1472
856.642	1707
856.731	794
856.819	1401
856.908	1521
856.996	1745
857.085	380
857.173	685
857.262	730
857.350	1280
857.438	1847
857.527	1887
857.615	750
857.703	1574
857.792	1510
857.880	905
857.968	1500
858.056	1218
858.145	1451
858.233	1345
858.321	1715
858.409	1604
858.497	1441
858.585	972
858.673	2083
858.761	1072
858.849	295
858.937	1044
859.025	1256
859.113	1649
859.201	1478
859.289	1243
859.377	1151
859.465	408
859.552	1553
859.640	1290
859.728	1176
859.816	2106
859.903	2039
859.991	673
860.079	1613
860.166	790
860.254	856
860.342	1374
860.429	1613
860.517	914
860.604	1452
860.692	1148
860.779	492
860.867	1974
860.954	1191
861.042	2235
861.129	2619
861.216	2132
861.304	1129
861.391	1547
861.478	813
861.565	894
861.653	2609
861.740	442
861.827	790
861.914	1258
862.001	1038
862.089	826
862.176	1808
862.263	760
862.350	1726
862.437	1249
862.524	893
862.611	1100
862.698	1695
862.785	885
862.871	1032
862.958	1180
863.045	508
863.132	1046
863.219	877
863.306	1057
863.392	1582
863.479	1370
863.566	881
863.652	1930
863.739	903
863.826	2274
863.912	1575
863.999	859
864.086	805
864.172	1207
864.259	1913
864.345	1794
864.432	1294
864.518	1455
864.604	1693
864.691	1355
864.777	1927
864.863	2870
864.950	3110
865.036	3269
865.122	4632
865.209	5380
865.295	4667
865.381	4830
865.467	6207
865.553	7567
865.639	11292
865.726	19902
865.812	40888
865.898	77361
865.984	113648
866.070	213077
866.156	206335
866.242	53036
866.328	14646
866.414	8355
866.499	6502
866.585	5722
866.671	5699
866.757	5360
866.843	5084
866.928	3031
867.014	3247
867.100	4029
867.186	5025
867.271	4693
867.357	5590
867.442	4603
867.528	4025
867.614	4118
867.699	2794
867.785	3354
867.870	2503
867.956	3702
868.041	3819
868.127	3413
868.212	4084
868.297	3499
868.383	3693
868.468	5533
868.553	8949
868.639	10915
868.724	20039
868.809	16667
868.894	3530
868.979	3098
869.065	2907
869.150	1485
869.235	3134
869.320	3157
869.405	2287
869.490	2337
869.575	2562
869.660	2242
869.745	3044
869.830	2247
869.915	2286
870.000	2107
870.085	2313
870.169	2149
870.254	2087
870.339	918
870.424	1241
870.509	2719
870.593	2857
870.678	1829
870.763	2334
870.847	1202
870.932	2033
871.016	2366
871.101	2073
871.186	2115
871.270	2465
871.355	1404
871.439	2510
871.523	2096
871.608	1546
871.692	2122
871.777	2579
871.861	2070
871.945	2449
872.030	2264
872.114	1865
872.198	358
872.282	2087
872.367	1637
872.451	1544
872.535	2299
872.619	2388
872.703	1568
872.787	2201
872.871	2105
872.955	1788
873.039	1277
873.123	2134
873.207	2580
873.291	1236
873.375	1274
873.459	1973
873.543	1397
873.627	1712
873.711	2163
873.794	2084
873.878	1588
873.962	1408
874.045	1846
874.129	1336
874.137	1372
874.213	1730
874.245	1905
874.296	2186
874.352	1354
874.380	949
874.460	799
874.464	793
874.547	1755
874.568	1949
874.631	2509
874.676	1943
874.714	1465
874.784	2008
874.798	2117
874.881	2221
874.892	2146
874.965	1669
874.999	1575
875.048	1421
875.107	2099
875.131	2377
875.215	985
875.215	986
875.298	2191
875.323	2147
875.381	2042
875.430	2131
875.465	2184
875.538	2251
875.548	2260
875.631	1907
875.646	1711
875.714	816
875.753	1231
875.798	1676
875.861	2003
875.881	2111
875.964	1494
875.968	1462
876.047	877
876.076	1250
876.130	1985
876.183	1935
876.213	1871
876.291	3040
876.296	3122
876.379	1385
876.398	1249
876.462	954
876.506	965
876.545	779
876.613	1313
876.628	1512
876.711	1717
876.721	1773
876.794	1883
876.828	1716
876.877	1547
876.935	1781
876.960	1883
877.043	1689
877.043	1694
877.125	2788
877.150	2816
877.208	2937
877.258	2484
877.291	2164
877.365	2685
877.374	2745
877.456	1827
877.472	1790
877.539	1706
877.579	2093
877.622	2441
877.687	1946
877.704	1831
877.787	2443
877.794	2419
877.869	1950
877.901	1920
877.952	2026
878.008	1644
878.034	1410
878.115	1076
878.117	1074
878.199	1340
878.222	1370
878.282	1357
878.329	1714
878.364	1889
878.437	1508
878.447	1470
878.529	680
878.544	754
878.611	1017
878.651	1000
878.694	1206
878.758	1458
878.776	1478
878.858	1290
878.865	1323
878.941	1486
878.972	1344
879.023	1164
879.078	1187
879.105	1303
879.185	1464
879.187	1457
879.269	1877
879.292	1638
879.351	1562
879.399	1848
879.433	1771
879.506	1079
879.516	1006
879.598	1423
879.613	1417
879.680	1253
879.720	1179
879.762	1276
879.827	1264
879.844	1242
879.926	1712
879.933	1760
880.007	2163
880.040	2337
880.089	2819
880.147	4391
880.171	4898
880.253	9350
880.254	9382
880.335	13157
880.360	14449
880.417	18090
880.467	26664
880.499	31925
880.574	34484
880.580	34282
880.662	11157
880.680	9004
880.744	3478
880.787	2308
880.825	1396
880.893	1512
880.907	1583
880.989	991
881.000	1051
881.070	1473
881.106	1380
881.152	1255
881.213	1263
881.233	1200
881.315	890
881.319	888
881.396	1177
881.426	1287
881.478	1241
881.532	1399
881.559	1543
881.639	952
881.641	932
881.722	1084
881.745	1016
881.803	1233
881.852	1363
881.885	1233
881.958	1308
881.966	1314
882.047	1681
882.064	1612
882.129	1448
882.171	1969
882.210	2669
882.277	3681
882.291	3801
882.372	2045
882.383	1925
882.454	1201
882.489	1106
882.535	1085
882.596	1498
882.616	1447
882.697	653
882.702	621
882.778	980
882.808	1030
882.859	896
882.914	921
882.940	850
883.020	799
883.021	803
883.102	911
883.127	1067
883.183	1161
883.233	954
883.264	880
883.339	867
883.345	838
883.426	64
883.445	54
883.507	522
883.551	668
883.587	636
883.657	938
883.668	977
883.749	672
883.763	658
883.830	395
883.869	102
883.910	311
883.975	674
883.991	687
884.072	1162
884.081	1240
884.152	1005
884.187	626
884.233	614
884.292	732
884.314	760
884.394	556
884.398	565
884.475	465
884.504	388
884.555	414
884.610	679
884.636	837
884.716	623
884.716	623
884.797	983
884.821	1019
884.877	996
884.927	677
884.958	626
885.033	1030
885.038	1008
885.118	493
885.139	361
885.199	123
885.244	-107
885.279	107
885.350	712
885.359	736
885.439	869
885.456	790
885.520	111
885.561	42
885.600	413
885.667	865
885.680	792
885.760	391
885.773	290
885.840	308
885.878	419
885.920	433
885.984	374
886.000	425
886.080	881
886.089	900
886.160	620
886.195	604
886.240	544
886.300	326
886.320	419
886.400	1068
886.406	1097
886.480	939
886.511	976
886.560	1153
886.616	1005
886.640	894
886.720	657
886.722	654
886.800	551
886.827	470
886.879	460
886.932	719
886.959	921
887.038	1179
887.039	1177
887.119	879
887.143	882
887.198	712
887.248	264
887.278	277
887.354	658
887.358	666
887.437	759
887.459	770
887.517	689
887.564	650
887.596	519
887.669	151
887.676	205
887.755	1044
887.774	1155
887.835	884
887.880	882
887.914	873
887.985	782
887.994	763
888.073	589
888.090	548
888.153	655
888.195	666
888.232	463
888.300	198
888.311	243
888.391	575
888.405	633
888.470	613
888.510	523
888.549	515
888.615	696
888.628	599
888.708	-137
888.720	-245
888.787	159
888.825	371
888.866	356
888.930	404
888.945	320
889.024	-139
889.035	-193
889.103	70
889.140	181
889.182	312
889.245	549
889.261	501
889.340	257
889.349	237
889.419	430
889.454	519
889.498	669
889.559	874
889.577	807
889.656	529
889.664	506
889.735	697
889.768	785
889.814	896
889.873	1047
889.978	292
890.083	663
890.187	639
890.292	317
890.397	530
890.501	525
890.606	65
890.710	1615
890.815	850
890.919	1128
891.024	314
891.128	803
891.233	701
891.337	408
891.442	814
891.546	715
891.650	881
891.755	474
891.859	1147
891.963	1214
892.068	921
892.172	1410
892.276	390
892.380	531
892.484	163
892.589	1004
892.693	808
892.797	683
892.901	187
893.005	806
893.109	558
893.213	1116
893.317	614
893.421	1388
893.525	168
893.629	1209
893.733	-100
893.837	-97
893.941	968
894.045	1045
894.148	23
894.252	222
894.356	1670
894.460	778
894.564	-63
894.667	195
894.771	520
894.875	553
894.978	228
895.082	77
895.186	1178
895.289	1059
895.393	838
895.496	454
895.600	151
895.703	431
895.807	61
895.910	620
896.014	97
896.117	476
896.221	398
896.324	1240
896.427	-211
896.531	-355
896.634	572
896.737	1236
896.840	702
896.944	720
897.047	703
897.150	759
897.253	-22
897.356	-162
897.460	390
897.563	318
897.666	-286
897.769	399
897.872	1165
897.975	944
898.078	418
898.181	564
898.284	-363
898.387	1092
898.490	7
898.593	926
898.695	116
898.798	358
898.901	633
899.004	580
899.107	814
899.209	691
899.312	214
899.415	948
899.518	183
899.620	462
899.723	-82
899.826	1149
899.928	1133
900.031	922
900.133	1030
900.236	61
900.338	-340
900.441	680
900.543	198
900.646	465
900.748	-118
900.851	444
900.953	299
901.055	1014
901.158	118
901.260	223
901.362	179
901.465	33
901.567	1185
901.669	367
901.771	379
901.873	283
901.976	-527
902.078	369
902.180	544
902.282	577
902.384	70
902.486	903
902.588	1101
902.690	871
902.792	134
902.894	1038
902.996	117
903.098	675
903.200	343
903.302	143
903.404	381
903.505	-335
903.607	552
903.709	952
903.811	777
903.913	553
904.014	-273
904.116	295
904.218	165
904.319	973
904.421	1140
904.523	443
904.624	244
904.726	1146
904.827	-371
904.929	156
905.030	-108
905.132	876
905.233	-355
905.335	-726
905.436	340
905.537	397
905.639	539
905.740	511
905.841	266
905.943	770
906.044	-373
906.145	806
906.247	-92
906.348	469
906.449	961
906.550	1165
906.651	376
906.752	1107
906.854	-178
906.955	195
907.056	583
907.157	347
907.258	309
907.359	528
907.460	90
907.561	69
907.662	431
907.762	-437
907.863	184
907.964	760
908.065	732
908.166	810
908.267	-63
908.367	803
908.468	-293
908.569	257
908.670	1082
908.770	1380
908.871	950
908.971	439
909.072	128
909.173	212
909.273	-327
909.374	-110
909.474	-87
909.575	830
909.675	-86
909.776	569
909.876	-22
909.977	918
910.077	24
910.177	582
910.278	444
910.378	-591
910.478	636
910.579	388
910.679	468
910.779	73
910.879	1790
910.980	726
911.080	26
911.180	128
911.280	433
911.380	-75
911.480	311
911.580	563
911.680	382
911.780	924
911.880	577
911.980	733
912.080	459
912.180	147
912.280	26
912.380	575
912.480	771
912.580	614
912.679	201
912.779	353
912.879	208
912.979	262
913.078	333
913.178	-457
913.278	-6
913.377	467
913.477	744
913.577	1120
913.676	1740
913.776	1155
913.875	114
913.975	610
914.074	661
914.174	492
914.273	-120
914.373	629
914.472	36
914.572	-613
914.671	-233
914.770	-49
914.870	67
914.969	569
915.068	383
915.167	470
915.267	-367
915.366	32
915.465	297
915.564	703
915.663	-198
915.763	209
915.862	-214
915.961	260
916.060	51
916.159	245
916.258	-85
916.357	979
916.456	939
916.555	237
916.654	557
916.752	508
916.851	331
916.950	782
917.049	313
917.148	325
917.247	941
917.345	1026
917.444	1053
917.543	-86
917.642	914
917.740	385
917.839	-121
917.937	285
918.036	978
918.135	545
918.233	-295
918.332	430
918.430	462
918.529	915
918.627	785
918.726	509
918.824	-273
918.923	394
919.021	229
919.119	-414
919.218	0
919.316	331
919.414	246
919.512	144
919.611	-7
919.709	-254
919.807	413
919.905	59
920.003	548
920.102	740
920.200	388
920.298	569
920.396	167
920.494	821
920.592	932
920.690	493
920.788	16
920.886	78
920.984	723
921.082	468
921.180	579
921.277	270
921.375	639
921.473	559
921.571	983
921.669	325
921.766	1065
921.864	421
921.962	882
922.060	523
922.157	1037
922.255	208
922.352	452
922.450	1366
922.548	838
922.645	1402
922.743	1416
922.840	985
922.938	2002
923.035	2055
923.133	1313
923.230	1717
923.327	1266
923.425	2046
923.522	2340
923.619	2183
923.717	1502
923.814	2435
923.911	633
924.008	2605
924.106	1366
924.203	1439
924.300	1005
924.397	1153
924.494	1606
924.591	1356
924.688	1401
924.786	1737
924.883	1833
924.979	1914
925.077	1199
925.173	1586
925.270	1377
925.367	1302
925.464	2030
925.561	2092
925.658	1192
925.755	1730
925.852	1801
925.948	2232
926.045	2257
926.142	1892
926.239	1294
926.335	1719
926.432	1831
926.529	1734
926.625	1964
926.722	1316
926.818	1405
926.915	1654
927.011	1022
927.108	1702
927.204	463
927.301	1322
927.397	976
927.494	2034
927.590	693
927.687	1284
927.783	1165
927.879	589
927.976	1306
928.072	899
928.168	1916
928.264	660
928.361	1283
928.457	1801
928.553	606
928.649	1573
928.745	1372
928.841	1142
928.937	1748
929.033	967
929.129	1697
929.225	486
929.321	708
929.417	1025
929.513	669
929.609	1106
929.705	1640
929.801	1075
929.897	242
929.993	1437
930.089	603
930.184	1369
930.280	1018
930.376	1587
930.471	943
930.567	678
930.663	833
930.758	1133
930.854	832
930.950	813
931.045	354
931.141	1330
931.236	712
931.332	1167
931.427	364
931.523	1269
931.618	858
931.714	269
931.809	760
931.905	1307
932.000	319
932.095	658
932.191	155
932.286	224
932.381	476
932.476	363
932.572	423
932.667	691
932.762	341
932.857	1157
932.952	935
933.047	273
933.142	-154
933.237	581
933.332	584
933.427	836
933.522	637
933.617	568
933.712	1256
933.807	1124
933.902	1060
933.997	1744
934.092	135
934.187	1369
934.282	1597
934.376	978
934.471	1271
934.566	493
934.661	290
934.755	6
934.850	747
934.945	957
935.039	195
935.134	1151
935.228	844
935.323	1465
935.417	534
935.512	275
935.606	-15
935.701	807
935.795	711
935.890	-48
935.984	-75
936.079	519
936.173	1094
936.267	770
936.362	-498
936.456	934
936.550	491
936.644	623
936.738	-285
936.833	6
936.927	285
937.021	402
937.115	452
937.209	103
937.303	984
937.397	389
937.491	1164
937.585	656
937.679	-439
937.773	106
937.867	39
937.961	518
938.055	773
938.149	1251
938.243	287
938.337	674
938.430	154
938.524	65
938.618	1286
938.712	848
938.805	866
938.899	1006
938.993	-9
939.086	-106
939.180	-19
939.274	1963
939.367	1033
939.461	416
939.554	266
939.648	7
939.741	1027
939.835	245
939.928	652
940.022	540
940.115	540
940.208	1389
940.302	732
940.395	464
940.488	200
940.582	595
940.675	1047
940.768	1213
940.861	782
940.954	467
941.048	842
941.141	507
941.234	60
941.327	1427
941.420	718
941.513	654
941.606	-274
941.699	603
941.792	644
941.885	1122
941.978	226
942.071	14
942.164	-34
942.257	806
942.349	199
942.442	911
942.535	-404
942.628	-42
942.721	0
942.813	-248
942.906	808
942.999	159
943.091	174
943.184	26
943.277	-488
943.369	-6
943.462	-156
943.554	679
943.647	602
943.739	758
943.832	27
943.924	-177
944.017	254
944.109	-423
944.201	305
944.294	-111
944.386	928
944.478	-54
944.571	-549
944.663	1088
944.755	700
944.847	691
944.940	445
945.032	-944
945.124	161
945.216	729
945.308	-92
945.400	-83
945.492	365
945.584	556
945.676	251
945.768	157
945.860	199
945.952	90
946.044	709
946.136	909
946.228	-51
946.320	-50
946.412	-62
946.503	710
946.595	993
946.687	237
946.779	-1143
946.870	367
946.962	-336
947.054	609
947.145	327
947.237	-189
947.329	-213
947.420	433
947.512	135
947.603	-25
947.695	-621
947.786	361
947.878	-372
947.969	160
948.061	89
948.152	-103
948.243	-578
948.335	-194
948.426	-566
948.517	-132
948.609	-296
948.700	336
948.791	-164
948.882	405
948.973	236
949.065	1
949.156	-257
949.247	-224
949.338	-357
949.429	-393
949.520	-65
949.611	-185
949.702	-191
949.793	315
949.884	6
949.975	-710
950.066	93
950.157	-694
950.247	-215
950.338	-612
950.429	-136
950.520	-197
950.611	-597
950.701	163
950.792	-489
950.883	624
950.973	233
951.064	-218
951.155	-799
951.245	-213
951.336	-353
951.427	-1075
951.517	148
951.608	-261
951.698	-147
951.788	-269
951.879	-170
951.969	-606
952.060	-65
952.150	367
952.240	496
952.331	-1256
952.421	987
952.511	-237
952.602	-602
952.692	-54
952.782	79
952.872	-108
952.962	-285
953.052	-160
953.143	-950
953.233	-791
953.323	646
953.413	617
953.503	-96
953.593	-47
953.683	-703
953.773	-604
953.863	-286
953.953	-812
954.042	-403
954.132	-618
954.222	233
954.312	-710
954.402	-41
954.492	-62
954.581	-991
954.671	-682
954.761	-1263
954.850	793
954.940	2
955.030	-462
955.119	-881
955.209	305
955.298	-947
955.388	258
955.477	36
955.567	-1026
955.656	301
955.746	195
955.835	-996
955.925	-682
956.014	-120
956.103	-25
956.193	364
956.282	-44
956.371	-380
956.461	316
956.550	-508
956.639	-508
956.728	-1130
956.817	-15
956.906	-651
956.995	-322
957.085	-549
957.174	-402
957.263	-928
957.352	-296
957.441	-396
957.530	-1210
957.619	-464
957.708	-460
957.796	-837
957.885	-410
957.974	-1418
958.063	-250
958.152	-1067
958.241	-127
958.329	-220
958.418	-363
958.507	-645
958.596	913
958.684	-1309
958.773	-266
958.861	-486
958.950	-187
959.039	-173
959.127	-568
959.216	903
959.304	-710
959.393	-225
959.481	-125
959.570	-223
959.658	121
959.746	-908
959.835	-507
959.923	-977
960.011	-548
960.100	292
960.188	12
960.276	-1155
960.365	19
960.453	-385
960.541	-674
960.629	-73
960.717	-638
960.805	-1380
960.893	-373
960.981	-504
961.069	-99
961.158	-27
961.245	30
961.333	-436
961.421	-771
961.509	-206
961.597	133
961.685	-34
961.773	-895
961.861	-1063
961.949	275
962.036	-688
962.124	-472
962.212	-446
962.299	-1760
962.387	-1018
962.475	-920
962.562	-423
962.650	976
962.738	-859
962.825	-911
962.913	-1021
963.000	-514
963.088	-89
963.175	-1147
963.263	-198
963.350	-507
963.438	-1439
963.525	-354
963.612	-74
963.700	334
963.787	979
963.874	-282
963.962	-816
964.049	684
964.136	-894
964.223	-1723
964.310	-767
964.398	-371
964.485	-1160
964.572	85
964.659	-14
964.746	-47
964.833	-350
964.920	-484
965.007	-839
965.094	99
965.181	-1249
965.268	1
965.355	-371
965.441	101
965.528	-1086
965.615	-230
965.702	-766
965.789	-533
965.875	-1055
965.962	-1212
966.049	-1245
966.136	-572
966.222	-1164
966.309	-454
966.395	-522
966.482	-815
966.569	-952
966.655	-996
966.742	-990
966.828	-117
966.915	-1043
967.001	-554
967.087	-1682
967.174	-573
967.260	-439
967.347	-129
967.433	-86
967.519	782
967.605	-1140
967.692	-986
967.778	-832
967.864	-1495
967.950	-441
968.036	-1704
968.123	-799
968.209	-936
968.295	-1751
968.381	274
968.467	-457
968.553	-1461
968.639	-688
968.725	-842
968.811	-28
968.897	45
968.983	-326
969.069	-1735
969.154	-226
969.240	152
969.326	-1528
969.412	-268
969.497	-900
969.583	-771
969.669	-275
969.755	-1046
969.840	-1198
969.926	77
970.012	-799
970.097	148
970.183	-642
970.268	-236
970.354	-628
970.439	-2001
970.525	-7
970.610	-936
970.696	-424
970.781	-700
970.866	-2201
970.952	-388
971.037	-960
971.122	-835
971.208	-1108
971.293	-973
971.378	-1589
971.463	-282
971.549	-410
971.634	-323
971.719	-1426
971.804	-1001
971.889	-52
971.974	-537
972.059	-1722
972.144	-884
972.229	-805
972.314	-1084
972.399	-1208
972.484	-969
972.569	-720
972.654	-1982
972.739	-290
972.824	-1331
972.908	-885
972.993	-435
973.078	-1469
973.163	-622
973.247	-243
973.332	-1761
973.417	184
973.501	-1455
973.586	-423
973.671	-1130
973.755	-1130
973.840	158
973.924	-670
974.009	-1393
974.093	-1091
974.178	-43
974.262	-1483
974.346	-887
974.431	-879
974.515	-1261
974.600	-552
974.684	-714
974.768	-1106
974.852	-262
974.937	-1159
975.021	-206
975.105	-799
975.189	-255
975.273	-177
975.358	-451
975.442	-1565
975.526	-585
975.610	-1566
975.694	-1270
975.778	89
975.862	-900
975.946	-2798
976.030	144
976.114	-1059
976.198	-829
976.281	-699
976.365	-497
976.449	-2220
976.533	-998
976.617	-974
976.700	-975
976.784	-1642
976.868	-1715
976.951	-262
977.035	-1291
977.119	-1740
977.202	-953
977.286	-965
977.369	-1201
977.453	-388
977.536	-1496
977.620	-243
977.703	-531
977.787	-1385
977.870	-136
977.953	-292
978.037	-1336
978.120	-1308
978.203	-1573
978.287	-1074
978.370	-1392
978.453	-512
978.536	-1080
978.620	-423
978.703	-1446
978.786	-1338
978.869	-1852
978.952	-1960
979.035	374
979.118	-935
979.201	-1824
979.284	-310
979.367	-1280
979.450	-987
979.533	-1370
979.616	-1066
979.699	-916
979.782	-1212
979.865	-1200
979.948	-1327
980.030	-1670
980.113	-1243
980.196	-1115
980.279	-290
980.361	-863
980.444	-1670
980.526	-875
980.609	-869
980.692	-254
980.774	-81
980.857	-1525
980.939	-210
981.022	-2153
981.104	-1441
981.187	-1158
981.269	-1186
981.352	-591
981.434	-2319
981.516	-1430
981.599	-503
981.681	-491
981.763	-1818
981.846	-545
981.928	-1128
982.010	-1051
982.092	-1373
982.174	-343
982.256	-1866
982.339	-1230
982.421	-799
982.503	-1097
982.585	-1511
982.667	-1805
982.749	-1505
982.831	-1681
982.913	-2077
982.995	-567
983.077	-2090
983.158	-245
983.240	-2086
983.322	-153
983.404	-207
983.486	-1961
983.568	-585
983.649	-681
983.731	-1134
983.813	-900
983.894	-881
983.976	-1386
984.058	-1454
984.139	-1336
984.221	-1961
984.302	-780
984.384	-1472
984.465	-1337
984.547	-1119
984.628	-1699
984.710	-1281
984.791	-1379
984.872	-1118
984.954	-557
985.035	-740
985.116	-1298
985.198	-1445
985.279	-464
985.360	-1395
985.441	-883
985.522	-840
985.604	-620
985.685	-3023
985.766	131
985.847	253
985.928	-1718
986.009	-1560
986.090	-403
986.171	-291
986.252	-1369
986.333	-1600
986.414	-1578
986.495	-837
986.576	-1053
986.656	-1102
986.737	-1105
986.818	-638
986.899	-1393
986.980	-1135
987.060	-861
987.141	-1384
987.222	-413
987.302	-1607
987.383	-418
987.464	-1479
987.544	-794
987.625	-1444
987.705	-438
987.786	-1044
987.866	-621
987.947	-1384
988.027	-674
988.108	-1312
988.188	-686
988.268	61
988.349	-472
988.429	-1467
988.509	-167
988.589	-838
988.670	-2632
988.750	-753
988.830	-728
988.910	-1446
988.990	-785
989.070	-1345
989.151	-1271
989.231	-1531
989.311	-1252
989.391	-1173
989.471	-712
989.551	-1075
989.631	-2102
989.711	-107
989.791	-563
989.870	-1950
989.950	-29
990.030	-894
990.110	-1335
990.190	-1988
990.269	-1163
990.349	-1063
990.429	-680
990.509	-901
990.588	-1135
990.668	-1685
990.747	-1397
990.827	-1666
990.907	-344
990.986	-1697
991.066	-536
991.145	-1995
991.225	-658
991.304	-1040
991.383	-1390
991.463	-1710
991.542	-487
991.622	-1599
991.701	-1167
991.780	-1736
991.859	-790
991.939	-1098
992.018	-1720
992.097	-337
992.176	-677
992.256	-785
992.335	-1663
992.414	-742
992.493	-987
992.572	-1168
992.651	-426
992.730	-2469
992.809	-1575
992.888	-1364
992.967	-1292
993.046	-711
993.125	-1518
993.203	-1161
993.282	-1444
993.361	-888
993.440	-1298
993.519	-2372
993.597	-1160
993.676	-2036
993.755	-1479
993.834	-1694
993.912	-1314
993.991	-646
994.069	-1369
994.148	-998
994.226	-1629
994.305	-1864
994.384	-1033
994.462	-487
994.540	-2064
994.619	-1999
994.697	-980
994.776	-1429
994.854	-251
994.932	-2114
995.011	-902
995.089	-1369
995.167	-1460
995.245	-1039
995.324	-1731
995.402	-1223
995.480	-1618
995.558	-711
995.636	-2453
995.714	-1692
995.792	-1258
995.870	-1549
995.948	-1718
996.026	-384
996.104	-2792
996.182	-915
996.260	-1691
996.338	-1225
996.416	-1116
996.494	-1540
996.572	-93
996.649	-2021
996.727	-1792
996.805	-1239
996.883	-2129
996.960	-1358
997.038	-1237
997.116	-1140
997.193	-1482
997.271	-899
997.348	-2139
997.426	-1595
997.504	-1582
997.581	-1093
997.658	-209
997.736	-2531
997.813	-1774
997.891	-1354
997.968	-1558
998.046	-1360
998.123	-2044
998.200	-1838
998.277	-2339
998.355	-1610
998.432	-1987
998.509	-1403
998.586	-679
998.663	-1465
998.741	-1363
998.818	-1764
998.895	-1597
998.972	-711
999.049	-1568
999.126	-2066
999.203	-974
999.280	-547
999.357	-1331
999.434	-1422
999.511	-1500
999.587	-1106
999.664	-1854
999.741	-1519
999.818	-1183
999.895	-1479
999.971	-1464
1000.048	-863
1000.125	-722
1000.202	-2475
1000.278	-1322
1000.355	-849
1000.431	-735
1000.508	-2142
1000.584	-1539
1000.661	-1057
1000.738	-2477
1000.814	-1702
1000.890	-952
1000.967	-1668
1001.043	-1678
1001.120	-2327
1001.196	-1070
1001.272	-2098
1001.349	-1483
1001.425	-1398
1001.501	-1710
1001.577	-2066
1001.654	-1266
1001.730	-2455
1001.806	-1812
1001.882	-2136
1001.958	-1470
1002.034	-352
1002.110	-1547
1002.186	-1493
1002.262	-1879
1002.338	-1929
1002.414	-1070
1002.490	-1670
1002.566	-1422
1002.642	-2106
1002.718	-911
1002.794	-1432
1002.870	-2397
1002.945	-2231
1003.021	-2251
1003.097	-1487
1003.173	-1143
1003.248	-988
1003.324	-1377
1003.400	-1620
1003.475	-1287
1003.551	-1479
1003.626	-1580
1003.702	-2291
1003.777	-1330
1003.853	-1438
1003.928	-2018
1004.004	-2343
1004.079	-1260
1004.155	-1300
1004.230	-2648
1004.305	-759
1004.381	-2384
1004.456	-1569
1004.531	-1700
1004.607	-1423
1004.682	-2112
1004.757	-1061
1004.832	-1657
1004.907	-2222
1004.982	-1429
1005.057	-1238
1005.133	-2170
1005.208	-1737
1005.283	-1113
1005.358	-779
1005.433	-2244
1005.508	-1531
1005.583	-2394
1005.657	-2208
1005.732	-325
1005.807	-2629
1005.882	-1790
1005.957	-1706
1006.032	-925
1006.106	-1918
1006.181	-1022
1006.256	-1414
1006.331	-1986
1006.405	-2902
1006.480	-1285
1006.554	-1617
1006.629	-2021
1006.704	-1278
1006.778	-1615
1006.853	-1325
1006.927	-1618
1007.002	-1992
1007.076	-978
1007.150	-1831
1007.225	-1504
1007.299	-1483
1007.373	-2219
1007.448	-1606
1007.522	-843
1007.596	-1042
1007.671	-1679
1007.745	-1147
1007.819	-2471
1007.893	-1618
1007.967	-955
1008.041	-2217
1008.115	-1058
1008.190	-1560
1008.264	-942
1008.338	-2264
1008.412	-1495
1008.486	-1489
1008.560	-995
1008.633	-1832
1008.707	-1724
1008.781	-1212
1008.855	-1293
1008.929	-2234
1009.003	-1519
1009.076	-2699
1009.150	-935
1009.224	-1612
1009.298	-1710
1009.371	-2389
1009.445	-1408
1009.519	-1962
1009.592	-1887
1009.666	-2021
1009.739	-841
1009.813	-2864
1009.886	-300
1009.960	-2617
1010.033	-468
1010.107	-1060
1010.180	-2462
1010.253	-1288
1010.327	-1234
1010.400	-1478
1010.473	-2332
1010.547	-527
1010.620	-1576
1010.693	-1119
1010.766	-1098
1010.840	-1548
1010.913	-1936
1010.986	-2015
1011.059	-1663
1011.132	-1505
1011.205	-1131
1011.278	-1932
1011.351	-1890
1011.424	-894
1011.497	-2250
1011.570	-1663
1011.643	-1403
1011.716	-2943
1011.789	-1016
1011.862	-1227
1011.934	-595
1012.007	-2239
1012.080	-1233
1012.153	-1122
1012.225	-1299
1012.298	-2662
1012.371	-2074
1012.443	-1181
1012.516	-2342
1012.588	-2342
1012.661	-910
1012.733	-2718
1012.806	-257
1012.879	-2184
1012.951	-1276
1013.023	-1888
1013.096	-2151
1013.168	-2830
1013.241	-764
1013.313	-1966
1013.385	-1498
1013.458	-1503
1013.530	-1877
1013.602	-2074
1013.674	-711
1013.746	-1856
1013.819	-1593
1013.891	-1272
1013.963	-2555
1014.035	-1399
1014.107	-1165
1014.179	-1809
1014.251	-1278
1014.323	-1797
1014.395	-1174
1014.467	-1815
1014.539	-1971
1014.611	-1448
1014.683	-1974
1014.754	-1209
1014.826	-2029
1014.898	-1562
1014.970	-2389
1015.042	-1002
1015.113	-1570
1015.185	-1603
1015.257	-2737
1015.328	-1250
1015.400	-2074
1015.471	-2332
1015.543	-2482
1015.615	-1771
1015.686	-2140
1015.757	-1777
1015.829	-1720
1015.901	-2099
1015.972	-2206
1016.043	-2196
1016.115	-1645
1016.186	-1809
1016.257	-2226
1016.328	-1113
1016.400	-782
1016.471	-1807
1016.542	-1823
1016.613	-2042
1016.685	-2343
1016.756	-1745
1016.827	-2068
1016.898	-2329
1016.969	-1124
1017.040	-1158
1017.111	-2129
1017.182	-2076
1017.253	-2143
1017.324	-2626
1017.395	-1812
1017.466	-1086
1017.537	-1406
1017.608	-2369
1017.678	-1431
1017.749	-1882
1017.820	-1807
1017.891	-2573
1017.961	-1768
1018.032	-1622
1018.103	-1399
1018.173	-2051
1018.244	-2655
1018.315	-2235
1018.385	-399
1018.456	-2439
1018.526	-2180
1018.597	-2607
1018.667	-2061
1018.738	-1607
1018.808	-1324
1018.878	-2722
1018.949	-1783
1019.019	-1222
1019.089	-1997
1019.160	-2048
1019.230	-2210
1019.300	-1903
1019.371	-2431
1019.441	-1907
1019.511	-1313
1019.581	-2262
1019.651	-1787
1019.721	-1878
1019.791	-1952
1019.861	-1963
1019.931	-1661
1020.001	-1521
1020.071	-1390
1020.141	-1737
1020.211	-2431
1020.281	-3066
1020.351	-2482
1020.421	-2614
1020.491	-1765
1020.560	-2367
1020.630	-2068
1020.700	-2178
1020.770	-1955
1020.839	-2627
1020.909	-1192
1020.979	-2422
1021.048	-1495
1021.118	-2316
1021.187	-2031
1021.257	-2336
1021.326	-1325
1021.396	-2267
1021.465	-1782
1021.535	-2854
1021.604	-1884
1021.674	-1291
1021.743	-1793
1021.812	-1479
1021.882	-2134
1021.951	-1646
1022.020	-1462
1022.089	-1658
1022.159	-2303
1022.228	-1774
1022.297	-1991
1022.366	-1896
1022.435	-1599
1022.504	-2556
1022.573	-1805
1022.642	-1665
1022.711	-1832
1022.781	-1830
1022.849	-2188
1022.918	-2899
1022.987	-1933
1023.056	-2052
1023.125	-2278
1023.194	-2744
1023.263	-1376
1023.331	-1694
1023.400	-3084
1023.469	-2438
1023.538	-1482
1023.606	-2315
1023.675	-2428
1023.744	-2849
1023.812	-2122
1023.881	-2376
1023.949	-2098
1024.018	-2316
1024.086	-2016
1024.155	-2655
1024.223	-2377
1024.292	-1904
1024.360	-1320
1024.429	-2170
1024.497	-1964
1024.565	-2251
1024.634	-1652
1024.702	-2160
1024.770	-3033
1024.838	-2643
1024.907	-1423
1024.975	-2507
1025.043	-1615
1025.111	-2284
1025.179	-2739
1025.247	-2058
1025.315	-2816
1025.383	-2427
1025.451	-2210
1025.519	-2211
1025.587	-2325
1025.655	-2380
1025.723	-1910
1025.791	-2945
1025.859	-1804
1025.927	-1612
1025.995	-2591
1026.062	-2008
1026.130	-2653
1026.198	-2359
1026.266	-2273
1026.333	-1538
1026.401	-1658
1026.469	-2365
1026.536	-2267
1026.604	-2660
1026.671	-2655
1026.739	-2860
1026.806	-2461
1026.874	-2551
1026.941	-2129
1027.009	-1696
1027.076	-2425
1027.144	-2507
1027.211	-2428
1027.278	-2423
1027.345	-2033
1027.413	-2335
1027.480	-1979
1027.547	-2557
1027.614	-3378
1027.682	-1781
1027.749	-2316
1027.816	-2772
1027.883	-2302
1027.950	-2285
1028.017	-2582
1028.084	-2221
1028.151	-2303
1028.218	-2868
1028.285	-2610
1028.352	-3169
1028.419	-2514
1028.486	-2936
1028.553	-2673
1028.619	-2291
1028.686	-2319
1028.753	-2381
1028.820	-2303
1028.886	-3002
1028.953	-2401
1029.020	-2913
1029.086	-2496
1029.153	-2629
1029.220	-2352
1029.286	-1969
1029.353	-2346
1029.419	-2552
1029.486	-2141
1029.552	-2510
1029.619	-2239
1029.685	-3005
1029.751	-2812
1029.818	-1925
1029.884	-2731
1029.951	-1201
1030.017	-2245
1030.083	-3012
1030.149	-2410
1030.216	-2505
1030.282	-2415
1030.348	-2988
1030.414	-2245
1030.480	-2949
1030.546	-2789
1030.612	-1681
1030.678	-2872
1030.744	-2954
1030.810	-2496
1030.876	-2625
1030.942	-2845
1031.008	-2041
1031.074	-2176
1031.140	-2605
1031.206	-2483
1031.272	-1979
1031.337	-1737
1031.403	-2218
1031.469	-1699
1031.534	-2536
1031.600	-2540
1031.666	-2685
1031.731	-2600
1031.797	-2171
1031.863	-2489
1031.928	-2163
1031.994	-2126
1032.059	-1819
1032.125	-2870
1032.190	-2010
1032.256	-2608
1032.321	-3350
1032.386	-2186
1032.452	-2142
1032.517	-2530
1032.582	-1797
1032.647	-1917
1032.713	-2386
1032.778	-2483
1032.843	-2268
1032.908	-2165
1032.974	-2918
1033.039	-2301
1033.104	-2743
1033.169	-2369
1033.234	-2612
1033.299	-2525
1033.364	-2230
1033.429	-1966
1033.494	-1241
1033.559	-2514
1033.624	-2355
1033.688	-2424
1033.753	-3317
1033.818	-2027
1033.883	-1857
1033.948	-1711
1034.013	-2798
1034.077	-2102
1034.142	-1771
1034.207	-1573
1034.271	-2160
1034.336	-960
1034.400	-2064
1034.465	-1574
1034.530	-1799
1034.594	-1830
1034.658	-2624
1034.723	-2007
1034.787	-2694
1034.852	-2931
1034.916	-2697
1034.981	-2939
1035.045	-3112
1035.109	-1924
1035.173	-2162
1035.238	-1819
1035.302	-2300
1035.366	-2457
1035.430	-1788
1035.495	-1416
1035.559	-2309
1035.623	-1856
1035.687	-2567
1035.751	-2542
1035.815	-2010
1035.879	-2609
1035.943	-3010
1036.007	-2499
1036.071	-1893
1036.135	-1771
1036.198	-3569
1036.262	-2512
1036.326	-2455
1036.390	-1874
1036.454	-1826
1036.517	-1426
1036.581	-2330
1036.645	-1966
1036.709	-1519
1036.772	-1704
1036.836	-2708
1036.900	-1873
1036.963	-2529
1037.026	-2111
1037.090	-2976
1037.154	-2124
1037.217	-2505
1037.280	-2763
1037.344	-2097
1037.407	-2706
1037.471	-2467
1037.534	-2612
1037.597	-3077
1037.661	-1958
1037.724	-1755
1037.787	-3020
1037.850	-2115
1037.913	-2904
1037.977	-1715
1038.040	-2141
1038.103	-2442
1038.166	-2485
1038.229	-1791
1038.292	-1771
1038.355	-2030
1038.418	-2036
1038.481	-2168
1038.544	-1688
1038.607	-2191
1038.670	-2386
1038.732	-2418
1038.795	-2278
1038.858	-2277
1038.921	-1884
1038.984	-2042
1039.046	-2456
1039.109	-3012
1039.172	-1962
1039.234	-3028
1039.297	-2616
1039.360	-2842
1039.422	-2709
1039.485	-2133
1039.547	-2469
1039.610	-2403
1039.672	-1540
1039.734	-2462
1039.797	-2084
1039.859	-1828
1039.922	-2553
1039.984	-1944
1040.046	-2451
1040.109	-1777
1040.171	-2450
1040.233	-2450
1040.295	-2321
1040.358	-2705
1040.420	-2998
1040.482	-2409
1040.544	-2853
1040.606	-2477
1040.668	-2221
1040.730	-2585
1040.792	-2274
1040.854	-2680
1040.916	-1448
1040.978	-2403
1041.040	-1096
1041.102	-2492
1041.164	-2452
1041.225	-2445
1041.287	-1648
1041.349	-2621
1041.411	-2102
1041.472	-2203
1041.534	-2215
1041.596	-2918
1041.657	-2035
1041.719	-2946
1041.781	-2413
1041.842	-2567
1041.904	-2967
1041.965	-2630
1042.027	-2939
1042.088	-2153
1042.150	-1642
1042.211	-2098
1042.272	-1404
1042.334	-3226
1042.395	-2239
1042.456	-2797
1042.518	-2952
1042.579	-918
1042.640	-1449
1042.701	-1866
1042.763	-1994
1042.824	-1604
1042.885	-2751
1042.946	-3059
1043.007	-2133
1043.068	-2322
1043.129	-1944
1043.190	-2261
1043.251	-658
1043.312	-2336
1043.373	-2327
1043.434	-2667
1043.495	-2203
1043.556	-2474
1043.616	-1732
1043.677	-2253
1043.738	-2116
1043.799	-2312
1043.859	-2147
1043.920	-2568
1043.981	-1951
1044.041	-1577
1044.102	-1919
1044.162	-2212
1044.223	-2506
1044.284	-1648
1044.344	-2380
1044.405	-3192
1044.465	-1996
1044.525	-2329
1044.586	-2317
1044.646	-2417
1044.707	-2163
1044.767	-2416
1044.827	-1778
1044.887	-2810
1044.948	-1640
1045.008	-2321
1045.068	-2395
1045.128	-1275
1045.188	-1641
1045.249	-1863
1045.309	-1240
1045.369	-2353
1045.429	-2932
1045.489	-2332
1045.549	-2198
1045.609	-2044
1045.669	-2533
1045.729	-1943
1045.789	-1629
1045.848	-2360
1045.908	-1366
1045.968	-2120
1046.028	-2639
1046.088	-1776
1046.147	-1208
1046.207	-2542
1046.267	-1403
1046.326	-1718
1046.386	-2642
1046.446	-2018
1046.505	-2119
1046.565	-1413
1046.624	-1546
1046.684	-1407
1046.743	-1122
1046.803	-1127
1046.862	-608
1046.922	0
