'Start Wavelength	183.907
'End Wavelength	1046.922
'Gate Delay	5.000
'Gate Width (ms)	1.050
'Laser Output Level	0.000
'X Position	0.000
'Y Position	0.000
'Z Position	0.000
'Grid Point Number	1.000
'Shot Number	100.000
183.907	541.000
183.977	-428.000
184.047	123
184.116	333
184.186	-483
184.256	129
184.325	-420
184.395	-35
184.465	206
184.534	-138
184.604	-112
184.674	556
184.743	-283
184.813	75
184.883	-183
184.952	-580
185.022	-148
185.092	206
185.161	-809
185.231	-257
185.301	-71
185.370	384
185.440	-475
185.509	555
185.579	123
185.649	-373
185.718	-21
185.788	285
185.857	-489
185.927	429
185.996	-169
186.066	-183
186.136	-1001
186.205	155
186.275	609
186.344	586
186.414	389
186.483	-514
186.553	915
186.622	1306
186.692	549
186.761	28
186.831	-387
186.900	-294
186.970	182
187.039	747
187.109	185
187.178	101
187.248	1234
187.317	93
187.387	156
187.456	389
187.526	906
187.595	553
187.664	-468
187.734	455
187.803	532
187.873	-176
187.942	466
188.012	432
188.081	255
188.150	274
188.220	669
188.289	1128
188.358	321
188.428	606
188.497	212
188.567	-37
188.636	145
188.705	786
188.775	-41
188.844	313
188.913	203
188.983	452
189.052	73
189.121	634
189.191	163
189.260	452
189.329	543
189.399	317
189.468	637
189.537	149
189.606	-105
189.676	789
189.745	437
189.814	742
189.883	-27
189.953	758
190.022	506
190.091	1555
190.161	2185
190.230	759
190.299	420
190.368	-243
190.437	-93
190.507	290
190.576	778
190.645	-570
190.714	-257
190.783	298
190.853	539
190.922	155
190.991	167
191.060	71
191.129	-102
191.198	1089
191.268	-106
191.337	208
191.406	504
191.475	716
191.544	-530
191.613	379
191.682	175
191.752	342
191.821	317
191.890	251
191.959	-210
192.028	453
192.097	187
192.166	632
192.235	493
192.304	501
192.373	-301
192.442	499
192.511	411
192.580	-29
192.650	-225
192.719	49
192.788	457
192.857	847
192.926	297
192.995	703
193.064	218
193.133	658
193.202	1157
193.271	67
193.340	664
193.409	343
193.478	1082
193.547	1697
193.615	1582
193.684	1845
193.753	530
193.822	741
193.891	-277
193.960	993
194.029	-234
194.098	579
194.167	-154
194.236	1353
194.305	-80
194.374	745
194.443	54
194.512	989
194.580	25
194.649	790
194.718	652
194.787	792
194.856	38
194.925	945
194.994	381
195.062	1568
195.131	521
195.200	366
195.269	131
195.338	518
195.407	542
195.475	22
195.544	1035
195.613	85
195.682	-19
195.751	802
195.819	1037
195.888	830
195.957	851
196.026	586
196.094	552
196.163	-61
196.232	735
196.301	544
196.369	916
196.438	1226
196.507	61
196.576	513
196.644	856
196.713	556
196.782	-363
196.850	810
196.919	202
196.988	644
197.056	-243
197.125	466
197.194	629
197.262	474
197.331	252
197.400	546
197.468	-99
197.537	582
197.606	416
197.674	1747
197.743	2353
197.812	349
197.880	1935
197.949	1716
198.017	1891
198.086	1740
198.155	530
198.223	838
198.292	1564
198.360	1205
198.429	468
198.497	1256
198.566	1163
198.635	2839
198.703	963
198.772	908
198.840	3456
198.909	3098
198.977	937
199.046	961
199.114	370
199.183	749
199.251	-463
199.320	724
199.388	46
199.457	798
199.525	626
199.594	48
199.662	794
199.731	584
199.799	348
199.867	1058
199.936	258
200.004	935
200.073	1144
200.141	632
200.210	353
200.278	66
200.346	359
200.415	1196
200.483	1077
200.552	1202
200.620	612
200.688	315
200.757	12
200.825	677
200.893	605
200.962	548
201.030	34
201.098	1015
201.167	-142
201.235	1555
201.303	296
201.372	1277
201.440	832
201.508	1538
201.577	562
201.645	285
201.713	638
201.781	1359
201.850	871
201.918	1162
201.986	121
202.055	976
202.123	-80
202.191	1029
202.259	252
202.327	802
202.396	486
202.464	1489
202.532	1321
202.600	3417
202.669	2520
202.737	1620
202.805	569
202.873	1058
202.941	895
203.009	1457
203.078	387
203.146	484
203.214	314
203.282	730
203.350	670
203.418	1189
203.487	690
203.555	880
203.623	784
203.691	371
203.759	318
203.827	857
203.895	523
203.963	812
204.031	65
204.099	928
204.168	603
204.236	732
204.304	1282
204.372	969
204.440	481
204.508	1271
204.576	391
204.644	1160
204.712	217
204.780	500
204.848	486
204.916	632
204.984	396
205.052	1099
205.120	1233
205.188	990
205.256	416
205.324	958
205.392	264
205.460	867
205.528	850
205.596	1160
205.664	327
205.732	1708
205.799	2714
205.867	5151
205.935	1273
206.003	2134
206.071	1016
206.139	1180
206.207	1532
206.275	576
206.343	72
206.411	1156
206.478	614
206.546	662
206.614	313
206.682	1285
206.750	567
206.818	1268
206.885	2660
206.953	190
207.021	1314
207.089	315
207.157	774
207.225	1319
207.292	232
207.360	1069
207.428	1449
207.496	557
207.563	819
207.631	292
207.699	70
207.767	619
207.834	-48
207.902	1271
207.970	158
208.038	1283
208.105	889
208.173	1376
208.241	1563
208.309	2134
208.376	1067
208.444	2826
208.512	2214
208.579	376
208.647	1052
208.715	1894
208.782	143
208.850	1406
208.918	790
208.985	1750
209.053	104
209.120	1344
209.188	909
209.256	969
209.323	488
209.391	1896
209.459	2157
209.526	1220
209.594	1276
209.661	1509
209.729	136
209.796	1556
209.864	1447
209.932	424
209.999	1908
210.067	1366
210.134	774
210.202	1095
210.269	1979
210.337	2437
210.404	958
210.472	2026
210.539	1624
210.607	367
210.674	1315
210.742	1832
210.809	1300
210.877	1388
210.944	2320
211.012	933
211.079	1774
211.146	1667
211.214	906
211.281	2769
211.349	2076
211.416	1355
211.484	1938
211.551	1472
211.618	1360
211.686	1080
211.753	653
211.821	1958
211.888	551
211.955	1466
212.023	1611
212.090	1466
212.157	1485
212.225	1729
212.292	3547
212.359	6592
212.427	16766
212.494	7946
212.561	2776
212.629	1988
212.696	1539
212.763	1840
212.831	1357
212.898	1700
212.965	1553
213.032	1069
213.100	1561
213.167	1503
213.234	1775
213.301	1815
213.369	1519
213.436	1276
213.503	1933
213.570	2264
213.638	1847
213.705	913
213.772	835
213.839	1780
213.906	2715
213.973	2292
214.041	1526
214.108	1675
214.175	1603
214.242	1697
214.309	1113
214.376	1906
214.444	673
214.511	1771
214.578	1959
214.645	2017
214.712	2390
214.779	1535
214.846	1448
214.913	2568
214.980	3122
215.048	1932
215.115	2801
215.182	2505
215.249	1369
215.316	1538
215.383	1654
215.450	2048
215.517	1646
215.584	1567
215.651	737
215.718	1128
215.785	2400
215.852	1292
215.919	1870
215.986	3091
216.053	1603
216.120	1627
216.187	2311
216.254	2505
216.321	1731
216.388	2255
216.455	2737
216.522	2031
216.589	1713
216.656	4188
216.722	4273
216.789	3588
216.856	2349
216.923	3096
216.990	2326
217.057	2784
217.124	2345
217.191	2499
217.258	2833
217.324	4064
217.391	4366
217.458	4140
217.525	2531
217.592	2410
217.659	1414
217.725	2819
217.792	2410
217.859	3051
217.926	1726
217.993	1851
218.059	1334
218.126	1986
218.193	1740
218.260	1794
218.327	641
218.393	1236
218.460	628
218.527	772
218.594	1219
218.660	3188
218.727	3209
218.794	1210
218.860	1505
218.927	1324
218.994	1385
219.061	1639
219.127	1830
219.194	2847
219.261	1318
219.327	388
219.394	889
219.461	268
219.527	1465
219.594	2921
219.661	1289
219.727	905
219.794	1633
219.860	951
219.927	1766
219.994	3054
220.060	4241
220.127	3117
220.193	2251
220.260	1654
220.326	3675
220.393	4890
220.460	7341
220.526	4899
220.593	2028
220.659	4339
220.726	2463
220.792	8291
220.859	7066
220.925	8711
220.992	11055
221.058	11713
221.125	11877
221.191	9533
221.258	3004
221.324	3411
221.391	2089
221.457	2184
221.524	2230
221.590	3052
221.657	10685
221.723	7736
221.789	5850
221.856	7180
221.922	3295
221.989	2453
222.055	1836
222.121	1151
222.188	2930
222.254	2202
222.321	971
222.387	1069
222.453	1038
222.520	1690
222.586	804
222.652	1725
222.719	803
222.785	1443
222.851	1282
222.918	735
222.984	849
223.050	718
223.116	-59
223.183	2253
223.249	646
223.315	768
223.382	1401
223.448	2146
223.514	834
223.580	1051
223.647	71
223.713	569
223.779	948
223.845	1200
223.911	1616
223.978	804
224.044	1559
224.110	950
224.176	1117
224.242	1168
224.309	879
224.375	1373
224.441	1192
224.507	843
224.573	1010
224.639	1615
224.705	214
224.772	1026
224.838	490
224.904	1941
224.970	1284
225.036	1239
225.102	749
225.168	1640
225.234	1511
225.300	1284
225.366	1283
225.432	833
225.499	1239
225.565	941
225.631	1479
225.697	1722
225.763	1579
225.829	2255
225.895	2512
225.961	3491
226.027	3607
226.093	2690
226.159	4037
226.225	4591
226.291	9081
226.357	16926
226.423	8972
226.489	5646
226.554	3276
226.620	3279
226.686	4314
226.752	6018
226.818	8211
226.884	20229
226.950	18671
227.016	8083
227.082	4284
227.148	2694
227.214	3454
227.279	2691
227.345	1646
227.411	2507
227.477	2438
227.543	6631
227.609	5442
227.674	2953
227.740	2511
227.806	2334
227.872	1681
227.938	2344
228.003	3292
228.069	1848
228.135	1002
228.201	1797
228.267	1126
228.332	1558
228.398	1729
228.464	2169
228.530	1231
228.595	1166
228.661	1087
228.727	2424
228.792	2438
228.858	1198
228.924	585
228.990	3458
229.055	1639
229.121	2870
229.187	1612
229.252	1441
229.318	1080
229.384	1764
229.449	2078
229.515	248
229.581	-156
229.646	3018
229.712	1202
229.777	4459
229.843	4186
229.909	3022
229.974	3633
230.040	2822
230.105	1946
230.171	2336
230.236	3228
230.302	5442
230.368	3903
230.433	1897
230.499	2565
230.564	3404
230.630	1136
230.695	1463
230.761	2594
230.826	515
230.892	4197
230.957	1079
231.023	1246
231.088	2161
231.154	1152
231.219	2638
231.284	2348
231.350	3779
231.415	764
231.481	2615
231.546	692
231.612	1848
231.677	1468
231.742	223
231.808	2169
231.873	892
231.939	197
232.004	4328
232.069	3247
232.135	1527
232.200	1866
232.265	2112
232.331	1362
232.396	1212
232.461	451
232.527	1011
232.592	1099
232.657	2093
232.723	3495
232.788	3516
232.853	1572
232.918	714
232.984	1179
233.049	1703
233.114	3761
233.179	4138
233.245	5417
233.310	9187
233.375	1394
233.440	1860
233.506	973
233.571	935
233.636	1862
233.701	1196
233.766	4159
233.832	6257
233.897	2229
233.962	1162
234.027	2957
234.092	2041
234.157	1252
234.222	1756
234.288	3829
234.353	15384
234.418	13323
234.483	6814
234.548	4203
234.613	3854
234.678	3796
234.743	2979
234.808	14632
234.873	9084
234.938	4774
235.004	2188
235.069	2016
235.134	3106
235.199	1914
235.264	1842
235.329	1305
235.394	3072
235.459	3366
235.524	2647
235.589	2260
235.654	1984
235.719	1000
235.784	2617
235.849	2067
235.913	7954
235.978	8321
236.043	9634
236.108	3902
236.173	3495
236.238	4588
236.303	1457
236.368	2163
236.433	5031
236.498	9304
236.563	5863
236.627	8028
236.692	26237
236.757	22161
236.822	9831
236.887	8630
236.952	6061
237.017	4152
237.081	6463
237.146	5199
237.211	11864
237.276	24703
237.341	44061
237.405	22720
237.470	8894
237.535	7564
237.600	4785
237.664	3828
237.729	2844
237.794	3534
237.859	8696
237.923	6671
237.988	4465
238.053	6305
238.118	7260
238.182	19880
238.247	20116
238.312	7815
238.376	6607
238.441	3555
238.506	4454
238.570	522
238.635	3611
238.700	2188
238.764	2303
238.829	7826
238.893	12032
238.958	5191
239.023	4390
239.087	2472
239.152	3711
239.216	2003
239.281	3031
239.346	1327
239.410	2832
239.475	2977
239.539	17916
239.604	16047
239.668	5028
239.733	2559
239.797	3632
239.862	10985
239.926	16822
239.991	7101
240.055	3793
240.120	2318
240.184	3030
240.249	2233
240.313	2015
240.378	2436
240.442	10885
240.507	20066
240.571	6133
240.635	7467
240.700	12058
240.764	3056
240.829	3104
240.893	1116
240.957	2928
241.022	9633
241.086	19722
241.151	9247
241.215	2910
241.279	5161
241.344	10108
241.408	5163
241.472	3049
241.537	3658
241.601	3366
241.665	1408
241.730	2212
241.794	3590
241.858	3159
241.922	2341
241.987	3130
242.051	1930
242.115	1785
242.179	1571
242.244	2248
242.308	3260
242.372	3267
242.436	3815
242.501	3047
242.565	2045
242.629	2048
242.693	3105
242.757	1950
242.822	2053
242.886	2897
242.950	3260
243.014	3104
243.078	3125
243.142	3553
243.206	2572
243.271	3218
243.335	2413
243.399	5113
243.463	16413
243.527	50871
243.591	16411
243.655	6905
243.719	3291
243.783	4853
243.847	6431
243.911	9170
243.975	9392
244.040	6134
244.104	4784
244.168	2608
244.232	4181
244.296	8105
244.360	8232
244.424	4708
244.488	3802
244.552	4202
244.615	2296
244.679	2952
244.743	2944
244.807	3784
244.871	2331
244.935	2857
244.999	762
245.063	2715
245.127	3540
245.191	5337
245.255	5774
245.319	4420
245.383	3357
245.446	3934
245.510	1694
245.574	2673
245.638	2787
245.702	2762
245.766	8292
245.829	5024
245.893	2961
245.957	2851
246.021	3812
246.085	3589
246.149	4366
246.212	10409
246.276	13619
246.340	6580
246.404	5466
246.467	5599
246.531	6397
246.595	5954
246.659	5357
246.722	4029
246.786	4862
246.850	5713
246.913	6800
246.977	2039
247.041	3605
247.104	5287
247.168	3105
247.232	9586
247.295	19165
247.359	10552
247.423	4688
247.486	8677
247.550	5589
247.614	4066
247.677	4966
247.741	4339
247.804	2667
247.868	5627
247.932	7405
247.995	18231
248.059	7334
248.122	3913
248.186	5532
248.249	9015
248.313	28101
248.376	30864
248.440	20038
248.503	7508
248.567	7132
248.630	8210
248.694	11774
248.757	14876
248.821	30820
248.884	20797
248.948	16407
249.011	25161
249.075	36957
249.138	32255
249.202	13209
249.265	8324
249.328	14552
249.392	7729
249.455	6653
249.519	5517
249.582	5949
249.645	9372
249.709	7820
249.772	6383
249.835	6057
249.899	8110
249.962	5234
250.025	4905
250.089	10672
250.152	17191
250.215	8306
250.279	6240
250.342	7229
250.405	6440
250.468	4532
250.532	7865
250.595	12290
250.658	45100
250.721	80029
250.785	26429
250.848	14057
250.911	8724
250.974	8368
251.038	10396
251.101	19703
251.164	11103
251.227	12297
251.290	10769
251.354	15699
251.417	64239
251.480	66892
251.543	41088
251.606	120409
251.669	92743
251.732	32738
251.795	30611
251.859	31518
251.922	76129
251.985	45242
252.048	16335
252.111	11570
252.174	10840
252.237	17367
252.300	40256
252.363	43443
252.426	96896
252.489	40533
252.552	20382
252.615	14223
252.678	15055
252.741	29160
252.804	41361
252.867	99579
252.930	56458
252.993	28882
253.056	16498
253.119	11954
253.182	9877
253.245	17013
253.308	14276
253.371	12341
253.434	11022
253.497	10687
253.559	18251
253.622	13302
253.685	16365
253.748	16547
253.811	8524
253.874	12141
253.937	12552
254.000	7515
254.062	11827
254.125	18990
254.188	16629
254.251	14950
254.314	7481
254.376	12853
254.439	16118
254.502	13004
254.565	12280
254.628	22123
254.690	13567
254.753	7362
254.816	7198
254.878	7689
254.941	14445
255.004	15064
255.067	7035
255.129	6642
255.192	5067
255.255	2970
255.317	5014
255.380	3127
255.443	2133
255.505	3038
255.568	2481
255.631	1895
255.693	2958
255.756	1802
255.819	2935
255.881	2495
255.944	2188
256.006	2803
256.069	2828
256.132	2130
256.194	4866
256.257	17004
256.319	12294
256.382	10280
256.444	6653
256.507	4523
256.569	2798
256.632	4329
256.694	6867
256.757	14772
256.819	41180
256.882	17138
256.944	6727
257.007	6990
257.069	7079
257.132	4093
257.194	4469
257.257	2855
257.319	3827
257.381	3938
257.444	11994
257.506	45718
257.569	56758
257.631	38418
257.693	17333
257.756	7774
257.818	8758
257.880	4881
257.943	4811
258.005	3524
258.067	3831
258.130	3462
258.192	4106
258.254	10373
258.317	7094
258.379	4552
258.441	10356
258.503	11800
258.566	17772
258.628	27784
258.690	6507
258.753	5759
258.815	9478
258.877	5025
258.939	3747
259.001	3262
259.064	4058
259.126	4380
259.188	8331
259.250	4886
259.312	6584
259.375	21550
259.437	12853
259.499	3855
259.561	4549
259.623	5582
259.685	3975
259.747	4948
259.809	17030
259.872	36820
259.934	49997
259.996	43486
260.058	10990
260.120	5015
260.182	4457
260.244	3328
260.306	2483
260.368	3862
260.430	3024
260.492	6953
260.554	16588
260.616	16384
260.678	21211
260.740	37841
260.802	9182
260.864	5897
260.926	4312
260.988	4545
261.050	3999
261.112	7785
261.174	30585
261.236	30099
261.298	8220
261.359	14356
261.421	24935
261.483	5780
261.545	4806
261.607	2882
261.669	4067
261.731	8597
261.793	23127
261.854	8532
261.916	5589
261.978	3802
262.040	4647
262.102	4689
262.164	7967
262.225	7460
262.287	4440
262.349	9295
262.411	7931
262.472	3975
262.534	8903
262.596	23774
262.658	7652
262.719	2965
262.781	5989
262.843	20896
262.904	9981
262.966	5301
263.028	7312
263.090	33877
263.151	94128
263.213	29041
263.275	12811
263.336	7025
263.398	4632
263.459	2704
263.521	4250
263.583	7585
263.644	6682
263.706	2780
263.767	1834
263.829	3175
263.891	1731
263.952	1169
264.014	1076
264.075	2656
264.137	6268
264.198	4624
264.260	1851
264.321	1630
264.383	5711
264.444	11892
264.506	3802
264.567	2121
264.629	4983
264.690	7299
264.752	4288
264.813	3227
264.875	1944
264.936	2443
264.998	1345
265.059	1048
265.120	2354
265.182	3967
265.243	19662
265.305	21039
265.366	5996
265.427	3117
265.489	2578
265.550	620
265.611	2386
265.673	2086
265.734	1800
265.795	2417
265.857	2053
265.918	1900
265.979	6182
266.040	32111
266.102	29532
266.163	7996
266.224	6272
266.286	3415
266.347	2357
266.408	2536
266.469	3622
266.530	3432
266.592	1689
266.653	4919
266.714	10082
266.775	3005
266.836	2752
266.898	1992
266.959	3302
267.020	2036
267.081	3121
267.142	2019
267.203	1608
267.264	1184
267.326	4028
267.387	2050
267.448	1333
267.509	2030
267.570	2506
267.631	1543
267.692	1672
267.753	3066
267.814	1760
267.875	4021
267.936	12540
267.997	5493
268.058	3789
268.119	2942
268.180	3032
268.241	1630
268.302	1368
268.363	1314
268.424	2056
268.485	2159
268.546	1985
268.607	797
268.668	1438
268.729	1172
268.790	1380
268.851	1438
268.912	5903
268.972	8348
269.033	4623
269.094	2002
269.155	1656
269.216	1313
269.277	2721
269.338	1833
269.398	1541
269.459	2236
269.520	3704
269.581	4861
269.642	5941
269.702	4022
269.763	3527
269.824	2169
269.885	3516
269.945	5619
270.006	2624
270.067	1405
270.128	2020
270.188	1678
270.249	1676
270.310	888
270.370	1836
270.431	2431
270.492	1759
270.553	1420
270.613	6030
270.674	11041
270.734	5291
270.795	2183
270.856	4608
270.916	2872
270.977	2418
271.038	3044
271.098	3509
271.159	3412
271.219	6837
271.280	2902
271.340	2662
271.401	2937
271.462	11392
271.522	6410
271.583	2622
271.643	3016
271.704	3029
271.764	3013
271.825	7990
271.885	27364
271.946	38582
272.006	13628
272.066	15934
272.127	29765
272.187	10166
272.248	5977
272.308	5164
272.369	19022
272.429	11232
272.489	8284
272.550	8620
272.610	9253
272.671	7655
272.731	6478
272.791	14373
272.852	6976
272.912	5862
272.972	3828
273.033	3328
273.093	6135
273.153	6363
273.214	3801
273.274	4900
273.334	12786
273.394	29485
273.455	13119
273.515	11955
273.575	25671
273.635	12258
273.696	15920
273.756	31042
273.816	14166
273.876	9115
273.936	19831
273.997	40694
274.057	10240
274.117	5861
274.177	9049
274.237	33385
274.297	34421
274.358	27921
274.418	24163
274.478	18854
274.538	7589
274.598	7138
274.658	29769
274.718	41483
274.778	15611
274.838	8060
274.898	16034
274.958	57518
275.018	35343
275.078	22204
275.138	9312
275.198	5982
275.258	4365
275.318	5813
275.378	10451
275.438	11025
275.498	7217
275.558	23808
275.618	49266
275.678	24021
275.738	12940
275.798	10484
275.858	5374
275.918	3820
275.978	4729
276.038	5283
276.098	3269
276.157	6908
276.217	21219
276.277	10978
276.337	7145
276.397	3981
276.457	5244
276.517	4162
276.576	3261
276.636	3454
276.696	6577
276.756	14181
276.815	10844
276.875	5050
276.935	5269
276.995	5617
277.055	3570
277.114	4209
277.174	4363
277.234	16087
277.293	7573
277.353	4956
277.413	3479
277.472	3778
277.532	4710
277.592	5724
277.651	17977
277.711	40371
277.771	13754
277.830	41054
277.890	38674
277.950	25217
278.009	72231
278.069	30301
278.128	27772
278.188	43106
278.248	17884
278.307	42906
278.367	29662
278.426	9381
278.486	6648
278.545	5318
278.605	4696
278.664	4548
278.724	4908
278.783	11802
278.843	30018
278.902	11238
278.962	7841
279.021	8974
279.081	20628
279.140	19386
279.199	10347
279.259	9678
279.318	11155
279.378	14238
279.437	27525
279.496	82550
279.556	260359
279.615	235043
279.675	68342
279.734	36996
279.793	51812
279.853	74723
279.912	27255
279.971	16331
280.031	14548
280.090	20673
280.149	37952
280.208	42135
280.268	171863
280.327	204063
280.386	51360
280.445	30090
280.505	24981
280.564	14213
280.623	11381
280.682	12668
280.742	18213
280.801	6970
280.860	4987
280.919	5287
280.978	4412
281.037	5078
281.097	4109
281.156	5288
281.215	4525
281.274	5374
281.333	18505
281.392	17513
281.451	4417
281.510	4460
281.569	3612
281.628	4152
281.688	3767
281.747	4324
281.806	3846
281.865	3584
281.924	2737
281.983	3542
282.042	2418
282.101	1788
282.160	2931
282.219	2205
282.278	3628
282.337	11252
282.396	9516
282.454	3867
282.513	5099
282.572	16932
282.631	11605
282.690	4529
282.749	2795
282.808	5138
282.867	4473
282.926	4276
282.985	3205
283.043	2953
283.102	2500
283.161	4496
283.220	9023
283.279	20737
283.338	6996
283.396	4220
283.455	4151
283.514	4880
283.573	8458
283.631	7068
283.690	3805
283.749	3916
283.808	7235
283.866	10643
283.925	3864
283.984	4715
284.043	6211
284.101	7180
284.160	4272
284.219	6868
284.277	5559
284.336	9257
284.395	25458
284.453	23734
284.512	9338
284.570	12598
284.629	12100
284.688	11850
284.746	13258
284.805	15899
284.863	20590
284.922	26572
284.981	31541
285.039	43535
285.098	71371
285.156	136765
285.215	197144
285.273	186927
285.332	150160
285.390	91749
285.449	58245
285.507	41550
285.566	30465
285.624	24194
285.683	18208
285.741	14156
285.799	12169
285.858	10965
285.916	9878
285.975	7829
286.033	6800
286.091	6458
286.150	4780
286.208	5497
286.267	6184
286.325	5968
286.383	8371
286.442	7405
286.500	4921
286.558	4967
286.616	3909
286.675	5260
286.733	5580
286.791	4269
286.850	4966
286.908	6806
286.966	10574
287.024	5656
287.083	3349
287.141	3480
287.199	3950
287.257	6059
287.315	4381
287.374	4883
287.432	10017
287.490	8382
287.548	5034
287.606	3967
287.664	3866
287.723	4938
287.781	6359
287.839	4479
287.897	5140
287.955	7880
288.013	11391
288.071	26855
288.129	91354
288.187	259933
288.245	126439
288.303	39687
288.361	21953
288.419	15865
288.477	11730
288.535	8889
288.593	6401
288.651	5376
288.709	4146
288.767	3890
288.825	3129
288.883	2569
288.941	3122
288.999	2987
289.057	2002
289.115	2112
289.173	2588
289.231	3784
289.289	3018
289.346	3828
289.404	3518
289.462	6561
289.520	5870
289.578	3486
289.636	1884
289.694	1809
289.751	1911
289.809	2187
289.867	2342
289.925	2591
289.983	3937
290.040	2274
290.098	1591
290.156	2570
290.214	2038
290.271	1805
290.329	1871
290.387	1665
290.444	1441
290.502	961
290.560	850
290.617	2141
290.675	2348
290.733	1594
290.790	2968
290.848	1883
290.906	1677
290.963	3550
291.021	2381
291.078	2290
291.136	2975
291.194	7175
291.251	17154
291.309	5653
291.366	2392
291.424	1982
291.481	1656
291.539	2933
291.596	2429
291.654	2140
291.711	1786
291.769	2885
291.826	5669
291.884	4295
291.941	1909
291.999	2197
292.056	2643
292.114	3206
292.171	2057
292.228	2707
292.286	3222
292.343	6400
292.401	7371
292.458	5195
292.515	3864
292.573	4205
292.630	3343
292.687	3637
292.745	2891
292.802	4850
292.859	9519
292.917	22413
292.974	13797
293.031	4437
293.089	2453
293.146	2960
293.203	2134
293.260	2211
293.318	4066
293.375	4216
293.432	1808
293.489	2587
293.546	2058
293.604	5386
293.661	15308
293.718	35750
293.775	19214
293.832	9197
293.889	8412
293.947	9458
294.004	6760
294.061	5604
294.118	9698
294.175	19233
294.232	19569
294.289	9725
294.346	5144
294.403	4904
294.460	4405
294.517	4037
294.574	3148
294.631	2885
294.688	4023
294.745	9742
294.802	31294
294.859	34665
294.916	17247
294.973	12109
295.030	7588
295.087	6390
295.144	4332
295.201	3957
295.258	3059
295.315	5325
295.372	12988
295.429	28202
295.486	12537
295.542	6530
295.599	10839
295.656	20466
295.713	15398
295.770	24916
295.827	10874
295.883	5251
295.940	3686
295.997	7275
296.054	8157
296.111	4837
296.167	2693
296.224	1872
296.281	1797
296.338	2440
296.394	2465
296.451	4506
296.508	10335
296.564	22736
296.621	14527
296.678	27138
296.734	44110
296.791	18681
296.848	9541
296.904	9370
296.961	18978
297.018	30048
297.074	24688
297.131	10696
297.187	7142
297.244	10170
297.301	26318
297.357	53830
297.414	21736
297.470	8640
297.527	5234
297.583	5456
297.640	5455
297.696	3660
297.753	2841
297.809	2286
297.866	1869
297.922	2132
297.979	2350
298.035	3265
298.092	5821
298.148	16767
298.204	18545
298.261	9814
298.317	13334
298.374	34729
298.430	25064
298.486	12423
298.543	9528
298.599	9317
298.656	11402
298.712	15629
298.768	34100
298.824	29565
298.881	10947
298.937	5745
298.993	4649
299.050	5556
299.106	5543
299.162	4186
299.218	5382
299.275	4221
299.331	4829
299.387	9808
299.443	31022
299.500	40654
299.556	18243
299.612	8851
299.668	8062
299.724	11464
299.780	12451
299.837	7180
299.893	10561
299.949	28578
300.005	39917
300.061	28610
300.117	47106
300.173	26636
300.229	13180
300.285	13580
300.341	15422
300.397	9040
300.453	5886
300.510	5611
300.566	5711
300.622	8079
300.678	19715
300.734	37880
300.790	31029
300.845	36012
300.901	24634
300.957	33056
301.013	28100
301.069	11361
301.125	7383
301.181	7926
301.237	5875
301.293	4244
301.349	4074
301.405	5404
301.461	5520
301.516	10297
301.572	8304
301.628	10387
301.684	10372
301.740	12852
301.796	24295
301.851	17962
301.907	24218
301.963	26762
302.019	36592
302.074	90760
302.130	99232
302.186	52826
302.242	21864
302.297	13754
302.353	12159
302.409	21087
302.464	22512
302.520	16338
302.576	33250
302.631	41402
302.687	24806
302.743	11116
302.798	5746
302.854	5366
302.910	5525
302.965	7227
303.021	12816
303.076	13787
303.132	14332
303.187	18352
303.243	11080
303.299	4505
303.354	3562
303.410	4657
303.465	3738
303.521	3485
303.576	3375
303.632	4940
303.687	9372
303.743	28150
303.798	28737
303.853	12417
303.909	5668
303.964	6149
304.020	7872
304.075	13491
304.130	12795
304.186	21072
304.241	23832
304.297	17897
304.352	10203
304.358	9747
304.407	6050
304.449	5781
304.463	5696
304.518	6433
304.539	6111
304.573	5609
304.629	6665
304.630	6713
304.684	9162
304.720	16928
304.739	20810
304.794	35163
304.811	30804
304.850	20312
304.902	8974
304.905	8248
304.960	5532
304.992	5143
305.015	4842
305.071	6100
305.083	5914
305.126	5280
305.173	3494
305.181	3206
305.236	2374
305.264	2811
305.292	3234
305.347	4541
305.354	4729
305.402	6005
305.445	6067
305.457	6055
305.512	6830
305.535	7150
305.567	7585
305.622	7564
305.626	7810
305.678	13728
305.716	25981
305.733	30246
305.788	38275
305.807	33356
305.843	25200
305.897	28680
305.898	28688
305.953	31118
305.988	21372
306.008	16112
306.063	9348
306.078	8487
306.118	6591
306.168	4626
306.173	4460
306.228	3908
306.259	3503
306.283	3139
306.338	2089
306.349	2248
306.393	3128
306.440	4695
306.448	4939
306.503	4624
306.530	4958
306.558	6008
306.613	11558
306.620	12473
306.668	19276
306.711	27757
306.723	28900
306.778	25691
306.801	20216
306.833	13755
306.888	6661
306.892	6417
306.943	4644
306.982	4251
306.997	4010
307.052	3670
307.072	3432
307.107	3614
307.162	3997
307.163	4021
307.217	6059
307.253	6837
307.272	7071
307.327	7618
307.343	7460
307.381	6864
307.434	6572
307.436	6748
307.491	12397
307.524	19052
307.546	21339
307.600	25491
307.614	23000
307.655	14619
307.704	8197
307.710	7828
307.765	7376
307.795	8453
307.819	9420
307.874	14824
307.885	14851
307.929	13025
307.975	10690
307.984	10855
308.038	15644
308.065	19944
308.093	33723
308.148	69617
308.156	78405
308.202	123444
308.246	157462
308.257	156090
308.312	87964
308.336	62230
308.366	45998
308.421	29722
308.426	28360
308.475	18387
308.517	12892
308.530	11706
308.585	9721
308.607	9386
308.639	9492
308.694	10230
308.697	10325
308.748	14554
308.787	19805
308.803	19944
308.857	16552
308.877	14644
308.912	13441
308.967	13847
308.967	13899
309.021	20050
309.058	25749
309.076	31495
309.130	54866
309.148	63711
309.185	111605
309.238	192959
309.239	193426
309.293	218130
309.328	204596
309.348	180578
309.402	90329
309.418	68607
309.457	48495
309.508	32083
309.511	31536
309.566	29835
309.598	31302
309.620	37725
309.674	58611
309.688	64702
309.729	62753
309.778	49945
309.783	48726
309.837	32414
309.868	25105
309.892	25680
309.946	30908
309.959	33583
310.001	41467
310.049	47921
310.055	46610
310.109	29765
310.139	19524
310.163	15293
310.218	9607
310.229	8773
310.272	6897
310.319	5448
310.326	5265
310.381	4464
310.409	4191
310.435	3920
310.489	3240
310.499	3201
310.543	3394
310.589	3535
310.598	3493
310.652	3289
310.679	3181
310.706	2927
310.760	2459
310.769	2392
310.814	2413
310.859	2630
310.868	2697
310.923	2751
310.948	2978
310.977	3241
311.031	3488
311.038	3555
311.085	3833
311.128	3829
311.139	3603
311.193	2696
311.218	2196
311.247	2263
311.301	2514
311.308	2538
311.356	2341
311.398	2236
311.410	2228
311.464	2084
311.488	2112
311.518	2071
311.572	1893
311.578	1877
311.626	3229
311.668	4565
311.680	4385
311.734	3316
311.758	2890
311.788	3195
311.842	3787
311.847	3847
311.896	4048
311.937	4282
311.950	4194
312.004	3828
312.027	3655
312.058	3198
312.112	2421
312.117	2353
312.165	2449
312.207	2555
312.297	2124
312.386	3065
312.476	3469
312.566	7634
312.656	3506
312.745	2061
312.835	1848
312.925	2784
313.015	2260
313.104	2511
313.194	1863
313.284	2936
313.374	3888
313.463	2846
313.553	2458
313.643	1934
313.732	1594
313.822	2248
313.912	2365
314.001	3031
314.091	3159
314.180	4130
314.270	4190
314.360	4429
314.449	3011
314.539	2425
314.628	1640
314.718	2545
314.808	3325
314.897	3451
314.987	2980
315.076	3860
315.166	4816
315.255	4681
315.345	3506
315.434	4172
315.524	3721
315.613	5211
315.703	7807
315.792	17797
315.881	71302
315.971	21216
316.060	8484
316.150	9168
316.239	8312
316.328	4131
316.418	2220
316.507	3026
316.597	3656
316.686	4001
316.775	4701
316.865	9200
316.954	3064
317.043	2068
317.133	2848
317.222	2680
317.311	2575
317.400	2315
317.490	5607
317.579	5936
317.668	5790
317.757	11861
317.847	31682
317.936	125840
318.025	36038
318.114	22095
318.203	10419
318.293	8904
318.382	13395
318.471	11001
318.560	12432
318.649	17382
318.738	4240
318.828	5251
318.917	4674
319.006	4708
319.095	10937
319.184	24331
319.273	16504
319.362	11146
319.451	3228
319.540	4320
319.629	8458
319.718	14931
319.807	5925
319.896	9563
319.985	32052
320.074	12972
320.163	3054
320.252	5373
320.341	4109
320.430	3581
320.519	7099
320.608	4134
320.697	2996
320.786	2762
320.875	5463
320.964	7071
321.053	9629
321.142	15344
321.230	14675
321.319	11702
321.408	24054
321.497	10017
321.586	9867
321.675	10480
321.764	9468
321.852	6672
321.941	13932
322.030	9482
322.119	10158
322.207	25538
322.296	13902
322.385	8222
322.474	11879
322.562	33678
322.651	15062
322.740	13488
322.829	15920
322.917	12300
323.006	8428
323.095	8252
323.183	5799
323.272	9026
323.361	14369
323.449	40295
323.538	13464
323.626	26967
323.715	15408
323.804	7362
323.892	22565
323.981	14039
324.069	4915
324.158	12283
324.246	10371
324.335	5945
324.424	8834
324.512	4259
324.601	5417
324.689	13966
324.778	23243
324.866	11067
324.954	2731
325.043	3571
325.131	5460
325.220	9279
325.308	10078
325.397	8501
325.485	4651
325.574	2701
325.662	2236
325.750	2843
325.839	2621
325.927	2732
326.015	2658
326.104	5037
326.192	5229
326.280	3271
326.369	2280
326.457	4147
326.545	7793
326.634	3315
326.722	1855
326.810	2693
326.898	2572
326.987	2973
327.075	6556
327.163	7357
327.251	3966
327.340	9866
327.428	12293
327.516	3288
327.604	2288
327.692	2565
327.781	2417
327.869	4239
327.957	3124
328.045	3425
328.133	1822
328.221	2316
328.309	2450
328.397	1987
328.485	3139
328.574	5670
328.662	16891
328.750	8365
328.838	2926
328.926	2257
329.014	1962
329.102	3784
329.190	5520
329.278	4699
329.366	2527
329.454	1685
329.542	1313
329.630	957
329.718	1558
329.806	2704
329.893	3180
329.981	2533
330.069	5336
330.157	20437
330.245	53956
330.333	26888
330.421	5620
330.509	5107
330.597	20049
330.684	11729
330.772	3885
330.860	3597
330.948	3938
331.036	3235
331.123	796
331.211	2214
331.299	1598
331.387	4060
331.475	6777
331.562	3415
331.650	1902
331.738	2086
331.825	2126
331.913	1232
332.001	1647
332.089	2288
332.176	3828
332.264	11441
332.352	7438
332.439	3302
332.527	2438
332.614	2120
332.702	2533
332.790	3561
332.877	5126
332.965	12739
333.052	5136
333.140	6077
333.228	15654
333.315	4007
333.403	2914
333.490	6878
333.578	8377
333.665	23372
333.753	7988
333.840	3245
333.928	2964
334.015	8013
334.103	10567
334.190	34445
334.278	8067
334.365	5319
334.452	4928
334.540	3273
334.627	3258
334.715	5348
334.802	10465
334.889	48451
334.977	49510
335.064	10336
335.151	3616
335.239	4396
335.326	4408
335.413	16115
335.501	18821
335.588	3991
335.675	2271
335.762	3927
335.850	4757
335.937	6880
336.024	16405
336.111	53254
336.199	25785
336.286	7549
336.373	3310
336.460	2665
336.547	1524
336.635	2711
336.722	2727
336.809	3066
336.896	3761
336.983	9564
337.070	21682
337.157	31169
337.245	27613
337.332	18754
337.419	3164
337.506	2134
337.593	2653
337.680	6917
337.767	15559
337.854	5878
337.941	6263
338.028	9506
338.115	2718
338.202	4633
338.289	6391
338.376	27249
338.463	7674
338.550	10590
338.637	9015
338.724	5715
338.811	7313
338.898	2206
338.984	1333
339.071	1839
339.158	3120
339.245	9491
339.332	5962
339.419	5900
339.506	4776
339.593	1142
339.679	1558
339.766	1696
339.853	2957
339.940	7528
340.027	2075
340.113	2963
340.200	2926
340.287	2516
340.374	3262
340.460	5520
340.547	1841
340.634	5448
340.720	21040
340.807	11042
340.894	2265
340.980	2855
341.067	1649
341.154	2907
341.240	4492
341.327	10179
341.414	3780
341.500	3861
341.587	2285
341.674	3173
341.760	6424
341.847	7419
341.933	2232
342.020	885
342.106	973
342.193	3306
342.279	5528
342.366	4225
342.452	6106
342.539	3477
342.625	7847
342.712	21414
342.798	7868
342.885	2764
342.971	1012
343.058	1421
343.144	1742
343.230	1471
343.317	2468
343.403	1502
343.490	361
343.576	1518
343.662	1548
343.749	2317
343.835	3124
343.921	8258
344.008	47213
344.094	99827
344.180	20886
344.267	8597
344.353	25847
344.439	23948
344.525	9519
344.612	4343
344.698	2468
344.784	2400
344.870	1265
344.957	2124
345.043	3605
345.129	2476
345.215	5354
345.301	3585
345.387	2127
345.474	1569
345.560	751
345.646	1319
345.732	1687
345.818	3185
345.904	2335
345.990	2956
346.076	2775
346.162	4173
346.249	2851
346.335	1425
346.421	2543
346.507	11845
346.593	38711
346.679	7778
346.765	2217
346.851	2583
346.937	1180
347.023	2320
347.108	2117
347.194	2245
347.280	1818
347.366	3854
347.452	12835
347.538	47979
347.624	32885
347.710	24639
347.796	3197
347.882	1468
347.967	1217
348.053	1759
348.139	942
348.225	2111
348.311	1625
348.397	847
348.482	2371
348.568	2768
348.654	1201
348.740	3853
348.825	2563
348.911	6576
348.997	23221
349.083	41940
349.168	5519
349.254	3298
349.340	2289
349.425	1250
349.511	2806
349.597	3565
349.682	7361
349.768	26044
349.854	10229
349.939	2703
350.025	1183
350.110	1185
350.196	595
350.282	438
350.367	767
350.453	2256
350.538	2819
350.624	2707
350.709	2168
350.795	828
350.880	1175
350.966	2378
351.051	3178
351.137	2576
351.222	2532
351.308	8654
351.393	20971
351.479	5075
351.564	1488
351.649	2257
351.735	1147
351.820	1133
351.906	1184
351.991	2875
352.076	14093
352.162	20836
352.247	3871
352.332	3684
352.418	6370
352.503	8731
352.588	31317
352.673	22822
352.759	4999
352.844	2139
352.929	3307
353.014	3998
353.100	2589
353.185	6763
353.270	7990
353.355	7902
353.441	2065
353.526	2501
353.611	6415
353.696	7522
353.781	4998
353.866	1703
353.952	3187
354.037	6363
354.122	15765
354.207	13566
354.292	3967
354.377	1965
354.462	1450
354.547	3135
354.632	2301
354.717	5073
354.802	7122
354.887	2442
354.972	1347
355.057	1319
355.142	559
355.227	3028
355.312	3817
355.397	10402
355.482	24568
355.567	10558
355.652	8438
355.737	9885
355.822	31726
355.907	23612
355.991	3885
356.076	1076
356.161	2123
356.246	1995
356.331	2643
356.416	8191
356.501	57463
356.585	54258
356.670	6242
356.755	5548
356.840	7905
356.924	41194
357.009	134122
357.094	44122
357.179	9059
357.263	6888
357.348	5623
357.433	5544
357.517	5113
357.602	4250
357.687	3715
357.771	9809
357.856	33145
357.941	17367
358.025	31644
358.110	129877
358.195	52620
358.279	8357
358.364	6467
358.448	22434
358.533	56190
358.617	39398
358.702	39630
358.787	12729
358.871	7461
358.956	5868
359.040	2390
359.125	2003
359.209	3472
359.294	15292
359.378	24066
359.462	7748
359.547	3260
359.631	1585
359.716	1094
359.800	1893
359.885	3586
359.969	2013
360.053	1676
360.138	2618
360.222	4031
360.306	7863
360.391	5562
360.475	16830
360.559	31709
360.644	23298
360.728	14372
360.812	31919
360.896	82968
360.981	27679
361.065	11423
361.149	3789
361.233	3096
361.318	3671
361.402	3793
361.486	4240
361.570	2201
361.654	4414
361.739	11624
361.823	55224
361.907	80778
361.991	13627
362.075	7243
362.159	14740
362.243	10479
362.327	12226
362.411	18085
362.495	8455
362.580	3415
362.664	1871
362.748	2019
362.832	4750
362.916	6843
363.000	32116
363.084	86178
363.168	99307
363.252	20733
363.336	7167
363.420	8325
363.503	22108
363.587	22757
363.671	6468
363.755	3913
363.839	7370
363.923	2424
364.007	8785
364.091	8221
364.175	10580
364.258	41354
364.342	39259
364.426	67120
364.510	34001
364.594	12473
364.677	17002
364.761	73385
364.845	48246
364.929	13981
365.013	10593
365.096	9060
365.180	10782
365.264	10561
365.347	36656
365.431	13741
365.515	3642
365.598	1644
365.682	3340
365.766	2511
365.849	2795
365.933	2458
366.017	4431
366.100	1612
366.184	1073
366.267	2915
366.351	2214
366.435	1357
366.518	1181
366.602	1011
366.685	2616
366.769	2366
366.852	3899
366.936	6657
367.019	4848
367.103	1313
367.186	4641
367.270	1190
367.353	1400
367.436	2299
367.520	690
367.603	3022
367.687	3984
367.770	8577
367.853	5841
367.937	19288
368.020	30338
368.104	6159
368.187	8137
368.270	8917
368.353	7181
368.437	9976
368.520	18498
368.603	12030
368.687	23331
368.770	41122
368.853	9409
368.936	7617
369.020	5857
369.103	2047
369.186	1978
369.269	2379
369.352	6205
369.436	7045
369.519	5666
369.602	802
369.685	3412
369.768	1709
369.851	3086
369.934	991
370.018	2738
370.101	5836
370.184	6455
370.267	3628
370.350	7386
370.433	11076
370.516	38780
370.599	54223
370.682	17354
370.765	21631
370.848	28228
370.931	53157
371.014	17672
371.097	2785
371.180	3345
371.263	1750
371.346	1316
371.429	2342
371.511	1432
371.594	4004
371.677	7405
371.760	6316
371.843	8818
371.926	45609
372.009	96409
372.091	28345
372.174	19933
372.257	48608
372.340	17895
372.423	9804
372.505	9727
372.588	5582
372.671	17638
372.754	52750
372.836	24414
372.919	10114
373.002	18325
373.085	7445
373.167	9336
373.250	21530
373.332	48463
373.415	69153
373.498	140070
373.580	49331
373.663	89353
373.746	102717
373.828	18970
373.911	8718
373.993	6579
374.076	18488
374.159	15849
374.241	13466
374.324	42632
374.406	27402
374.489	42813
374.571	111844
374.654	40547
374.736	21611
374.819	69342
374.901	103116
374.983	101737
375.066	16130
375.148	5955
375.231	16568
375.313	27971
375.395	9497
375.478	3059
375.560	3332
375.643	5796
375.725	20936
375.807	93815
375.890	60387
375.972	17682
376.054	10582
376.136	15353
376.219	7460
376.301	27816
376.383	77281
376.465	26456
376.548	15301
376.630	22267
376.712	65210
376.794	26645
376.877	2791
376.959	1618
377.041	1894
377.123	3490
377.205	3827
377.287	1270
377.369	2002
377.452	1732
377.534	1974
377.616	1728
377.698	924
377.780	799
377.862	2094
377.944	2409
378.026	471
378.108	1555
378.190	1353
378.272	2505
378.354	672
378.436	1539
378.518	1855
378.600	8831
378.682	9329
378.764	30323
378.846	21126
378.928	5256
379.010	6816
379.091	5105
379.173	2209
379.255	1994
379.337	3889
379.419	14819
379.501	42895
379.583	14844
379.664	3617
379.746	9968
379.828	28805
379.910	39952
379.991	33143
380.073	5437
380.155	2732
380.237	3401
380.318	1201
380.400	2394
380.482	6145
380.564	9397
380.645	9342
380.727	9470
380.809	5236
380.890	4188
380.972	1752
381.053	3241
381.135	3527
381.217	10329
381.298	29816
381.380	13396
381.461	12991
381.543	68464
381.624	77476
381.706	12750
381.787	6370
381.869	7645
381.951	31331
382.032	113435
382.113	62881
382.195	12069
382.276	9907
382.358	22755
382.439	57083
382.521	68252
382.602	104636
382.684	47165
382.765	86289
382.846	108704
382.928	186120
383.009	95240
383.090	66692
383.172	260262
383.253	372143
383.334	116079
383.416	100039
383.497	50166
383.578	26627
383.659	55290
383.741	218364
383.822	542046
383.903	257011
383.984	79607
384.066	113007
384.147	63449
384.228	15275
384.309	10994
384.390	8432
384.471	7211
384.553	6702
384.634	8263
384.715	9386
384.796	4856
384.877	6959
384.958	29045
385.039	31432
385.120	11558
385.201	5336
385.282	5828
385.363	6697
385.444	6496
385.525	12855
385.606	44416
385.687	34932
385.768	7200
385.849	9854
385.930	50313
386.011	79681
386.092	19450
386.173	4960
386.254	3663
386.335	3767
386.416	5088
386.496	18174
386.577	27351
386.658	7767
386.739	4456
386.820	4541
386.901	3084
386.981	3400
387.062	3755
387.143	7450
387.224	29349
387.304	24642
387.385	7590
387.466	3801
387.547	6598
387.627	4471
387.708	12880
387.789	53256
387.869	62143
387.950	15210
388.031	2423
388.111	470
388.192	5291
388.273	6960
388.353	5047
388.434	4470
388.514	11273
388.595	52705
388.676	62604
388.756	27201
388.837	25963
388.917	14415
388.998	2650
389.078	3630
389.159	4165
389.239	1543
389.320	5737
389.400	3016
389.480	10984
389.561	30501
389.641	14149
389.722	4403
389.802	7600
389.883	13020
389.963	38268
390.043	19852
390.124	4798
390.204	11036
390.284	33672
390.365	18963
390.445	21963
390.525	79019
390.605	71669
390.686	17360
390.766	8098
390.846	4500
390.927	2613
391.007	2586
391.087	4010
391.167	3748
391.247	2888
391.328	3951
391.408	5974
391.488	3740
391.568	2254
391.648	4324
391.728	6894
391.808	5845
391.888	7409
391.969	17045
392.049	27479
392.129	10858
392.209	14572
392.289	37200
392.369	17397
392.449	9316
392.529	7780
392.609	9744
392.689	13798
392.769	38095
392.849	31309
392.929	23220
393.009	51989
393.089	46886
393.169	57443
393.248	198443
393.328	723290
393.408	727611
393.488	186971
393.568	50880
393.648	25040
393.728	15094
393.807	10641
393.887	9566
393.967	7964
394.047	8770
394.127	10292
394.206	14277
394.286	56695
394.366	247354
394.446	243713
394.525	47494
394.605	12038
394.685	9123
394.764	13973
394.844	21970
394.924	15594
395.003	7193
395.083	5829
395.163	5045
395.242	5049
395.322	5055
395.402	2522
395.481	6348
395.561	11028
395.640	28387
395.720	27661
395.799	28838
395.879	21595
395.958	19984
396.038	80088
396.117	327789
396.197	327093
396.276	77842
396.356	23685
396.435	16563
396.515	16730
396.594	21703
396.673	49538
396.753	212703
396.832	644054
396.912	428354
396.991	90521
397.070	26167
397.150	13442
397.229	9778
397.308	14422
397.388	22062
397.467	10894
397.546	5069
397.625	3113
397.705	5982
397.784	5215
397.863	2631
397.942	2504
398.022	2251
398.101	7815
398.180	19081
398.259	8445
398.338	4063
398.417	2842
398.497	1780
398.576	3154
398.655	1015
398.734	2039
398.813	1492
398.892	7535
398.971	21260
399.050	9364
399.129	925
399.208	1941
399.287	1402
399.366	948
399.445	1063
399.524	1533
399.603	13
399.682	4195
399.761	9105
399.840	25481
399.919	16176
399.998	2137
400.077	321
400.156	-196
400.235	2626
400.313	430
400.392	1544
400.471	15236
400.550	23173
400.629	4545
400.708	2208
400.786	695
400.865	3263
400.944	3736
401.023	3525
401.102	456
401.180	-187
401.259	320
401.338	582
401.416	2541
401.495	1439
401.574	1431
401.652	-216
401.731	2371
401.810	655
401.888	815
401.967	-188
402.046	206
402.124	1683
402.203	2137
402.281	1260
402.360	2308
402.438	4899
402.517	2167
402.596	963
402.674	207
402.753	57
402.831	1450
402.910	2078
402.988	12444
403.066	42895
403.145	22563
403.223	13658
403.302	35900
403.380	24660
403.459	24575
403.537	7889
403.615	3404
403.694	-706
403.772	1390
403.850	651
403.929	592
404.007	291
404.085	5110
404.164	4271
404.242	1234
404.320	1874
404.398	4591
404.477	16683
404.555	88152
404.633	68336
404.711	7950
404.789	2442
404.868	2238
404.946	-261
405.024	600
405.102	-202
405.180	-54
405.258	-1618
405.336	1643
405.415	-422
405.493	3412
405.571	2718
405.649	169
405.727	-772
405.805	2514
405.883	1228
405.961	2110
406.039	411
406.117	69
406.195	3262
406.273	18757
406.351	70782
406.429	36896
406.507	3051
406.585	373
406.663	1112
406.740	1675
406.818	647
406.896	122
406.974	949
407.052	5834
407.130	39977
407.208	53991
407.285	9696
407.363	536
407.441	597
407.519	1119
407.596	1200
407.674	4365
407.752	10366
407.830	9962
407.907	3823
407.985	1089
408.063	910
408.141	-65
408.218	1033
408.296	1032
408.373	1487
408.451	1897
408.529	1063
408.606	-369
408.684	-303
408.762	226
408.839	-22
408.917	-175
408.994	77
409.072	-702
409.149	-365
409.227	3064
409.304	2749
409.382	2337
409.459	1934
409.537	5071
409.614	4313
409.692	2132
409.769	1515
409.846	4859
409.924	7101
410.001	3009
410.079	1465
410.156	2029
410.233	1046
410.311	1193
410.388	411
410.465	1324
410.543	562
410.620	1901
410.697	1148
410.775	1783
410.852	-581
410.929	3186
411.006	3474
411.083	1017
411.161	3051
411.238	3167
411.315	357
411.392	415
411.469	1413
411.547	2029
411.624	-424
411.701	479
411.778	947
411.855	3917
411.932	1126
412.009	529
412.086	1037
412.163	871
412.240	-28
412.317	1577
412.394	463
412.471	20
412.548	-81
412.625	865
412.702	586
412.779	3019
412.856	1616
412.933	-520
413.010	293
413.087	2069
413.164	13347
413.241	18861
413.318	3254
413.395	2963
413.471	2739
413.548	868
413.625	1016
413.702	65
413.779	811
413.855	-88
413.932	-446
414.009	-983
414.086	-649
414.162	1081
414.239	1637
414.316	13377
414.393	30471
414.469	8251
414.546	-116
414.623	363
414.699	-321
414.776	1208
414.853	-280
414.929	885
415.006	134
415.082	437
415.159	-73
415.236	561
415.312	298
415.389	2539
415.465	3042
415.542	1987
415.618	432
415.695	2053
415.771	672
415.848	376
415.924	515
416.000	-321
416.077	-41
416.153	-735
416.230	-1564
416.306	-1015
416.383	-673
416.459	341
416.535	-490
416.612	335
416.688	-479
416.764	634
416.841	-529
416.917	20
416.993	-334
417.069	1637
417.146	500
417.222	1742
417.298	932
417.374	-332
417.451	-124
417.527	505
417.603	551
417.679	648
417.755	168
417.831	-739
417.908	-128
417.984	-403
418.060	37
418.136	3512
418.212	2978
418.288	1197
418.364	985
418.440	467
418.516	1163
418.592	1670
418.668	4603
418.744	8491
418.820	5081
418.896	965
418.972	-900
419.048	889
419.124	3533
419.200	1288
419.276	-480
419.352	-849
419.428	262
419.504	935
419.579	585
419.655	712
419.731	-149
419.807	5577
419.883	9734
419.959	6595
420.034	644
420.110	4598
420.186	18567
420.262	13652
420.337	2077
420.413	1975
420.489	-126
420.565	495
420.640	240
420.716	809
420.792	-443
420.867	1377
420.943	782
421.019	2305
421.094	1745
421.170	1128
421.245	-737
421.321	1061
421.397	323
421.472	3581
421.548	5917
421.623	4911
421.699	2652
421.774	3189
421.850	1675
421.925	5043
422.001	4312
422.076	3997
422.152	4455
422.227	8307
422.302	10760
422.378	16694
422.453	31369
422.529	80798
422.604	219682
422.679	320889
422.755	211949
422.830	81671
422.905	33785
422.981	17761
423.056	11634
423.131	8049
423.207	6041
423.282	5699
423.357	7982
423.432	5023
423.508	5499
423.583	10446
423.658	6700
423.733	2327
423.808	2807
423.883	3852
423.959	3054
424.034	2462
424.109	2437
424.184	843
424.259	575
424.334	789
424.409	-182
424.484	1078
424.559	683
424.634	1649
424.709	2102
424.784	2497
424.859	657
424.934	2878
425.009	13262
425.084	22441
425.159	6647
425.234	1443
425.309	1046
425.384	9561
425.459	15640
425.534	4767
425.609	-272
425.683	304
425.758	284
425.833	512
425.908	1754
425.983	8565
426.058	24334
426.132	10092
426.207	567
426.282	1994
426.357	-489
426.431	193
426.506	-3
426.581	397
426.655	470
426.730	629
426.805	-434
426.879	774
426.954	840
427.029	3655
427.103	25958
427.178	60068
427.253	23718
427.327	2941
427.402	3728
427.476	14953
427.551	6589
427.625	1138
427.700	339
427.774	227
427.849	495
427.923	-831
427.998	-154
428.072	555
428.147	4110
428.221	23541
428.296	70576
428.370	35927
428.444	4184
428.519	1557
428.593	2910
428.667	2850
428.742	3453
428.816	7403
428.890	42232
428.965	73026
429.039	20871
429.113	5354
429.188	1803
429.262	919
429.336	2395
429.410	11089
429.485	6256
429.559	3767
429.633	2634
429.707	1609
429.781	5650
429.855	40732
429.930	62786
430.004	22824
430.078	19790
430.152	29972
430.226	95290
430.300	92279
430.374	14083
430.448	4312
430.522	6945
430.596	19664
430.670	20631
430.744	79717
430.818	105008
430.892	21105
430.966	2674
431.040	1217
431.114	-1010
431.188	321
431.262	-190
431.336	-170
431.410	1750
431.484	5415
431.557	4676
431.631	671
431.705	1663
431.779	14123
431.853	64383
431.927	44048
432.000	5492
432.074	749
432.148	713
432.222	728
432.295	-122
432.369	249
432.443	2065
432.516	25691
432.590	63510
432.664	22020
432.737	1396
432.811	186
432.885	-560
432.958	723
433.032	-660
433.106	140
433.179	-659
433.253	364
433.326	-1355
433.400	204
433.473	-1193
433.547	-272
433.620	514
433.694	1539
433.767	1908
433.841	-121
433.914	-266
433.988	-1
434.061	-622
434.134	-458
434.208	-1082
434.281	-1162
434.355	-806
434.428	825
434.501	-367
434.575	-906
434.648	-641
434.721	-695
434.795	-999
434.868	-773
434.941	-1242
435.014	-342
435.088	-80
435.161	2656
435.234	4127
435.307	3307
435.381	1815
435.454	1676
435.527	2730
435.600	3386
435.673	2016
435.746	775
435.819	376
435.892	267
435.966	-173
436.039	-990
436.112	-302
436.185	-837
436.258	-413
436.331	-851
436.404	-880
436.477	-829
436.550	-740
436.623	264
436.696	-1268
436.769	533
436.842	-450
436.915	-424
436.987	286
437.060	56
437.133	-304
437.206	-506
437.279	41
437.352	-612
437.425	-479
437.498	446
437.570	2227
437.643	2217
437.716	-226
437.789	-485
437.861	1330
437.934	6736
438.007	3174
438.080	209
438.152	352
438.225	5237
438.298	36102
438.370	98678
438.443	41135
438.516	8707
438.588	1344
438.661	63
438.734	-423
438.806	81
438.879	508
438.951	1677
439.024	3026
439.096	1056
439.169	-92
439.241	-689
439.314	-657
439.386	831
439.459	780
439.531	3441
439.604	200
439.676	0
439.749	-1183
439.821	-788
439.893	-826
439.966	-17
440.038	175
440.110	1148
440.183	-121
440.255	-281
440.327	1057
440.400	12952
440.472	57124
440.544	40917
440.617	4698
440.689	3205
440.761	2888
440.833	6132
440.905	4172
440.978	120
441.050	-808
441.122	-43
441.194	-708
441.266	335
441.338	53
441.411	2289
441.483	17233
441.555	27981
441.627	6466
441.699	1585
441.771	495
441.843	439
441.915	-734
441.987	312
442.059	214
442.131	1251
442.203	1311
442.275	2898
442.347	3232
442.419	5281
442.491	35144
442.563	93893
442.635	44427
442.706	11730
442.778	8853
442.850	2286
442.922	1081
442.994	1490
443.066	2471
443.137	2427
443.209	1718
443.281	4743
443.353	9799
443.425	45658
443.496	164552
443.568	173312
443.640	70546
443.711	14992
443.783	4400
443.855	2765
443.926	130
443.998	765
444.070	1205
444.141	1348
444.213	2791
444.285	4091
444.356	2403
444.428	1954
444.499	282
444.571	76
444.642	398
444.714	775
444.785	2353
444.857	2567
444.928	3931
445.000	4005
445.071	3376
445.143	5842
445.214	5987
445.285	8881
445.357	25689
445.428	107306
445.500	248569
445.571	169754
445.642	95041
445.714	32723
445.785	15291
445.856	6401
445.928	5100
445.999	5094
446.070	3042
446.141	3166
446.213	4011
446.284	2586
446.355	1174
446.426	398
446.497	147
446.569	1039
446.640	2896
446.711	3838
446.782	633
446.853	994
446.924	1744
446.995	1300
447.066	731
447.138	2090
447.209	126
447.280	-437
447.351	-152
447.422	415
447.493	-258
447.564	920
447.635	2200
447.706	1739
447.777	-96
447.847	-505
447.918	-1459
447.989	58
448.060	818
448.131	3124
448.202	3067
448.273	3936
448.344	1005
448.414	883
448.485	443
448.556	842
448.627	-820
448.698	1017
448.768	-351
448.839	-487
448.910	823
448.981	1674
449.051	256
449.122	129
449.193	-710
449.263	456
449.334	-79
449.405	524
449.475	4443
449.546	3349
449.616	1736
449.687	3366
449.758	1118
449.828	263
449.899	-38
449.969	319
450.040	356
450.110	960
450.181	578
450.251	755
450.322	-290
450.392	134
450.463	131
450.533	502
450.604	-674
450.674	-961
450.744	-403
450.815	431
450.885	287
450.955	189
451.026	-176
451.096	519
451.166	-347
451.237	2266
451.307	4306
451.377	2774
451.447	-537
451.518	-214
451.588	-496
451.658	363
451.728	578
451.799	5354
451.869	5567
451.939	1519
452.009	-667
452.079	447
452.149	-775
452.219	649
452.289	4728
452.360	5358
452.430	1271
452.500	1269
452.570	2596
452.640	4303
452.710	10651
452.780	15471
452.850	12718
452.920	13022
452.990	5140
453.060	2415
453.129	2663
453.199	3265
453.269	7595
453.339	19561
453.409	31571
453.479	23334
453.549	36904
453.619	37943
453.688	18763
453.758	3263
453.828	1008
453.898	730
453.968	-213
454.037	352
454.087	210
454.107	133
454.168	741
454.177	810
454.247	-328
454.249	-293
454.316	61
454.330	112
454.386	168
454.411	1179
454.456	2627
454.492	3541
454.525	4300
454.574	3157
454.595	2663
454.655	991
454.665	728
454.734	537
454.736	616
454.804	2100
454.817	3044
454.873	6177
454.898	6974
454.943	8211
454.979	5618
455.013	3362
455.060	1734
455.082	1140
455.141	1907
455.152	1948
455.221	3920
455.222	4039
455.291	8037
455.303	7552
455.360	5490
455.384	5355
455.430	4967
455.465	4873
455.499	4539
455.546	5570
455.569	5791
455.627	5438
455.638	5430
455.707	2133
455.708	2148
455.777	600
455.789	731
455.846	1310
455.869	1190
455.916	997
455.950	1061
455.985	1018
456.031	858
456.054	802
456.112	1229
456.124	1279
456.193	565
456.193	540
456.262	1127
456.274	1397
456.332	2531
456.355	2454
456.401	2130
456.436	1453
456.470	753
456.516	1403
456.540	1696
456.597	968
456.609	772
456.678	1466
456.678	1453
456.747	538
456.759	603
456.817	1276
456.840	987
456.886	20
456.920	694
456.955	1514
457.001	1725
457.024	1915
457.082	2028
457.093	1946
457.162	3335
457.163	3359
457.232	2973
457.243	2869
457.301	2451
457.324	2284
457.370	1849
457.405	1404
457.439	1289
457.485	2269
457.508	2622
457.566	2707
457.577	2873
457.646	4031
457.647	4080
457.715	8420
457.727	9278
457.784	15222
457.808	19517
457.853	24470
457.889	28389
457.922	27631
457.969	20020
457.991	21349
458.050	26069
458.060	26922
458.129	42106
458.130	42622
458.198	40487
458.211	37093
458.267	24239
458.292	17438
458.336	11881
458.372	10100
458.405	12306
458.453	18785
458.474	24019
458.533	42946
458.543	44401
458.611	67734
458.614	68291
458.680	45003
458.694	36079
458.749	19619
458.775	13989
458.818	7457
458.855	6121
458.887	5368
458.936	4351
458.955	4017
459.016	4231
459.024	4272
459.093	4679
459.097	4692
459.162	4319
459.177	4298
459.230	4823
459.257	5397
459.299	5790
459.338	5868
459.368	6009
459.418	5925
459.437	5449
459.499	4143
459.505	4116
459.574	3963
459.579	3937
459.643	3675
459.659	3784
459.711	4070
459.740	4208
459.780	4288
459.820	4430
459.849	4541
459.900	4276
459.917	4320
459.981	5772
459.986	5834
460.054	5947
460.061	5953
460.123	6426
460.141	6580
460.191	7252
460.222	8045
460.260	9075
460.302	10068
460.328	9148
460.382	7127
460.397	7056
460.462	5764
460.465	5753
460.534	7282
460.543	7259
460.602	13029
460.623	15794
460.671	23377
460.703	29636
460.739	26956
460.783	22749
460.808	19644
460.864	6710
460.876	5891
460.944	4552
460.945	4528
461.013	4844
461.024	4835
461.081	5173
461.104	5445
461.150	5241
461.184	5156
461.218	5337
461.264	4943
461.286	4724
461.345	5054
461.355	5061
461.423	4737
461.425	4721
461.491	4552
461.505	4688
461.559	7803
461.585	9168
461.628	12159
461.665	15093
461.696	16014
461.745	18247
461.764	16179
461.825	7418
461.832	7446
461.901	6706
461.905	6739
461.969	5234
461.985	4942
462.037	5708
462.065	5957
462.105	5281
462.145	5031
462.173	6464
462.225	8661
462.241	9280
462.305	12737
462.310	12475
462.378	8251
462.385	7635
462.446	6826
462.465	6621
462.514	6478
462.545	6616
462.582	6414
462.625	6225
462.650	5883
462.705	5159
462.718	5244
462.785	5277
462.786	5289
462.854	5881
462.865	5975
462.922	7412
462.945	8326
462.990	7447
463.025	6030
463.058	5435
463.104	4941
463.126	5040
463.184	5224
463.194	5275
463.262	5851
463.264	5856
463.330	5577
463.344	5575
463.398	5806
463.424	5794
463.466	5605
463.504	5842
463.533	6421
463.583	6649
463.601	6679
463.663	7256
463.669	7394
463.737	8686
463.743	8828
463.805	11171
463.823	11815
463.873	15253
463.903	17341
463.940	17829
463.982	18572
464.008	15484
464.062	8598
464.076	8373
464.142	6030
464.144	6013
464.211	6367
464.221	6380
464.279	6231
464.301	6198
464.347	7145
464.381	7775
464.414	8139
464.461	8823
464.482	9896
464.540	12679
464.550	12896
464.617	14456
464.620	14491
464.685	12499
464.699	11966
464.753	13432
464.779	14099
464.820	14537
464.859	15145
464.888	14220
464.938	12405
464.956	12685
465.018	13599
465.023	13622
465.091	13663
465.098	13652
465.158	14237
465.177	14461
465.226	13751
465.257	13171
465.293	13074
465.336	12772
465.361	13332
465.416	14646
465.428	15037
465.495	17165
465.496	17219
465.563	21414
465.575	22089
465.631	25399
465.654	27003
465.698	19759
465.734	13236
465.765	12360
465.813	10930
465.833	10955
465.893	11340
465.900	11359
465.968	11300
465.972	11280
466.035	11301
466.052	11279
466.102	11777
466.131	12067
466.170	12257
466.210	12374
466.237	12789
466.290	13548
466.304	13674
466.369	14052
466.372	14088
466.439	14495
466.449	14524
466.506	16171
466.528	16759
466.573	19355
466.607	21237
466.641	26479
466.687	33741
466.708	36719
466.766	44819
466.775	42503
466.842	24496
466.845	23595
466.909	20179
466.925	19327
466.977	17630
467.004	16756
467.044	17569
467.083	18319
467.111	19799
467.163	22480
467.178	23136
467.242	25657
467.245	25478
467.312	20762
467.321	20098
467.379	19627
467.400	19399
467.446	19534
467.480	19567
467.559	19181
467.638	16393
467.717	16516
467.796	18179
467.875	20721
467.955	18671
468.034	21789
468.113	35742
468.192	47082
468.271	20862
468.350	19390
468.429	22739
468.508	24663
468.588	19435
468.667	15958
468.746	17233
468.825	15237
468.904	14872
468.983	15716
469.062	18847
469.141	21203
469.220	13373
469.299	13491
469.378	15835
469.456	18725
469.535	18448
469.614	16370
469.693	16061
469.772	19346
469.851	22435
469.930	18765
470.009	17675
470.088	18604
470.166	23623
470.245	38219
470.324	47651
470.403	29551
470.482	20762
470.560	16800
470.639	17710
470.718	20633
470.797	16176
470.875	16073
470.954	19963
471.033	20548
471.111	12488
471.190	12924
471.269	11793
471.347	12639
471.426	12918
471.505	14168
471.583	16751
471.662	15714
471.740	13937
471.819	15539
471.898	14326
471.976	12954
472.055	12847
472.133	13316
472.212	15695
472.290	14813
472.369	12847
472.447	12427
472.526	12060
472.604	14061
472.683	13728
472.761	15022
472.839	13407
472.918	13975
472.996	13501
473.075	14285
473.153	13752
473.231	12333
473.310	13620
473.388	14648
473.466	12683
473.545	16158
473.623	21380
473.701	21339
473.780	14538
473.858	12688
473.936	15391
474.014	13510
474.093	13767
474.171	16300
474.249	18305
474.327	14924
474.405	12135
474.484	12508
474.562	11244
474.640	12053
474.718	13153
474.796	13468
474.874	13189
474.952	12228
475.030	11987
475.108	13260
475.187	16208
475.265	16596
475.343	23376
475.421	26038
475.499	13170
475.577	12954
475.655	15080
475.733	20982
475.811	29561
475.889	27391
475.966	20365
476.044	12433
476.122	15621
476.200	21455
476.278	16076
476.356	10428
476.434	11775
476.512	14882
476.590	19674
476.667	16767
476.745	10683
476.823	11399
476.901	10078
476.979	10691
477.056	10726
477.134	11088
477.212	12236
477.290	10862
477.367	9532
477.445	9224
477.523	9039
477.601	10215
477.678	10143
477.756	11038
477.834	11036
477.911	10104
477.989	10431
478.066	9039
478.144	11106
478.222	15078
478.299	25386
478.377	22156
478.454	9385
478.532	8625
478.609	10843
478.687	11768
478.764	9317
478.842	11414
478.919	12289
478.997	11476
479.074	8920
479.152	10254
479.229	11861
479.307	8177
479.384	7771
479.461	8929
479.539	8729
479.616	10237
479.694	8633
479.771	8581
479.848	10048
479.926	10907
480.003	13167
480.080	9324
480.157	8059
480.235	8439
480.312	8635
480.389	9315
480.467	10944
480.544	12869
480.621	8995
480.698	10015
480.775	10398
480.853	9705
480.930	8485
481.007	8425
481.084	9927
481.161	9788
481.238	9464
481.315	8300
481.392	7990
481.470	8558
481.547	8313
481.624	8096
481.701	8418
481.778	8014
481.855	9374
481.932	12028
482.009	17663
482.086	14078
482.163	10297
482.240	17772
482.317	31376
482.393	23065
482.470	10257
482.547	9946
482.624	8252
482.701	9337
482.778	8378
482.855	8135
482.932	8835
483.009	7879
483.085	9494
483.162	11008
483.239	11049
483.316	8800
483.393	10002
483.469	9193
483.546	10538
483.623	9526
483.699	7729
483.776	7902
483.853	9889
483.930	13169
484.006	25268
484.083	42062
484.160	36011
484.236	59738
484.313	44953
484.389	33080
484.466	29878
484.543	28197
484.619	30110
484.696	31751
484.772	29913
484.849	29171
484.925	27070
485.002	26662
485.078	27516
485.155	27314
485.231	24288
485.308	24380
485.384	24490
485.461	25840
485.537	34813
485.614	37880
485.690	25312
485.766	23955
485.843	26018
485.919	36346
485.995	38535
486.072	23199
486.148	22754
486.224	21796
486.301	23118
486.377	25057
486.453	25592
486.530	25597
486.606	33705
486.682	36509
486.758	35833
486.835	38268
486.911	33424
486.987	46470
487.063	65290
487.139	87566
487.215	60199
487.292	31272
487.368	27760
487.444	30678
487.520	36848
487.596	39016
487.672	61296
487.748	161457
487.824	239148
487.900	75391
487.976	32869
488.052	28643
488.128	33264
488.204	26349
488.280	22680
488.356	25655
488.432	36756
488.508	49453
488.584	26847
488.660	23227
488.736	23248
488.812	25134
488.888	30483
488.964	39842
489.039	82402
489.115	123271
489.191	70376
489.267	22154
489.343	20864
489.418	19159
489.494	18490
489.570	17787
489.646	19412
489.722	18133
489.797	18585
489.873	21962
489.949	36715
490.024	33783
490.100	17351
490.176	18147
490.251	23384
490.327	31243
490.403	18695
490.478	17597
490.554	14678
490.629	16048
490.705	15108
490.781	16922
490.856	15820
490.932	18856
491.007	18611
491.083	18673
491.158	15804
491.234	19453
491.309	28105
491.385	29847
491.460	16664
491.536	18448
491.611	17844
491.686	20262
491.762	26551
491.837	53570
491.913	82629
491.988	113436
492.063	146908
492.139	33909
492.214	21223
492.289	14591
492.365	15533
492.440	15964
492.515	13968
492.590	15530
492.666	12083
492.741	16079
492.816	18598
492.891	12488
492.967	13768
493.042	12167
493.117	12165
493.192	11955
493.267	15019
493.342	24490
493.418	25175
493.493	14742
493.568	12115
493.643	13273
493.718	13884
493.793	19048
493.868	25813
493.943	17739
494.018	13628
494.093	11065
494.168	11405
494.243	11839
494.318	10747
494.393	10667
494.468	11336
494.543	11901
494.618	13099
494.693	11645
494.768	11697
494.842	11249
494.917	11040
494.992	11647
495.067	11644
495.142	11295
495.217	12087
495.292	13312
495.366	15226
495.441	17675
495.516	23460
495.591	30465
495.665	109290
495.740	257904
495.815	96010
495.890	18175
495.964	11950
496.039	16384
496.114	12801
496.188	15584
496.263	14958
496.338	12873
496.412	13232
496.487	15272
496.561	18445
496.636	19792
496.710	14997
496.785	15175
496.860	16868
496.934	14622
497.009	15805
497.083	16364
497.158	17108
497.232	19125
497.307	21993
497.381	21116
497.455	22625
497.530	24741
497.604	21200
497.679	22520
497.753	32336
497.827	42940
497.902	43886
497.976	45170
498.050	74910
498.125	235150
498.199	238166
498.273	70224
498.348	59085
498.422	45792
498.496	42146
498.570	37241
498.645	25330
498.719	22906
498.793	24464
498.867	31102
498.941	36653
499.016	89664
499.090	236360
499.164	81612
499.238	17392
499.312	16147
499.386	21169
499.460	19238
499.534	16568
499.609	21024
499.683	23402
499.757	20052
499.831	38286
499.905	148644
499.979	134637
500.053	24002
500.127	28808
500.201	25524
500.275	15976
500.349	15448
500.422	18071
500.496	27850
500.570	56681
500.644	97910
500.718	155032
500.792	35031
500.866	13638
500.940	16191
501.013	13865
501.087	14858
501.161	28061
501.235	31395
501.309	45820
501.382	125006
501.456	110906
501.530	28306
501.603	41053
501.677	18360
501.751	9230
501.825	13787
501.898	19438
501.972	50090
502.046	29285
502.119	11944
502.193	26501
502.266	54589
502.340	25792
502.413	24472
502.487	44544
502.561	25187
502.634	11728
502.708	13272
502.781	10694
502.855	9392
502.928	7602
503.002	8049
503.075	7653
503.149	7842
503.222	8901
503.295	9540
503.369	10818
503.442	12466
503.516	36214
503.589	86582
503.662	56194
503.736	21444
503.809	43897
503.882	37216
503.956	56732
504.029	61959
504.102	87965
504.175	121985
504.249	39512
504.322	17848
504.395	13005
504.468	8972
504.542	8544
504.615	7187
504.688	7557
504.761	6900
504.834	9974
504.907	14077
504.980	23162
505.053	10903
505.127	14944
505.200	16300
505.273	10520
505.346	7158
505.419	6531
505.492	7142
505.565	4868
505.638	5950
505.711	5705
505.784	5373
505.857	5489
505.930	7581
506.003	5672
506.076	7936
506.149	7588
506.221	8574
506.294	9939
506.367	20228
506.440	68223
506.513	37426
506.586	10248
506.659	7881
506.731	7635
506.804	9418
506.877	13755
506.950	8710
507.022	7107
507.095	6578
507.168	10142
507.241	9039
507.313	6901
507.386	7009
507.459	14527
507.531	8314
507.604	6603
507.677	7677
507.749	5089
507.822	10892
507.894	21843
507.967	26340
508.040	14269
508.112	12537
508.185	11710
508.257	11514
508.330	17343
508.402	10586
508.475	9904
508.547	9941
508.620	9501
508.692	13273
508.765	9998
508.837	8198
508.909	9377
508.982	8589
509.054	11536
509.127	9745
509.199	8106
509.271	7116
509.344	7803
509.416	7555
509.488	7624
509.560	8691
509.633	8737
509.705	11248
509.777	9726
509.849	15709
509.922	10356
509.994	7706
510.066	9192
510.138	9358
510.210	23031
510.283	18327
510.355	15559
510.427	13359
510.499	13046
510.571	13075
510.643	11986
510.715	20800
510.787	16303
510.859	13354
510.931	14104
511.003	19619
511.076	17468
511.148	10326
511.219	10672
511.291	14554
511.363	15649
511.435	11006
511.507	8808
511.579	9662
511.651	10639
511.723	10216
511.795	8983
511.867	9455
511.939	11501
512.010	15964
512.082	15473
512.154	10402
512.226	11473
512.298	17418
512.369	25200
512.441	20026
512.513	20538
512.585	14848
512.656	15520
512.728	16062
512.800	11985
512.871	13192
512.943	12755
513.015	11090
513.086	12122
513.158	14405
513.230	13015
513.301	19410
513.373	23849
513.444	13554
513.516	11421
513.588	12015
513.659	13522
513.731	17277
513.802	13861
513.874	30429
513.945	52050
514.016	17757
514.088	11368
514.159	13012
514.231	18930
514.302	23796
514.374	15847
514.445	13688
514.516	22951
514.588	16225
514.659	14080
514.730	20400
514.802	19897
514.873	19110
514.944	19490
515.016	16413
515.087	16717
515.158	17388
515.229	21758
515.301	20400
515.372	26142
515.443	15495
515.514	13065
515.585	10532
515.656	12043
515.728	12194
515.799	10067
515.870	12724
515.941	13693
516.012	14236
516.083	19099
516.154	20920
516.225	28028
516.296	27799
516.367	26214
516.438	32218
516.509	41656
516.580	60024
516.651	189855
516.722	694260
516.793	262023
516.864	55783
516.935	51854
517.006	61439
517.077	80447
517.148	181678
517.219	752250
517.289	1089675
517.360	189255
517.431	54197
517.502	26095
517.573	23067
517.643	22573
517.714	24995
517.785	27900
517.856	29258
517.926	38730
517.997	47776
518.068	63379
518.138	84464
518.209	124575
518.280	468506
518.350	1599809
518.421	597140
518.492	77970
518.562	41434
518.633	35380
518.703	33554
518.774	57379
518.845	142286
518.915	135413
518.986	42485
519.056	30106
519.127	45586
519.197	58968
519.268	89928
519.338	50437
519.408	20929
519.479	28521
519.549	20996
519.620	14813
519.690	10780
519.760	12199
519.831	13655
519.901	12675
519.971	10701
520.042	11564
520.112	12663
520.182	17528
520.253	20956
520.323	17123
520.393	38556
520.463	66797
520.534	41462
520.604	100004
520.674	29491
520.744	29879
520.814	112052
520.885	73891
520.955	29479
521.025	84231
521.095	32495
521.165	11828
521.235	9719
521.305	9375
521.375	10370
521.445	11205
521.515	15672
521.585	18691
521.655	15606
521.725	14663
521.795	12118
521.865	6540
521.935	13088
522.005	9935
522.075	7837
522.145	10554
522.215	9074
522.285	12085
522.355	14666
522.424	25384
522.494	22646
522.564	16687
522.634	39576
522.704	117903
522.774	39778
522.843	11736
522.913	11112
522.983	15894
523.053	11053
523.122	11053
523.192	17509
523.262	64381
523.331	54441
523.401	12758
523.471	8081
523.540	9387
523.610	6821
523.680	8304
523.749	7291
523.819	8140
523.888	7966
523.958	7220
524.027	8171
524.097	7847
524.166	8412
524.236	8717
524.305	10617
524.375	7344
524.444	6499
524.514	8720
524.583	7755
524.653	8645
524.722	11295
524.791	7698
524.861	9238
524.930	5609
524.999	8282
525.069	12046
525.138	8725
525.207	8183
525.277	9374
525.346	8793
525.415	8472
525.484	10459
525.554	10477
525.623	10941
525.692	10386
525.761	13070
525.830	15780
525.900	19152
525.969	29312
526.038	46235
526.107	94979
526.176	283992
526.245	223867
526.314	72727
526.383	148243
526.452	192566
526.522	327430
526.591	311036
526.660	85850
526.729	46719
526.797	49984
526.867	92116
526.935	386371
527.004	710195
527.073	369022
527.142	38577
527.211	18743
527.280	17395
527.349	15393
527.418	8022
527.487	11070
527.555	9451
527.624	7807
527.693	6014
527.762	8058
527.831	5866
527.899	8337
527.968	7313
528.037	6813
528.106	10027
528.174	18904
528.243	11855
528.312	18144
528.380	24406
528.449	8006
528.518	7485
528.586	4332
528.655	6812
528.723	5882
528.792	4749
528.861	5718
528.929	4387
528.998	6969
529.066	4502
529.135	5343
529.203	4220
529.272	3831
529.340	5153
529.409	7225
529.477	4955
529.545	5943
529.614	10630
529.682	9799
529.751	9350
529.819	16089
529.887	8284
529.956	5835
530.024	6915
530.092	5588
530.161	8218
530.229	13011
530.297	6863
530.365	6778
530.434	5463
530.502	5312
530.570	5068
530.638	3818
530.707	6427
530.775	7245
530.843	4458
530.911	5755
530.979	4472
531.047	5780
531.115	6131
531.183	5246
531.252	5669
531.320	6321
531.388	3637
531.456	5909
531.524	4324
531.592	6538
531.660	7821
531.728	5610
531.796	4539
531.864	6288
531.932	5572
532.000	5111
532.067	7302
532.135	7545
532.203	9541
532.271	8761
532.339	16872
532.407	50218
532.475	27011
532.542	14276
532.610	15118
532.678	19474
532.746	89433
532.814	219498
532.881	49009
532.949	11478
533.017	8509
533.084	7239
533.152	6168
533.220	6940
533.287	7041
533.355	6159
533.423	6198
533.490	5614
533.558	6584
533.625	7667
533.693	7736
533.761	7033
533.828	8395
533.896	7275
533.963	16778
534.031	20238
534.098	29536
534.166	13107
534.233	8811
534.300	9290
534.368	9309
534.435	8631
534.503	10519
534.570	17420
534.637	13100
534.705	12125
534.772	16544
534.840	29303
534.907	127126
534.974	153813
535.041	19373
535.109	10679
535.176	7448
535.243	7823
535.310	8740
535.378	7483
535.445	8283
535.512	7053
535.579	8225
535.646	7035
535.714	8341
535.781	10176
535.848	9810
535.915	9108
535.982	7869
536.049	8253
536.116	9703
536.183	7458
536.250	7874
536.317	9099
536.384	11229
536.451	16389
536.518	16306
536.585	10695
536.652	15211
536.719	21836
536.786	16581
536.853	13091
536.920	19176
536.987	30081
537.053	29526
537.120	113978
537.187	87340
537.254	12553
537.321	10251
537.388	10417
537.454	7563
537.521	7769
537.588	8315
537.654	10815
537.721	12143
537.788	12158
537.855	8225
537.921	8837
537.988	9661
538.055	10620
538.121	8920
538.188	10068
538.254	16194
538.321	31690
538.388	18858
538.454	10180
538.521	9889
538.587	9706
538.654	9593
538.720	8595
538.787	10247
538.853	10469
538.920	11280
538.986	11000
539.053	9894
539.119	10668
539.185	11136
539.252	13807
539.318	20214
539.385	15562
539.451	12997
539.517	13791
539.583	15395
539.650	33047
539.716	79962
539.782	20618
539.849	11162
539.915	10820
539.981	11851
540.047	13804
540.114	12791
540.180	14600
540.246	12355
540.312	17564
540.378	31093
540.444	30977
540.510	34553
540.576	93286
540.643	25886
540.709	10971
540.775	11632
540.841	10576
540.907	15388
540.973	28311
541.039	21053
541.105	20744
541.171	12583
541.237	11619
541.303	12607
541.369	13822
541.435	17391
541.500	28972
541.566	17089
541.632	10073
541.698	9447
541.764	10669
541.830	8677
541.896	9290
541.961	10351
542.027	10727
542.093	9975
542.159	11944
542.224	11668
542.290	18332
542.356	27633
542.421	30827
542.487	15101
542.553	11626
542.618	12038
542.684	11104
542.750	12105
542.815	14107
542.881	21204
542.947	79559
543.012	53305
543.078	11596
543.143	10801
543.209	11680
543.274	12152
543.340	14067
543.405	32638
543.471	46912
543.536	13793
543.602	11079
543.667	9087
543.732	11507
543.798	8903
543.863	10261
543.928	9783
543.994	9617
544.059	9819
544.124	10343
544.190	10089
544.255	11637
544.320	11884
544.386	12162
544.451	16296
544.516	17892
544.581	17966
544.646	50921
544.712	73164
544.777	16248
544.842	13030
544.907	11868
544.972	11110
545.037	11621
545.102	12949
545.168	12396
545.233	13138
545.298	14172
545.363	14136
545.428	17368
545.493	31638
545.558	65682
545.623	24424
545.688	13396
545.753	12913
545.818	12953
545.883	14341
545.947	13330
546.012	14456
546.077	13221
546.142	14982
546.207	15414
546.272	20165
546.337	20778
546.401	17400
546.466	16465
546.531	15647
546.596	17012
546.661	18763
546.725	18931
546.790	18332
546.855	19122
546.919	19810
546.984	22082
547.049	24240
547.113	28196
547.178	28637
547.243	32553
547.307	37477
547.372	41643
547.436	42199
547.501	40398
547.565	44272
547.630	45310
547.695	43202
547.759	41216
547.823	40660
547.888	40458
547.952	41097
548.017	43994
548.081	45722
548.146	47054
548.210	46546
548.274	48051
548.339	47409
548.403	43030
548.468	40714
548.532	39856
548.596	40493
548.660	41033
548.725	46883
548.789	50696
548.853	48768
548.917	45863
548.982	46163
549.046	42901
549.110	35798
549.174	39552
549.238	43506
549.303	47400
549.367	48939
549.431	46370
549.495	43160
549.559	43943
549.623	50348
549.687	57515
549.751	62035
549.815	65950
549.879	64151
549.943	61087
550.007	63779
550.071	64263
550.135	62595
550.199	56413
550.263	54179
550.327	53260
550.391	55707
550.455	58879
550.519	60935
550.582	65375
550.646	79229
550.710	79650
550.774	72425
550.838	73868
550.901	74852
550.965	81778
551.029	82570
551.093	90105
551.156	96792
551.220	117266
551.284	134138
551.347	98206
551.411	93683
551.475	91722
551.538	81124
551.602	74870
551.666	71068
551.729	65591
551.793	64994
551.856	63502
551.920	62843
551.983	63922
552.047	62734
552.110	63281
552.174	61858
552.237	65209
552.301	60718
552.364	59145
552.428	57132
552.491	59037
552.554	62038
552.618	61474
552.681	63991
552.745	67548
552.808	88421
552.871	108042
552.934	76028
552.998	63733
553.061	60816
553.124	57505
553.187	56964
553.251	58132
553.314	59556
553.377	58906
553.440	64194
553.503	68726
553.567	72166
553.630	63657
553.693	63431
553.756	63349
553.819	62577
553.882	60341
553.945	59915
554.008	61350
554.071	61032
554.134	62066
554.197	58355
554.260	57601
554.323	60546
554.386	60356
554.449	61366
554.512	62503
554.575	58509
554.638	58714
554.701	57619
554.764	57060
554.827	55492
554.889	52724
554.952	51020
555.015	48357
555.078	51131
555.141	50145
555.203	50294
555.266	50092
555.329	49354
555.391	48311
555.454	48413
555.517	45575
555.580	45535
555.642	43099
555.705	43038
555.768	42027
555.830	41643
555.893	39355
555.955	37795
556.018	37328
556.080	37938
556.143	38161
556.206	37256
556.268	37539
556.330	37192
556.393	35787
556.455	34975
556.518	36753
556.580	37431
556.643	32805
556.705	32791
556.767	31007
556.830	31209
556.892	32875
556.955	39848
557.017	33168
557.079	30661
557.142	29286
557.204	31562
557.266	44829
557.328	37528
557.391	26283
557.453	25299
557.515	25528
557.577	28866
557.639	28307
557.701	23971
557.764	25021
557.826	26840
557.888	28901
557.950	29338
558.012	32022
558.074	40126
558.136	86088
558.198	201342
558.260	69666
558.322	33045
558.384	34643
558.446	38626
558.508	44206
558.570	53360
558.632	74404
558.694	97160
558.756	118019
558.818	358060
558.880	839600
558.942	257111
559.003	216116
559.065	102715
559.127	46713
559.189	44783
559.251	50752
559.312	70767
559.374	171310
559.436	567011
559.498	253618
559.559	51462
559.621	44628
559.683	49943
559.744	81159
559.806	271158
559.868	382397
559.929	70831
559.991	44964
560.052	70310
560.114	195067
560.176	115890
560.237	112692
560.299	175188
560.360	37182
560.422	18861
560.483	17282
560.545	15643
560.606	14529
560.667	14056
560.729	13545
560.790	13423
560.852	13779
560.913	13730
560.974	12895
561.036	12939
561.097	13689
561.158	13426
561.220	13424
561.281	13156
561.342	14100
561.403	16227
561.465	19674
561.526	42926
561.587	50708
561.648	15161
561.709	13062
561.771	12707
561.832	12606
561.893	11487
561.954	11546
562.015	11620
562.076	12186
562.137	12364
562.198	11713
562.259	11901
562.320	12818
562.381	13492
562.442	18077
562.503	14627
562.564	11453
562.625	12027
562.686	12378
562.747	12965
562.808	11214
562.869	11418
562.930	12459
562.991	11713
563.051	10758
563.112	12253
563.173	11099
563.234	9847
563.294	11141
563.355	10982
563.416	11341
563.477	10914
563.537	11343
563.598	10797
563.659	11770
563.720	10471
563.780	11838
563.841	12019
563.901	10255
563.962	10202
564.023	11575
564.083	10656
564.144	11263
564.204	10572
564.265	10532
564.325	11935
564.386	15492
564.446	14306
564.507	10994
564.567	10295
564.628	10506
564.688	10525
564.749	9832
564.809	11659
564.869	12113
564.930	9482
564.990	11338
565.050	10650
565.111	10545
565.171	10959
565.231	10794
565.292	11426
565.352	9786
565.412	12387
565.472	12087
565.532	12167
565.593	11524
565.653	10960
565.713	12610
565.773	12656
565.833	15187
565.893	18095
565.953	11664
566.013	11417
566.074	12333
566.134	12935
566.194	16602
566.254	18646
566.314	13581
566.374	12243
566.434	12603
566.494	12343
566.554	12724
566.614	12619
566.673	13161
566.733	14349
566.793	14805
566.853	15103
566.913	15003
566.973	14203
567.033	16245
567.092	15226
567.152	15493
567.212	17139
567.272	15158
567.331	16690
567.391	16688
567.451	18453
567.511	19859
567.570	20033
567.630	17320
567.690	16077
567.749	17079
567.809	19398
567.868	20395
567.928	23772
567.988	26550
568.047	29863
568.107	37106
568.166	52552
568.226	87698
568.285	119278
568.345	92636
568.404	69349
568.464	58560
568.523	54020
568.582	55188
568.642	62913
568.701	80119
568.761	126211
568.820	206689
568.879	182783
568.939	118979
568.998	84710
569.057	61784
569.116	48048
569.176	39540
569.235	32761
569.294	27870
569.353	24520
569.413	23946
569.472	19800
569.531	19115
569.590	17264
569.649	16160
569.708	15309
569.767	16680
569.827	18322
569.886	16563
569.945	13281
570.004	14451
570.063	14035
570.122	14164
570.181	14334
570.240	14436
570.299	14215
570.358	14365
570.417	12295
570.475	11298
570.534	12361
570.593	13458
570.652	12452
570.711	13435
570.770	11876
570.829	13425
570.887	13424
570.946	13502
571.005	11972
571.064	12504
571.122	13518
571.181	13082
571.240	11279
571.299	9793
571.357	11226
571.416	10387
571.475	11961
571.533	11913
571.592	10677
571.650	10319
571.709	10887
571.768	12275
571.826	12198
571.885	10501
571.943	10128
572.002	9284
572.060	9532
572.119	9345
572.177	9509
572.236	9054
572.294	9965
572.352	10518
572.411	10110
572.469	9426
572.528	9571
572.586	9393
572.644	10044
572.703	13872
572.761	9922
572.819	9005
572.877	8744
572.936	8440
572.994	9926
573.052	9556
573.110	9341
573.169	10266
573.227	8717
573.285	9186
573.343	9359
573.401	9971
573.459	9439
573.517	9156
573.576	8838
573.634	9821
573.692	9234
573.750	9413
573.808	8335
573.866	8685
573.924	10080
573.982	10117
574.040	8619
574.098	9033
574.155	8126
574.213	8594
574.271	8483
574.329	9718
574.387	7669
574.445	7544
574.503	8165
574.560	7617
574.618	8111
574.676	9100
574.734	7411
574.792	8787
574.849	7557
574.907	8104
574.965	7542
575.022	7397
575.080	8404
575.138	9201
575.195	8085
575.253	8040
575.311	8650
575.368	7845
575.426	7645
575.483	8229
575.541	7816
575.598	7232
575.656	7023
575.713	7011
575.771	7793
575.828	7212
575.886	7487
575.943	7921
576.001	8294
576.058	7898
576.115	8713
576.173	10037
576.230	9887
576.287	11624
576.345	10222
576.402	8381
576.459	8458
576.517	7892
576.574	8763
576.631	8324
576.688	7599
576.746	7021
576.803	8069
576.860	7253
576.917	8446
576.974	6863
577.031	7625
577.089	7959
577.146	8156
577.203	7540
577.260	7772
577.317	7501
577.374	7590
577.431	7919
577.488	8709
577.545	7629
577.602	7777
577.659	7238
577.716	6864
577.773	7162
577.830	7120
577.886	7944
577.943	7263
578.000	7970
578.057	8025
578.114	7796
578.171	8245
578.227	7126
578.284	6998
578.341	7483
578.398	8599
578.454	9465
578.511	8687
578.568	9561
578.625	8864
578.681	8123
578.738	7884
578.794	8035
578.851	7812
578.908	8467
578.964	9001
579.021	9457
579.077	8986
579.134	8364
579.190	8223
579.247	8994
579.303	7675
579.360	7719
579.416	7115
579.473	7455
579.529	7120
579.586	8408
579.642	7789
579.698	7609
579.755	9194
579.811	8124
579.867	8303
579.924	8162
579.980	7387
580.036	8825
580.093	8287
580.149	8451
580.205	8874
580.261	7653
580.317	8803
580.374	9529
580.430	9506
580.486	9390
580.542	7741
580.598	8886
580.619	8822
580.654	8722
580.692	8698
580.710	8699
580.765	8430
580.767	8432
580.823	9836
580.838	9448
580.879	8439
580.911	8432
580.935	8439
580.984	8886
580.991	8959
581.047	9302
581.057	9221
581.103	8921
581.130	8741
581.159	8562
581.203	8944
581.215	9056
581.270	9368
581.276	9261
581.326	8308
581.349	8382
581.382	8493
581.422	8960
581.438	9181
581.494	8973
581.494	8959
581.550	8228
581.567	8700
581.606	9701
581.640	9359
581.661	9157
581.713	9316
581.717	9338
581.773	8864
581.786	8835
581.829	8753
581.859	8928
581.885	9102
581.932	8956
581.940	8924
581.996	9182
582.004	9150
582.052	9039
582.077	9203
582.107	9380
582.150	9030
582.163	8933
582.219	8861
582.223	8913
582.274	9666
582.296	9584
582.330	9392
582.368	9130
582.386	9092
582.441	9070
582.441	9072
582.497	9209
582.514	9176
582.552	9203
582.587	9464
582.608	9654
582.659	9174
582.663	9126
582.719	9493
582.732	9318
582.774	8953
582.805	9135
582.830	9165
582.877	9514
582.885	9603
582.941	9161
582.950	9317
582.996	9995
583.023	10044
583.052	10211
583.095	9311
583.107	9021
583.162	10702
583.168	10626
583.218	10153
583.240	10296
583.273	10286
583.313	9727
583.328	9628
583.384	9825
583.385	9818
583.439	9121
583.458	9389
583.494	10250
583.531	10316
583.549	10229
583.603	9558
583.605	9547
583.660	10475
583.676	10432
583.715	10079
583.748	10205
583.770	10291
583.820	10198
583.825	10201
583.881	10020
583.893	10076
583.936	10257
583.965	10000
583.991	9636
584.038	9848
584.046	9955
584.101	9968
584.110	10154
584.156	10871
584.183	10255
584.211	9459
584.255	10335
584.266	10652
584.321	10602
584.328	10663
584.376	11177
584.400	11465
584.431	11697
584.472	11226
584.486	11038
584.541	11113
584.545	11089
584.596	10502
584.617	10580
584.651	11221
584.689	12079
584.706	12235
584.761	11815
584.762	11826
584.816	12927
584.834	12958
584.871	12938
584.906	12883
584.926	12844
584.978	13111
584.980	13123
585.035	14246
585.051	14465
585.090	15169
585.123	16458
585.145	17228
585.195	17901
585.200	17998
585.254	19642
585.267	20357
585.309	22559
585.340	24103
585.364	25387
585.412	27853
585.419	28239
585.473	32279
585.484	33512
585.528	40361
585.556	47934
585.583	61478
585.628	97226
585.637	109287
585.692	224487
585.700	244550
585.747	320740
585.772	265230
585.801	162148
585.845	60542
585.856	47027
585.910	29654
585.917	28048
585.965	23712
585.989	22346
586.019	21134
586.061	20103
586.074	19958
586.128	19852
586.133	19929
586.183	20580
586.205	20548
586.237	20490
586.277	20201
586.292	20027
586.346	19537
586.349	19554
586.401	20017
586.421	20118
586.455	20309
586.493	20695
586.509	21126
586.564	23651
586.565	23744
586.618	27926
586.637	28408
586.672	27758
586.709	26182
586.727	25669
586.781	27393
586.781	27384
586.835	25142
586.853	24861
586.889	24774
586.925	24362
586.944	24322
586.996	25606
586.998	25638
587.052	26530
587.068	26908
587.106	27326
587.140	27684
587.161	27983
587.212	28838
587.215	28901
587.269	30119
587.284	30494
587.323	31009
587.356	31763
587.377	32539
587.427	34620
587.431	34713
587.485	35874
587.499	36144
587.539	37333
587.571	38584
587.593	39501
587.643	41835
587.648	42112
587.702	45338
587.715	46169
587.755	47970
587.786	49573
587.810	51232
587.858	55461
587.864	55969
587.917	60621
587.930	61903
587.971	66715
588.001	70365
588.025	73452
588.073	80406
588.079	81402
588.133	91621
588.145	94164
588.187	104029
588.217	111203
588.241	117819
588.288	133026
588.295	135417
588.348	157697
588.360	163039
588.402	184536
588.431	200695
588.456	215777
588.503	248596
588.510	254377
588.564	305800
588.575	318346
588.617	378332
588.646	424750
588.671	480616
588.718	601702
588.725	629363
588.778	866952
588.789	920906
588.832	1205878
588.861	1401944
588.886	1514673
588.932	1634760
588.939	1623116
588.993	1461676
589.004	1460593
589.047	1528788
589.075	1491934
589.100	1322000
589.147	962906
589.154	927670
589.207	697187
589.218	656683
589.261	596965
589.290	569643
589.314	585212
589.361	634272
589.368	655612
589.421	862826
589.433	912420
589.475	1193308
589.504	1385215
589.528	1446679
589.576	1468886
589.582	1451661
589.635	1346968
589.647	1300934
589.689	967843
589.718	728092
589.742	603497
589.790	390567
589.795	377617
589.849	276740
589.861	255764
589.902	215580
589.932	187665
589.955	172498
590.004	144618
590.009	142521
590.062	122332
590.075	117727
590.115	106601
590.146	98419
590.168	94611
590.218	87193
590.222	86461
590.275	77224
590.289	75076
590.328	71187
590.360	67920
590.381	66123
590.431	62383
590.435	62115
590.488	58073
590.503	57018
590.541	54267
590.574	51814
590.594	50822
590.645	48552
590.647	48466
590.700	46721
590.716	46167
590.753	44575
590.787	43215
590.806	42513
590.859	40889
590.859	40849
590.912	38933
590.930	38588
590.965	38462
591.001	38082
591.018	37625
591.071	36220
591.072	36216
591.124	35330
591.143	34953
591.177	34664
591.214	34437
591.230	34385
591.283	34534
591.285	34533
591.336	33969
591.356	33795
591.389	33219
591.427	32474
591.442	32106
591.495	30692
591.498	30599
591.547	29351
591.569	28827
591.600	29213
591.640	29671
591.653	29473
591.706	28761
591.711	28673
591.759	28396
591.782	28337
591.811	28763
591.853	29427
591.864	29150
591.917	27607
591.924	27398
591.969	27207
591.995	27125
592.022	27230
592.066	27406
592.075	27369
592.127	27201
592.137	27176
592.180	27748
592.208	28111
592.233	27810
592.279	27259
592.285	27253
592.338	27255
592.350	27263
592.390	26639
592.421	26169
592.443	26035
592.491	25788
592.495	25808
592.548	26155
592.562	26264
592.600	25591
592.633	25021
592.653	25039
592.704	24997
592.705	25129
592.775	24614
592.846	25582
592.916	25858
592.987	27556
593.058	26126
593.128	24017
593.199	24561
593.270	24041
593.341	23211
593.411	25174
593.482	25078
593.553	25874
593.623	24905
593.694	26467
593.764	25298
593.835	25216
593.906	24774
593.976	25481
594.047	25030
594.117	27647
594.188	26505
594.258	26330
594.329	27381
594.399	26446
594.470	26488
594.540	27444
594.611	26875
594.681	27287
594.751	27048
594.822	30239
594.892	30159
594.963	30713
595.033	29426
595.103	31281
595.174	31264
595.244	32825
595.314	34853
595.384	32441
595.455	33300
595.525	33749
595.595	34751
595.665	35223
595.736	33255
595.806	35492
595.876	34401
595.946	33765
596.016	34351
596.087	36417
596.157	36662
596.227	35911
596.297	38705
596.367	40150
596.437	42327
596.507	43729
596.577	44910
596.647	42800
596.717	44524
596.787	45837
596.857	44839
596.927	45707
596.997	45722
597.067	45732
597.137	47471
597.207	46477
597.277	46861
597.347	46043
597.417	44355
597.487	44776
597.557	45966
597.626	46372
597.696	47718
597.766	47492
597.836	46577
597.906	42814
597.975	41911
598.045	41468
598.115	43307
598.185	46219
598.254	51644
598.324	55523
598.394	55834
598.464	55243
598.533	53878
598.603	50021
598.672	48911
598.742	50087
598.812	50036
598.881	51054
598.951	50709
599.020	51327
599.090	52612
599.159	54015
599.229	51283
599.299	50642
599.368	51026
599.437	50766
599.507	46098
599.576	45719
599.646	44824
599.715	43698
599.785	43631
599.854	43518
599.924	42674
599.993	40895
600.062	41628
600.132	44345
600.201	46019
600.270	53215
600.340	55152
600.409	54191
600.478	54081
600.547	54869
600.617	50181
600.686	41196
600.755	38043
600.824	36284
600.894	35412
600.963	35785
601.032	33961
601.101	32195
601.170	30963
601.239	30376
601.308	32145
601.378	31986
601.447	30275
601.516	31058
601.585	31629
601.654	33773
601.723	31691
601.792	32251
601.861	31718
601.930	34956
601.999	36693
602.068	35061
602.137	37281
602.206	37677
602.275	35371
602.343	39427
602.412	39317
602.481	36526
602.550	36490
602.619	38551
602.688	38411
602.756	37793
602.825	38527
602.894	39329
602.963	39666
603.032	40449
603.100	40298
603.169	40778
603.238	40400
603.307	41514
603.375	42336
603.444	43015
603.513	43589
603.581	44637
603.650	45372
603.719	43062
603.787	43425
603.856	47258
603.924	46919
603.993	49989
604.061	50368
604.130	54460
604.198	53964
604.267	54635
604.335	55215
604.404	55210
604.472	57306
604.541	57990
604.609	57896
604.678	58240
604.746	57136
604.815	60490
604.883	60961
604.951	61269
605.020	62816
605.088	63043
605.156	64976
605.225	66599
605.293	66407
605.361	67372
605.429	67300
605.498	69622
605.566	71273
605.634	74885
605.702	76620
605.771	78867
605.839	77616
605.907	78200
605.975	72648
606.043	71335
606.111	71577
606.180	73038
606.248	70889
606.316	72250
606.384	70476
606.452	73719
606.520	79141
606.588	77226
606.656	76050
606.724	74577
606.792	70021
606.860	64238
606.928	58174
606.996	54927
607.064	54022
607.132	55251
607.200	59787
607.267	62574
607.335	63226
607.403	64298
607.471	61842
607.539	60317
607.607	61820
607.674	53862
607.742	54451
607.810	54923
607.878	53517
607.946	55318
608.013	56838
608.081	58402
608.149	59108
608.216	60422
608.284	63170
608.352	63128
608.419	60164
608.487	63006
608.555	59463
608.622	62813
608.690	65299
608.757	72266
608.825	73936
608.893	73175
608.960	69569
609.028	67561
609.095	67245
609.163	65168
609.230	57839
609.298	53781
609.365	55550
609.432	61135
609.500	66192
609.567	77299
609.635	87081
609.702	91096
609.769	87075
609.837	67866
609.904	59599
609.971	61212
610.039	73120
610.106	100003
610.173	200182
610.241	468429
610.308	292724
610.375	123678
610.442	71062
610.509	62075
610.577	62553
610.644	61587
610.711	62739
610.778	65138
610.845	66597
610.912	72286
610.980	75262
611.047	74957
611.114	73685
611.181	69770
611.248	68705
611.315	75197
611.382	74794
611.449	80041
611.516	80041
611.583	79536
611.650	79391
611.717	80849
611.784	81940
611.851	90032
611.918	97094
611.984	116233
612.051	174288
612.118	377439
612.185	941063
612.252	547425
612.319	135499
612.386	109275
612.452	96587
612.519	91882
612.586	91680
612.653	92098
612.719	95041
612.786	90142
612.853	83575
612.919	80660
612.986	81899
613.053	78200
613.120	73033
613.186	70128
613.253	71727
613.319	71407
613.386	70384
613.453	72665
613.519	75511
613.586	77581
613.652	83307
613.719	77967
613.785	77321
613.852	73140
613.918	72559
613.985	73547
614.051	78018
614.118	79397
614.184	78150
614.250	73182
614.317	74368
614.383	72949
614.449	74728
614.516	74533
614.582	74200
614.648	73737
614.715	72618
614.781	71132
614.847	71519
614.914	71324
614.980	68595
615.046	69753
615.112	70067
615.179	72422
615.245	73909
615.311	78859
615.377	96299
615.443	96882
615.509	80589
615.575	79490
615.642	78160
615.708	81558
615.774	85656
615.840	93475
615.906	107647
615.972	147059
616.038	252922
616.104	501577
616.170	1145322
616.236	901250
616.302	201193
616.368	143628
616.434	101754
616.500	95028
616.565	104900
616.631	130541
616.697	104841
616.763	111344
616.829	170172
616.895	304837
616.961	275861
617.026	115255
617.092	80389
617.158	76553
617.224	73187
617.289	67559
617.355	64198
617.421	63487
617.487	63580
617.552	61598
617.618	60212
617.684	57954
617.749	60963
617.815	56798
617.880	56213
617.946	55969
618.012	58159
618.077	58335
618.143	55400
618.208	57290
618.274	60014
618.339	61422
618.405	49640
618.470	50843
618.536	49855
618.601	49466
618.667	44919
618.732	43254
618.798	43504
618.863	41920
618.928	42008
618.994	44604
619.059	45248
619.124	51100
619.190	44970
619.255	42932
619.320	41612
619.386	43786
619.451	40856
619.516	40596
619.581	41144
619.647	41817
619.712	41136
619.777	40092
619.842	40647
619.907	41707
619.972	41906
620.038	43214
620.103	39807
620.168	40597
620.233	41895
620.298	40953
620.363	40635
620.428	42538
620.493	44175
620.558	45010
620.623	43923
620.688	44360
620.753	43885
620.818	44196
620.883	44445
620.948	44648
621.013	44057
621.078	44679
621.143	43505
621.207	48046
621.272	44827
621.337	43699
621.402	42893
621.467	45749
621.532	43633
621.596	43823
621.661	41014
621.726	40758
621.791	40739
621.855	41331
621.920	42159
621.985	41755
622.049	44282
622.114	43173
622.179	44730
622.243	44991
622.308	46242
622.373	49561
622.437	45352
622.502	43868
622.566	43092
622.631	42133
622.695	45785
622.760	44212
622.824	44294
622.889	45128
622.953	45477
623.018	56732
623.082	54366
623.147	47987
623.211	47427
623.276	46977
623.340	43122
623.404	42914
623.469	43010
623.533	43302
623.597	40930
623.662	40831
623.726	37088
623.790	35795
623.854	34454
623.919	36270
623.983	36146
624.047	37661
624.111	36716
624.176	37640
624.240	40020
624.304	41835
624.368	37626
624.432	38270
624.496	39371
624.560	44118
624.625	44148
624.689	41541
624.753	42910
624.817	41053
624.881	39076
624.945	35284
625.009	34107
625.073	37355
625.137	37939
625.201	43077
625.265	41474
625.329	38536
625.393	38286
625.456	38519
625.520	38815
625.584	41612
625.648	41408
625.712	46429
625.776	55585
625.839	55126
625.903	37727
625.967	31192
626.031	37845
626.095	46864
626.158	37715
626.222	27141
626.286	27620
626.349	24948
626.413	23439
626.477	25729
626.540	24872
626.604	23640
626.668	23534
626.731	24115
626.795	23102
626.858	23839
626.922	22870
626.986	23540
627.049	21536
627.113	25724
627.176	23330
627.240	22528
627.303	22413
627.366	22953
627.430	23900
627.493	22853
627.557	21768
627.620	23702
627.684	23951
627.747	24401
627.810	21059
627.874	20305
627.937	17855
628.000	22165
628.064	20620
628.127	16765
628.190	18477
628.253	17005
628.317	16404
628.380	16142
628.443	15300
628.506	16408
628.569	15343
628.632	14260
628.696	14068
628.759	14401
628.822	13023
628.885	13398
628.948	12910
629.011	13666
629.074	13117
629.137	12879
629.200	12596
629.263	14150
629.326	11405
629.389	12556
629.452	12258
629.515	12716
629.578	12039
629.641	13087
629.704	12518
629.767	12617
629.830	11802
629.892	11294
629.955	10440
630.018	13866
630.081	13569
630.144	15836
630.207	12234
630.269	13162
630.332	11316
630.395	11675
630.458	11514
630.520	10919
630.583	12849
630.646	10511
630.708	10405
630.771	10796
630.834	11923
630.896	11795
630.959	11820
631.021	11371
631.084	11063
631.146	11650
631.209	12728
631.272	11594
631.334	11772
631.397	11362
631.459	11672
631.522	12910
631.584	12341
631.646	16483
631.709	15675
631.771	16579
631.834	14343
631.896	12863
631.958	11509
632.021	12481
632.083	9123
632.145	12181
632.208	10241
632.270	12102
632.332	10481
632.395	10228
632.457	11117
632.519	10134
632.581	11614
632.643	9769
632.706	10643
632.768	9802
632.830	11693
632.892	10360
632.954	10534
633.016	10867
633.078	10532
633.141	10472
633.203	10459
633.265	10374
633.327	10471
633.389	10196
633.451	11489
633.513	12440
633.575	12237
633.637	12021
633.698	12269
633.760	11277
633.822	12626
633.884	12617
633.946	12481
634.008	11796
634.070	13004
634.132	13420
634.193	13937
634.255	16389
634.317	16573
634.379	17322
634.441	14875
634.502	13788
634.564	12769
634.626	12938
634.687	14102
634.749	11541
634.811	11166
634.873	9947
634.934	9696
634.996	10582
635.057	8940
635.119	10516
635.181	10294
635.242	11146
635.304	8227
635.365	12226
635.427	9880
635.488	10589
635.550	9490
635.611	10285
635.673	8776
635.734	12235
635.796	11367
635.857	14317
635.918	12816
635.980	16533
636.041	15349
636.102	18352
636.164	18349
636.225	17835
636.286	13014
636.348	13268
636.409	11730
636.470	10290
636.531	11655
636.593	9860
636.654	10066
636.715	9660
636.776	8811
636.838	8996
636.899	9177
636.960	9047
637.021	8410
637.082	10113
637.143	9057
637.204	8155
637.265	7466
637.326	9060
637.387	8541
637.448	7762
637.509	8383
637.570	8424
637.631	9439
637.692	7025
637.753	6636
637.814	8146
637.875	7192
637.936	8390
637.997	7259
638.058	7641
638.119	7740
638.179	8028
638.240	6838
638.301	7228
638.362	6495
638.423	6986
638.483	8243
638.544	5975
638.605	6912
638.666	6205
638.726	7019
638.787	8146
638.848	6654
638.908	6885
638.969	6940
639.030	6882
639.090	6467
639.151	6299
639.211	8122
639.272	8696
639.332	12848
639.393	9381
639.453	6683
639.514	8261
639.574	6566
639.635	5590
639.695	7110
639.756	5880
639.816	6898
639.877	8852
639.937	12289
639.997	14028
640.058	6533
640.118	5602
640.178	7384
640.239	5890
640.299	6039
640.359	6748
640.420	6705
640.480	7769
640.540	7835
640.600	8505
640.661	7800
640.721	6509
640.781	9408
640.841	5547
640.901	7054
640.961	7009
641.021	7666
641.082	8002
641.142	9733
641.202	7300
641.262	3750
641.322	6752
641.382	5212
641.442	6267
641.502	5345
641.562	5963
641.622	4916
641.682	6394
641.742	7174
641.802	7238
641.861	6158
641.921	6604
641.981	6746
642.041	7016
642.101	7310
642.161	5531
642.221	4830
642.280	5323
642.340	4820
642.400	4608
642.460	6097
642.519	4944
642.579	5559
642.639	6187
642.698	2805
642.758	8069
642.818	4974
642.877	5351
642.937	5964
642.997	7099
643.056	9412
643.116	5948
643.175	7687
643.235	5694
643.294	6109
643.354	7230
643.414	8643
643.473	10011
643.532	12299
643.592	19369
643.651	35222
643.711	64668
643.770	135877
643.830	338434
643.889	695734
643.948	148756
644.008	24602
644.067	13700
644.126	11298
644.186	9950
644.245	8266
644.304	5785
644.363	8600
644.423	5554
644.482	6493
644.541	7690
644.600	6012
644.659	9933
644.719	11546
644.778	19276
644.837	34522
644.896	76056
644.955	173458
645.014	51081
645.073	11117
645.132	7980
645.191	7085
645.250	7337
645.309	7091
645.368	7086
645.427	11407
645.486	18256
645.545	32319
645.604	8575
645.663	6989
645.722	6276
645.781	7625
645.840	9054
645.898	12645
645.957	20310
646.016	30605
646.075	59918
646.134	124280
646.192	347170
646.251	487773
646.310	65001
646.369	16860
646.427	12438
646.486	8937
646.545	6928
646.603	6398
646.662	6529
646.721	6015
646.779	5415
646.838	4772
646.896	8914
646.955	11792
647.014	19941
647.072	38215
647.131	109839
647.189	47470
647.248	6785
647.306	6090
647.365	6017
647.423	3001
647.481	5449
647.540	2346
647.598	4525
647.657	3659
647.715	4423
647.773	3479
647.832	4604
647.890	3461
647.948	2876
648.007	4226
648.065	2589
648.123	2624
648.181	4185
648.240	3986
648.298	2715
648.356	3654
648.414	3779
648.472	3388
648.531	4442
648.589	3102
648.647	3145
648.705	4101
648.763	4207
648.821	4090
648.879	4118
648.937	5211
648.995	6127
649.053	9179
649.111	13823
649.169	25271
649.227	47991
649.285	104841
649.343	305364
649.401	131403
649.459	24395
649.516	13736
649.574	6287
649.632	9462
649.690	8997
649.748	9478
649.806	12820
649.863	25908
649.921	76077
649.979	44892
650.037	6441
650.094	2534
650.152	3775
650.210	2233
650.268	3049
650.325	1816
650.383	2204
650.440	1617
650.498	2466
650.556	2545
650.613	2361
650.671	3025
650.728	2864
650.786	2931
650.843	4714
650.901	918
650.958	2425
651.016	2086
651.073	2410
651.131	1628
651.188	973
651.246	2165
651.303	1399
651.360	2238
651.418	2415
651.475	1811
651.532	1687
651.590	1974
651.647	1747
651.704	1645
651.762	1670
651.819	1662
651.876	1228
651.933	1692
651.990	2363
652.048	11
652.105	1355
652.162	1721
652.219	1148
652.276	1837
652.333	1834
652.390	904
652.448	2383
652.505	946
652.562	1319
652.619	1430
652.676	1474
652.733	2647
652.790	1565
652.847	742
652.904	1366
652.961	61
653.017	1052
653.074	2390
653.131	1519
653.188	1131
653.245	1105
653.302	1262
653.359	1321
653.415	1811
653.472	1563
653.529	1451
653.586	1067
653.642	1257
653.699	2142
653.756	657
653.813	1631
653.869	1456
653.926	894
653.983	467
654.039	1825
654.096	647
654.152	3159
654.209	673
654.266	2454
654.322	219
654.379	1722
654.435	1974
654.492	1367
654.548	2284
654.605	3486
654.661	2497
654.717	1235
654.774	1843
654.830	1992
654.887	2165
654.943	1565
655.000	1707
655.056	1616
655.112	1425
655.168	1467
655.225	1731
655.281	2663
655.337	780
655.394	2082
655.450	1925
655.506	2503
655.562	2091
655.618	3341
655.675	1659
655.731	1704
655.787	1327
655.843	2602
655.899	2179
655.955	3827
656.011	3428
656.067	3547
656.123	4605
656.179	5302
656.235	6388
656.291	3913
656.347	4891
656.403	3614
656.459	2990
656.515	2606
656.571	1794
656.627	2681
656.683	1377
656.739	1965
656.795	2624
656.850	2430
656.906	2753
656.962	2599
657.018	407
657.074	1789
657.129	2278
657.185	4282
657.241	7699
657.297	4040
657.352	1847
657.408	430
657.464	1424
657.519	1192
657.575	128
657.630	1482
657.686	798
657.742	649
657.797	-505
657.853	1313
657.908	1492
657.964	487
658.019	482
658.075	287
658.130	1685
658.186	137
658.241	1210
658.297	-124
658.352	664
658.407	853
658.463	695
658.518	1460
658.573	526
658.629	141
658.684	1353
658.739	1193
658.795	83
658.850	1230
658.905	143
658.960	375
659.016	534
659.071	809
659.126	1476
659.181	1064
659.236	3424
659.291	4077
659.346	1593
659.401	1713
659.457	1274
659.512	315
659.567	1600
659.622	1127
659.677	-50
659.732	-582
659.787	730
659.842	1514
659.897	582
659.952	625
660.007	665
660.061	897
660.116	-323
660.171	-536
660.226	-199
660.281	1320
660.336	-56
660.391	1622
660.445	-386
660.500	1369
660.555	624
660.610	-225
660.664	1120
660.719	816
660.774	1364
660.828	1277
660.883	846
660.938	1724
660.992	-372
661.047	986
661.101	-387
661.156	523
661.211	-436
661.265	955
661.320	-243
661.374	1121
661.429	-217
661.483	613
661.538	-209
661.592	365
661.647	245
661.701	1041
661.755	-81
661.810	1195
661.864	-110
661.919	382
661.973	1286
662.027	273
662.081	-185
662.136	480
662.190	370
662.244	1046
662.299	384
662.353	349
662.407	-135
662.461	-42
662.515	193
662.569	931
662.624	271
662.678	248
662.732	-289
662.786	1028
662.840	87
662.894	188
662.948	-543
663.002	340
663.056	346
663.110	-217
663.164	568
663.218	703
663.272	620
663.326	1142
663.380	218
663.434	-67
663.488	-17
663.542	553
663.595	540
663.649	320
663.703	-233
663.757	278
663.811	0
663.864	383
663.918	529
663.972	-11
664.026	78
664.079	479
664.133	1024
664.187	297
664.240	591
664.294	470
664.348	427
664.401	667
664.455	864
664.508	114
664.562	216
664.615	945
664.669	-566
664.722	293
664.776	-194
664.829	541
664.883	465
664.936	806
664.990	-133
665.043	1350
665.097	-64
665.150	1185
665.203	-404
665.257	352
665.310	728
665.363	381
665.417	1379
665.470	86
665.523	901
665.576	-140
665.630	171
665.683	401
665.736	808
665.789	591
665.842	-43
665.895	779
665.949	362
666.002	579
666.055	1147
666.108	1552
666.161	571
666.214	1425
666.267	977
666.320	880
666.373	187
666.426	670
666.479	-12
666.532	851
666.585	182
666.638	652
666.691	549
666.744	815
666.796	360
666.849	614
666.902	867
666.955	598
667.008	733
667.060	543
667.113	-106
667.166	264
667.219	691
667.271	626
667.324	765
667.377	44
667.430	410
667.482	1117
667.535	227
667.587	823
667.640	1071
667.693	1390
667.745	2531
667.798	3174
667.850	567
667.903	1545
667.955	-215
668.008	345
668.060	523
668.113	380
668.165	968
668.218	698
668.270	1339
668.322	965
668.375	-211
668.427	886
668.479	-14
668.532	89
668.584	365
668.636	496
668.689	-54
668.741	993
668.793	175
668.845	-9
668.898	371
668.950	641
669.002	218
669.054	162
669.106	192
669.158	844
669.211	257
669.263	469
669.315	1080
669.367	1321
669.419	900
669.471	1421
669.523	1028
669.575	2555
669.627	1646
669.679	838
669.731	674
669.783	1630
669.835	2204
669.886	1378
669.938	1448
669.990	725
670.042	689
670.094	1398
670.146	1160
670.197	2007
670.249	3188
670.301	4354
670.353	6660
670.404	10369
670.456	15717
670.508	26910
670.560	45408
670.611	78417
670.663	142742
670.715	339787
670.766	510356
670.818	161716
670.869	28838
670.921	14122
670.972	9259
671.024	6198
671.075	5293
671.127	3763
671.178	2850
671.230	3484
671.281	1696
671.333	2374
671.384	2185
671.436	2854
671.487	3598
671.538	5403
671.590	7898
671.641	14396
671.692	25946
671.744	49774
671.795	28901
671.846	9589
671.897	3582
671.949	2998
672.000	2066
672.051	2012
672.102	1262
672.153	180
672.204	742
672.256	796
672.307	987
672.358	1235
672.409	692
672.460	1040
672.511	286
672.562	998
672.613	-419
672.664	178
672.715	-87
672.766	1002
672.817	552
672.868	236
672.919	164
672.970	-369
673.021	45
673.071	-307
673.122	1144
673.173	954
673.224	-577
673.275	-34
673.326	163
673.376	842
673.427	396
673.478	-59
673.528	625
673.579	-233
673.630	-216
673.680	542
673.731	32
673.782	210
673.832	508
673.883	427
673.934	-273
673.984	375
674.035	-325
674.085	909
674.136	-262
674.186	-207
674.237	312
674.287	1393
674.338	859
674.388	590
674.438	412
674.489	683
674.539	695
674.589	-160
674.640	-468
674.690	569
674.740	426
674.791	61
674.841	438
674.891	472
674.942	193
674.992	-271
675.042	-608
675.092	-165
675.142	-677
675.193	300
675.243	-38
675.293	148
675.343	204
675.393	69
675.443	75
675.493	428
675.543	428
675.593	744
675.643	-52
675.693	1038
675.743	-452
675.793	238
675.843	-579
675.893	-347
675.943	758
675.993	358
676.043	85
676.093	-31
676.142	-385
676.192	752
676.242	23
676.292	88
676.341	-744
676.391	3
676.441	-411
676.491	-177
676.540	-530
676.590	-80
676.640	-836
676.689	325
676.739	-717
676.789	-82
676.838	-519
676.888	-192
676.937	-88
676.987	-25
677.037	-291
677.086	-457
677.136	-355
677.185	-161
677.235	-654
677.284	361
677.333	-1059
677.383	-589
677.432	-511
677.482	-654
677.531	-782
677.580	-461
677.630	-336
677.679	-805
677.728	-536
677.778	-209
677.827	-142
677.876	-682
677.925	-691
677.975	543
678.024	-895
678.073	-520
678.122	-858
678.171	-279
678.220	-181
678.269	-202
678.319	-324
678.368	66
678.417	-421
678.466	393
678.515	1045
678.564	-229
678.613	-654
678.662	-384
678.711	19
678.760	-249
678.809	-2
678.857	-235
678.906	-618
678.955	-434
679.004	9
679.053	-1095
679.102	-540
679.151	-367
679.199	-450
679.248	-1302
679.297	64
679.346	-80
679.394	-520
679.443	7
679.492	-202
679.540	-345
679.589	-1082
679.638	512
679.686	-128
679.735	-407
679.784	-993
679.832	-377
679.881	-1359
679.929	200
679.978	-538
680.026	-138
680.075	-27
680.123	-307
680.172	-1243
680.220	-582
680.268	-208
680.317	-140
680.365	-116
680.414	-320
680.462	-1579
680.510	-721
680.559	-401
680.607	-261
680.655	-1140
680.703	-760
680.752	-1030
680.800	639
680.848	-912
680.896	-837
680.945	-139
680.993	-937
681.041	-118
681.089	223
681.137	-1244
681.185	-281
681.233	-590
681.258	-541
681.281	-518
681.329	-1031
681.377	-668
681.380	-610
681.425	-20
681.473	-829
681.502	-382
681.521	-118
681.569	207
681.617	-722
681.624	-669
681.665	-497
681.713	95
681.745	265
681.761	304
681.809	-384
681.857	1007
681.867	653
681.904	-660
681.952	428
681.989	-23
682.000	-193
682.048	328
682.096	265
682.111	287
682.143	245
682.191	559
682.233	1224
682.239	1305
682.286	368
682.334	397
682.354	376
682.382	289
682.430	954
682.476	1023
682.477	1003
682.525	944
682.572	-92
682.598	376
682.620	727
682.667	870
682.715	1042
682.720	1056
682.763	1013
682.810	1595
682.841	915
682.857	524
682.905	1440
682.952	1341
682.963	1392
683.000	1469
683.047	1511
683.085	1997
683.095	2104
683.142	573
683.190	1424
683.206	1321
683.237	1074
683.284	1548
683.328	1409
683.332	1376
683.379	1354
683.426	1304
683.449	1468
683.473	1646
683.521	1895
683.568	1766
683.571	1765
683.615	1391
683.662	2097
683.693	2061
683.709	2059
683.757	1770
683.804	2594
683.814	2566
683.851	2347
683.898	2438
683.936	2526
683.945	2544
683.992	2685
684.039	3589
684.057	3236
684.086	2590
684.133	2857
684.179	3023
684.180	3008
684.227	2995
684.274	2802
684.300	2968
684.321	3069
684.368	2581
684.415	3354
684.422	3287
684.462	2764
684.509	2645
684.543	2871
684.556	2955
684.603	3097
684.649	2217
684.665	2297
684.696	2584
684.743	3039
684.786	3708
684.790	3735
684.837	3490
684.883	3613
684.908	3700
684.930	3781
684.977	3240
685.023	4018
685.029	3999
685.070	3601
685.117	3196
685.150	3489
685.164	3671
685.210	4050
685.257	4191
685.272	4207
685.303	4038
685.350	3916
685.393	3458
685.396	3438
685.443	4813
685.490	5277
685.514	5393
685.536	5238
685.583	4691
685.629	5114
685.636	4942
685.675	4034
685.722	4925
685.757	4798
685.768	4726
685.815	4615
685.861	4499
685.878	4689
685.908	5112
685.954	4297
686.000	4809
686.000	4810
686.047	4333
686.093	4596
686.121	5253
686.139	5621
686.185	4840
686.232	4260
686.242	4373
686.278	4821
686.324	4546
686.363	4436
686.370	4409
686.416	4951
686.463	4998
686.484	5091
686.509	5145
686.555	5085
686.601	4420
686.606	4499
686.647	5292
686.693	4696
686.727	5162
686.739	5319
686.785	4871
686.831	4630
686.848	4896
686.877	5396
686.923	5445
686.969	5127
686.969	5123
687.015	5030
687.061	5252
687.090	5519
687.107	5673
687.153	5356
687.199	5624
687.211	5587
687.245	5567
687.291	5852
687.332	5722
687.336	5710
687.382	6127
687.428	6477
687.453	6362
687.474	6119
687.520	5750
687.565	5548
687.574	5534
687.611	5769
687.657	6027
687.695	6068
687.702	6091
687.748	6468
687.794	6700
687.816	6653
687.839	6414
687.885	6257
687.931	6058
687.937	6043
687.976	6178
688.022	6589
688.058	6395
688.067	6366
688.113	7184
688.158	6896
688.179	6779
688.204	6503
688.249	6841
688.295	6899
688.300	6812
688.340	6375
688.386	6283
688.421	6361
688.431	6400
688.477	6644
688.522	7035
688.542	6901
688.567	6708
688.613	6834
688.658	7116
688.663	7053
688.703	6535
688.749	6165
688.784	6562
688.794	6699
688.839	6495
688.884	6326
688.905	6454
688.930	6598
688.975	7089
689.020	6667
689.026	6613
689.065	6526
689.110	7144
689.146	7474
689.155	7498
689.201	6827
689.246	6987
689.267	6963
689.291	7079
689.336	6829
689.381	6925
689.388	6966
689.426	7239
689.471	7466
689.509	7128
689.516	7041
689.561	7453
689.606	6953
689.630	6876
689.651	6886
689.696	6998
689.741	7292
689.750	7247
689.785	7349
689.830	7962
689.871	7609
689.875	7532
689.920	7927
689.965	7339
689.992	7061
690.010	7118
690.054	7299
690.099	7826
690.112	7864
690.144	7740
690.189	7623
690.233	7245
690.233	7256
690.278	7494
690.323	7470
690.354	7485
690.367	7554
690.412	7407
690.457	7862
690.474	7777
690.501	7644
690.546	7824
690.590	7533
690.595	7573
690.635	7933
690.680	7167
690.716	7345
690.724	7472
690.769	7763
690.813	8093
690.836	8079
690.857	8049
690.902	8528
690.946	8245
690.957	8296
690.991	8927
691.035	9946
691.077	10456
691.080	10465
691.124	10169
691.168	10179
691.198	10219
691.213	10167
691.257	9780
691.301	9387
691.318	9233
691.346	9136
691.390	8783
691.434	8787
691.439	8700
691.478	8448
691.522	9171
691.559	8985
691.567	9007
691.611	9848
691.655	9924
691.680	10050
691.699	9892
691.743	9497
691.787	9376
691.800	9180
691.831	9051
691.875	9129
691.919	9068
691.921	9053
691.964	9258
692.008	9312
692.041	9342
692.052	9389
692.096	9458
692.139	9814
692.162	9876
692.183	9843
692.227	10141
692.271	9370
692.282	9414
692.315	9861
692.359	9870
692.402	10161
692.403	10183
692.447	9730
692.490	9944
692.523	9652
692.534	9618
692.578	9945
692.622	10079
692.643	10172
692.666	10096
692.709	9758
692.753	9288
692.763	9266
692.797	9456
692.840	9330
692.884	9035
692.884	9056
692.928	9511
692.971	9255
693.004	9205
693.015	9204
693.059	9460
693.102	9547
693.124	9347
693.146	9228
693.189	9893
693.233	9700
693.245	9762
693.276	9907
693.320	9802
693.363	9693
693.365	9669
693.407	9963
693.450	10279
693.485	10239
693.493	10224
693.537	10669
693.580	10460
693.605	10503
693.624	10750
693.667	11432
693.710	11691
693.725	11852
693.753	12446
693.797	13318
693.840	13968
693.845	14025
693.883	14147
693.926	14198
693.966	14664
693.970	14608
694.013	13095
694.056	12022
694.086	10826
694.099	10694
694.142	10677
694.185	10567
694.206	10415
694.229	10409
694.272	10705
694.315	10614
694.326	10608
694.358	11200
694.401	11983
694.444	12780
694.446	12780
694.487	12347
694.530	12006
694.566	11701
694.573	11695
694.616	11205
694.659	10975
694.686	10772
694.702	10697
694.745	10414
694.787	10192
694.806	10058
694.830	10202
694.873	10257
694.916	10493
694.926	10495
694.959	10629
695.002	10945
695.044	10830
695.046	10815
695.087	11104
695.130	11209
695.166	11207
695.172	11224
695.215	11084
695.258	11259
695.286	11080
695.301	11044
695.343	11069
695.386	11114
695.406	11054
695.428	11072
695.471	11011
695.514	11180
695.526	11076
695.556	11435
695.599	12596
695.641	13099
695.646	13149
695.684	12781
695.726	12260
695.766	11807
695.769	11852
695.811	12022
695.854	12158
695.886	12290
695.896	12271
695.938	11908
695.981	11576
696.005	11380
696.023	11574
696.065	11994
696.108	12445
696.125	12506
696.150	12471
696.192	12647
696.235	12634
696.245	12613
696.277	12762
696.319	12806
696.361	13124
696.365	13098
696.404	13199
696.446	13192
696.485	13269
696.488	13315
696.530	13341
696.572	13617
696.604	13595
696.614	13545
696.656	13194
696.698	13068
696.724	12778
696.740	12811
696.783	13017
696.825	13048
696.844	13014
696.867	12831
696.909	12668
696.951	12349
696.964	12215
696.992	12384
697.034	12522
697.076	12714
697.083	12709
697.118	13029
697.160	13445
697.202	13795
697.203	13766
697.244	13804
697.286	13808
697.323	13648
697.327	13672
697.369	13769
697.411	13704
697.442	13604
697.453	13746
697.494	14255
697.536	14738
697.562	14983
697.578	15112
697.620	15409
697.661	15544
697.682	15654
697.703	15995
697.744	16476
697.786	17024
697.801	17161
697.828	17251
697.869	17309
697.911	17337
697.921	17318
697.952	16632
697.994	15595
698.035	14568
698.040	14406
698.077	14686
698.118	14930
698.160	15138
698.160	15095
698.201	15042
698.243	14805
698.279	14612
698.284	14678
698.325	14901
698.367	15139
698.399	15220
698.408	15295
698.449	15463
698.491	15678
698.518	15754
698.532	15768
698.573	15666
698.614	15607
698.638	15500
698.656	15655
698.697	15946
698.738	16220
698.757	16303
698.779	16206
698.820	15944
698.862	15671
698.877	15526
698.903	15738
698.944	16012
698.985	16281
698.996	16311
699.026	15979
699.067	15458
699.116	14794
699.235	15683
699.354	14887
699.474	14978
699.593	15384
699.713	16500
699.832	15388
699.951	17054
700.070	15689
700.190	15729
700.309	14586
700.428	15710
700.547	14739
700.667	14595
700.786	14516
700.905	14242
701.024	14661
701.143	15188
701.262	13508
701.381	14671
701.500	14546
701.619	17683
701.738	15010
701.857	14143
701.976	13896
702.095	12758
702.214	15505
702.333	15971
702.452	14956
702.571	14690
702.690	13395
702.809	13775
702.928	13260
703.047	14171
703.165	13318
703.284	13303
703.403	13142
703.522	13835
703.640	13598
703.759	15294
703.878	16310
703.997	14012
704.115	13222
704.234	13957
704.353	12653
704.471	12217
704.590	11049
704.708	12380
704.827	11626
704.946	11957
705.064	11964
705.183	12473
705.301	12728
705.420	14839
705.538	13152
705.656	12490
705.775	12403
705.893	13557
706.012	14281
706.130	12279
706.249	13071
706.367	13610
706.485	12753
706.604	13398
706.722	12986
706.840	15961
706.958	13767
707.077	12979
707.195	11942
707.313	12875
707.431	11177
707.549	10798
707.668	11404
707.786	12735
707.904	10835
708.022	11377
708.140	10725
708.258	11722
708.376	11682
708.494	12243
708.612	12391
708.730	14438
708.848	14294
708.966	14491
709.084	14074
709.202	13481
709.320	12182
709.438	12326
709.556	12397
709.674	11779
709.791	12297
709.909	11744
710.027	11666
710.145	11398
710.263	12029
710.380	11662
710.498	11555
710.616	11439
710.733	11972
710.851	11839
710.969	10955
711.086	11676
711.204	11301
711.322	11060
711.439	10679
711.557	11482
711.674	11188
711.792	12151
711.909	10869
712.027	11524
712.144	10282
712.262	10319
712.379	11219
712.497	14693
712.614	13905
712.732	12985
712.849	11887
712.966	13966
713.084	16849
713.201	14062
713.318	12682
713.436	13260
713.553	13374
713.670	14922
713.787	13516
713.905	13475
714.022	13945
714.139	13345
714.256	18108
714.373	27646
714.490	49867
714.608	148300
714.725	639295
714.842	590056
714.959	43585
715.076	20305
715.193	14838
715.310	15390
715.427	12724
715.544	12495
715.661	11354
715.778	11629
715.895	11816
716.011	12625
716.128	10848
716.245	13260
716.362	13678
716.479	15817
716.596	11207
716.713	11431
716.829	11113
716.946	10549
717.063	10650
717.180	9744
717.296	9899
717.413	9719
717.530	10563
717.646	10080
717.763	9512
717.880	9501
717.996	10299
718.113	10057
718.229	9258
718.346	9869
718.462	10421
718.579	14213
718.695	24589
718.812	14810
718.928	11591
719.045	11399
719.161	9363
719.277	9507
719.394	9532
719.510	10358
719.626	10527
719.743	14137
719.859	21600
719.975	44351
720.092	188589
720.208	413533
720.324	41361
720.440	13848
720.557	12275
720.673	19789
720.789	18949
720.905	28154
721.021	11656
721.137	10147
721.253	9198
721.369	9837
721.486	9858
721.602	11654
721.718	7753
721.834	8082
721.950	8899
722.066	8473
722.181	8900
722.297	10073
722.413	7494
722.529	8330
722.645	7510
722.761	7943
722.877	7060
722.993	8163
723.108	10440
723.224	9596
723.340	8813
723.456	8121
723.571	7715
723.687	7782
723.803	7904
723.918	7711
724.034	6867
724.150	8352
724.265	7880
724.381	12738
724.497	14105
724.612	7100
724.728	6458
724.843	7542
724.959	8083
725.074	12560
725.190	12807
725.305	8013
725.421	6844
725.536	7585
725.651	6547
725.767	6826
725.882	6778
725.997	6467
726.113	7209
726.228	6871
726.343	6357
726.459	7248
726.574	6537
726.689	6248
726.804	6645
726.920	6219
727.035	6389
727.150	6524
727.265	6018
727.380	7181
727.495	6979
727.610	6742
727.725	6225
727.841	6242
727.956	6740
728.071	8044
728.186	5384
728.301	5964
728.416	6771
728.531	6296
728.645	5927
728.760	7639
728.875	8694
728.990	7805
729.105	6944
729.220	8117
729.335	7181
729.449	5974
729.564	5217
729.679	6093
729.794	4893
729.908	6762
730.023	5927
730.138	5938
730.253	6156
730.367	6719
730.482	5544
730.596	6489
730.711	6380
730.826	7588
730.940	6325
731.055	7014
731.169	6581
731.284	6622
731.398	6092
731.513	7728
731.627	7247
731.742	8973
731.856	9668
731.970	9266
732.085	11640
732.199	16984
732.313	29941
732.428	82145
732.542	237320
732.656	125677
732.771	22478
732.885	13064
732.999	10698
733.113	10261
733.227	9843
733.342	8868
733.456	7796
733.570	7906
733.684	7571
733.798	8361
733.912	7142
734.026	7967
734.140	7119
734.254	8385
734.368	9590
734.482	10459
734.596	6941
734.710	7274
734.824	7515
734.938	7211
735.052	6832
735.166	8342
735.280	7877
735.393	6986
735.507	7579
735.621	8927
735.735	9923
735.849	7754
735.962	7067
736.076	7261
736.190	6327
736.303	8037
736.417	9284
736.531	7298
736.644	5934
736.758	6061
736.872	6713
736.985	7146
737.099	5992
737.212	6614
737.326	6314
737.439	6772
737.553	5532
737.666	6721
737.780	5554
737.893	6790
738.007	5979
738.120	6032
738.233	5357
738.347	6885
738.460	5496
738.573	7020
738.687	7211
738.800	6862
738.913	9153
739.026	7065
739.140	5559
739.253	5373
739.366	5395
739.479	5406
739.592	4865
739.705	6093
739.818	6042
739.932	6534
740.045	6698
740.158	6967
740.271	5738
740.384	5880
740.497	6302
740.610	7256
740.723	6531
740.836	6966
740.949	7190
741.062	9175
741.174	7154
741.287	6518
741.400	5791
741.513	6568
741.626	7233
741.739	6726
741.851	5782
741.964	6461
742.077	5426
742.189	6430
742.302	7688
742.415	7465
742.527	5349
742.640	5811
742.753	5190
742.865	5506
742.978	5289
743.090	4740
743.203	5005
743.316	5142
743.428	4588
743.541	4652
743.653	4326
743.766	5052
743.878	3876
743.990	5108
744.103	6685
744.215	7305
744.327	5236
744.440	6478
744.552	9952
744.664	5612
744.777	4841
744.889	4631
745.001	5009
745.113	5135
745.226	4333
745.338	4105
745.450	4194
745.562	3898
745.674	4061
745.786	3961
745.898	4018
746.010	4859
746.122	5318
746.234	5912
746.347	4062
746.459	4688
746.570	4629
746.682	5891
746.794	8144
746.906	5093
747.018	3935
747.130	4676
747.242	4095
747.354	3617
747.466	4367
747.577	4530
747.689	3780
747.801	5192
747.913	3259
748.024	3317
748.136	4100
748.248	3967
748.359	4268
748.471	4138
748.583	3563
748.694	3990
748.806	3693
748.918	4466
749.029	3565
749.141	5369
749.252	5012
749.364	5050
749.475	10888
749.587	7022
749.698	3638
749.809	4318
749.921	3071
750.032	4389
750.144	3141
750.255	3721
750.366	3451
750.478	3845
750.589	4600
750.700	4240
750.811	5283
750.923	5764
751.034	11836
751.145	12054
751.256	3415
751.367	3993
751.479	4031
751.590	2922
751.701	3910
751.812	3275
751.923	3747
752.034	4630
752.145	3012
752.256	2976
752.367	3471
752.478	3347
752.589	4469
752.700	3668
752.811	3244
752.922	3744
753.032	4303
753.143	4927
753.254	3250
753.365	4356
753.476	4080
753.586	3683
753.697	2805
753.808	3615
753.919	3621
754.029	2763
754.140	3619
754.251	3758
754.361	2265
754.472	3304
754.582	3389
754.693	3653
754.804	3289
754.914	2841
755.025	3095
755.135	3295
755.246	3073
755.356	2993
755.466	3115
755.577	3455
755.687	2724
755.798	3035
755.908	2741
756.018	3005
756.129	2351
756.239	3575
756.349	3656
756.460	3642
756.570	4068
756.680	3621
756.790	3708
756.900	4383
757.011	2459
757.121	2874
757.231	2239
757.341	3382
757.451	2632
757.561	2834
757.671	2732
757.781	2244
757.891	3990
758.001	4250
758.111	3157
758.221	4020
758.331	4766
758.441	4447
758.551	6324
758.661	6398
758.771	2775
758.880	3491
758.990	3595
759.100	3197
759.210	3896
759.320	3657
759.429	2970
759.539	3716
759.649	3326
759.758	4685
759.868	5438
759.978	5281
760.087	4976
760.197	5732
760.307	4852
760.416	4098
760.526	3611
760.635	5098
760.745	4398
760.854	5074
760.964	6174
761.073	6324
761.182	4182
761.292	4813
761.401	4135
761.511	3424
761.620	2797
761.729	3810
761.839	3591
761.948	4280
762.057	3771
762.166	4271
762.276	2564
762.385	4753
762.494	3617
762.603	2986
762.712	2581
762.822	2604
762.931	3087
763.040	3020
763.149	2790
763.258	3215
763.367	3428
763.476	3690
763.585	2898
763.694	3497
763.803	3527
763.912	3766
764.021	3116
764.130	3387
764.238	2009
764.347	3775
764.456	3533
764.565	4024
764.674	2928
764.783	3622
764.891	2682
765.000	3956
765.109	4646
765.217	4007
765.326	4507
765.435	5821
765.543	5010
765.652	6586
765.761	6052
765.869	9956
765.978	13561
766.086	25353
766.195	50429
766.303	142204
766.412	453981
766.520	384742
766.629	75773
766.737	25897
766.846	14902
766.954	10411
767.062	9219
767.171	6799
767.279	6022
767.387	5404
767.496	4158
767.604	4925
767.712	5113
767.820	4199
767.928	4525
768.037	4215
768.145	4543
768.253	4874
768.361	3345
768.469	4037
768.577	3515
768.685	4187
768.793	3310
768.901	4565
769.009	5037
769.117	4150
769.225	5218
769.333	8008
769.441	10742
769.549	20773
769.657	46947
769.765	173075
769.873	397097
769.981	112321
770.088	20037
770.196	11249
770.304	7634
770.412	6430
770.519	5036
770.627	4825
770.735	3576
770.842	4122
770.950	4717
771.058	4070
771.165	3539
771.273	4750
771.380	3538
771.488	4938
771.595	4285
771.703	5161
771.810	4560
771.918	3855
772.025	4683
772.133	4249
772.240	4148
772.348	5260
772.455	3592
772.562	3420
772.670	3901
772.777	5147
772.884	4261
772.991	4485
773.099	4456
773.206	3870
773.313	4180
773.420	4212
773.528	3867
773.635	3921
773.742	4572
773.849	5131
773.956	3663
774.063	4271
774.170	4570
774.277	4672
774.384	3048
774.491	4203
774.598	4549
774.705	3821
774.812	4619
774.919	4826
775.026	4631
775.133	3831
775.239	3949
775.346	3796
775.453	3337
775.560	3689
775.667	3663
775.773	3272
775.880	2813
775.987	3273
776.093	3492
776.200	4682
776.307	2542
776.413	4765
776.520	3581
776.627	4447
776.733	3555
776.840	3155
776.946	4999
777.053	6937
777.159	10370
777.266	5943
777.372	8462
777.478	7580
777.585	4779
777.691	2971
777.798	4640
777.904	4064
778.010	5693
778.117	5185
778.223	2480
778.329	4124
778.435	3330
778.542	4379
778.648	2993
778.754	2469
778.860	3177
778.966	3359
779.072	2738
779.178	3802
779.284	3262
779.391	2624
779.497	2265
779.603	4178
779.708	1569
779.815	4688
779.920	6288
780.026	11331
780.132	3126
780.238	2953
780.344	2694
780.450	4193
780.556	3250
780.661	3049
780.767	2975
780.873	2459
780.979	3357
781.085	3069
781.190	2304
781.296	2336
781.402	2275
781.507	3295
781.613	3019
781.719	2390
781.824	3217
781.930	3320
782.035	2705
782.141	3109
782.246	2280
782.352	2576
782.457	2442
782.563	3295
782.668	1991
782.773	2949
782.879	2695
782.984	2963
783.090	3258
783.195	6041
783.300	3296
783.405	2744
783.511	2047
783.616	2699
783.721	2952
783.826	1525
783.932	2909
784.037	2281
784.142	1610
784.247	3151
784.352	2121
784.457	2226
784.562	2492
784.667	2839
784.772	1585
784.877	1761
784.982	2897
785.087	2569
785.192	2718
785.297	1826
785.402	2353
785.507	2934
785.611	1351
785.716	2038
785.821	1948
785.926	2213
786.031	2346
786.135	2056
786.240	2142
786.345	1391
786.450	2487
786.554	2584
786.659	1194
786.763	1254
786.868	2581
786.973	3334
787.077	1991
787.182	1557
787.286	2210
787.391	2732
787.495	2025
787.600	1851
787.704	1614
787.809	2088
787.913	1905
788.017	2651
788.122	2260
788.226	2074
788.330	804
788.435	2014
788.539	1381
788.643	1539
788.747	1733
788.852	1392
788.956	1459
789.060	2053
789.164	2099
789.268	1622
789.372	1903
789.476	2344
789.580	1518
789.684	1277
789.788	1978
789.892	1079
789.996	1468
790.100	1199
790.204	1716
790.308	2059
790.412	1428
790.516	2595
790.620	1347
790.724	2578
790.828	2015
790.931	1273
791.035	1745
791.139	1659
791.242	1206
791.346	2898
791.450	1947
791.554	1823
791.657	414
791.761	3269
791.864	2286
791.968	2600
792.072	1984
792.175	2089
792.279	1683
792.382	2669
792.486	2063
792.589	2157
792.693	1961
792.796	865
792.899	2816
793.003	2126
793.106	986
793.209	2390
793.313	2275
793.416	1402
793.519	3141
793.623	4461
793.726	6292
793.829	2511
793.932	440
794.035	1820
794.138	3387
794.242	3162
794.345	2085
794.448	2859
794.551	3603
794.654	6699
794.757	6324
794.860	2782
794.963	1770
795.066	1980
795.169	2297
795.272	1601
795.375	1993
795.477	1954
795.580	1327
795.683	560
795.786	1625
795.889	854
795.991	2458
796.094	2428
796.197	913
796.300	2060
796.402	512
796.505	456
796.608	1027
796.710	1794
796.813	1683
796.915	1550
797.018	1183
797.120	2131
797.223	131
797.326	1874
797.428	723
797.530	501
797.633	1009
797.735	2745
797.838	2074
797.940	3395
798.042	165
798.145	1503
798.247	1826
798.349	923
798.452	1837
798.554	828
798.656	724
798.758	2539
798.860	1877
798.962	1304
799.065	1047
799.167	443
799.269	2583
799.371	2002
799.473	2799
799.575	2957
799.677	2216
799.779	4362
799.881	3251
799.983	3404
800.085	1807
800.187	1990
800.289	254
800.390	1891
800.492	1963
800.594	2386
800.696	390
800.798	1464
800.899	761
801.001	1182
801.103	1975
801.205	1360
801.306	2554
801.408	1152
801.509	1935
801.611	1713
801.713	2240
801.814	598
801.916	1554
802.017	1375
802.119	172
802.220	1598
802.322	-1309
802.423	3283
802.525	66
802.626	2662
802.727	1157
802.829	2296
802.930	-257
803.031	2397
803.133	1839
803.234	1652
803.335	1075
803.436	-233
803.538	1316
803.639	525
803.740	1623
803.841	1209
803.942	1422
804.043	1415
804.144	345
804.245	1547
804.346	814
804.447	1694
804.548	2580
804.649	3717
804.750	1286
804.851	1357
804.952	516
805.053	868
805.154	-25
805.255	1786
805.355	647
805.456	979
805.557	616
805.658	180
805.758	1210
805.859	928
805.960	28
806.061	567
806.161	893
806.262	1882
806.362	720
806.463	1687
806.564	841
806.664	1763
806.765	1335
806.865	1423
806.966	222
807.066	1243
807.166	1005
807.267	1962
807.367	382
807.468	1628
807.568	-633
807.668	1914
807.769	1802
807.869	855
807.969	861
808.069	668
808.170	630
808.270	1439
808.370	907
808.470	2058
808.570	873
808.670	1886
808.770	523
808.870	137
808.970	584
809.070	816
809.170	409
809.271	1492
809.370	818
809.470	1458
809.570	471
809.670	-161
809.770	1235
809.870	934
809.970	872
810.070	990
810.169	981
810.269	-738
810.369	1871
810.469	1630
810.568	861
810.668	138
810.768	120
810.867	1007
810.967	71
811.066	1078
811.166	1134
811.265	1691
811.365	538
811.464	1352
811.564	650
811.663	2403
811.763	419
811.862	1961
811.962	1265
812.061	1059
812.160	133
812.260	1467
812.359	1661
812.458	2808
812.557	7527
812.657	11015
812.756	4127
812.855	1523
812.954	894
813.053	2108
813.153	1419
813.252	1252
813.351	1557
813.450	1608
813.549	170
813.648	1708
813.747	629
813.846	1823
813.945	-561
814.044	2323
814.143	1110
814.242	1982
814.341	1424
814.439	1822
814.538	2278
814.637	813
814.736	1176
814.835	2616
814.933	1397
815.032	2428
815.131	2365
815.229	3717
815.328	3746
815.427	2754
815.525	2835
815.624	3297
815.722	2954
815.821	3499
815.919	3021
816.018	3757
816.116	3735
816.215	4284
816.313	3951
816.412	3993
816.510	3877
816.609	5744
816.707	5416
816.805	5455
816.904	5314
817.002	6496
817.100	7184
817.198	7546
817.296	7153
817.395	9048
817.493	9752
817.591	11951
817.689	15962
817.787	20689
817.885	32106
817.983	55750
818.081	111826
818.179	254037
818.277	558366
818.375	484095
818.473	172402
818.571	75412
818.669	48541
818.767	41361
818.865	40477
818.963	47434
819.061	66136
819.158	107114
819.256	205087
819.354	435858
819.452	753791
819.549	543656
819.647	221708
819.745	102480
819.842	60718
819.940	40867
820.038	30547
820.135	23544
820.233	19263
820.330	15367
820.428	12710
820.525	12561
820.623	9885
820.720	8598
820.818	7788
820.915	7839
821.012	6793
821.110	5161
821.207	5453
821.304	5169
821.402	5233
821.499	6694
821.596	6617
821.693	5351
821.791	5040
821.888	5077
821.985	8594
822.082	6661
822.179	4477
822.276	4324
822.373	2388
822.470	2838
822.567	2560
822.664	2552
822.761	3776
822.858	2738
822.955	2005
823.052	2446
823.149	3299
823.246	2791
823.343	1506
823.440	2852
823.536	1248
823.633	2421
823.730	2520
823.827	2906
823.923	3254
824.020	2734
824.117	2447
824.213	2801
824.310	3024
824.407	2274
824.503	3093
824.600	2521
824.696	1154
824.793	3556
824.889	1748
824.986	2236
825.082	1385
825.179	1832
825.275	1419
825.371	2304
825.468	2268
825.564	631
825.660	1583
825.757	2535
825.853	1522
825.949	740
826.045	1587
826.142	1734
826.238	1641
826.334	1291
826.430	674
826.526	2541
826.622	624
826.718	1829
826.814	1172
826.910	1857
827.006	889
827.102	1388
827.198	1949
827.294	2272
827.390	1619
827.486	1507
827.582	468
827.678	854
827.774	2053
827.869	125
827.965	1933
828.061	729
828.157	1474
828.252	1164
828.348	187
828.444	1620
828.539	348
828.635	1600
828.731	1295
828.826	635
828.922	1793
829.017	1713
829.113	1860
829.208	1054
829.304	1166
829.399	2491
829.495	1143
829.590	2568
829.685	452
829.781	1745
829.876	1406
829.971	1173
830.066	331
830.162	1454
830.257	647
830.352	303
830.447	1468
830.543	1024
830.638	-264
830.733	2367
830.828	819
830.923	1441
831.018	377
831.113	2188
831.208	97
831.303	451
831.398	685
831.493	1495
831.588	1727
831.683	1044
831.778	1097
831.873	548
831.967	2054
832.062	661
832.157	302
832.252	1394
832.346	486
832.441	2690
832.536	2302
832.631	6665
832.725	4221
832.820	1535
832.914	229
833.009	1241
833.104	1504
833.198	2137
833.293	1104
833.387	1490
833.482	45
833.576	-198
833.670	1276
833.765	1181
833.859	1144
833.954	2163
834.048	762
834.142	1706
834.237	180
834.331	860
834.425	1035
834.519	572
834.613	286
834.708	853
834.802	55
834.896	305
834.990	970
835.084	1486
835.178	25
835.272	1062
835.366	-3
835.460	594
835.554	1480
835.648	384
835.742	340
835.836	-84
835.930	-124
836.024	1137
836.117	903
836.211	1038
836.305	1679
836.399	1738
836.493	111
836.586	774
836.680	-34
836.774	12
836.867	1557
836.961	97
837.055	-17
837.148	423
837.242	380
837.335	658
837.429	571
837.522	249
837.616	382
837.709	1635
837.803	196
837.896	1172
837.989	1134
838.083	1451
838.176	2139
838.269	1746
838.363	-318
838.456	469
838.549	1371
838.642	2703
838.735	5880
838.829	2559
838.922	511
839.015	897
839.108	33
839.201	906
839.294	1033
839.387	615
839.480	-222
839.573	729
839.666	1044
839.759	-98
839.852	-771
839.945	932
840.038	-163
840.131	759
840.223	-419
840.316	710
840.409	367
840.502	354
840.594	465
840.687	-433
840.780	317
840.873	700
840.965	246
841.058	1473
841.150	1520
841.243	261
841.336	786
841.428	340
841.521	-78
841.613	-250
841.706	309
841.798	50
841.890	4
841.983	-762
842.075	977
842.167	202
842.260	443
842.352	1533
842.444	480
842.537	2021
842.629	2327
842.721	430
842.813	705
842.905	-239
842.997	949
843.090	464
843.182	286
843.274	1339
843.366	3367
843.458	8614
843.550	4865
843.642	1486
843.734	627
843.826	684
843.918	464
844.009	781
844.101	-471
844.193	484
844.285	291
844.377	1390
844.469	830
844.560	1240
844.652	1400
844.744	1580
844.835	-204
844.927	222
845.019	401
845.110	1027
845.202	75
845.293	454
845.385	-195
845.476	1026
845.568	1228
845.659	-509
845.751	797
845.842	-3
845.934	134
846.025	222
846.116	405
846.208	-278
846.299	-112
846.390	475
846.482	374
846.573	991
846.664	810
846.755	1776
846.846	1908
846.937	-688
847.029	-19
847.120	-117
847.211	-357
847.302	1317
847.393	-320
847.484	667
847.575	-202
847.666	412
847.757	-463
847.847	-425
847.938	803
848.029	-225
848.120	-126
848.211	458
848.302	-910
848.392	-206
848.483	452
848.574	1061
848.664	-315
848.755	242
848.846	-177
848.936	-450
849.027	-81
849.118	687
849.208	267
849.299	2116
849.389	3283
849.480	8086
849.570	17765
849.661	34532
849.751	58248
849.841	19651
849.932	2023
850.022	1040
850.112	507
850.203	759
850.293	697
850.383	698
850.474	-238
850.564	657
850.654	831
850.744	-130
850.834	16
850.924	-55
851.014	-495
851.104	776
851.194	217
851.284	529
851.374	780
851.464	903
851.554	-65
851.644	81
851.734	262
851.824	430
851.914	-981
852.004	514
852.094	142
852.183	-484
852.273	-13
852.363	901
852.452	349
852.542	442
852.632	67
852.721	1074
852.811	97
852.901	1108
852.990	951
853.080	1904
853.169	208
853.259	1790
853.348	1114
853.438	2942
853.527	4086
853.617	4995
853.706	11615
853.795	21827
853.885	50238
853.974	96812
854.063	179498
854.152	267307
854.242	101083
854.331	18937
854.420	8195
854.509	5549
854.598	4098
854.687	3007
854.777	2699
854.866	2147
854.955	1857
855.044	739
855.133	822
855.222	1189
855.311	-40
855.400	1234
855.488	1072
855.577	1053
855.666	291
855.755	463
855.844	87
855.933	-465
856.021	-471
856.110	555
856.199	235
856.288	-615
856.376	346
856.465	64
856.554	-237
856.642	-690
856.731	296
856.819	263
856.908	-112
856.996	346
857.085	-261
857.173	738
857.262	213
857.350	-690
857.438	13
857.527	-389
857.615	171
857.703	333
857.792	-716
857.880	204
857.968	-484
858.056	-50
858.145	-286
858.233	98
858.321	-353
858.409	1027
858.497	-130
858.585	-908
858.673	488
858.761	-380
858.849	-60
858.937	542
859.025	26
859.113	642
859.201	-599
859.289	571
859.377	-449
859.465	572
859.552	181
859.640	508
859.728	105
859.816	263
859.903	-743
859.991	-434
860.079	348
860.166	248
860.254	93
860.342	383
860.429	-572
860.517	-187
860.604	109
860.692	34
860.779	-330
860.867	442
860.954	468
861.042	548
861.129	675
861.216	417
861.304	-503
861.391	-427
861.478	-222
861.565	1055
861.653	123
861.740	-672
861.827	-749
861.914	63
862.001	-1001
862.089	723
862.176	-485
862.263	-199
862.350	-1018
862.437	62
862.524	-762
862.611	46
862.698	303
862.785	1309
862.871	20
862.958	130
863.045	-787
863.132	1025
863.219	-95
863.306	58
863.392	-263
863.479	-604
863.566	-616
863.652	-218
863.739	258
863.826	726
863.912	105
863.999	-440
864.086	-1072
864.172	276
864.259	-95
864.345	-473
864.432	-169
864.518	74
864.604	121
864.691	215
864.777	396
864.863	879
864.950	1328
865.036	2017
865.122	2367
865.209	2849
865.295	2102
865.381	3389
865.467	2758
865.553	5955
865.639	6658
865.726	12420
865.812	25499
865.898	50868
865.984	74952
866.070	142629
866.156	146809
866.242	39561
866.328	8415
866.414	4431
866.499	3624
866.585	3200
866.671	2010
866.757	2378
866.843	2575
866.928	1599
867.014	974
867.100	2319
867.186	635
867.271	2018
867.357	2033
867.442	2483
867.528	1889
867.614	1410
867.699	1708
867.785	2522
867.870	2422
867.956	3152
868.041	2283
868.127	2219
868.212	2004
868.297	1874
868.383	1173
868.468	2615
868.553	4551
868.639	4766
868.724	7083
868.809	7733
868.894	1532
868.979	226
869.065	992
869.150	1210
869.235	926
869.320	948
869.405	745
869.490	1817
869.575	769
869.660	1305
869.745	360
869.830	1406
869.915	-63
870.000	909
870.085	816
870.169	1381
870.254	1542
870.339	491
870.424	437
870.509	239
870.593	526
870.678	1450
870.763	388
870.847	873
870.932	519
871.016	1612
871.101	880
871.186	1400
871.270	889
871.355	721
871.439	663
871.523	752
871.608	-49
871.692	779
871.777	882
871.861	825
871.945	104
872.030	966
872.114	445
872.198	1151
872.282	684
872.367	757
872.451	-227
872.535	447
872.619	777
872.703	529
872.787	-283
872.871	1118
872.955	571
873.039	1099
873.123	593
873.207	1071
873.291	-35
873.375	349
873.459	-596
873.543	196
873.627	-98
873.711	378
873.794	-543
873.878	712
873.962	-524
874.045	471
874.129	268
874.137	309
874.213	716
874.245	261
874.296	-475
874.352	203
874.380	531
874.460	62
874.464	44
874.547	939
874.568	615
874.631	-374
874.676	29
874.714	381
874.784	704
874.798	760
874.881	1625
874.892	1410
874.965	-14
874.999	445
875.048	1061
875.107	767
875.131	646
875.215	215
875.215	215
875.298	285
875.323	455
875.381	943
875.430	725
875.465	548
875.538	1085
875.548	1156
875.631	-232
875.646	-147
875.714	246
875.753	70
875.798	-93
875.861	616
875.881	828
875.964	406
875.968	414
876.047	533
876.076	546
876.130	585
876.183	909
876.213	1123
876.291	560
876.296	512
876.379	120
876.398	133
876.462	313
876.506	604
876.545	756
876.613	34
876.628	-69
876.711	852
876.721	829
876.794	400
876.828	345
876.877	374
876.935	543
876.960	589
877.043	803
877.043	800
877.125	333
877.150	636
877.208	1090
877.258	1135
877.291	1186
877.365	532
877.374	476
877.456	1066
877.472	1105
877.539	1169
877.579	771
877.622	370
877.687	1001
877.704	1178
877.787	516
877.794	559
877.869	918
877.901	838
877.952	644
878.008	200
878.034	41
878.115	35
878.117	39
878.199	245
878.222	311
878.282	466
878.329	772
878.364	841
878.437	723
878.447	720
878.529	-66
878.544	-30
878.611	316
878.651	511
878.694	647
878.758	723
878.776	765
878.858	632
878.865	647
878.941	691
878.972	612
879.023	440
879.078	428
879.105	499
879.185	1312
879.187	1332
879.269	1082
879.292	1081
879.351	710
879.399	393
879.433	333
879.506	1009
879.516	1065
879.598	262
879.613	177
879.680	101
879.720	366
879.762	521
879.827	514
879.844	569
879.926	1035
879.933	1052
880.007	955
880.040	987
880.089	1031
880.147	1963
880.171	2533
880.253	4935
880.254	4953
880.335	7253
880.360	7792
880.417	9918
880.467	14742
880.499	18003
880.574	21203
880.580	20989
880.662	7110
880.680	5478
880.744	1804
880.787	1028
880.825	793
880.893	192
880.907	55
880.989	275
881.000	206
881.070	229
881.106	345
881.152	273
881.213	-44
881.233	-91
881.315	548
881.319	538
881.396	348
881.426	387
881.478	578
881.532	987
881.559	1142
881.639	960
881.641	945
881.722	259
881.745	162
881.803	508
881.852	689
881.885	579
881.958	671
881.966	746
882.047	1105
882.064	1198
882.129	959
882.171	915
882.210	1231
882.277	1597
882.291	1622
882.372	831
882.383	782
882.454	513
882.489	695
882.535	656
882.596	406
882.616	452
882.697	196
882.702	219
882.778	814
882.808	811
882.859	375
882.914	499
882.940	750
883.020	543
883.021	543
883.102	819
883.127	853
883.183	876
883.233	698
883.264	470
883.339	231
883.345	242
883.426	508
883.445	473
883.507	202
883.551	312
883.587	654
883.657	746
883.668	714
883.749	899
883.763	822
883.830	15
883.869	-64
883.910	270
883.975	513
883.991	437
884.072	90
884.081	27
884.152	77
884.187	213
884.233	416
884.292	277
884.314	150
884.394	436
884.398	418
884.475	16
884.504	23
884.555	149
884.610	-61
884.636	-141
884.716	100
884.716	109
884.797	825
884.821	1176
884.877	1248
884.927	917
884.958	711
885.033	537
885.038	521
885.118	279
885.139	132
885.199	151
885.244	377
885.279	731
885.350	1102
885.359	1059
885.439	1058
885.456	946
885.520	498
885.561	370
885.600	297
885.667	82
885.680	141
885.760	485
885.773	539
885.840	575
885.878	635
885.920	513
885.984	235
886.000	332
886.080	885
886.089	901
886.160	225
886.195	83
886.240	294
886.300	464
886.320	454
886.400	171
886.406	174
886.480	264
886.511	258
886.560	131
886.616	-77
886.640	162
886.720	971
886.722	985
886.800	530
886.827	452
886.879	487
886.932	379
886.959	601
887.038	1137
887.039	1138
887.119	1044
887.143	912
887.198	901
887.248	840
887.278	646
887.354	72
887.358	91
887.437	819
887.459	876
887.517	784
887.564	862
887.596	587
887.669	-141
887.676	-129
887.755	128
887.774	143
887.835	203
887.880	332
887.914	576
887.985	1048
887.994	1044
888.073	995
888.090	957
888.153	1076
888.195	1160
888.232	900
888.300	410
888.311	417
888.391	515
888.405	522
888.470	880
888.510	1083
888.549	962
888.615	793
888.628	766
888.708	564
888.720	528
888.787	890
888.825	1084
888.866	849
888.930	490
888.945	477
889.024	429
889.035	408
889.103	219
889.140	161
889.182	440
889.245	798
889.261	831
889.340	1029
889.349	1045
889.419	550
889.454	298
889.498	276
889.559	249
889.577	307
889.656	572
889.664	600
889.735	424
889.768	345
889.814	606
889.873	951
889.978	827
890.083	1328
890.187	630
890.292	543
890.397	275
890.501	1065
890.606	826
890.710	1260
890.815	940
890.919	420
891.024	479
891.128	954
891.233	396
891.337	505
891.442	204
891.546	1106
891.650	-205
891.755	1002
891.859	1798
891.963	1287
892.068	1064
892.172	631
892.276	251
892.380	420
892.484	518
892.589	1080
892.693	352
892.797	981
892.901	-452
893.005	1151
893.109	912
893.213	700
893.317	820
893.421	548
893.525	643
893.629	52
893.733	995
893.837	504
893.941	275
894.045	354
894.148	-5
894.252	654
894.356	553
894.460	939
894.564	239
894.667	1496
894.771	158
894.875	645
894.978	99
895.082	201
895.186	849
895.289	1489
895.393	450
895.496	820
895.600	392
895.703	124
895.807	32
895.910	586
896.014	454
896.117	-143
896.221	936
896.324	577
896.427	220
896.531	527
896.634	344
896.737	584
896.840	770
896.944	159
897.047	338
897.150	56
897.253	444
897.356	741
897.460	163
897.563	1034
897.666	306
897.769	423
897.872	470
897.975	508
898.078	759
898.181	924
898.284	1031
898.387	641
898.490	549
898.593	87
898.695	338
898.798	1055
898.901	1314
899.004	286
899.107	-180
899.209	793
899.312	957
899.415	374
899.518	18
899.620	-79
899.723	218
899.826	940
899.928	1498
900.031	338
900.133	-505
900.236	80
900.338	-159
900.441	416
900.543	174
900.646	750
900.748	-50
900.851	1148
900.953	138
901.055	616
901.158	-68
901.260	936
901.362	290
901.465	19
901.567	746
901.669	790
901.771	162
901.873	1454
901.976	103
902.078	392
902.180	-46
902.282	950
902.384	-128
902.486	1202
902.588	440
902.690	575
902.792	155
902.894	1233
902.996	-141
903.098	658
903.200	259
903.302	-6
903.404	53
903.505	-60
903.607	687
903.709	1259
903.811	499
903.913	464
904.014	60
904.116	480
904.218	1086
904.319	1304
904.421	311
904.523	1081
904.624	393
904.726	1218
904.827	561
904.929	393
905.030	538
905.132	1107
905.233	-57
905.335	-69
905.436	261
905.537	729
905.639	712
905.740	415
905.841	772
905.943	1182
906.044	522
906.145	717
906.247	-14
906.348	49
906.449	457
906.550	492
906.651	-154
906.752	451
906.854	534
906.955	375
907.056	-135
907.157	844
907.258	479
907.359	450
907.460	-205
907.561	-451
907.662	135
907.762	286
907.863	10
907.964	538
908.065	-86
908.166	-482
908.267	-74
908.367	855
908.468	113
908.569	-123
908.670	-41
908.770	458
908.871	546
908.971	500
909.072	525
909.173	-117
909.273	-599
909.374	860
909.474	31
909.575	1003
909.675	622
909.776	1192
909.876	56
909.977	-131
910.077	-148
910.177	645
910.278	871
910.378	184
910.478	51
910.579	205
910.679	164
910.779	1393
910.879	687
910.980	251
911.080	396
911.180	365
911.280	88
911.380	721
911.480	422
911.580	413
911.680	-91
911.780	770
911.880	-21
911.980	123
912.080	-502
912.180	645
912.280	961
912.380	1063
912.480	141
912.580	160
912.679	-633
912.779	738
912.879	369
912.979	6
913.078	589
913.178	-117
913.278	-292
913.377	324
913.477	298
913.577	-33
913.676	266
913.776	-133
913.875	1045
913.975	1152
914.074	689
914.174	840
914.273	-265
914.373	532
914.472	541
914.572	305
914.671	153
914.770	1007
914.870	503
914.969	-585
915.068	-4
915.167	747
915.267	254
915.366	84
915.465	-441
915.564	691
915.663	298
915.763	465
915.862	13
915.961	73
916.060	89
916.159	518
916.258	-79
916.357	639
916.456	108
916.555	139
916.654	-210
916.752	678
916.851	158
916.950	474
917.049	1111
917.148	98
917.247	500
917.345	536
917.444	254
917.543	662
917.642	571
917.740	-219
917.839	285
917.937	1068
918.036	565
918.135	441
918.233	855
918.332	881
918.430	91
918.529	474
918.627	253
918.726	1254
918.824	284
918.923	318
919.021	630
919.119	794
919.218	202
919.316	38
919.414	53
919.512	401
919.611	345
919.709	476
919.807	934
919.905	471
920.003	434
920.102	1019
920.200	-119
920.298	1018
920.396	106
920.494	880
920.592	843
920.690	737
920.788	41
920.886	1281
920.984	525
921.082	617
921.180	889
921.277	1174
921.375	739
921.473	950
921.571	968
921.669	603
921.766	1244
921.864	1497
921.962	1598
922.060	1108
922.157	903
922.255	1113
922.352	783
922.450	1774
922.548	1270
922.645	1575
922.743	1104
922.840	2661
922.938	2814
923.035	2916
923.133	2531
923.230	2246
923.327	2917
923.425	3357
923.522	3353
923.619	3361
923.717	2279
923.814	2190
923.911	2697
924.008	2599
924.106	2376
924.203	3592
924.300	2163
924.397	3123
924.494	2432
924.591	2901
924.688	2820
924.786	3646
924.883	2007
924.979	2321
925.077	3204
925.173	1928
925.270	3021
925.367	2688
925.464	3588
925.561	2814
925.658	3566
925.755	3078
925.852	3089
925.948	2563
926.045	3109
926.142	4010
926.239	3365
926.335	2883
926.432	3453
926.529	3741
926.625	3659
926.722	3210
926.818	2732
926.915	3522
927.011	2787
927.108	2325
927.204	2853
927.301	2571
927.397	2223
927.494	3002
927.590	1249
927.687	2231
927.783	1975
927.879	1908
927.976	1784
928.072	1899
928.168	2552
928.264	2149
928.361	2089
928.457	3024
928.553	1694
928.649	1622
928.745	2849
928.841	2215
928.937	1432
929.033	2635
929.129	1948
929.225	2433
929.321	1898
929.417	1252
929.513	2335
929.609	1485
929.705	1305
929.801	2102
929.897	1662
929.993	1683
930.089	2526
930.184	1038
930.280	2023
930.376	2739
930.471	1841
930.567	1890
930.663	1864
930.758	1493
930.854	2244
930.950	2421
931.045	1177
931.141	2262
931.236	2448
931.332	1543
931.427	1742
931.523	2492
931.618	1773
931.714	1261
931.809	1308
931.905	1877
932.000	1070
932.095	648
932.191	2385
932.286	1904
932.381	1189
932.476	1053
932.572	1610
932.667	1985
932.762	634
932.857	2108
932.952	1259
933.047	1661
933.142	675
933.237	1728
933.332	1184
933.427	1948
933.522	1429
933.617	1428
933.712	1043
933.807	2527
933.902	2357
933.997	2592
934.092	1512
934.187	860
934.282	2287
934.376	1572
934.471	1156
934.566	1566
934.661	1113
934.755	2252
934.850	1870
934.945	1960
935.039	895
935.134	1095
935.228	1462
935.323	2229
935.417	782
935.512	1791
935.606	726
935.701	954
935.795	1272
935.890	1794
935.984	1364
936.079	923
936.173	1646
936.267	1983
936.362	198
936.456	660
936.550	1759
936.644	1237
936.738	434
936.833	1212
936.927	657
937.021	1881
937.115	1048
937.209	1499
937.303	1947
937.397	964
937.491	1214
937.585	1453
937.679	1046
937.773	376
937.867	520
937.961	1804
938.055	1551
938.149	1837
938.243	909
938.337	965
938.430	848
938.524	2426
938.618	2603
938.712	2473
938.805	1195
938.899	1555
938.993	2023
939.086	1801
939.180	1461
939.274	3572
939.367	1731
939.461	1686
939.554	548
939.648	414
939.741	699
939.835	1420
939.928	1444
940.022	2688
940.115	1610
940.208	1277
940.302	2468
940.395	1938
940.488	740
940.582	1309
940.675	611
940.768	493
940.861	516
940.954	1524
941.048	527
941.141	298
941.234	1441
941.327	1871
941.420	2089
941.513	2181
941.606	73
941.699	1921
941.792	654
941.885	430
941.978	995
942.071	521
942.164	767
942.257	1211
942.349	603
942.442	1292
942.535	1118
942.628	669
942.721	1448
942.813	13
942.906	1032
942.999	945
943.091	525
943.184	464
943.277	148
943.369	656
943.462	250
943.554	1446
943.647	19
943.739	2010
943.832	912
943.924	715
944.017	589
944.109	229
944.201	898
944.294	1500
944.386	505
944.478	261
944.571	-142
944.663	622
944.755	945
944.847	1041
944.940	1100
945.032	-661
945.124	499
945.216	1038
945.308	64
945.400	919
945.492	187
945.584	770
945.676	1164
945.768	1284
945.860	131
945.952	746
946.044	472
946.136	687
946.228	646
946.320	97
946.412	567
946.503	231
946.595	1061
946.687	-87
946.779	-761
946.870	405
946.962	197
947.054	688
947.145	1171
947.237	562
947.329	608
947.420	1034
947.512	916
947.603	-40
947.695	326
947.786	293
947.878	-590
947.969	280
948.061	221
948.152	682
948.243	751
948.335	559
948.426	539
948.517	-365
948.609	571
948.700	784
948.791	-121
948.882	72
948.973	91
949.065	449
949.156	517
949.247	-553
949.338	1361
949.429	481
949.520	519
949.611	238
949.702	1429
949.793	959
949.884	-657
949.975	798
950.066	-625
950.157	358
950.247	-280
950.338	310
950.429	404
950.520	1080
950.611	409
950.701	85
950.792	115
950.883	1247
950.973	928
951.064	842
951.155	-64
951.245	730
951.336	-295
951.427	0
951.517	1333
951.608	559
951.698	-547
951.788	156
951.879	236
951.969	11
952.060	167
952.150	125
952.240	841
952.331	-245
952.421	1349
952.511	-372
952.602	-78
952.692	449
952.782	606
952.872	-284
952.962	-436
953.052	-7
953.143	-282
953.233	288
953.323	-574
953.413	-68
953.503	660
953.593	1230
953.683	-124
953.773	-327
953.863	-78
953.953	502
954.042	64
954.132	223
954.222	277
954.312	-410
954.402	-511
954.492	665
954.581	-4
954.671	280
954.761	-603
954.850	1188
954.940	-762
955.030	363
955.119	-321
955.209	-364
955.298	-1370
955.388	1002
955.477	1021
955.567	-96
955.656	-257
955.746	239
955.835	77
955.925	312
956.014	568
956.103	149
956.193	356
956.282	706
956.371	43
956.461	-426
956.550	-313
956.639	-473
956.728	-387
956.817	210
956.906	-117
956.995	962
957.085	514
957.174	248
957.263	-20
957.352	5
957.441	-490
957.530	120
957.619	-370
957.708	900
957.796	152
957.885	269
957.974	-288
958.063	798
958.152	-1265
958.241	-120
958.329	-393
958.418	-506
958.507	-588
958.596	1050
958.684	-394
958.773	607
958.861	-369
958.950	-43
959.039	37
959.127	-239
959.216	-161
959.304	-381
959.393	-207
959.481	-326
959.570	-568
959.658	-800
959.746	-957
959.835	257
959.923	-173
960.011	-1016
960.100	225
960.188	856
960.276	-1004
960.365	-305
960.453	-211
960.541	-211
960.629	-185
960.717	-449
960.805	-1264
960.893	237
960.981	-475
961.069	628
961.158	-161
961.245	998
961.333	-531
961.421	-371
961.509	-566
961.597	-705
961.685	-352
961.773	-505
961.861	-924
961.949	631
962.036	-567
962.124	353
962.212	-261
962.299	-478
962.387	-58
962.475	457
962.562	-929
962.650	232
962.738	-406
962.825	-48
962.913	-99
963.000	-70
963.088	-93
963.175	-627
963.263	-212
963.350	-394
963.438	-419
963.525	-44
963.612	478
963.700	175
963.787	2818
963.874	883
963.962	515
964.049	-861
964.136	-525
964.223	-691
964.310	-400
964.398	-278
964.485	-498
964.572	360
964.659	-590
964.746	255
964.833	-732
964.920	-862
965.007	-740
965.094	-396
965.181	-773
965.268	-855
965.355	-135
965.441	-554
965.528	-735
965.615	-582
965.702	-347
965.789	-521
965.875	-705
965.962	-581
966.049	-791
966.136	-168
966.222	-120
966.309	511
966.395	-1032
966.482	778
966.569	351
966.655	141
966.742	-735
966.828	124
966.915	-776
967.001	-348
967.087	-48
967.174	-871
967.260	-672
967.347	743
967.433	705
967.519	2183
967.605	-166
967.692	-806
967.778	-480
967.864	-264
967.950	-551
968.036	-483
968.123	-486
968.209	-694
968.295	-655
968.381	1180
968.467	-129
968.553	-1779
968.639	-68
968.725	-621
968.811	-170
968.897	-635
968.983	-805
969.069	-265
969.154	-271
969.240	359
969.326	-461
969.412	-1333
969.497	-408
969.583	-553
969.669	-468
969.755	-644
969.840	-466
969.926	527
970.012	41
970.097	1021
970.183	295
970.268	926
970.354	730
970.439	-6
970.525	953
970.610	70
970.696	388
970.781	-145
970.866	-1399
970.952	93
971.037	-545
971.122	-10
971.208	-1273
971.293	-424
971.378	-1394
971.463	-566
971.549	-246
971.634	-354
971.719	-140
971.804	279
971.889	322
971.974	-417
972.059	-429
972.144	-293
972.229	-178
972.314	-399
972.399	-72
972.484	-1068
972.569	-377
972.654	-314
972.739	512
972.824	349
972.908	-893
972.993	-199
973.078	-929
973.163	-93
973.247	165
973.332	-1545
973.417	1127
973.501	-474
973.586	-497
973.671	223
973.755	-343
973.840	-183
973.924	-143
974.009	-177
974.093	-702
974.178	660
974.262	-178
974.346	320
974.431	-577
974.515	-1288
974.600	-757
974.684	708
974.768	-390
974.852	1115
974.937	-1717
975.021	416
975.105	-601
975.189	-220
975.273	53
975.358	-381
975.442	-1213
975.526	134
975.610	-1274
975.694	-950
975.778	305
975.862	140
975.946	-1530
976.030	1177
976.114	-618
976.198	-562
976.281	-1234
976.365	-82
976.449	-1460
976.533	-181
976.617	-531
976.700	-488
976.784	-172
976.868	-262
976.951	109
977.035	301
977.119	-56
977.202	-144
977.286	32
977.369	67
977.453	84
977.536	-33
977.620	8
977.703	-148
977.787	-473
977.870	258
977.953	461
978.037	-906
978.120	36
978.203	-552
978.287	521
978.370	-521
978.453	-584
978.536	-918
978.620	52
978.703	411
978.786	-58
978.869	-815
978.952	-1185
979.035	935
979.118	430
979.201	-1603
979.284	-81
979.367	-595
979.450	-568
979.533	-772
979.616	-1099
979.699	348
979.782	-484
979.865	319
979.948	-1049
980.030	-115
980.113	-400
980.196	-731
980.279	-173
980.361	-347
980.444	316
980.526	219
980.609	-457
980.692	-137
980.774	355
980.857	-337
980.939	642
981.022	-804
981.104	-743
981.187	-439
981.269	8
981.352	465
981.434	-899
981.516	-484
981.599	759
981.681	326
981.763	-210
981.846	-529
981.928	-1004
982.010	-160
982.092	-1303
982.174	911
982.256	-552
982.339	62
982.421	-389
982.503	669
982.585	-813
982.667	-204
982.749	-398
982.831	-205
982.913	-1231
982.995	575
983.077	-845
983.158	570
983.240	-1283
983.322	632
983.404	483
983.486	-371
983.568	583
983.649	-592
983.731	-477
983.813	34
983.894	649
983.976	-801
984.058	-395
984.139	529
984.221	-1021
984.302	131
984.384	-404
984.465	-125
984.547	-1042
984.628	-164
984.710	612
984.791	5
984.872	-719
984.954	259
985.035	161
985.116	-901
985.198	-1160
985.279	504
985.360	-90
985.441	-591
985.522	369
985.604	-79
985.685	-1604
985.766	420
985.847	722
985.928	-952
986.009	-35
986.090	-46
986.171	214
986.252	-210
986.333	138
986.414	-122
986.495	710
986.576	215
986.656	-128
986.737	109
986.818	-289
986.899	-548
986.980	-926
987.060	769
987.141	-454
987.222	315
987.302	36
987.383	593
987.464	-24
987.544	203
987.625	-1276
987.705	458
987.786	-490
987.866	452
987.947	3
988.027	387
988.108	-493
988.188	958
988.268	-17
988.349	301
988.429	-1
988.509	525
988.589	183
988.670	-1766
988.750	626
988.830	-888
988.910	-211
988.990	-305
989.070	90
989.151	145
989.231	-104
989.311	651
989.391	-472
989.471	146
989.551	180
989.631	-274
989.711	840
989.791	-483
989.870	-528
989.950	865
990.030	-369
990.110	-130
990.190	-138
990.269	48
990.349	-245
990.429	-77
990.509	-262
990.588	-589
990.668	-198
990.747	583
990.827	-959
990.907	-680
990.986	-576
991.066	667
991.145	-366
991.225	576
991.304	-798
991.383	10
991.463	-1025
991.542	351
991.622	-711
991.701	243
991.780	-1339
991.859	-70
991.939	-968
992.018	-113
992.097	2
992.176	-195
992.256	-935
992.335	-1162
992.414	328
992.493	329
992.572	-551
992.651	990
992.730	-544
992.809	-340
992.888	-1079
992.967	-20
993.046	-844
993.125	-938
993.203	-1210
993.282	-213
993.361	-744
993.440	-484
993.519	-1491
993.597	-403
993.676	-1076
993.755	10
993.834	-661
993.912	-1465
993.991	105
994.069	-1752
994.148	-298
994.226	-184
994.305	-1162
994.384	-1172
994.462	-742
994.540	-1929
994.619	-1076
994.697	-784
994.776	-1633
994.854	55
994.932	-699
995.011	-757
995.089	-1075
995.167	-1108
995.245	-557
995.324	-497
995.402	-593
995.480	-363
995.558	31
995.636	-1119
995.714	-806
995.792	5
995.870	-1206
995.948	-231
996.026	-669
996.104	-908
996.182	-455
996.260	-689
996.338	-325
996.416	-888
996.494	-1245
996.572	11
996.649	-986
996.727	-1366
996.805	-1033
996.883	-573
996.960	-1103
997.038	-710
997.116	-4
997.193	-1056
997.271	-667
997.348	-848
997.426	-1166
997.504	-1474
997.581	-852
997.658	5
997.736	-2009
997.813	-2048
997.891	-917
997.968	-1162
998.046	-1472
998.123	-1027
998.200	-931
998.277	-1508
998.355	-647
998.432	-1641
998.509	-435
998.586	-563
998.663	-820
998.741	-857
998.818	-642
998.895	-1419
998.972	-978
999.049	-988
999.126	-1475
999.203	-1243
999.280	-1177
999.357	-1891
999.434	-1254
999.511	-644
999.587	-839
999.664	-1339
999.741	-1521
999.818	-756
999.895	-1492
999.971	-1826
1000.048	-2115
1000.125	-686
1000.202	-2126
1000.278	-946
1000.355	-1680
1000.431	-924
1000.508	-1852
1000.584	-185
1000.661	-720
1000.738	-924
1000.814	-1701
1000.890	1
1000.967	-1012
1001.043	-182
1001.120	-1962
1001.196	-479
1001.272	-1703
1001.349	-923
1001.425	-958
1001.501	-1201
1001.577	-1586
1001.654	-1293
1001.730	-1642
1001.806	-1086
1001.882	-2649
1001.958	-903
1002.034	-1819
1002.110	-1240
1002.186	-1951
1002.262	-1157
1002.338	-1307
1002.414	-1002
1002.490	-1283
1002.566	-1047
1002.642	-1257
1002.718	-147
1002.794	-1708
1002.870	-1459
1002.945	-1074
1003.021	-1073
1003.097	-1592
1003.173	-976
1003.248	-1064
1003.324	-1467
1003.400	-1544
1003.475	-2210
1003.551	-1655
1003.626	-391
1003.702	-1642
1003.777	-673
1003.853	-1695
1003.928	-1934
1004.004	-1672
1004.079	-829
1004.155	-1779
1004.230	-2040
1004.305	-970
1004.381	-1592
1004.456	-1802
1004.531	-1382
1004.607	-1846
1004.682	-1579
1004.757	-1420
1004.832	-892
1004.907	-2208
1004.982	-975
1005.057	-1417
1005.133	-2376
1005.208	-1789
1005.283	-1291
1005.358	-1475
1005.433	-1356
1005.508	-841
1005.583	-1930
1005.657	-1350
1005.732	-1080
1005.807	-2256
1005.882	-1562
1005.957	-2260
1006.032	-1193
1006.106	-1133
1006.181	-1114
1006.256	-1475
1006.331	-1919
1006.405	-1571
1006.480	-1196
1006.554	-2278
1006.629	-1255
1006.704	-2248
1006.778	-1128
1006.853	-1401
1006.927	-1500
1007.002	-2152
1007.076	-1535
1007.150	-1581
1007.225	-1029
1007.299	-1029
1007.373	-1765
1007.448	-1757
1007.522	-654
1007.596	-1935
1007.671	-2413
1007.745	-1036
1007.819	-1202
1007.893	-1409
1007.967	-1220
1008.041	-2378
1008.115	-1105
1008.190	-2644
1008.264	-1024
1008.338	-2541
1008.412	-1706
1008.486	-895
1008.560	-1302
1008.633	-2495
1008.707	-1822
1008.781	-1770
1008.855	-1787
1008.929	-2225
1009.003	-1904
1009.076	-2241
1009.150	-2197
1009.224	-1577
1009.298	-1352
1009.371	-2399
1009.445	-1191
1009.519	-1773
1009.592	-2296
1009.666	-2007
1009.739	-1552
1009.813	-3039
1009.886	-870
1009.960	-2269
1010.033	-640
1010.107	-2048
1010.180	-2461
1010.253	-1922
1010.327	-2261
1010.400	-1343
1010.473	-1172
1010.547	-1282
1010.620	-1630
1010.693	-549
1010.766	-1658
1010.840	-936
1010.913	-747
1010.986	-2707
1011.059	-1210
1011.132	-2030
1011.205	-1085
1011.278	-1569
1011.351	-1129
1011.424	-1698
1011.497	-1811
1011.570	-1388
1011.643	-1081
1011.716	-1823
1011.789	-1592
1011.862	-2133
1011.934	-1523
1012.007	-2781
1012.080	-1554
1012.153	-1938
1012.225	-835
1012.298	-2176
1012.371	-1804
1012.443	-1695
1012.516	-1638
1012.588	-1866
1012.661	-608
1012.733	-2086
1012.806	-710
1012.879	-2532
1012.951	-1651
1013.023	-2104
1013.096	-982
1013.168	-1068
1013.241	-499
1013.313	-2189
1013.385	-2894
1013.458	-1985
1013.530	-2160
1013.602	-1976
1013.674	-1377
1013.746	-2570
1013.819	-1662
1013.891	-1397
1013.963	-1688
1014.035	-1777
1014.107	-1396
1014.179	-1363
1014.251	-2511
1014.323	-1853
1014.395	-770
1014.467	-2199
1014.539	-1463
1014.611	-2623
1014.683	-1588
1014.754	-2330
1014.826	-1973
1014.898	-2154
1014.970	-2096
1015.042	-1043
1015.113	-2043
1015.185	-2195
1015.257	-2480
1015.328	-1689
1015.400	-2060
1015.471	-1829
1015.543	-2102
1015.615	-2326
1015.686	-2085
1015.757	-1960
1015.829	-2170
1015.901	-2162
1015.972	-1641
1016.043	-2079
1016.115	-1554
1016.186	-712
1016.257	-2641
1016.328	-1114
1016.400	-602
1016.471	-2095
1016.542	-1174
1016.613	-1953
1016.685	-1631
1016.756	-1520
1016.827	-1731
1016.898	-2403
1016.969	-1209
1017.040	-2326
1017.111	-2407
1017.182	-2671
1017.253	-2090
1017.324	-2343
1017.395	-1644
1017.466	-2632
1017.537	-1705
1017.608	-846
1017.678	-1676
1017.749	-1658
1017.820	-2570
1017.891	-1957
1017.961	-2458
1018.032	-2417
1018.103	-1924
1018.173	-2570
1018.244	-2222
1018.315	-2225
1018.385	-1682
1018.456	-1641
1018.526	-2511
1018.597	-2338
1018.667	-1942
1018.738	-1583
1018.808	-2042
1018.878	-2751
1018.949	-1975
1019.019	-2537
1019.089	-1570
1019.160	-1189
1019.230	-2864
1019.300	-1980
1019.371	-2972
1019.441	-1818
1019.511	-1948
1019.581	-1936
1019.651	-1783
1019.721	-2131
1019.791	-1697
1019.861	-1802
1019.931	-994
1020.001	-2372
1020.071	-1280
1020.141	-1839
1020.211	-1101
1020.281	-2615
1020.351	-2200
1020.421	-2270
1020.491	-986
1020.560	-2210
1020.630	-1901
1020.700	-1831
1020.770	-1751
1020.839	-2297
1020.909	-1909
1020.979	-1689
1021.048	-1052
1021.118	-1741
1021.187	-2119
1021.257	-2440
1021.326	-1109
1021.396	-2240
1021.465	-1201
1021.535	-1876
1021.604	-1842
1021.674	-2454
1021.743	-1827
1021.812	-2806
1021.882	-1589
1021.951	-1738
1022.020	-2401
1022.089	-1241
1022.159	-1749
1022.228	-2418
1022.297	-1867
1022.366	-2505
1022.435	-1618
1022.504	-1855
1022.573	-1641
1022.642	-1077
1022.711	-1448
1022.781	-2351
1022.849	-1784
1022.918	-2896
1022.987	-2099
1023.056	-2360
1023.125	-1542
1023.194	-2372
1023.263	-1849
1023.331	-2297
1023.400	-2525
1023.469	-2168
1023.538	-2743
1023.606	-2371
1023.675	-1595
1023.744	-2070
1023.812	-1664
1023.881	-1767
1023.949	-1162
1024.018	-2429
1024.086	-1558
1024.155	-2284
1024.223	-1733
1024.292	-1875
1024.360	-1729
1024.429	-2397
1024.497	-2318
1024.565	-2487
1024.634	-1770
1024.702	-2062
1024.770	-2931
1024.838	-3006
1024.907	-1267
1024.975	-2834
1025.043	-1454
1025.111	-2177
1025.179	-1591
1025.247	-2144
1025.315	-2455
1025.383	-3173
1025.451	-1132
1025.519	-2094
1025.587	-2187
1025.655	-2113
1025.723	-1276
1025.791	-2464
1025.859	-1689
1025.927	-1611
1025.995	-2523
1026.062	-2157
1026.130	-2439
1026.198	-2009
1026.266	-2496
1026.333	-2343
1026.401	-1911
1026.469	-2178
1026.536	-2272
1026.604	-2751
1026.671	-2485
1026.739	-2161
1026.806	-2082
1026.874	-2399
1026.941	-2494
1027.009	-2684
1027.076	-1256
1027.144	-1370
1027.211	-2124
1027.278	-2388
1027.345	-1770
1027.413	-2550
1027.480	-1581
1027.547	-1457
1027.614	-2066
1027.682	-1223
1027.749	-2207
1027.816	-1987
1027.883	-1760
1027.950	-2141
1028.017	-1947
1028.084	-1909
1028.151	-2015
1028.218	-2656
1028.285	-2231
1028.352	-2569
1028.419	-1945
1028.486	-2579
1028.553	-2013
1028.619	-2399
1028.686	-2324
1028.753	-2403
1028.820	-2544
1028.886	-1725
1028.953	-1883
1029.020	-2174
1029.086	-2342
1029.153	-2457
1029.220	-1974
1029.286	-2126
1029.353	-1655
1029.419	-2725
1029.486	-1996
1029.552	-1708
1029.619	-2156
1029.685	-2108
1029.751	-2042
1029.818	-1725
1029.884	-2167
1029.951	-2039
1030.017	-2212
1030.083	-2635
1030.149	-1863
1030.216	-1821
1030.282	-1613
1030.348	-1476
1030.414	-2400
1030.480	-2813
1030.546	-2877
1030.612	-1847
1030.678	-1718
1030.744	-2533
1030.810	-2746
1030.876	-2066
1030.942	-1326
1031.008	-2232
1031.074	-1699
1031.140	-2551
1031.206	-2006
1031.272	-3184
1031.337	-2269
1031.403	-1916
1031.469	-1941
1031.534	-2861
1031.600	-2074
1031.666	-2502
1031.731	-2930
1031.797	-2620
1031.863	-2137
1031.928	-1907
1031.994	-1979
1032.059	-2174
1032.125	-2131
1032.190	-1803
1032.256	-2059
1032.321	-2675
1032.386	-1289
1032.452	-2591
1032.517	-1303
1032.582	-2738
1032.647	-2314
1032.713	-2302
1032.778	-1414
1032.843	-2155
1032.908	-1673
1032.974	-1749
1033.039	-2140
1033.104	-1746
1033.169	-2281
1033.234	-2419
1033.299	-1347
1033.364	-1820
1033.429	-1943
1033.494	-2008
1033.559	-3006
1033.624	-2603
1033.688	-495
1033.753	-2917
1033.818	-2192
1033.883	-2415
1033.948	-1582
1034.013	-1644
1034.077	-963
1034.142	-1820
1034.207	-986
1034.271	-1178
1034.336	-711
1034.400	-288
1034.465	-671
1034.530	-1392
1034.594	-1014
1034.658	-1892
1034.723	-1519
1034.787	-3216
1034.852	-2048
1034.916	-2638
1034.981	-1906
1035.045	-1401
1035.109	-2079
1035.173	-1894
1035.238	-1529
1035.302	-1581
1035.366	-2169
1035.430	-1841
1035.495	-2180
1035.559	-1005
1035.623	-2474
1035.687	-2228
1035.751	-1653
1035.815	-1785
1035.879	-2155
1035.943	-2010
1036.007	-1542
1036.071	-1674
1036.135	-2367
1036.198	-1655
1036.262	-1170
1036.326	-2016
1036.390	-1890
1036.454	-2176
1036.517	-821
1036.581	-1525
1036.645	-1560
1036.709	-605
1036.772	-1363
1036.836	-2279
1036.900	-1353
1036.963	-2117
1037.026	-1039
1037.090	-2565
1037.154	-1874
1037.217	-2348
1037.280	-2361
1037.344	-2168
1037.407	-2365
1037.471	-2466
1037.534	-2357
1037.597	-1876
1037.661	-1758
1037.724	-2242
1037.787	-2277
1037.850	-2369
1037.913	-2309
1037.977	-1614
1038.040	-2360
1038.103	-2875
1038.166	-1712
1038.229	-2052
1038.292	-2050
1038.355	-2153
1038.418	-1994
1038.481	-2021
1038.544	-1961
1038.607	-2012
1038.670	-1588
1038.732	-1235
1038.795	-2643
1038.858	-2036
1038.921	-2061
1038.984	-1606
1039.046	-1964
1039.109	-2514
1039.172	-2143
1039.234	-2554
1039.297	-2447
1039.360	-1782
1039.422	-1863
1039.485	-1851
1039.547	-2226
1039.610	-1869
1039.672	-2021
1039.734	-2338
1039.797	-2020
1039.859	-1638
1039.922	-2188
1039.984	-2701
1040.046	-2015
1040.109	-1949
1040.171	-1747
1040.233	-1993
1040.295	-1910
1040.358	-2592
1040.420	-1862
1040.482	-2856
1040.544	-2155
1040.606	-2395
1040.668	-1539
1040.730	-2568
1040.792	-2255
1040.854	-2225
1040.916	-1834
1040.978	-2079
1041.040	-2166
1041.102	-2507
1041.164	-1775
1041.225	-2814
1041.287	-2208
1041.349	-1150
1041.411	-1891
1041.472	-2350
1041.534	-1588
1041.596	-2383
1041.657	-1449
1041.719	-2598
1041.781	-2469
1041.842	-2125
1041.904	-1783
1041.965	-2728
1042.027	-1547
1042.088	-2226
1042.150	-2162
1042.211	-2109
1042.272	-1632
1042.334	-2095
1042.395	-1665
1042.456	-2722
1042.518	-1552
1042.579	-1503
1042.640	-2243
1042.701	-1952
1042.763	-2503
1042.824	-2805
1042.885	-2548
1042.946	-1707
1043.007	-1229
1043.068	-2053
1043.129	-2258
1043.190	-1991
1043.251	-1453
1043.312	-2398
1043.373	-2076
1043.434	-2472
1043.495	-1692
1043.556	-1955
1043.616	-2038
1043.677	-1896
1043.738	-2346
1043.799	-2067
1043.859	-2143
1043.920	-2099
1043.981	-2361
1044.041	-2645
1044.102	-2674
1044.162	-2587
1044.223	-2284
1044.284	-2719
1044.344	-1560
1044.405	-2146
1044.465	-1543
1044.525	-2235
1044.586	-1926
1044.646	-2383
1044.707	-1465
1044.767	-1662
1044.827	-1722
1044.887	-2610
1044.948	-2476
1045.008	-1919
1045.068	-2101
1045.128	-1654
1045.188	-945
1045.249	-1788
1045.309	-2146
1045.369	-2213
1045.429	-1097
1045.489	-1981
1045.549	-1991
1045.609	-2554
1045.669	-1953
1045.729	-3053
1045.789	-1174
1045.848	-1348
1045.908	-1538
1045.968	-1405
1046.028	-1828
1046.088	-1269
1046.147	-1847
1046.207	-1400
1046.267	-1960
1046.326	-2172
1046.386	-989
1046.446	-911
1046.505	-812
1046.565	-826
1046.624	-1066
1046.684	-55
1046.743	-501
1046.803	-248
1046.862	388
1046.922	0
