'Start Wavelength	183.907
'End Wavelength	1046.922
'Gate Delay	5.000
'Gate Width (ms)	1.050
'Laser Output Level	0.000
'X Position	0.000
'Y Position	0.000
'Z Position	0.000
'Grid Point Number	1.000
'Shot Number	100.000
183.907	464.000
183.977	-461.000
184.047	52
184.116	457
184.186	281
184.256	54
184.325	535
184.395	-613
184.465	1114
184.534	208
184.604	-485
184.674	-536
184.743	196
184.813	58
184.883	598
184.952	629
185.022	793
185.092	37
185.161	-296
185.231	191
185.301	954
185.370	571
185.440	370
185.509	-221
185.579	549
185.649	-152
185.718	220
185.788	17
185.857	334
185.927	-413
185.996	34
186.066	-386
186.136	-264
186.205	491
186.275	164
186.344	498
186.414	-126
186.483	332
186.553	515
186.622	110
186.692	305
186.761	-187
186.831	437
186.900	306
186.970	3
187.039	346
187.109	62
187.178	691
187.248	493
187.317	611
187.387	194
187.456	672
187.526	-99
187.595	239
187.664	199
187.734	602
187.803	-312
187.873	419
187.942	197
188.012	661
188.081	-341
188.150	-115
188.220	-169
188.289	379
188.358	-97
188.428	-146
188.497	-384
188.567	518
188.636	360
188.705	217
188.775	173
188.844	-852
188.913	-351
188.983	874
189.052	-58
189.121	200
189.191	-27
189.260	694
189.329	-379
189.399	17
189.468	383
189.537	188
189.606	-46
189.676	219
189.745	96
189.814	-667
189.883	110
189.953	910
190.022	215
190.091	710
190.161	394
190.230	676
190.299	93
190.368	137
190.437	462
190.507	224
190.576	268
190.645	-388
190.714	5
190.783	-237
190.853	211
190.922	611
190.991	501
191.060	226
191.129	-221
191.198	329
191.268	-18
191.337	-202
191.406	-47
191.475	-153
191.544	204
191.613	329
191.682	-428
191.752	236
191.821	511
191.890	396
191.959	152
192.028	176
192.097	333
192.166	-355
192.235	-189
192.304	514
192.373	-323
192.442	-269
192.511	470
192.580	-202
192.650	274
192.719	-75
192.788	-370
192.857	440
192.926	112
192.995	-292
193.064	-610
193.133	359
193.202	209
193.271	245
193.340	-70
193.409	421
193.478	304
193.547	714
193.615	-765
193.684	814
193.753	-713
193.822	342
193.891	-318
193.960	841
194.029	-90
194.098	744
194.167	-223
194.236	-390
194.305	410
194.374	537
194.443	179
194.512	37
194.580	-10
194.649	608
194.718	247
194.787	310
194.856	-621
194.925	-49
194.994	-469
195.062	767
195.131	830
195.200	-365
195.269	767
195.338	308
195.407	-70
195.475	73
195.544	614
195.613	317
195.682	132
195.751	-207
195.819	-90
195.888	-317
195.957	569
196.026	-6
196.094	85
196.163	-266
196.232	112
196.301	413
196.369	593
196.438	523
196.507	323
196.576	143
196.644	-65
196.713	-243
196.782	-412
196.850	369
196.919	-115
196.988	161
197.056	-68
197.125	440
197.194	-107
197.262	-234
197.331	-89
197.400	456
197.468	-158
197.537	-223
197.606	-278
197.674	692
197.743	-14
197.812	343
197.880	417
197.949	170
198.017	56
198.086	615
198.155	870
198.223	1349
198.292	-331
198.360	-243
198.429	440
198.497	-136
198.566	-141
198.635	788
198.703	638
198.772	-27
198.840	451
198.909	242
198.977	340
199.046	621
199.114	506
199.183	821
199.251	17
199.320	-374
199.388	-27
199.457	289
199.525	139
199.594	225
199.662	-596
199.731	410
199.799	490
199.867	-560
199.936	-233
200.004	692
200.073	-192
200.141	163
200.210	-332
200.278	-217
200.346	257
200.415	-21
200.483	369
200.552	-103
200.620	-192
200.688	-606
200.757	340
200.825	-133
200.893	136
200.962	9
201.030	-317
201.098	173
201.167	1009
201.235	134
201.303	-401
201.372	573
201.440	183
201.508	193
201.577	510
201.645	413
201.713	40
201.781	348
201.850	374
201.918	-372
201.986	348
202.055	271
202.123	-235
202.191	294
202.259	23
202.327	438
202.396	84
202.464	-14
202.532	194
202.600	1090
202.669	38
202.737	1076
202.805	190
202.873	-347
202.941	661
203.009	621
203.078	399
203.146	-75
203.214	-119
203.282	-379
203.350	-13
203.418	445
203.487	-496
203.555	-84
203.623	-137
203.691	203
203.759	172
203.827	700
203.895	-484
203.963	514
204.031	-860
204.099	311
204.168	-390
204.236	377
204.304	434
204.372	718
204.440	763
204.508	324
204.576	24
204.644	671
204.712	-1130
204.780	-21
204.848	-14
204.916	369
204.984	139
205.052	-602
205.120	112
205.188	70
205.256	-164
205.324	156
205.392	31
205.460	-25
205.528	8
205.596	752
205.664	-152
205.732	314
205.799	293
205.867	297
205.935	232
206.003	751
206.071	-434
206.139	83
206.207	62
206.275	-624
206.343	-115
206.411	-110
206.478	244
206.546	-157
206.614	609
206.682	-124
206.750	176
206.818	61
206.885	177
206.953	-440
207.021	448
207.089	256
207.157	-205
207.225	441
207.292	-195
207.360	134
207.428	714
207.496	595
207.563	-213
207.631	426
207.699	-441
207.767	69
207.834	-314
207.902	-131
207.970	-506
208.038	-255
208.105	-169
208.173	93
208.241	53
208.309	-111
208.376	299
208.444	659
208.512	-317
208.579	-510
208.647	-257
208.715	-50
208.782	-507
208.850	-24
208.918	-541
208.985	745
209.053	559
209.120	67
209.188	-302
209.256	521
209.323	-414
209.391	-439
209.459	917
209.526	204
209.594	-112
209.661	800
209.729	-758
209.796	669
209.864	80
209.932	-467
209.999	816
210.067	-100
210.134	298
210.202	110
210.269	425
210.337	348
210.404	-195
210.472	383
210.539	339
210.607	-211
210.674	31
210.742	193
210.809	-633
210.877	626
210.944	544
211.012	-377
211.079	283
211.146	-198
211.214	182
211.281	472
211.349	442
211.416	416
211.484	773
211.551	521
211.618	-111
211.686	331
211.753	-1279
211.821	143
211.888	367
211.955	277
212.023	-93
212.090	-101
212.157	120
212.225	987
212.292	86
212.359	1590
212.427	2807
212.494	1273
212.561	123
212.629	349
212.696	-159
212.763	-330
212.831	208
212.898	1053
212.965	-383
213.032	26
213.100	-47
213.167	503
213.234	118
213.301	517
213.369	164
213.436	773
213.503	216
213.570	-325
213.638	125
213.705	-267
213.772	-3
213.839	-573
213.906	580
213.973	76
214.041	303
214.108	155
214.175	-102
214.242	-404
214.309	-495
214.376	351
214.444	-259
214.511	1201
214.578	-412
214.645	1015
214.712	332
214.779	117
214.846	-603
214.913	772
214.980	121
215.048	754
215.115	1006
215.182	590
215.249	108
215.316	125
215.383	153
215.450	834
215.517	394
215.584	250
215.651	194
215.718	820
215.785	348
215.852	-68
215.919	323
215.986	39
216.053	443
216.120	35
216.187	663
216.254	562
216.321	66
216.388	-335
216.455	438
216.522	234
216.589	272
216.656	1300
216.722	362
216.789	722
216.856	593
216.923	1227
216.990	497
217.057	622
217.124	472
217.191	363
217.258	434
217.324	1375
217.391	687
217.458	732
217.525	-5
217.592	621
217.659	-434
217.725	760
217.792	195
217.859	97
217.926	4
217.993	-505
218.059	781
218.126	727
218.193	518
218.260	453
218.327	-209
218.393	598
218.460	71
218.527	284
218.594	-13
218.660	963
218.727	728
218.794	590
218.860	428
218.927	-147
218.994	-276
219.061	-517
219.127	190
219.194	438
219.261	14
219.327	348
219.394	260
219.461	-397
219.527	-288
219.594	272
219.661	547
219.727	43
219.794	460
219.860	189
219.927	768
219.994	1158
220.060	1013
220.127	693
220.193	648
220.260	240
220.326	-161
220.393	1344
220.460	1192
220.526	510
220.593	111
220.659	1303
220.726	5
220.792	1785
220.859	828
220.925	1940
220.992	2244
221.058	2227
221.125	1570
221.191	1542
221.258	160
221.324	349
221.391	129
221.457	417
221.524	440
221.590	132
221.657	2096
221.723	886
221.789	1270
221.856	511
221.922	60
221.989	448
222.055	-293
222.121	-200
222.188	1437
222.254	923
222.321	147
222.387	-126
222.453	121
222.520	772
222.586	-338
222.652	105
222.719	-31
222.785	806
222.851	23
222.918	104
222.984	465
223.050	-524
223.116	-927
223.183	537
223.249	-10
223.315	-156
223.382	62
223.448	81
223.514	36
223.580	225
223.647	-161
223.713	-1
223.779	-465
223.845	402
223.911	14
223.978	-650
224.044	140
224.110	-109
224.176	639
224.242	-287
224.309	-684
224.375	500
224.441	-103
224.507	-166
224.573	-1085
224.639	815
224.705	-700
224.772	320
224.838	-251
224.904	262
224.970	-494
225.036	-38
225.102	-186
225.168	894
225.234	-552
225.300	-376
225.366	-571
225.432	898
225.499	74
225.565	-394
225.631	-21
225.697	410
225.763	-61
225.829	-288
225.895	42
225.961	-27
226.027	453
226.093	419
226.159	1130
226.225	802
226.291	2194
226.357	3831
226.423	1630
226.489	842
226.554	732
226.620	659
226.686	632
226.752	1257
226.818	1271
226.884	5165
226.950	3966
227.016	1754
227.082	975
227.148	139
227.214	685
227.279	1012
227.345	-100
227.411	21
227.477	1105
227.543	1394
227.609	881
227.674	718
227.740	399
227.806	30
227.872	166
227.938	859
228.003	523
228.069	250
228.135	110
228.201	-416
228.267	360
228.332	-490
228.398	-549
228.464	86
228.530	150
228.595	224
228.661	-761
228.727	380
228.792	649
228.858	-63
228.924	-1695
228.990	531
229.055	-58
229.121	474
229.187	253
229.252	-306
229.318	-346
229.384	785
229.449	-595
229.515	-609
229.581	-1373
229.646	1502
229.712	438
229.777	485
229.843	449
229.909	43
229.974	240
230.040	1090
230.105	259
230.171	-31
230.236	493
230.302	477
230.368	129
230.433	-707
230.499	849
230.564	1188
230.630	-662
230.695	199
230.761	222
230.826	-1287
230.892	1463
230.957	-24
231.023	212
231.088	386
231.154	137
231.219	829
231.284	-69
231.350	1048
231.415	241
231.481	462
231.546	-162
231.612	-156
231.677	45
231.742	-717
231.808	458
231.873	-77
231.939	-744
232.004	1614
232.069	1009
232.135	-619
232.200	-60
232.265	984
232.331	-88
232.396	251
232.461	187
232.527	516
232.592	-83
232.657	-210
232.723	799
232.788	-138
232.853	202
232.918	226
232.984	-98
233.049	-106
233.114	79
233.179	152
233.245	388
233.310	1019
233.375	-953
233.440	549
233.506	-498
233.571	122
233.636	-280
233.701	728
233.766	227
233.832	834
233.897	47
233.962	-733
234.027	50
234.092	412
234.157	-93
234.222	354
234.288	-204
234.353	1308
234.418	1002
234.483	1071
234.548	1029
234.613	503
234.678	982
234.743	657
234.808	1995
234.873	-18
234.938	791
235.004	-420
235.069	-69
235.134	-5
235.199	-19
235.264	467
235.329	-1105
235.394	1127
235.459	1096
235.524	420
235.589	378
235.654	583
235.719	-324
235.784	864
235.849	-210
235.913	784
235.978	643
236.043	586
236.108	425
236.173	209
236.238	356
236.303	31
236.368	-144
236.433	1100
236.498	699
236.563	501
236.627	1353
236.692	6497
236.757	3826
236.822	1729
236.887	541
236.952	1284
237.017	-61
237.081	2154
237.146	450
237.211	2703
237.276	5557
237.341	10075
237.405	2555
237.470	1253
237.535	493
237.600	967
237.664	852
237.729	-205
237.794	1
237.859	1885
237.923	418
237.988	50
238.053	1483
238.118	761
238.182	2335
238.247	2789
238.312	620
238.376	603
238.441	-708
238.506	668
238.570	-86
238.635	1021
238.700	447
238.764	-686
238.829	600
238.893	-35
238.958	-354
239.023	201
239.087	-375
239.152	207
239.216	-290
239.281	480
239.346	261
239.410	-56
239.475	-12
239.539	2798
239.604	943
239.668	655
239.733	395
239.797	359
239.862	2153
239.926	1825
239.991	-93
240.055	742
240.120	21
240.184	-415
240.249	-1027
240.313	269
240.378	446
240.442	1134
240.507	1452
240.571	-82
240.635	541
240.700	1540
240.764	912
240.829	665
240.893	-872
240.957	250
241.022	1921
241.086	2224
241.151	-203
241.215	-709
241.279	954
241.344	567
241.408	558
241.472	274
241.537	1160
241.601	409
241.665	-791
241.730	-465
241.794	1049
241.858	492
241.922	597
241.987	-123
242.051	669
242.115	-15
242.179	84
242.244	-917
242.308	526
242.372	381
242.436	164
242.501	925
242.565	-195
242.629	-623
242.693	890
242.757	23
242.822	-197
242.886	837
242.950	-27
243.014	-588
243.078	761
243.142	470
243.206	14
243.271	168
243.335	-208
243.399	2185
243.463	1905
243.527	8079
243.591	1369
243.655	1127
243.719	275
243.783	1086
243.847	1529
243.911	1560
243.975	1214
244.040	-70
244.104	939
244.168	283
244.232	316
244.296	614
244.360	730
244.424	318
244.488	920
244.552	486
244.615	-786
244.679	806
244.743	496
244.807	-18
244.871	221
244.935	-108
244.999	-238
245.063	-425
245.127	1040
245.191	816
245.255	-68
245.319	1098
245.383	-1094
245.446	1776
245.510	-107
245.574	918
245.638	400
245.702	-116
245.766	1439
245.829	1673
245.893	412
245.957	793
246.021	484
246.085	175
246.149	-14
246.212	2365
246.276	2459
246.340	801
246.404	628
246.467	1995
246.531	102
246.595	871
246.659	673
246.722	-381
246.786	1218
246.850	1257
246.913	1171
246.977	-179
247.041	16
247.104	134
247.168	419
247.232	1798
247.295	4320
247.359	1433
247.423	-83
247.486	1688
247.550	1349
247.614	184
247.677	422
247.741	492
247.804	479
247.868	623
247.932	1389
247.995	3688
248.059	1854
248.122	314
248.186	1581
248.249	1951
248.313	7014
248.376	6382
248.440	2945
248.503	374
248.567	1968
248.630	947
248.694	2382
248.757	4193
248.821	6091
248.884	3743
248.948	3324
249.011	5078
249.075	8062
249.138	6688
249.202	1375
249.265	1056
249.328	1907
249.392	50
249.455	1555
249.519	458
249.582	387
249.645	2598
249.709	506
249.772	648
249.835	1108
249.899	1303
249.962	582
250.025	377
250.089	2162
250.152	4488
250.215	1838
250.279	636
250.342	899
250.405	834
250.468	-301
250.532	921
250.595	2559
250.658	8151
250.721	11925
250.785	3398
250.848	3013
250.911	1356
250.974	1359
251.038	1804
251.101	4294
251.164	1712
251.227	2440
251.290	1140
251.354	2786
251.417	11896
251.480	10055
251.543	6967
251.606	21159
251.669	13837
251.732	4319
251.795	5279
251.859	5813
251.922	13069
251.985	6291
252.048	3609
252.111	1592
252.174	1202
252.237	3616
252.300	7300
252.363	8765
252.426	17460
252.489	5176
252.552	3342
252.615	1588
252.678	2915
252.741	5864
252.804	6917
252.867	16249
252.930	8940
252.993	4465
253.056	3555
253.119	1760
253.182	785
253.245	2266
253.308	2303
253.371	738
253.434	1223
253.497	2041
253.559	5050
253.622	1755
253.685	1727
253.748	2571
253.811	779
253.874	2208
253.937	560
254.000	682
254.062	2802
254.125	3324
254.188	3516
254.251	2056
254.314	1367
254.376	1642
254.439	2907
254.502	2096
254.565	2531
254.628	4887
254.690	2402
254.753	41
254.816	548
254.878	194
254.941	2447
255.004	2816
255.067	391
255.129	467
255.192	441
255.255	-789
255.317	1198
255.380	705
255.443	197
255.505	254
255.568	171
255.631	68
255.693	156
255.756	-668
255.819	756
255.881	-265
255.944	570
256.006	302
256.069	83
256.132	-162
256.194	648
256.257	1546
256.319	1131
256.382	808
256.444	956
256.507	-370
256.569	426
256.632	-172
256.694	-92
256.757	3792
256.819	9829
256.882	1614
256.944	799
257.007	971
257.069	511
257.132	599
257.194	1293
257.257	-555
257.319	-367
257.381	116
257.444	2799
257.506	12020
257.569	10967
257.631	3259
257.693	2180
257.756	634
257.818	299
257.880	-141
257.943	1407
258.005	-284
258.067	277
258.130	244
258.192	78
258.254	552
258.317	304
258.379	324
258.441	2184
258.503	2470
258.566	1069
258.628	2652
258.690	-407
258.753	1119
258.815	1195
258.877	911
258.939	138
259.001	972
259.064	-283
259.126	-1169
259.188	1121
259.250	297
259.312	562
259.375	1963
259.437	469
259.499	-179
259.561	225
259.623	45
259.685	379
259.747	-714
259.809	3171
259.872	4200
259.934	6652
259.996	5982
260.058	2076
260.120	-194
260.182	460
260.244	-286
260.306	222
260.368	127
260.430	-857
260.492	769
260.554	1814
260.616	1422
260.678	3490
260.740	3618
260.802	287
260.864	921
260.926	71
260.988	862
261.050	169
261.112	1101
261.174	5721
261.236	2859
261.298	1055
261.359	1377
261.421	2319
261.483	-360
261.545	565
261.607	-1140
261.669	225
261.731	439
261.793	2564
261.854	-359
261.916	1104
261.978	-21
262.040	684
262.102	234
262.164	736
262.225	763
262.287	-10
262.349	265
262.411	335
262.472	386
262.534	432
262.596	1454
262.658	469
262.719	-182
262.781	1363
262.843	1935
262.904	619
262.966	737
263.028	130
263.090	5442
263.151	11499
263.213	4062
263.275	1088
263.336	501
263.398	1264
263.459	14
263.521	1138
263.583	1885
263.644	625
263.706	319
263.767	-433
263.829	604
263.891	-500
263.952	-125
264.014	-160
264.075	148
264.137	1062
264.198	404
264.260	-428
264.321	-54
264.383	986
264.444	3255
264.506	103
264.567	-70
264.629	1539
264.690	1166
264.752	383
264.813	-322
264.875	-166
264.936	597
264.998	-456
265.059	-275
265.120	285
265.182	-143
265.243	4208
265.305	3528
265.366	433
265.427	302
265.489	436
265.550	-1352
265.611	245
265.673	-248
265.734	109
265.795	517
265.857	-404
265.918	-316
265.979	1749
266.040	8263
266.102	5132
266.163	1731
266.224	1225
266.286	550
266.347	-313
266.408	-547
266.469	215
266.530	-63
266.592	-260
266.653	795
266.714	1291
266.775	-384
266.836	-461
266.898	-427
266.959	-92
267.020	-784
267.081	1088
267.142	-10
267.203	-459
267.264	-789
267.326	387
267.387	-723
267.448	-647
267.509	-758
267.570	-419
267.631	-382
267.692	623
267.753	-54
267.814	-1068
267.875	764
267.936	1780
267.997	550
268.058	255
268.119	454
268.180	-409
268.241	-438
268.302	-109
268.363	-953
268.424	-676
268.485	126
268.546	-736
268.607	-233
268.668	-848
268.729	-698
268.790	-107
268.851	-115
268.912	647
268.972	1637
269.033	-262
269.094	-209
269.155	401
269.216	-195
269.277	-429
269.338	-86
269.398	666
269.459	-776
269.520	776
269.581	-715
269.642	738
269.702	164
269.763	435
269.824	-883
269.885	-190
269.945	873
270.006	227
270.067	-704
270.128	-19
270.188	-815
270.249	-710
270.310	-882
270.370	432
270.431	-388
270.492	-327
270.553	-381
270.613	675
270.674	2027
270.734	316
270.795	-683
270.856	137
270.916	-539
270.977	69
271.038	-304
271.098	93
271.159	145
271.219	589
271.280	-844
271.340	-49
271.401	-264
271.462	227
271.522	4
271.583	265
271.643	-285
271.704	-324
271.764	-40
271.825	1376
271.885	6761
271.946	7556
272.006	2036
272.066	3354
272.127	5778
272.187	1301
272.248	-147
272.308	335
272.369	4051
272.429	2101
272.489	752
272.550	1048
272.610	1311
272.671	639
272.731	1037
272.791	1366
272.852	609
272.912	-6
272.972	442
273.033	-507
273.093	213
273.153	576
273.214	275
273.274	229
273.334	2874
273.394	6748
273.455	1344
273.515	2302
273.575	5671
273.635	1386
273.696	2884
273.756	6269
273.816	1817
273.876	496
273.936	1534
273.997	3854
274.057	53
274.117	498
274.177	1312
274.237	8100
274.297	6102
274.358	3481
274.418	5225
274.478	2879
274.538	734
274.598	-377
274.658	2880
274.718	4528
274.778	937
274.838	427
274.898	601
274.958	5651
275.018	5926
275.078	2989
275.138	1265
275.198	-291
275.258	69
275.318	-626
275.378	1077
275.438	881
275.498	736
275.558	2330
275.618	6370
275.678	3780
275.738	2209
275.798	1852
275.858	7
275.918	-401
275.978	281
276.038	499
276.098	312
276.157	1158
276.217	4127
276.277	1909
276.337	685
276.397	395
276.457	266
276.517	-56
276.576	64
276.636	-286
276.696	254
276.756	2239
276.815	482
276.875	1040
276.935	191
276.995	829
277.055	-335
277.114	1163
277.174	685
277.234	3835
277.293	629
277.353	261
277.413	-321
277.472	406
277.532	-346
277.592	754
277.651	2967
277.711	5745
277.771	1123
277.830	8342
277.890	5369
277.950	3631
278.009	13142
278.069	4184
278.128	4066
278.188	6113
278.248	1676
278.307	6758
278.367	3715
278.426	547
278.486	438
278.545	167
278.605	-168
278.664	-383
278.724	226
278.783	3286
278.843	7293
278.902	950
278.962	189
279.021	370
279.081	1093
279.140	140
279.199	390
279.259	1055
279.318	872
279.378	2024
279.437	3575
279.496	11104
279.556	33268
279.615	23055
279.675	4984
279.734	3272
279.793	4206
279.853	8971
279.912	2617
279.971	1434
280.031	571
280.090	2929
280.149	4890
280.208	3989
280.268	22269
280.327	20748
280.386	3853
280.445	3650
280.505	2608
280.564	1507
280.623	134
280.682	1841
280.742	2780
280.801	403
280.860	428
280.919	43
280.978	24
281.037	-421
281.097	-459
281.156	448
281.215	189
281.274	285
281.333	3692
281.392	3283
281.451	22
281.510	-11
281.569	-254
281.628	-533
281.688	-1150
281.747	582
281.806	-806
281.865	17
281.924	330
281.983	484
282.042	495
282.101	-66
282.160	-173
282.219	-490
282.278	-803
282.337	2126
282.396	604
282.454	371
282.513	412
282.572	2861
282.631	1598
282.690	-281
282.749	-787
282.808	862
282.867	-197
282.926	990
282.985	-663
283.043	-917
283.102	-7
283.161	-676
283.220	2126
283.279	3947
283.338	534
283.396	-269
283.455	253
283.514	352
283.573	737
283.631	348
283.690	-162
283.749	-253
283.808	470
283.866	1230
283.925	-581
283.984	94
284.043	-476
284.101	557
284.160	-724
284.219	482
284.277	235
284.336	911
284.395	5751
284.453	4286
284.512	513
284.570	1333
284.629	636
284.688	694
284.746	276
284.805	1293
284.863	1320
284.922	2652
284.981	2586
285.039	4253
285.098	8668
285.156	24637
285.215	48098
285.273	46669
285.332	25090
285.390	11975
285.449	6614
285.507	5035
285.566	3400
285.624	1884
285.683	1717
285.741	1220
285.799	386
285.858	-69
285.916	68
285.975	854
286.033	-615
286.091	340
286.150	-84
286.208	729
286.267	-317
286.325	86
286.383	412
286.442	710
286.500	-627
286.558	328
286.616	-15
286.675	664
286.733	-137
286.791	-114
286.850	-457
286.908	1127
286.966	1276
287.024	597
287.083	68
287.141	145
287.199	-384
287.257	417
287.315	-674
287.374	-1203
287.432	1730
287.490	1315
287.548	405
287.606	-337
287.664	-241
287.723	742
287.781	-87
287.839	-29
287.897	-229
287.955	-114
288.013	781
288.071	3076
288.129	19001
288.187	51317
288.245	18634
288.303	5197
288.361	1953
288.419	1846
288.477	885
288.535	444
288.593	-393
288.651	-114
288.709	-525
288.767	-578
288.825	-1008
288.883	-418
288.941	-554
288.999	-362
289.057	-340
289.115	-519
289.173	-365
289.231	-496
289.289	-162
289.346	318
289.404	181
289.462	541
289.520	76
289.578	-381
289.636	-996
289.694	-423
289.751	-560
289.809	-778
289.867	-363
289.925	460
289.983	-651
290.040	-570
290.098	-1106
290.156	-980
290.214	-372
290.271	-653
290.329	112
290.387	-914
290.444	-491
290.502	-669
290.560	-1083
290.617	-662
290.675	-971
290.733	-152
290.790	-374
290.848	-309
290.906	-263
290.963	70
291.021	-261
291.078	-17
291.136	-1238
291.194	1349
291.251	3335
291.309	622
291.366	-454
291.424	-1046
291.481	-760
291.539	-716
291.596	-240
291.654	-1183
291.711	-128
291.769	248
291.826	-127
291.884	-380
291.941	-842
291.999	-452
292.056	-516
292.114	-1111
292.171	-291
292.228	-537
292.286	-474
292.343	917
292.401	712
292.458	-559
292.515	-972
292.573	245
292.630	-325
292.687	-166
292.745	-404
292.802	-87
292.859	1882
292.917	4824
292.974	1948
293.031	239
293.089	-252
293.146	-341
293.203	-574
293.260	-680
293.318	-818
293.375	162
293.432	-465
293.489	-452
293.546	-859
293.604	117
293.661	2329
293.718	8296
293.775	3477
293.832	632
293.889	1020
293.947	719
294.004	-207
294.061	121
294.118	954
294.175	4337
294.232	5017
294.289	1356
294.346	18
294.403	-436
294.460	39
294.517	71
294.574	-417
294.631	-1037
294.688	57
294.745	1923
294.802	9733
294.859	9065
294.916	2851
294.973	336
295.030	700
295.087	682
295.144	74
295.201	609
295.258	-253
295.315	-292
295.372	3163
295.429	7183
295.486	2136
295.542	919
295.599	3201
295.656	6684
295.713	4135
295.770	6810
295.827	2139
295.883	855
295.940	-400
295.997	1617
296.054	550
296.111	235
296.167	-288
296.224	-390
296.281	-317
296.338	-936
296.394	-234
296.451	436
296.508	2049
296.564	5433
296.621	2560
296.678	7237
296.734	10628
296.791	3849
296.848	1324
296.904	1275
296.961	3618
297.018	8716
297.074	5591
297.131	1155
297.187	286
297.244	1493
297.301	8947
297.357	14922
297.414	4419
297.470	1255
297.527	292
297.583	537
297.640	260
297.696	240
297.753	1
297.809	346
297.866	-1140
297.922	-621
297.979	-611
298.035	-304
298.092	571
298.148	4182
298.204	4283
298.261	1271
298.317	2220
298.374	10678
298.430	5088
298.486	2335
298.543	122
298.599	1003
298.656	1230
298.712	2177
298.768	6256
298.824	4287
298.881	1197
298.937	147
298.993	368
299.050	-249
299.106	304
299.162	143
299.218	-499
299.275	-67
299.331	294
299.387	1720
299.443	8365
299.500	9249
299.556	3120
299.612	1338
299.668	621
299.724	2002
299.780	656
299.837	826
299.893	1571
299.949	7254
300.005	9165
300.061	7256
300.117	12410
300.173	5502
300.229	1825
300.285	1807
300.341	2949
300.397	804
300.453	390
300.510	416
300.566	213
300.622	826
300.678	3170
300.734	7948
300.790	7692
300.845	9384
300.901	5102
300.957	8033
301.013	5464
301.069	1972
301.125	975
301.181	-589
301.237	873
301.293	328
301.349	-266
301.405	90
301.461	1209
301.516	1808
301.572	733
301.628	1574
301.684	1103
301.740	2668
301.796	5323
301.851	3157
301.907	4938
301.963	5670
302.019	8980
302.074	26489
302.130	25986
302.186	12998
302.242	4882
302.297	2729
302.353	2210
302.409	5874
302.464	4543
302.520	3868
302.576	9091
302.631	10998
302.687	5169
302.743	2161
302.798	1005
302.854	368
302.910	379
302.965	1354
303.021	2087
303.076	2203
303.132	2664
303.187	3706
303.243	1493
303.299	396
303.354	492
303.410	143
303.465	203
303.521	-470
303.576	-332
303.632	-7
303.687	2392
303.743	8553
303.798	7313
303.853	2254
303.909	655
303.964	689
304.020	1589
304.075	2528
304.130	1942
304.186	4120
304.241	5717
304.297	3741
304.352	1818
304.358	1596
304.407	-210
304.449	223
304.463	372
304.518	251
304.539	352
304.573	506
304.629	314
304.630	335
304.684	1317
304.720	4661
304.739	6365
304.794	10178
304.811	8499
304.850	4382
304.902	1447
304.905	1264
304.960	382
304.992	39
305.015	-229
305.071	1201
305.083	883
305.126	-283
305.173	104
305.181	186
305.236	45
305.264	155
305.292	251
305.347	500
305.354	591
305.402	1168
305.445	1174
305.457	1164
305.512	1600
305.535	1558
305.567	1540
305.622	1615
305.626	1695
305.678	3393
305.716	7285
305.733	8780
305.788	10616
305.807	9315
305.843	6846
305.897	9065
305.898	9095
305.953	9300
305.988	6242
306.008	4396
306.063	3198
306.078	2769
306.118	1805
306.168	754
306.173	660
306.228	235
306.259	195
306.283	276
306.338	286
306.349	389
306.393	764
306.440	699
306.448	657
306.503	793
306.530	812
306.558	1279
306.613	3678
306.620	4085
306.668	6748
306.711	8961
306.723	9172
306.778	7733
306.801	6133
306.833	4225
306.888	1613
306.892	1527
306.943	1010
306.982	884
306.997	845
307.052	1219
307.072	1063
307.107	921
307.162	1525
307.163	1524
307.217	1707
307.253	2370
307.272	2611
307.327	2667
307.343	2663
307.381	2547
307.434	1836
307.436	1878
307.491	3866
307.524	6355
307.546	7482
307.600	8400
307.614	7814
307.655	4904
307.704	3013
307.710	2971
307.765	1868
307.795	2628
307.819	3449
307.874	5190
307.885	5292
307.929	4862
307.975	3467
307.984	3438
308.038	5197
308.065	6181
308.093	9991
308.148	21792
308.156	24546
308.202	41935
308.246	52531
308.257	51048
308.312	28742
308.336	20504
308.366	15692
308.421	10117
308.426	9558
308.475	5901
308.517	4237
308.530	4003
308.585	3267
308.607	2964
308.639	2710
308.694	2923
308.697	2949
308.748	4863
308.787	6682
308.803	6746
308.857	5945
308.877	5208
308.912	4499
308.967	4298
308.967	4298
309.021	6276
309.058	7781
309.076	9672
309.130	16940
309.148	19861
309.185	33426
309.238	57534
309.239	57829
309.293	70039
309.328	67664
309.348	58392
309.402	29072
309.418	21817
309.457	15237
309.508	9351
309.511	9219
309.566	8461
309.598	8137
309.620	9184
309.674	13083
309.688	14032
309.729	13497
309.778	10988
309.783	10692
309.837	7649
309.868	6065
309.892	7032
309.946	10053
309.959	11108
310.001	15705
310.049	20295
310.055	19677
310.109	11754
310.139	7272
310.163	5696
310.218	3254
310.229	2791
310.272	2299
310.319	2255
310.326	2194
310.381	1384
310.409	998
310.435	999
310.489	1391
310.499	1449
310.543	1532
310.589	1377
310.598	1387
310.652	1576
310.679	1699
310.706	1556
310.760	1271
310.769	1221
310.814	1321
310.859	1275
310.868	1276
310.923	1469
310.948	1478
310.977	1604
311.031	2007
311.038	2058
311.085	2057
311.128	1854
311.139	1859
311.193	1984
311.218	2070
311.247	2156
311.301	2190
311.308	2188
311.356	2083
311.398	2020
311.410	1986
311.464	1735
311.488	1618
311.518	1470
311.572	1243
311.578	1211
311.626	2186
311.668	3062
311.680	2951
311.734	2360
311.758	2091
311.788	2137
311.842	2255
311.847	2261
311.896	2950
311.937	3559
311.950	3533
312.004	3384
312.027	3309
312.058	2964
312.112	2341
312.117	2277
312.165	2224
312.207	2179
312.297	3144
312.386	1891
312.476	2087
312.566	3829
312.656	2548
312.745	1884
312.835	1840
312.925	2482
313.015	2485
313.104	2435
313.194	2243
313.284	2106
313.374	2582
313.463	2139
313.553	1549
313.643	1625
313.732	1196
313.822	1092
313.912	2376
314.001	2541
314.091	2517
314.180	3248
314.270	3355
314.360	2598
314.449	2767
314.539	1919
314.628	1568
314.718	2085
314.808	2614
314.897	1034
314.987	2268
315.076	2537
315.166	2336
315.255	2797
315.345	2592
315.434	1368
315.524	2508
315.613	1585
315.703	3820
315.792	3571
315.881	6608
315.971	3829
316.060	3602
316.150	4480
316.239	4361
316.328	2807
316.418	2576
316.507	2076
316.597	2537
316.686	2594
316.775	2296
316.865	4848
316.954	2118
317.043	1537
317.133	1913
317.222	1867
317.311	1806
317.400	1074
317.490	2846
317.579	2177
317.668	1455
317.757	2547
317.847	4650
317.936	10529
318.025	7290
318.114	4412
318.203	3587
318.293	5743
318.382	13697
318.471	8921
318.560	11087
318.649	16318
318.738	4569
318.828	2365
318.917	3343
319.006	3031
319.095	5728
319.184	20783
319.273	12876
319.362	7383
319.451	2536
319.540	1823
319.629	3838
319.718	7999
319.807	3036
319.896	6862
319.985	24072
320.074	10552
320.163	2683
320.252	3587
320.341	3558
320.430	3564
320.519	4083
320.608	2953
320.697	2621
320.786	2080
320.875	3476
320.964	3608
321.053	4572
321.142	6394
321.230	8220
321.319	5673
321.408	14014
321.497	6353
321.586	5064
321.675	4949
321.764	5734
321.852	3804
321.941	7556
322.030	6318
322.119	4832
322.207	12431
322.296	8857
322.385	4743
322.474	5529
322.562	15771
322.651	9740
322.740	5277
322.829	7304
322.917	6991
323.006	4345
323.095	4290
323.183	3211
323.272	4573
323.361	6009
323.449	17293
323.538	7468
323.626	10925
323.715	8108
323.804	3652
323.892	10404
323.981	6936
324.069	2653
324.158	5235
324.246	6692
324.335	2857
324.424	4743
324.512	2420
324.601	3956
324.689	7752
324.778	17260
324.866	5729
324.954	1893
325.043	1692
325.131	2437
325.220	4644
325.308	5472
325.397	3686
325.485	3642
325.574	1474
325.662	1746
325.750	1412
325.839	1896
325.927	1666
326.015	1846
326.104	1609
326.192	3075
326.280	1806
326.369	1585
326.457	3032
326.545	4130
326.634	1859
326.722	1383
326.810	1165
326.898	1702
326.987	1712
327.075	3653
327.163	3705
327.251	2477
327.340	6743
327.428	13041
327.516	1858
327.604	2005
327.692	1848
327.781	1531
327.869	2716
327.957	1247
328.045	1153
328.133	1704
328.221	1458
328.309	1609
328.397	2479
328.485	1479
328.574	2240
328.662	7472
328.750	4419
328.838	2164
328.926	1249
329.014	1475
329.102	2051
329.190	5072
329.278	3792
329.366	1073
329.454	995
329.542	1771
329.630	1239
329.718	1600
329.806	2175
329.893	2564
329.981	2558
330.069	4347
330.157	15579
330.245	45271
330.333	28345
330.421	5152
330.509	4447
330.597	9430
330.684	7268
330.772	2791
330.860	4043
330.948	5415
331.036	1749
331.123	1156
331.211	485
331.299	2159
331.387	3859
331.475	7774
331.562	2688
331.650	1468
331.738	1208
331.825	1500
331.913	880
332.001	1575
332.089	1389
332.176	2952
332.264	4786
332.352	5574
332.439	2480
332.527	1370
332.614	1618
332.702	1989
332.790	929
332.877	2288
332.965	5742
333.052	2160
333.140	2690
333.228	4771
333.315	1727
333.403	1858
333.490	3745
333.578	3400
333.665	5958
333.753	3217
333.840	744
333.928	1488
334.015	4521
334.103	6591
334.190	22953
334.278	7294
334.365	3950
334.452	2511
334.540	1826
334.627	2662
334.715	2949
334.802	4303
334.889	17739
334.977	22960
335.064	5360
335.151	2930
335.239	2581
335.326	2815
335.413	10494
335.501	18746
335.588	2542
335.675	1755
335.762	2438
335.850	4871
335.937	4008
336.024	7448
336.111	24971
336.199	16006
336.286	4135
336.373	1573
336.460	1430
336.547	1397
336.635	2498
336.722	934
336.809	1753
336.896	2136
336.983	7463
337.070	18708
337.157	26911
337.245	13646
337.332	9958
337.419	2138
337.506	1801
337.593	1968
337.680	5508
337.767	20480
337.854	6315
337.941	6611
338.028	4778
338.115	1739
338.202	3641
338.289	4527
338.376	12060
338.463	5115
338.550	9849
338.637	13777
338.724	3162
338.811	5243
338.898	1753
338.984	1280
339.071	1601
339.158	2646
339.245	4578
339.332	4036
339.419	2253
339.506	3725
339.593	750
339.679	1258
339.766	1455
339.853	1876
339.940	3452
340.027	1375
340.113	1518
340.200	1788
340.287	999
340.374	1605
340.460	3604
340.547	846
340.634	2315
340.720	8997
340.807	6072
340.894	503
340.980	1114
341.067	1812
341.154	1506
341.240	1586
341.327	5645
341.414	2164
341.500	1908
341.587	2206
341.674	1308
341.760	3081
341.847	4260
341.933	1887
342.020	388
342.106	1479
342.193	1570
342.279	2730
342.366	1410
342.452	3892
342.539	1884
342.625	3300
342.712	9604
342.798	5059
342.885	2159
342.971	1185
343.058	793
343.144	1029
343.230	981
343.317	1095
343.403	348
343.490	1184
343.576	34
343.662	712
343.749	1066
343.835	1334
343.921	2639
344.008	15168
344.094	42117
344.180	11009
344.267	3551
344.353	10803
344.439	13520
344.525	4833
344.612	2178
344.698	1918
344.784	967
344.870	934
344.957	464
345.043	2667
345.129	1152
345.215	3313
345.301	1791
345.387	1030
345.474	607
345.560	833
345.646	10
345.732	1107
345.818	1363
345.904	1303
345.990	995
346.076	1485
346.162	2309
346.249	1961
346.335	647
346.421	1185
346.507	3979
346.593	16515
346.679	4140
346.765	2369
346.851	806
346.937	659
347.023	1766
347.108	1758
347.194	942
347.280	717
347.366	924
347.452	4465
347.538	18464
347.624	16759
347.710	13500
347.796	2682
347.882	1168
347.967	1569
348.053	1788
348.139	1107
348.225	994
348.311	555
348.397	874
348.482	1169
348.568	1723
348.654	1313
348.740	1995
348.825	1080
348.911	2619
348.997	7595
349.083	19713
349.168	3560
349.254	1132
349.340	1786
349.425	1059
349.511	1600
349.597	1245
349.682	2529
349.768	12135
349.854	7398
349.939	1308
350.025	946
350.110	1545
350.196	224
350.282	623
350.367	562
350.453	1730
350.538	1284
350.624	526
350.709	2088
350.795	862
350.880	789
350.966	1601
351.051	1288
351.137	1251
351.222	1424
351.308	3455
351.393	12123
351.479	3167
351.564	1269
351.649	557
351.735	860
351.820	643
351.906	272
351.991	1241
352.076	6975
352.162	11257
352.247	2440
352.332	1470
352.418	2530
352.503	3336
352.588	16017
352.673	13866
352.759	3308
352.844	817
352.929	1289
353.014	2094
353.100	1628
353.185	2119
353.270	2223
353.355	3783
353.441	1731
353.526	1234
353.611	2268
353.696	3272
353.781	2224
353.866	1133
353.952	1617
354.037	2803
354.122	7140
354.207	6161
354.292	2864
354.377	704
354.462	836
354.547	1628
354.632	1585
354.717	1684
354.802	2232
354.887	1190
354.972	1068
355.057	964
355.142	256
355.227	1437
355.312	2347
355.397	4601
355.482	10526
355.567	5505
355.652	4005
355.737	4377
355.822	12976
355.907	12593
355.991	2360
356.076	616
356.161	1010
356.246	664
356.331	1846
356.416	1950
356.501	19644
356.585	22578
356.670	3041
356.755	3515
356.840	2467
356.924	11922
357.009	48067
357.094	22121
357.179	4464
357.263	3213
357.348	3438
357.433	2846
357.517	3031
357.602	1543
357.687	1756
357.771	3702
357.856	16354
357.941	10540
358.025	9538
358.110	47654
358.195	26501
358.279	4024
358.364	2699
358.448	8078
358.533	26998
358.617	20879
358.702	20112
358.787	7647
358.871	3823
358.956	3616
359.040	1041
359.125	934
359.209	1444
359.294	7190
359.378	15551
359.462	4095
359.547	1795
359.631	719
359.716	42
359.800	1202
359.885	2221
359.969	1256
360.053	2260
360.138	1258
360.222	1936
360.306	3695
360.391	3173
360.475	7306
360.559	19227
360.644	10261
360.728	6251
360.812	9188
360.896	32107
360.981	14243
361.065	7821
361.149	1973
361.233	1618
361.318	1253
361.402	1834
361.486	2292
361.570	1074
361.654	2049
361.739	3753
361.823	17498
361.907	34509
361.991	6569
362.075	2989
362.159	5545
362.243	6504
362.327	5588
362.411	9963
362.495	4878
362.580	2616
362.664	1483
362.748	1275
362.832	2582
362.916	3240
363.000	13986
363.084	34308
363.168	41876
363.252	10996
363.336	3424
363.420	4760
363.503	14861
363.587	22870
363.671	4082
363.755	2557
363.839	4598
363.923	1944
364.007	3992
364.091	5250
364.175	4305
364.258	29909
364.342	25202
364.426	34717
364.510	20656
364.594	8436
364.677	6616
364.761	24530
364.845	22589
364.929	6865
365.013	6046
365.096	4843
365.180	5248
365.264	5879
365.347	28439
365.431	14167
365.515	3202
365.598	783
365.682	2178
365.766	3167
365.849	4773
365.933	2203
366.017	3231
366.100	2184
366.184	170
366.267	1627
366.351	1275
366.435	857
366.518	835
366.602	1033
366.685	1293
366.769	620
366.852	3334
366.936	5655
367.019	2023
367.103	2010
367.186	5832
367.270	1634
367.353	-245
367.436	741
367.520	1057
367.603	1572
367.687	1884
367.770	3560
367.853	3180
367.937	7352
368.020	17057
368.104	3635
368.187	2909
368.270	5784
368.353	5044
368.437	4145
368.520	8530
368.603	6284
368.687	8575
368.770	21955
368.853	6307
368.936	4421
369.020	5585
369.103	1050
369.186	1077
369.269	1120
369.352	2807
369.436	4262
369.519	2747
369.602	150
369.685	2526
369.768	383
369.851	1085
369.934	1232
370.018	779
370.101	2274
370.184	3887
370.267	2241
370.350	4270
370.433	6781
370.516	13986
370.599	19688
370.682	4499
370.765	12095
370.848	14244
370.931	23486
371.014	11320
371.097	2462
371.180	1471
371.263	1240
371.346	149
371.429	1720
371.511	116
371.594	2309
371.677	3761
371.760	6121
371.843	3848
371.926	17338
372.009	45463
372.091	17373
372.174	8520
372.257	22895
372.340	10173
372.423	6657
372.505	9960
372.588	3582
372.671	6198
372.754	22296
372.836	14805
372.919	8051
373.002	18709
373.085	6125
373.167	4259
373.250	8996
373.332	23026
373.415	25793
373.498	56481
373.580	23618
373.663	22873
373.746	38720
373.828	9630
373.911	5002
373.993	2900
374.076	15739
374.159	17084
374.241	6242
374.324	19307
374.406	15326
374.489	13419
374.571	46857
374.654	22461
374.736	8510
374.819	25925
374.901	38275
374.983	44006
375.066	8800
375.148	2575
375.231	11889
375.313	28267
375.395	11287
375.478	2742
375.560	1516
375.643	1702
375.725	6860
375.807	31240
375.890	28104
375.972	8924
376.054	5595
376.136	7032
376.219	3823
376.301	8013
376.383	30275
376.465	13697
376.548	5898
376.630	7556
376.712	26751
376.794	14016
376.877	2126
376.959	1012
377.041	920
377.123	3603
377.205	5171
377.287	1059
377.369	948
377.452	671
377.534	1201
377.616	476
377.698	1171
377.780	228
377.862	646
377.944	1624
378.026	-210
378.108	1108
378.190	402
378.272	230
378.354	18
378.436	429
378.518	1699
378.600	6978
378.682	7411
378.764	13825
378.846	11855
378.928	3415
379.010	4492
379.091	2643
379.173	586
379.255	-518
379.337	1273
379.419	4802
379.501	20755
379.583	9689
379.664	1869
379.746	3367
379.828	14447
379.910	19086
379.991	19177
380.073	2598
380.155	1147
380.237	1485
380.318	630
380.400	1068
380.482	2465
380.564	4286
380.645	3590
380.727	3568
380.809	3208
380.890	1914
380.972	514
381.053	964
381.135	1305
381.217	3614
381.298	15704
381.380	8202
381.461	5204
381.543	22200
381.624	34471
381.706	6129
381.787	3593
381.869	3291
381.951	8678
382.032	40400
382.113	31891
382.195	5983
382.276	4289
382.358	7076
382.439	23375
382.521	25157
382.602	41255
382.684	18856
382.765	31209
382.846	35684
382.928	49870
383.009	30596
383.090	16215
383.172	58573
383.253	106435
383.334	38790
383.416	35692
383.497	21329
383.578	8336
383.659	13502
383.741	46676
383.822	141067
383.903	84095
383.984	26579
384.066	47208
384.147	30967
384.228	7579
384.309	4624
384.390	3600
384.471	2961
384.553	2415
384.634	3637
384.715	4637
384.796	1995
384.877	2524
384.958	12241
385.039	16828
385.120	6205
385.201	3024
385.282	3152
385.363	3691
385.444	2974
385.525	5034
385.606	19129
385.687	17772
385.768	4391
385.849	4306
385.930	18220
386.011	38211
386.092	11496
386.173	2304
386.254	1668
386.335	2560
386.416	2533
386.496	8385
386.577	16790
386.658	6048
386.739	2782
386.820	3706
386.901	2565
386.981	2978
387.062	1124
387.143	3095
387.224	12996
387.304	15909
387.385	5522
387.466	2691
387.547	5443
387.627	2742
387.708	4718
387.789	24293
387.869	31780
387.950	10107
388.031	2067
388.111	441
388.192	3549
388.273	7532
388.353	4420
388.434	2056
388.514	3767
388.595	19437
388.676	31615
388.756	16641
388.837	13208
388.917	9513
388.998	1650
389.078	2160
389.159	1873
389.239	512
389.320	2988
389.400	691
389.480	4401
389.561	15431
389.641	9146
389.722	2468
389.802	3822
389.883	5430
389.963	19184
390.043	11878
390.124	2633
390.204	4832
390.284	16595
390.365	9866
390.445	10477
390.525	22057
390.605	20407
390.686	9833
390.766	4567
390.846	2681
390.927	730
391.007	403
391.087	1960
391.167	2725
391.247	1531
391.328	2146
391.408	3247
391.488	4038
391.568	-917
391.648	1001
391.728	3804
391.808	3039
391.888	3197
391.969	7407
392.049	15059
392.129	7592
392.209	6171
392.289	17345
392.369	11207
392.449	8789
392.529	5158
392.609	3699
392.689	4533
392.769	15979
392.849	16445
392.929	9654
393.009	24530
393.089	19529
393.169	13190
393.248	34438
393.328	145145
393.408	182193
393.488	53944
393.568	14173
393.648	7338
393.728	4628
393.807	2770
393.887	3172
393.967	2522
394.047	3513
394.127	3959
394.206	6077
394.286	19707
394.366	90801
394.446	118780
394.525	31420
394.605	7340
394.685	5562
394.764	11555
394.844	19273
394.924	16036
395.003	4159
395.083	2866
395.163	2612
395.242	1308
395.322	2765
395.402	465
395.481	3701
395.561	5781
395.640	22137
395.720	20364
395.799	24052
395.879	20937
395.958	10040
396.038	29430
396.117	119647
396.197	154095
396.276	53200
396.356	16789
396.435	11939
396.515	8235
396.594	7300
396.673	12474
396.753	38487
396.832	140655
396.912	123373
396.991	32099
397.070	9050
397.150	3651
397.229	3704
397.308	5156
397.388	11387
397.467	6109
397.546	2400
397.625	-314
397.705	3887
397.784	2126
397.863	775
397.942	483
398.022	997
398.101	4628
398.180	19935
398.259	12607
398.338	3204
398.417	1029
398.497	171
398.576	625
398.655	60
398.734	314
398.813	222
398.892	3736
398.971	20484
399.050	12136
399.129	1051
399.208	127
399.287	907
399.366	-751
399.445	-201
399.524	750
399.603	-936
399.682	564
399.761	4462
399.840	20555
399.919	20213
399.998	2030
400.077	53
400.156	-676
400.235	1909
400.313	23
400.392	338
400.471	6189
400.550	13372
400.629	2916
400.708	1339
400.786	1150
400.865	4050
400.944	4565
401.023	4266
401.102	-232
401.180	377
401.259	-151
401.338	188
401.416	1065
401.495	277
401.574	1429
401.652	396
401.731	976
401.810	311
401.888	637
401.967	-454
402.046	752
402.124	323
402.203	904
402.281	1546
402.360	998
402.438	6191
402.517	4420
402.596	1199
402.674	1084
402.753	-81
402.831	72
402.910	947
402.988	2501
403.066	16397
403.145	12104
403.223	5099
403.302	13873
403.380	11764
403.459	10333
403.537	3977
403.615	1431
403.694	-1603
403.772	471
403.850	-123
403.929	-64
404.007	-297
404.085	1107
404.164	920
404.242	34
404.320	678
404.398	1899
404.477	4816
404.555	30371
404.633	32442
404.711	5608
404.789	1936
404.868	775
404.946	-439
405.024	-328
405.102	-335
405.180	-130
405.258	-781
405.336	167
405.415	-483
405.493	2228
405.571	2077
405.649	-695
405.727	-851
405.805	1060
405.883	305
405.961	373
406.039	572
406.117	-699
406.195	1035
406.273	4333
406.351	27804
406.429	19362
406.507	3162
406.585	221
406.663	528
406.740	630
406.818	-101
406.896	-501
406.974	186
407.052	142
407.130	13734
407.208	26595
407.285	5279
407.363	-130
407.441	396
407.519	-807
407.596	-57
407.674	1538
407.752	4215
407.830	7936
407.907	3487
407.985	359
408.063	-192
408.141	-573
408.218	1752
408.296	3
408.373	-101
408.451	312
408.529	49
408.606	-139
408.684	-581
408.762	31
408.839	-32
408.917	-1025
408.994	-428
409.072	-440
409.149	-756
409.227	878
409.304	1914
409.382	1284
409.459	921
409.537	2753
409.614	2092
409.692	922
409.769	-243
409.846	1930
409.924	4230
410.001	1687
410.079	1487
410.156	1818
410.233	231
410.311	-826
410.388	52
410.465	502
410.543	616
410.620	1338
410.697	482
410.775	640
410.852	-1204
410.929	654
411.006	2339
411.083	394
411.161	3438
411.238	4165
411.315	1169
411.392	-681
411.469	1161
411.547	2032
411.624	-365
411.701	40
411.778	-582
411.855	1240
411.932	301
412.009	-625
412.086	495
412.163	-165
412.240	1017
412.317	1406
412.394	-73
412.471	542
412.548	-983
412.625	-336
412.702	58
412.779	1352
412.856	1255
412.933	-1058
413.010	-430
413.087	-69
413.164	5531
413.241	11871
413.318	1463
413.395	1593
413.471	1003
413.548	451
413.625	656
413.702	-717
413.779	-22
413.855	-380
413.932	-1089
414.009	-757
414.086	-935
414.162	-57
414.239	508
414.316	4585
414.393	15749
414.469	4995
414.546	-146
414.623	468
414.699	-123
414.776	-256
414.853	-90
414.929	-367
415.006	-305
415.082	-586
415.159	-231
415.236	-240
415.312	564
415.389	638
415.465	914
415.542	738
415.618	-533
415.695	601
415.771	-758
415.848	-1120
415.924	-334
416.000	-122
416.077	553
416.153	-1243
416.230	-1536
416.306	-1535
416.383	-1293
416.459	-486
416.535	-1375
416.612	-1232
416.688	-738
416.764	-440
416.841	-1247
416.917	281
416.993	-465
417.069	-147
417.146	-387
417.222	24
417.298	420
417.374	-473
417.451	7
417.527	505
417.603	-480
417.679	-402
417.755	14
417.831	-595
417.908	-667
417.984	-622
418.060	-1359
418.136	550
418.212	2201
418.288	47
418.364	-565
418.440	-2047
418.516	1014
418.592	907
418.668	2666
418.744	3114
418.820	2341
418.896	-571
418.972	-904
419.048	-288
419.124	1166
419.200	197
419.276	-530
419.352	-1207
419.428	-270
419.504	-1285
419.579	222
419.655	-570
419.731	-503
419.807	1795
419.883	3830
419.959	3090
420.034	452
420.110	426
420.186	8822
420.262	8218
420.337	202
420.413	126
420.489	-57
420.565	-103
420.640	-815
420.716	681
420.792	-996
420.867	491
420.943	-849
421.019	661
421.094	-160
421.170	-405
421.245	-236
421.321	-44
421.397	-709
421.472	439
421.548	1973
421.623	3287
421.699	1506
421.774	514
421.850	1183
421.925	2556
422.001	2427
422.076	2276
422.152	2532
422.227	3871
422.302	6398
422.378	8532
422.453	15954
422.529	38288
422.604	100881
422.679	159525
422.755	129832
422.830	56206
422.905	22586
422.981	11560
423.056	7033
423.131	4691
423.207	3480
423.282	2088
423.357	4506
423.432	2697
423.508	2679
423.583	4356
423.658	4626
423.733	957
423.808	935
423.883	1618
423.959	709
424.034	-24
424.109	708
424.184	-358
424.259	-248
424.334	-907
424.409	-431
424.484	-683
424.559	-298
424.634	-106
424.709	494
424.784	1037
424.859	-101
424.934	29
425.009	5802
425.084	11941
425.159	4370
425.234	358
425.309	-738
425.384	4158
425.459	10816
425.534	3036
425.609	-277
425.683	-477
425.758	-109
425.833	661
425.908	235
425.983	993
426.058	11612
426.132	5195
426.207	178
426.282	1967
426.357	670
426.431	-537
426.506	-324
426.581	-669
426.655	446
426.730	-496
426.805	-2
426.879	-176
426.954	-228
427.029	742
427.103	8643
427.178	25998
427.253	13792
427.327	1143
427.402	1172
427.476	9856
427.551	5677
427.625	962
427.700	-108
427.774	-1308
427.849	-316
427.923	-909
427.998	-338
428.072	-1253
428.147	1648
428.221	7485
428.296	31434
428.370	19842
428.444	1564
428.519	1910
428.593	4543
428.667	3120
428.742	4366
428.816	4260
428.890	17731
428.965	39924
429.039	14521
429.113	6098
429.188	2079
429.262	204
429.336	315
429.410	4671
429.485	3839
429.559	3821
429.633	3063
429.707	643
429.781	2104
429.855	19193
429.930	36628
430.004	16132
430.078	22148
430.152	21494
430.226	36260
430.300	46578
430.374	7483
430.448	1139
430.522	4200
430.596	19310
430.670	14996
430.744	28021
430.818	51324
430.892	11301
430.966	332
431.040	290
431.114	-1028
431.188	-690
431.262	-537
431.336	-336
431.410	1612
431.484	4600
431.557	4582
431.631	-636
431.705	-4
431.779	3652
431.853	25581
431.927	23542
432.000	1918
432.074	513
432.148	-259
432.222	-175
432.295	-98
432.369	-413
432.443	-305
432.516	7567
432.590	27654
432.664	12064
432.737	680
432.811	-1148
432.885	-1170
432.958	-230
433.032	-1261
433.106	-871
433.179	-1469
433.253	-816
433.326	-211
433.400	-1664
433.473	-728
433.547	-1132
433.620	-1125
433.694	-332
433.767	1302
433.841	-823
433.914	-1200
433.988	-582
434.061	-605
434.134	-1171
434.208	-730
434.281	-1303
434.355	-734
434.428	-962
434.501	-1007
434.575	-1054
434.648	-1108
434.721	-1187
434.795	-1748
434.868	-1129
434.941	-1175
435.014	-1299
435.088	-985
435.161	-741
435.234	576
435.307	1038
435.381	149
435.454	-780
435.527	77
435.600	116
435.673	333
435.746	-393
435.819	-239
435.892	-634
435.966	-804
436.039	-758
436.112	-149
436.185	-1368
436.258	-1339
436.331	-1320
436.404	-1533
436.477	-523
436.550	-1177
436.623	-393
436.696	-1695
436.769	-576
436.842	-398
436.915	-1299
436.987	-81
437.060	-320
437.133	-1132
437.206	-1049
437.279	-338
437.352	-742
437.425	-1120
437.498	-911
437.570	736
437.643	841
437.716	-724
437.789	-812
437.861	980
437.934	6541
438.007	3578
438.080	-790
438.152	-572
438.225	122
438.298	9455
438.370	38271
438.443	21006
438.516	6426
438.588	630
438.661	-802
438.734	-456
438.806	-1310
438.879	243
438.951	664
439.024	2470
439.096	15
439.169	-779
439.241	-803
439.314	-1146
439.386	-558
439.459	594
439.531	1745
439.604	-203
439.676	-338
439.749	-754
439.821	-828
439.893	-1188
439.966	-1133
440.038	-991
440.110	-789
440.183	-418
440.255	-1636
440.327	241
440.400	3876
440.472	23228
440.544	18888
440.617	1513
440.689	2200
440.761	2382
440.833	4481
440.905	3278
440.978	-339
441.050	-1236
441.122	-605
441.194	-1556
441.266	-910
441.338	-1040
441.411	-823
441.483	6157
441.555	12757
441.627	2802
441.699	1023
441.771	466
441.843	-415
441.915	-1535
441.987	-728
442.059	-727
442.131	-607
442.203	716
442.275	156
442.347	659
442.419	452
442.491	11071
442.563	38287
442.635	18854
442.706	6645
442.778	6334
442.850	490
442.922	-410
442.994	357
443.066	662
443.137	497
443.209	54
443.281	862
443.353	2918
443.425	13995
443.496	62497
443.568	72008
443.640	27617
443.711	3952
443.783	985
443.855	537
443.926	-63
443.998	-206
444.070	16
444.141	140
444.213	975
444.285	1182
444.356	260
444.428	980
444.499	424
444.571	-967
444.642	3
444.714	-495
444.785	862
444.857	948
444.928	4254
445.000	2847
445.071	2778
445.143	4150
445.214	1669
445.285	3249
445.357	11802
445.428	35892
445.500	98974
445.571	70599
445.642	37126
445.714	12729
445.785	9850
445.856	2148
445.928	1165
445.999	1295
446.070	1467
446.141	921
446.213	1790
446.284	-79
446.355	500
446.426	-733
446.497	-248
446.569	813
446.640	1125
446.711	1500
446.782	-459
446.853	-533
446.924	769
446.995	179
447.066	510
447.138	329
447.209	469
447.280	-887
447.351	-1060
447.422	-624
447.493	-415
447.564	-537
447.635	190
447.706	-518
447.777	-472
447.847	-1508
447.918	-1366
447.989	-17
448.060	364
448.131	2813
448.202	2699
448.273	1012
448.344	715
448.414	-16
448.485	-58
448.556	-652
448.627	-994
448.698	-142
448.768	-1479
448.839	-859
448.910	784
448.981	1067
449.051	285
449.122	-543
449.193	-841
449.263	-1921
449.334	-928
449.405	-502
449.475	1987
449.546	661
449.616	475
449.687	1903
449.758	315
449.828	-520
449.899	-317
449.969	-427
450.040	-743
450.110	439
450.181	-541
450.251	-168
450.322	-846
450.392	-385
450.463	-841
450.533	-1450
450.604	-387
450.674	-1415
450.744	-119
450.815	-614
450.885	2
450.955	-383
451.026	-929
451.096	-1055
451.166	82
451.237	1088
451.307	6131
451.377	2323
451.447	-693
451.518	-628
451.588	-226
451.658	-470
451.728	211
451.799	4621
451.869	7772
451.939	2046
452.009	-218
452.079	-1458
452.149	-975
452.219	748
452.289	5922
452.360	6013
452.430	444
452.500	-814
452.570	914
452.640	1037
452.710	4502
452.780	10037
452.850	4677
452.920	4129
452.990	1360
453.060	493
453.129	82
453.199	1015
453.269	5550
453.339	17631
453.409	29759
453.479	24667
453.549	39788
453.619	46152
453.688	21114
453.758	3044
453.828	-9
453.898	-150
453.968	-483
454.037	-180
454.087	-229
454.107	-254
454.168	-293
454.177	-308
454.247	-107
454.249	-132
454.316	-948
454.330	-848
454.386	-517
454.411	617
454.456	2456
454.492	4132
454.525	5630
454.574	2901
454.595	1713
454.655	210
454.665	-31
454.734	-10
454.736	23
454.804	887
454.817	1809
454.873	5382
454.898	6427
454.943	8322
454.979	5086
455.013	2144
455.060	701
455.082	106
455.141	508
455.152	523
455.221	4546
455.222	4604
455.291	8370
455.303	7602
455.360	4128
455.384	3064
455.430	1225
455.465	1618
455.499	1838
455.546	4320
455.569	5371
455.627	4393
455.638	4239
455.707	190
455.708	195
455.777	-327
455.789	-373
455.846	-535
455.869	-443
455.916	-221
455.950	-86
455.985	-78
456.031	-402
456.054	-446
456.112	1
456.124	31
456.193	-312
456.193	-319
456.262	-68
456.274	50
456.332	421
456.355	205
456.401	-158
456.436	4
456.470	80
456.516	-159
456.540	-273
456.597	-191
456.609	-166
456.678	-478
456.678	-486
456.747	170
456.759	3
456.817	-898
456.840	-916
456.886	-850
456.920	-559
456.955	-325
457.001	-326
457.024	-346
457.082	71
457.093	134
457.162	800
457.163	804
457.232	470
457.243	466
457.301	242
457.324	-19
457.370	-220
457.405	146
457.439	277
457.485	-111
457.508	-285
457.566	191
457.577	292
457.646	144
457.647	150
457.715	1005
457.727	1237
457.784	2185
457.808	2880
457.853	3878
457.889	5368
457.922	6195
457.969	3978
457.991	3513
458.050	3324
458.060	3301
458.129	7275
458.130	7361
458.198	8516
458.211	7639
458.267	3954
458.292	2830
458.336	1514
458.372	962
458.405	1069
458.453	1726
458.474	2359
458.533	6167
458.543	6637
458.611	13081
458.614	13205
458.680	10858
458.694	8774
458.749	3053
458.775	2003
458.818	991
458.855	865
458.887	660
458.936	631
458.955	625
459.016	123
459.024	67
459.093	810
459.097	790
459.162	615
459.177	669
459.230	645
459.257	783
459.299	873
459.338	1032
459.368	1176
459.418	1362
459.437	1397
459.499	1307
459.505	1291
459.574	384
459.579	402
459.643	928
459.659	901
459.711	619
459.740	692
459.780	806
459.820	632
459.849	518
459.900	621
459.917	733
459.981	1015
459.986	1002
460.054	826
460.061	840
460.123	1337
460.141	1395
460.191	1333
460.222	1291
460.260	1335
460.302	1696
460.328	1572
460.382	1130
460.397	1207
460.462	710
460.465	685
460.534	1213
460.543	1241
460.602	3652
460.623	4738
460.671	7849
460.703	11452
460.739	11674
460.783	10722
460.808	10210
460.864	3394
460.876	2504
460.944	1351
460.945	1334
461.013	955
461.024	911
461.081	935
461.104	1098
461.150	1059
461.184	728
461.218	803
461.264	1026
461.286	943
461.345	564
461.355	543
461.423	1020
461.425	1015
461.491	611
461.505	645
461.559	1919
461.585	2416
461.628	3671
461.665	5315
461.696	6433
461.745	9325
461.764	8709
461.825	3133
461.832	3006
461.901	1822
461.905	1837
461.969	827
461.985	613
462.037	1364
462.065	1730
462.105	1283
462.145	921
462.173	1765
462.225	3184
462.241	3311
462.305	4948
462.310	4901
462.378	3771
462.385	3417
462.446	1508
462.465	1143
462.514	1000
462.545	1136
462.582	1037
462.625	1165
462.650	1317
462.705	1164
462.718	1087
462.785	653
462.786	668
462.854	1911
462.865	2128
462.922	2520
462.945	2840
462.990	2676
463.025	1886
463.058	1504
463.104	1177
463.126	1038
463.184	820
463.194	839
463.262	1009
463.264	1020
463.330	1460
463.344	1493
463.398	1407
463.424	1480
463.466	1362
463.504	1127
463.533	1392
463.583	1969
463.601	1954
463.663	1475
463.669	1524
463.737	2475
463.743	2561
463.805	3215
463.823	3395
463.873	5615
463.903	7173
463.940	7598
463.982	8369
464.008	7220
464.062	3671
464.076	3559
464.142	2090
464.144	2043
464.211	1450
464.221	1334
464.279	1385
464.301	1498
464.347	1667
464.381	1806
464.414	1849
464.461	1897
464.482	2182
464.540	2921
464.550	2903
464.617	2768
464.620	2755
464.685	2242
464.699	2138
464.753	2761
464.779	3077
464.820	2828
464.859	2683
464.888	2877
464.938	3057
464.956	3136
465.018	3524
465.023	3521
465.091	3274
465.098	3241
465.158	2885
465.177	2811
465.226	2948
465.257	3037
465.293	2838
465.336	2488
465.361	2898
465.416	3940
465.428	4097
465.495	4935
465.496	4960
465.563	7762
465.575	8284
465.631	10143
465.654	11066
465.698	7950
465.734	4736
465.765	4017
465.813	2867
465.833	2730
465.893	2787
465.900	2732
465.968	2288
465.972	2250
466.035	3130
466.052	3366
466.102	2968
466.131	2743
466.170	3051
466.210	3352
466.237	3393
466.290	3501
466.304	3605
466.369	3936
466.372	3936
466.439	3830
466.449	3808
466.506	4490
466.528	4741
466.573	5681
466.607	6383
466.641	9021
466.687	12712
466.708	13844
466.766	17064
466.775	15934
466.842	7199
466.845	6772
466.909	5757
466.925	5566
466.977	5137
467.004	4923
467.044	4731
467.083	4567
467.111	4851
467.163	5342
467.178	5451
467.242	5912
467.245	5883
467.312	5156
467.321	5056
467.379	4603
467.400	4430
467.446	5484
467.480	6238
467.559	4867
467.638	4405
467.717	3250
467.796	4974
467.875	4476
467.955	4604
468.034	5718
468.113	12427
468.192	20182
468.271	6213
468.350	3415
468.429	4615
468.508	5235
468.588	4202
468.667	3619
468.746	4184
468.825	3998
468.904	2399
468.983	4378
469.062	6138
469.141	6806
469.220	3636
469.299	3047
469.378	3264
469.456	5019
469.535	4347
469.614	3758
469.693	3982
469.772	4923
469.851	6939
469.930	4525
470.009	4417
470.088	2797
470.166	4779
470.245	5109
470.324	5853
470.403	3495
470.482	3933
470.560	2985
470.639	3330
470.718	4957
470.797	4100
470.875	4062
470.954	5330
471.033	5276
471.111	3494
471.190	2286
471.269	2752
471.347	3555
471.426	3085
471.505	3635
471.583	3637
471.662	3458
471.740	3564
471.819	2845
471.898	3284
471.976	2621
472.055	3168
472.133	3027
472.212	5136
472.290	3973
472.369	3729
472.447	2415
472.526	2783
472.604	2639
472.683	3209
472.761	3409
472.839	3922
472.918	2509
472.996	2956
473.075	3662
473.153	3467
473.231	2932
473.310	3364
473.388	3126
473.466	3045
473.545	3413
473.623	5002
473.701	4318
473.780	3299
473.858	2090
473.936	4701
474.014	2608
474.093	2998
474.171	4848
474.249	6762
474.327	4601
474.405	2848
474.484	2221
474.562	2977
474.640	2645
474.718	2993
474.796	3533
474.874	3506
474.952	2827
475.030	2620
475.108	3406
475.187	4123
475.265	3184
475.343	4476
475.421	4618
475.499	3482
475.577	2847
475.655	3819
475.733	6792
475.811	11258
475.889	10048
475.966	7646
476.044	3134
476.122	3664
476.200	3556
476.278	3072
476.356	3530
476.434	2332
476.512	3729
476.590	4339
476.667	2585
476.745	2875
476.823	3067
476.901	2456
476.979	3019
477.056	3014
477.134	2364
477.212	3600
477.290	2708
477.367	2693
477.445	2371
477.523	2351
477.601	2288
477.678	2684
477.756	3199
477.834	3782
477.911	1973
477.989	3340
478.066	2613
478.144	2964
478.222	2928
478.299	4077
478.377	3350
478.454	2340
478.532	2257
478.609	2841
478.687	3109
478.764	2321
478.842	1911
478.919	2601
478.997	2687
479.074	2253
479.152	2138
479.229	3395
479.307	2514
479.384	2449
479.461	2225
479.539	2942
479.616	3092
479.694	2937
479.771	2872
479.848	3023
479.926	2759
480.003	4442
480.080	2013
480.157	2444
480.235	2371
480.312	2099
480.389	2562
480.467	3486
480.544	4869
480.621	3544
480.698	2889
480.775	2618
480.853	2480
480.930	2846
481.007	2584
481.084	3217
481.161	3343
481.238	3688
481.315	2602
481.392	2442
481.470	2891
481.547	3129
481.624	2813
481.701	2226
481.778	2201
481.855	2127
481.932	3478
482.009	6158
482.086	4843
482.163	3417
482.240	2813
482.317	5038
482.393	4462
482.470	3175
482.547	2001
482.624	2099
482.701	2835
482.778	2975
482.855	3052
482.932	2838
483.009	1776
483.085	2915
483.162	3200
483.239	3385
483.316	1910
483.393	2555
483.469	1879
483.546	2962
483.623	2511
483.699	2495
483.776	2205
483.853	2491
483.930	3892
484.006	9655
484.083	17512
484.160	8762
484.236	12604
484.313	10605
484.389	6569
484.466	7262
484.543	4632
484.619	6087
484.696	7662
484.772	6479
484.849	7263
484.925	6517
485.002	6370
485.078	7269
485.155	6469
485.231	5626
485.308	4861
485.384	5736
485.461	6814
485.537	10220
485.614	12578
485.690	6182
485.766	5030
485.843	6410
485.919	8358
485.995	9211
486.072	5094
486.148	5174
486.224	4702
486.301	6222
486.377	6577
486.453	6559
486.530	6957
486.606	7487
486.682	8260
486.758	10198
486.835	10927
486.911	8828
486.987	14243
487.063	14973
487.139	17561
487.215	12993
487.292	7577
487.368	6196
487.444	5147
487.520	8976
487.596	7799
487.672	10569
487.748	24173
487.824	36532
487.900	13278
487.976	6412
488.052	6342
488.128	9507
488.204	5818
488.280	5744
488.356	5998
488.432	11413
488.508	18739
488.584	6852
488.660	4944
488.736	5274
488.812	5116
488.888	7650
488.964	8109
489.039	17551
489.115	26339
489.191	15717
489.267	5198
489.343	5572
489.418	4230
489.494	4265
489.570	3682
489.646	5659
489.722	4781
489.797	4867
489.873	6029
489.949	13024
490.024	10956
490.100	4475
490.176	4264
490.251	5342
490.327	7078
490.403	4921
490.478	4141
490.554	4016
490.629	3640
490.705	4267
490.781	3932
490.856	4202
490.932	4592
491.007	4693
491.083	3970
491.158	3931
491.234	4915
491.309	10627
491.385	10267
491.460	3985
491.536	4177
491.611	3405
491.686	4694
491.762	6134
491.837	11529
491.913	18056
491.988	24828
492.063	33231
492.139	9114
492.214	6162
492.289	4156
492.365	3674
492.440	4125
492.515	3872
492.590	3478
492.666	3339
492.741	4101
492.816	5983
492.891	3843
492.967	3699
493.042	2795
493.117	3348
493.192	2445
493.267	3880
493.342	4124
493.418	5653
493.493	3167
493.568	3212
493.643	3379
493.718	3282
493.793	5235
493.868	7006
493.943	4558
494.018	3574
494.093	2922
494.168	2958
494.243	2441
494.318	2386
494.393	2872
494.468	3259
494.543	1851
494.618	2898
494.693	2403
494.768	2479
494.842	2867
494.917	2817
494.992	2621
495.067	2292
495.142	1498
495.217	2922
495.292	3083
495.366	3063
495.441	3866
495.516	5557
495.591	6733
495.665	23385
495.740	57675
495.815	23386
495.890	3966
495.964	3494
496.039	5487
496.114	3384
496.188	3816
496.263	3886
496.338	3953
496.412	4596
496.487	5436
496.561	5486
496.636	4735
496.710	4913
496.785	4820
496.860	5415
496.934	3910
497.009	4695
497.083	4335
497.158	4980
497.232	5253
497.307	6579
497.381	6269
497.455	7019
497.530	8488
497.604	6443
497.679	6866
497.753	10916
497.827	14163
497.902	14681
497.976	15462
498.050	27092
498.125	94119
498.199	101545
498.273	21832
498.348	18107
498.422	13039
498.496	12278
498.570	10094
498.645	7651
498.719	6813
498.793	8976
498.867	11405
498.941	14260
499.016	33862
499.090	101180
499.164	37732
499.238	6728
499.312	4544
499.386	6830
499.460	4825
499.534	5061
499.609	5015
499.683	9009
499.757	7955
499.831	15407
499.905	63439
499.979	62830
500.053	10147
500.127	9416
500.201	6462
500.275	4920
500.349	4042
500.422	5604
500.496	7991
500.570	15525
500.644	33875
500.718	67409
500.792	15657
500.866	5066
500.940	5667
501.013	6152
501.087	4478
501.161	8823
501.235	9394
501.309	22322
501.382	55277
501.456	52138
501.530	12259
501.603	18991
501.677	7561
501.751	2723
501.825	5731
501.898	8679
501.972	22099
502.046	15882
502.119	4872
502.193	10177
502.266	25800
502.340	13212
502.413	10983
502.487	21889
502.561	11539
502.634	5025
502.708	3585
502.781	3488
502.855	2461
502.928	2650
503.002	2631
503.075	2672
503.149	2000
503.222	3478
503.295	3088
503.369	4042
503.442	5093
503.516	15858
503.589	40695
503.662	28043
503.736	8866
503.809	20430
503.882	15783
503.956	24392
504.029	22789
504.102	15385
504.175	20890
504.249	7078
504.322	3811
504.395	4505
504.468	2787
504.542	2799
504.615	2064
504.688	2819
504.761	2355
504.834	3929
504.907	3485
504.980	6658
505.053	3050
505.127	2686
505.200	5350
505.273	4200
505.346	2479
505.419	2303
505.492	2641
505.565	1516
505.638	2120
505.711	1644
505.784	1253
505.857	1665
505.930	2761
506.003	2113
506.076	3484
506.149	2602
506.221	2764
506.294	4642
506.367	7383
506.440	31289
506.513	17991
506.586	3993
506.659	1974
506.731	2537
506.804	2339
506.877	3358
506.950	3016
507.022	2839
507.095	2256
507.168	4403
507.241	3056
507.313	1223
507.386	1214
507.459	4069
507.531	2152
507.604	1994
507.677	1974
507.749	985
507.822	3092
507.894	4918
507.967	5950
508.040	3929
508.112	3180
508.185	3948
508.257	1784
508.330	5440
508.402	2217
508.475	3068
508.547	2578
508.620	3836
508.692	5039
508.765	3451
508.837	2284
508.909	3373
508.982	2390
509.054	3079
509.127	2926
509.199	2654
509.271	2052
509.344	2477
509.416	1439
509.488	2236
509.560	2106
509.633	2471
509.705	3539
509.777	3214
509.849	2990
509.922	1912
509.994	1682
510.066	3324
510.138	1123
510.210	6433
510.283	5184
510.355	4191
510.427	3277
510.499	3640
510.571	3432
510.643	2483
510.715	4868
510.787	4192
510.859	4134
510.931	3927
511.003	4684
511.076	5002
511.148	2550
511.219	1938
511.291	4826
511.363	5756
511.435	2702
511.507	2683
511.579	3813
511.651	2636
511.723	1912
511.795	2735
511.867	1743
511.939	3326
512.010	4829
512.082	5564
512.154	1982
512.226	3268
512.298	4405
512.369	6266
512.441	4520
512.513	5325
512.585	2671
512.656	3750
512.728	4344
512.800	4314
512.871	3411
512.943	2528
513.015	2609
513.086	2477
513.158	3140
513.230	3658
513.301	3378
513.373	6084
513.444	2564
513.516	2990
513.588	2185
513.659	3613
513.731	3849
513.802	2785
513.874	7122
513.945	11740
514.016	4781
514.088	3190
514.159	1952
514.231	4700
514.302	5916
514.374	4127
514.445	2976
514.516	8944
514.588	5366
514.659	4976
514.730	7063
514.802	7121
514.873	3314
514.944	6382
515.016	3649
515.087	4900
515.158	4920
515.229	8189
515.301	5140
515.372	7836
515.443	4520
515.514	3541
515.585	2493
515.656	3506
515.728	2561
515.799	2415
515.870	2357
515.941	2745
516.012	1977
516.083	3938
516.154	4654
516.225	6834
516.296	5354
516.367	3647
516.438	4983
516.509	6781
516.580	9269
516.651	25320
516.722	88927
516.793	42832
516.864	9217
516.935	9264
517.006	10490
517.077	13805
517.148	28400
517.219	93916
517.289	154427
517.360	43700
517.431	15764
517.502	5230
517.573	4839
517.643	4783
517.714	3768
517.785	5713
517.856	4673
517.926	7563
517.997	8208
518.068	9721
518.138	13055
518.209	18923
518.280	58391
518.350	239299
518.421	90318
518.492	11799
518.562	5819
518.633	6828
518.703	5017
518.774	10042
518.845	20937
518.915	23654
518.986	8811
519.056	7383
519.127	11044
519.197	15491
519.268	34237
519.338	25640
519.408	6091
519.479	7917
519.549	5546
519.620	5566
519.690	3415
519.760	3205
519.831	3423
519.901	4454
519.971	2584
520.042	2642
520.112	3661
520.182	4928
520.253	5465
520.323	3643
520.393	6312
520.463	12705
520.534	5422
520.604	18336
520.674	7079
520.744	6880
520.814	16937
520.885	16506
520.955	10241
521.025	40936
521.095	16239
521.165	5379
521.235	3411
521.305	2879
521.375	3476
521.445	3509
521.515	3848
521.585	5749
521.655	3766
521.725	4404
521.795	3860
521.865	1900
521.935	5703
522.005	2954
522.075	1948
522.145	4162
522.215	2425
522.285	5030
522.355	5596
522.424	10931
522.494	8544
522.564	5525
522.634	8642
522.704	28662
522.774	11192
522.843	4134
522.913	3012
522.983	4096
523.053	2480
523.122	4181
523.192	4090
523.262	14080
523.331	14126
523.401	3702
523.471	2718
523.540	3560
523.610	867
523.680	3193
523.749	1426
523.819	3020
523.888	2619
523.958	2250
524.027	2485
524.097	3387
524.166	2778
524.236	2470
524.305	3618
524.375	2476
524.444	1619
524.514	4058
524.583	2081
524.653	2171
524.722	3651
524.791	2452
524.861	3796
524.930	1792
524.999	2783
525.069	3900
525.138	2378
525.207	3871
525.277	3015
525.346	2299
525.415	3027
525.484	3034
525.554	2664
525.623	2926
525.692	1955
525.761	3463
525.830	3712
525.900	4556
525.969	5582
526.038	8794
526.107	13518
526.176	44312
526.245	38174
526.314	14087
526.383	23446
526.452	32477
526.522	52168
526.591	58472
526.660	18249
526.729	9924
526.797	11368
526.867	19709
526.935	85883
527.004	135469
527.073	78230
527.142	7313
527.211	4752
527.280	4529
527.349	3841
527.418	1671
527.487	2426
527.555	2714
527.624	2561
527.693	1880
527.762	2507
527.831	1433
527.899	2211
527.968	2297
528.037	1254
528.106	2842
528.174	4435
528.243	4486
528.312	4979
528.380	7376
528.449	2006
528.518	3915
528.586	702
528.655	2894
528.723	2226
528.792	923
528.861	1553
528.929	371
528.998	2548
529.066	1593
529.135	1307
529.203	1768
529.272	496
529.340	3376
529.409	2716
529.477	950
529.545	1112
529.614	4959
529.682	1711
529.751	2524
529.819	4912
529.887	2915
529.956	1485
530.024	3102
530.092	509
530.161	3162
530.229	2562
530.297	1813
530.365	3124
530.434	1837
530.502	976
530.570	2516
530.638	471
530.707	2894
530.775	2982
530.843	1371
530.911	1917
530.979	2424
531.047	1271
531.115	2761
531.183	1434
531.252	2498
531.320	1290
531.388	2180
531.456	1736
531.524	524
531.592	2469
531.660	3849
531.728	1099
531.796	1090
531.864	2157
531.932	2497
532.000	1858
532.067	1726
532.135	2779
532.203	3722
532.271	1829
532.339	3984
532.407	11300
532.475	8396
532.542	3141
532.610	4534
532.678	4367
532.746	20771
532.814	58464
532.881	15418
532.949	2809
533.017	2794
533.084	2498
533.152	2525
533.220	1490
533.287	1433
533.355	2203
533.423	2658
533.490	1961
533.558	1865
533.625	2365
533.693	2134
533.761	2536
533.828	3069
533.896	1299
533.963	5201
534.031	4962
534.098	7458
534.166	2620
534.233	2044
534.300	2009
534.368	2267
534.435	1471
534.503	3388
534.570	3285
534.637	2672
534.705	2409
534.772	3793
534.840	4949
534.907	20628
534.974	28423
535.041	4340
535.109	2592
535.176	1961
535.243	2218
535.310	2270
535.378	1456
535.445	2669
535.512	1282
535.579	2233
535.646	766
535.714	1774
535.781	3506
535.848	2665
535.915	2326
535.982	1663
536.049	2329
536.116	3339
536.183	1450
536.250	2034
536.317	1524
536.384	3605
536.451	4267
536.518	4523
536.585	1857
536.652	5058
536.719	4943
536.786	3876
536.853	2678
536.920	5355
536.987	8197
537.053	6817
537.120	27272
537.187	26750
537.254	2892
537.321	1877
537.388	3567
537.454	1535
537.521	2359
537.588	1899
537.654	3030
537.721	3085
537.788	3346
537.855	2747
537.921	2704
537.988	3017
538.055	3383
538.121	2595
538.188	2973
538.254	4065
538.321	6883
538.388	4784
538.454	2430
538.521	2727
538.587	1756
538.654	2493
538.720	2410
538.787	2345
538.853	1782
538.920	3209
538.986	2325
539.053	2548
539.119	3542
539.185	2992
539.252	3882
539.318	4343
539.385	4640
539.451	2699
539.517	4167
539.583	5475
539.650	8179
539.716	22060
539.782	7543
539.849	2859
539.915	3748
539.981	2580
540.047	2871
540.114	4305
540.180	3374
540.246	4083
540.312	3918
540.378	7159
540.444	8667
540.510	9168
540.576	24130
540.643	9403
540.709	1817
540.775	3183
540.841	2589
540.907	4385
540.973	6981
541.039	5339
541.105	5773
541.171	2941
541.237	2997
541.303	4520
541.369	5103
541.435	4221
541.500	5915
541.566	4611
541.632	3253
541.698	2972
541.764	3178
541.830	3005
541.896	1319
541.961	2928
542.027	2806
542.093	2970
542.159	2958
542.224	2549
542.290	5099
542.356	6062
542.421	8637
542.487	5112
542.553	2967
542.618	2898
542.684	3733
542.750	3967
542.815	4567
542.881	6078
542.947	20170
543.012	17154
543.078	2141
543.143	2429
543.209	3752
543.274	3294
543.340	4336
543.405	8048
543.471	13220
543.536	4343
543.602	3009
543.667	1853
543.732	3300
543.798	1840
543.863	3747
543.928	3117
543.994	1958
544.059	3715
544.124	3152
544.190	2460
544.255	3884
544.320	3687
544.386	2356
544.451	4941
544.516	4298
544.581	4783
544.646	12221
544.712	22695
544.777	5364
544.842	4396
544.907	3919
544.972	4293
545.037	3020
545.102	4965
545.168	4076
545.233	5285
545.298	5853
545.363	4299
545.428	6005
545.493	8586
545.558	16710
545.623	8692
545.688	4376
545.753	5163
545.818	3251
545.883	4913
545.947	3826
546.012	4317
546.077	4261
546.142	4999
546.207	3574
546.272	5505
546.337	5305
546.401	5093
546.466	4679
546.531	3560
546.596	5064
546.661	4931
546.725	5651
546.790	5667
546.855	5329
546.919	4805
546.984	5926
547.049	6097
547.113	7467
547.178	6381
547.243	8054
547.307	9963
547.372	9366
547.436	9666
547.501	8043
547.565	9583
547.630	9878
547.695	9096
547.759	9743
547.823	9187
547.888	8335
547.952	10093
548.017	10112
548.081	10414
548.146	10884
548.210	11447
548.274	9955
548.339	10392
548.403	10092
548.468	9070
548.532	8891
548.596	8479
548.660	8448
548.725	10118
548.789	10352
548.853	12736
548.917	9409
548.982	11649
549.046	11421
549.110	8407
549.174	8717
549.238	8857
549.303	8954
549.367	10768
549.431	9766
549.495	10543
549.559	8742
549.623	11601
549.687	11696
549.751	14794
549.815	13156
549.879	13919
549.943	12316
550.007	14325
550.071	13607
550.135	14881
550.199	12154
550.263	12468
550.327	13104
550.391	14009
550.455	12870
550.519	13966
550.582	15331
550.646	16820
550.710	17872
550.774	16497
550.838	15386
550.901	16001
550.965	17477
551.029	17621
551.093	18806
551.156	21230
551.220	26134
551.284	31917
551.347	22653
551.411	25685
551.475	26591
551.538	18089
551.602	16748
551.666	15253
551.729	12952
551.793	14735
551.856	14731
551.920	12810
551.983	14107
552.047	13744
552.110	13769
552.174	13518
552.237	13975
552.301	13829
552.364	13213
552.428	12927
552.491	13888
552.554	14747
552.618	13716
552.681	14075
552.745	13340
552.808	15961
552.871	18671
552.934	15560
552.998	13474
553.061	13850
553.124	13412
553.187	13745
553.251	13991
553.314	14148
553.377	12939
553.440	15227
553.503	16118
553.567	17395
553.630	14354
553.693	14630
553.756	14218
553.819	14288
553.882	13120
553.945	14338
554.008	14098
554.071	14187
554.134	14308
554.197	13675
554.260	12969
554.323	14474
554.386	13936
554.449	14493
554.512	14927
554.575	14691
554.638	13416
554.701	13726
554.764	14553
554.827	13106
554.889	12027
554.952	12764
555.015	11292
555.078	12462
555.141	13026
555.203	12952
555.266	12299
555.329	12298
555.391	11279
555.454	11377
555.517	11957
555.580	11191
555.642	10309
555.705	10260
555.768	11124
555.830	11174
555.893	10518
555.955	10747
556.018	10242
556.080	9675
556.143	10245
556.206	10092
556.268	10850
556.330	10695
556.393	9321
556.455	10343
556.518	10941
556.580	11236
556.643	8466
556.705	8960
556.767	7072
556.830	9346
556.892	8920
556.955	10762
557.017	9469
557.079	8647
557.142	8604
557.204	9243
557.266	12503
557.328	11521
557.391	7463
557.453	7709
557.515	7441
557.577	8950
557.639	9334
557.701	8506
557.764	6794
557.826	8639
557.888	8891
557.950	8371
558.012	9010
558.074	11233
558.136	17405
558.198	39754
558.260	19473
558.322	8940
558.384	9420
558.446	11399
558.508	11861
558.570	15198
558.632	19403
558.694	27573
558.756	31039
558.818	71508
558.880	187667
558.942	68973
559.003	42890
559.065	27205
559.127	11565
559.189	13017
559.251	13764
559.312	18885
559.374	34474
559.436	114664
559.498	68865
559.559	13734
559.621	12207
559.683	15947
559.744	21277
559.806	52316
559.868	88918
559.929	23050
559.991	13647
560.052	16930
560.114	39104
560.176	31545
560.237	23021
560.299	39760
560.360	13291
560.422	8458
560.483	7087
560.545	7259
560.606	6702
560.667	6350
560.729	6578
560.790	6512
560.852	7117
560.913	6232
560.974	6730
561.036	6022
561.097	5764
561.158	6643
561.220	6838
561.281	6311
561.342	6398
561.403	8152
561.465	7833
561.526	14556
561.587	18726
561.648	7846
561.709	6195
561.771	6747
561.832	6378
561.893	7476
561.954	6319
562.015	6441
562.076	6542
562.137	6946
562.198	6464
562.259	7378
562.320	6155
562.381	7387
562.442	8297
562.503	8871
562.564	7219
562.625	6621
562.686	6500
562.747	7564
562.808	8019
562.869	7692
562.930	8319
562.991	8281
563.051	7094
563.112	7567
563.173	6473
563.234	6373
563.294	6627
563.355	6715
563.416	7127
563.477	7505
563.537	6824
563.598	8052
563.659	6560
563.720	7075
563.780	7774
563.841	8808
563.901	7487
563.962	8318
564.023	7292
564.083	7715
564.144	7153
564.204	7776
564.265	8292
564.325	8644
564.386	10955
564.446	12084
564.507	7189
564.567	7763
564.628	6687
564.688	7278
564.749	7413
564.809	8702
564.869	8396
564.930	8057
564.990	7476
565.050	7419
565.111	8007
565.171	7714
565.231	7183
565.292	7738
565.352	7825
565.412	8346
565.472	7076
565.532	8472
565.593	7418
565.653	7789
565.713	8438
565.773	9480
565.833	8364
565.893	11038
565.953	8432
566.013	9059
566.074	9529
566.134	11305
566.194	13237
566.254	15070
566.314	10203
566.374	9765
566.434	10051
566.494	9228
566.554	10261
566.614	9979
566.673	10550
566.733	11775
566.793	11893
566.853	12609
566.913	12467
566.973	13487
567.033	13537
567.092	12602
567.152	11800
567.212	12910
567.272	12207
567.331	14341
567.391	13384
567.451	15365
567.511	15839
567.570	17203
567.630	13501
567.690	13170
567.749	13908
567.809	15103
567.868	15935
567.928	18174
567.988	20769
568.047	24180
568.107	28405
568.166	37513
568.226	54771
568.285	75980
568.345	64333
568.404	52925
568.464	44162
568.523	43603
568.582	43118
568.642	49499
568.701	57895
568.761	80538
568.820	122913
568.879	124265
568.939	90829
568.998	68449
569.057	52622
569.116	44112
569.176	35246
569.235	29564
569.294	26189
569.353	23407
569.413	20768
569.472	20388
569.531	17472
569.590	16375
569.649	16227
569.708	15062
569.767	15635
569.827	15736
569.886	14666
569.945	12751
570.004	12661
570.063	12272
570.122	11155
570.181	13354
570.240	12072
570.299	13804
570.358	13212
570.417	11279
570.475	10430
570.534	11366
570.593	10964
570.652	10779
570.711	11673
570.770	10627
570.829	10506
570.887	11189
570.946	10890
571.005	10474
571.064	9817
571.122	10985
571.181	11101
571.240	10396
571.299	9952
571.357	10388
571.416	10073
571.475	11003
571.533	11145
571.592	10215
571.650	10397
571.709	9471
571.768	10071
571.826	9962
571.885	8650
571.943	10125
572.002	9266
572.060	9393
572.119	9286
572.177	10540
572.236	9662
572.294	9232
572.352	8765
572.411	9233
572.469	8556
572.528	9591
572.586	9788
572.644	10305
572.703	13172
572.761	10633
572.819	10298
572.877	9480
572.936	9277
572.994	8978
573.052	9805
573.110	9759
573.169	9580
573.227	9246
573.285	9087
573.343	8577
573.401	9002
573.459	9028
573.517	8804
573.576	9402
573.634	9606
573.692	10719
573.750	9719
573.808	8706
573.866	8890
573.924	10873
573.982	10786
574.040	10211
574.098	8638
574.155	9804
574.213	8839
574.271	9188
574.329	9178
574.387	8034
574.445	9349
574.503	9131
574.560	8047
574.618	9559
574.676	8079
574.734	9565
574.792	9070
574.849	9522
574.907	7577
574.965	8701
575.022	8446
575.080	8368
575.138	9282
575.195	9728
575.253	8705
575.311	9775
575.368	9108
575.426	8228
575.483	9257
575.541	9574
575.598	8619
575.656	8797
575.713	8630
575.771	9489
575.828	10086
575.886	9420
575.943	9365
576.001	9602
576.058	10312
576.115	10457
576.173	10797
576.230	10859
576.287	11249
576.345	11287
576.402	10092
576.459	10140
576.517	9088
576.574	10879
576.631	10405
576.688	10229
576.746	10215
576.803	11154
576.860	8984
576.917	11378
576.974	10171
577.031	10242
577.089	9766
577.146	10540
577.203	10437
577.260	11378
577.317	10443
577.374	11056
577.431	10770
577.488	10287
577.545	9983
577.602	10796
577.659	10578
577.716	9597
577.773	10402
577.830	9883
577.886	9456
577.943	10249
578.000	9733
578.057	9525
578.114	11128
578.171	10589
578.227	9622
578.284	9896
578.341	10891
578.398	11871
578.454	10788
578.511	12002
578.568	11604
578.625	10883
578.681	10915
578.738	10702
578.794	10254
578.851	11716
578.908	11690
578.964	12414
579.021	12049
579.077	11795
579.134	11282
579.190	11263
579.247	11271
579.303	11293
579.360	10884
579.416	10950
579.473	10920
579.529	10878
579.586	11075
579.642	11767
579.698	11443
579.755	11303
579.811	11718
579.867	10917
579.924	10884
579.980	11654
580.036	11840
580.093	11155
580.149	12249
580.205	12100
580.261	11606
580.317	12177
580.374	12421
580.430	13634
580.486	13383
580.542	12357
580.598	12338
580.619	12775
580.654	13531
580.692	12552
580.710	12063
580.765	12420
580.767	12425
580.823	11954
580.838	12246
580.879	13007
580.911	12721
580.935	12502
580.984	12207
580.991	12161
581.047	14039
581.057	13922
581.103	13353
581.130	13233
581.159	13086
581.203	13848
581.215	14049
581.270	13814
581.276	13837
581.326	13986
581.349	14134
581.382	14299
581.422	14365
581.438	14387
581.494	15005
581.494	15019
581.550	15730
581.567	15645
581.606	15357
581.640	15216
581.661	15166
581.713	15302
581.717	15295
581.773	15435
581.786	15519
581.829	15823
581.859	16201
581.885	16481
581.932	16382
581.940	16354
581.996	16642
582.004	16630
582.052	16389
582.077	16673
582.107	17041
582.150	16756
582.163	16684
582.219	17550
582.223	17605
582.274	18122
582.296	18064
582.330	17902
582.368	17962
582.386	17991
582.441	18098
582.441	18089
582.497	17681
582.514	17880
582.552	18472
582.587	18804
582.608	18897
582.659	19029
582.663	19051
582.719	18828
582.732	19130
582.774	19962
582.805	19948
582.830	19961
582.877	20897
582.885	21023
582.941	19930
582.950	20017
582.996	20607
583.023	20693
583.052	20953
583.095	21896
583.107	22017
583.162	21382
583.168	21460
583.218	22460
583.240	22460
583.273	22278
583.313	23230
583.328	23639
583.384	23295
583.385	23302
583.439	23557
583.458	23360
583.494	22907
583.531	23506
583.549	23937
583.603	24694
583.605	24711
583.660	25368
583.676	25440
583.715	25713
583.748	26001
583.770	26230
583.820	25867
583.825	25867
583.881	27367
583.893	27423
583.936	27166
583.965	27368
583.991	27709
584.038	27334
584.046	27313
584.101	28681
584.110	28627
584.156	28411
584.183	29233
584.211	29941
584.255	29730
584.266	29783
584.321	30714
584.328	30693
584.376	30896
584.400	31388
584.431	31768
584.472	31992
584.486	32245
584.541	33251
584.545	33239
584.596	33256
584.617	33796
584.651	35183
584.689	35991
584.706	36242
584.761	37943
584.762	37909
584.816	37833
584.834	38044
584.871	38848
584.906	39253
584.926	39472
584.978	40215
584.980	40320
585.035	43079
585.051	43462
585.090	44119
585.123	44356
585.145	44761
585.195	46042
585.200	46266
585.254	48316
585.267	48914
585.309	51165
585.340	52313
585.364	53242
585.412	55618
585.419	56125
585.473	59253
585.484	60102
585.528	66601
585.556	70572
585.583	81057
585.628	101978
585.637	112792
585.692	186972
585.700	200088
585.747	254494
585.772	259250
585.801	196606
585.845	102745
585.856	94504
585.910	71970
585.917	69421
585.965	67155
585.989	66042
586.019	66346
586.061	66839
586.074	67340
586.128	69037
586.133	69040
586.183	70585
586.205	71008
586.237	72010
586.277	73883
586.292	74840
586.346	76283
586.349	76272
586.401	78257
586.421	78672
586.455	80923
586.493	83734
586.509	86373
586.564	94429
586.565	94508
586.618	113464
586.637	118143
586.672	111924
586.709	102410
586.727	101008
586.781	100269
586.781	100490
586.835	102900
586.853	103352
586.889	104486
586.925	105583
586.944	107153
586.996	110409
586.998	110767
587.052	115534
587.068	116571
587.106	120319
587.140	123518
587.161	125859
587.212	130059
587.215	130626
587.269	137142
587.284	138637
587.323	144264
587.356	148249
587.377	151765
587.427	159082
587.431	159949
587.485	167214
587.499	168858
587.539	176420
587.571	181749
587.593	186883
587.643	196477
587.648	198074
587.702	212550
587.715	215379
587.755	226643
587.786	234474
587.810	243104
587.858	259136
587.864	261874
587.917	284259
587.930	288637
587.971	307911
588.001	321427
588.025	335277
588.073	360579
588.079	365569
588.133	404091
588.145	411511
588.187	448613
588.217	474074
588.241	500902
588.288	551318
588.295	561014
588.348	630831
588.360	644377
588.402	719044
588.431	768708
588.456	823954
588.503	926267
588.510	948343
588.564	1109519
588.575	1140106
588.617	1311154
588.646	1423267
588.671	1550011
588.718	1779310
588.725	1814620
588.778	2045810
588.789	2085269
588.832	2048682
588.861	2004818
588.886	1789554
588.932	1346445
588.939	1323877
588.993	1112828
589.004	1081027
589.047	1576844
589.075	1899944
589.100	2064140
589.147	2330255
589.154	2322440
589.207	2190371
589.218	2155908
589.261	2050933
589.290	1971233
589.314	1986131
589.361	2002362
589.368	2024058
589.421	2154288
589.433	2174211
589.475	2076734
589.504	1989905
589.528	1778087
589.576	1320814
589.582	1363159
589.635	1741520
589.647	1819565
589.689	2062316
589.718	2208355
589.742	2077062
589.790	1783070
589.795	1755968
589.849	1442501
589.861	1365194
589.902	1205107
589.932	1080312
589.955	1013071
590.004	861579
590.009	854457
590.062	747421
590.075	718838
590.115	660455
590.146	611887
590.168	589849
590.218	534566
590.222	533023
590.275	489852
590.289	477028
590.328	451631
590.360	428243
590.381	416857
590.431	385109
590.435	385016
590.488	361346
590.503	353589
590.541	340760
590.574	327279
590.594	321793
590.645	304150
590.647	304633
590.700	288677
590.716	282985
590.753	275547
590.787	267030
590.806	264564
590.859	253581
590.859	254321
590.912	243792
590.930	239340
590.965	234512
591.001	228294
591.018	227125
591.071	220655
591.072	219779
591.124	213732
591.143	210388
591.177	208618
591.214	205318
591.230	205163
591.283	202018
591.285	201132
591.336	196216
591.356	193224
591.389	190907
591.427	186376
591.442	185443
591.495	179689
591.498	178572
591.547	175497
591.569	173199
591.600	171593
591.640	167900
591.653	168383
591.706	167861
591.711	167159
591.759	167304
591.782	166372
591.811	167995
591.853	168917
591.864	168125
591.917	160640
591.924	158924
591.969	156934
591.995	154896
592.022	155609
592.066	155151
592.075	155953
592.127	157103
592.137	156706
592.180	161238
592.208	163100
592.233	159318
592.279	150265
592.285	150456
592.338	147074
592.350	145717
592.390	143432
592.421	140701
592.443	141158
592.491	140410
592.495	140925
592.548	140249
592.562	139505
592.600	139482
592.633	138401
592.653	138502
592.704	136540
592.705	137284
592.775	134813
592.846	134296
592.916	135724
592.987	132702
593.058	131716
593.128	127495
593.199	127588
593.270	124579
593.341	124127
593.411	123154
593.482	121861
593.553	121923
593.623	119985
593.694	120722
593.764	121593
593.835	118496
593.906	117202
593.976	116495
594.047	118892
594.117	124068
594.188	125831
594.258	115963
594.329	112672
594.399	114536
594.470	113220
594.540	113292
594.611	113528
594.681	113540
594.751	112064
594.822	115530
594.892	115956
594.963	117215
595.033	117482
595.103	117621
595.174	119463
595.244	132832
595.314	150342
595.384	120446
595.455	117536
595.525	119751
595.595	121806
595.665	121451
595.736	118728
595.806	119092
595.876	118242
595.946	119140
596.016	118369
596.087	121451
596.157	123164
596.227	120743
596.297	125460
596.367	131093
596.437	134578
596.507	143384
596.577	156384
596.647	136746
596.717	134422
596.787	134891
596.857	134521
596.927	135236
596.997	134094
597.067	134598
597.137	135644
597.207	138416
597.277	137835
597.347	135529
597.417	135219
597.487	133103
597.557	135941
597.626	135572
597.696	139474
597.766	143949
597.836	156069
597.906	133690
597.975	124915
598.045	126107
598.115	127649
598.185	133259
598.254	141704
598.324	149278
598.394	152205
598.464	147811
598.533	145349
598.603	139114
598.672	136068
598.742	136083
598.812	136971
598.881	137748
598.951	137505
599.020	138367
599.090	140484
599.159	142500
599.229	138767
599.299	134615
599.368	140709
599.437	138919
599.507	130820
599.576	129457
599.646	128155
599.715	126249
599.785	125593
599.854	125794
599.924	126864
599.993	125392
600.062	124159
600.132	126506
600.201	130105
600.270	142409
600.340	147827
600.409	145155
600.478	144678
600.547	145807
600.617	142956
600.686	124424
600.755	115784
600.824	113202
600.894	110787
600.963	109677
601.032	109389
601.101	107581
601.170	104506
601.239	102628
601.308	103972
601.378	104318
601.447	103515
601.516	103954
601.585	105881
601.654	108315
601.723	106683
601.792	107989
601.861	109751
601.930	112811
601.999	115669
602.068	110865
602.137	115493
602.206	115025
602.275	115479
602.343	119509
602.412	119355
602.481	115540
602.550	114745
602.619	117103
602.688	119249
602.756	119288
602.825	119433
602.894	118743
602.963	120825
603.032	123491
603.100	123451
603.169	121815
603.238	123287
603.307	121699
603.375	121730
603.444	124273
603.513	125226
603.581	124579
603.650	128032
603.719	123845
603.787	124524
603.856	126965
603.924	131384
603.993	135010
604.061	134488
604.130	138843
604.198	142169
604.267	144372
604.335	144010
604.404	146263
604.472	148451
604.541	147095
604.609	149906
604.678	149081
604.746	150356
604.815	154691
604.883	155293
604.951	155245
605.020	158607
605.088	158082
605.156	159099
605.225	159230
605.293	161821
605.361	161168
605.429	163647
605.498	162927
605.566	168605
605.634	175508
605.702	178769
605.771	182577
605.839	183957
605.907	179527
605.975	174841
606.043	171718
606.111	170775
606.180	172363
606.248	171687
606.316	169368
606.384	171794
606.452	176042
606.520	179620
606.588	176004
606.656	172786
606.724	170044
606.792	162589
606.860	147964
606.928	137201
606.996	131745
607.064	130933
607.132	132676
607.200	139026
607.267	144307
607.335	143709
607.403	149791
607.471	146864
607.539	141418
607.607	144316
607.674	128677
607.742	129497
607.810	129730
607.878	128585
607.946	130164
608.013	135884
608.081	139101
608.149	141616
608.216	141285
608.284	144701
608.352	145001
608.419	147565
608.487	153927
608.555	145425
608.622	141132
608.690	148167
608.757	159981
608.825	166445
608.893	164172
608.960	165443
609.028	166884
609.095	163711
609.163	152484
609.230	138383
609.298	127419
609.365	130860
609.432	140988
609.500	150164
609.567	167867
609.635	188396
609.702	200226
609.769	195312
609.837	163494
609.904	140362
609.971	141681
610.039	153514
610.106	190100
610.173	322022
610.241	710553
610.308	622375
610.375	299596
610.442	171988
610.509	145946
610.577	142559
610.644	145210
610.711	145735
610.778	148359
610.845	154282
610.912	162226
610.980	164923
611.047	167182
611.114	167550
611.181	159741
611.248	156365
611.315	164671
611.382	168222
611.449	171194
611.516	175198
611.583	173689
611.650	173673
611.717	175088
611.784	178655
611.851	185829
611.918	200267
611.984	222192
612.051	288011
612.118	525215
612.185	1224591
612.252	1007839
612.319	299604
612.386	229242
612.452	209496
612.519	200359
612.586	208688
612.653	202093
612.719	203415
612.786	195260
612.853	181651
612.919	177118
612.986	181221
613.053	172600
613.120	163647
613.186	156607
613.253	158998
613.319	155723
613.386	159939
613.453	163536
613.519	168870
613.586	172339
613.652	187977
613.719	175419
613.785	174325
613.852	164216
613.918	162463
613.985	162394
614.051	170146
614.118	170492
614.184	163900
614.250	158925
614.317	167016
614.383	161516
614.449	164967
614.516	165276
614.582	167911
614.648	163463
614.715	161982
614.781	161021
614.847	162150
614.914	165873
614.980	161867
615.046	158817
615.112	162083
615.179	166622
615.245	172346
615.311	191310
615.377	241412
615.443	275440
615.509	206574
615.575	184694
615.642	177942
615.708	182488
615.774	190334
615.840	204907
615.906	229564
615.972	299509
616.038	490169
616.104	811015
616.170	1453648
616.236	1497961
616.302	442465
616.368	295786
616.434	231804
616.500	208844
616.565	215928
616.631	255190
616.697	226547
616.763	222458
616.829	286236
616.895	466985
616.961	506244
617.026	270257
617.092	191520
617.158	177973
617.224	174622
617.289	163592
617.355	159328
617.421	160848
617.487	157346
617.552	152174
617.618	148535
617.684	148631
617.749	151956
617.815	146247
617.880	142839
617.946	142444
618.012	146420
618.077	149543
618.143	144747
618.208	144753
618.274	153378
618.339	158313
618.405	136622
618.470	133584
618.536	137819
618.601	139124
618.667	133531
618.732	126909
618.798	124103
618.863	123625
618.928	122548
618.994	126141
619.059	129151
619.124	139784
619.190	131114
619.255	123637
619.320	122818
619.386	123611
619.451	122055
619.516	119381
619.581	120729
619.647	123932
619.712	123967
619.777	120869
619.842	124139
619.907	124617
619.972	125350
620.038	125427
620.103	119977
620.168	119827
620.233	121359
620.298	119619
620.363	121255
620.428	124229
620.493	126978
620.558	125823
620.623	126497
620.688	127799
620.753	125928
620.818	129232
620.883	127814
620.948	129948
621.013	127490
621.078	128756
621.143	128684
621.207	133957
621.272	131727
621.337	131479
621.402	133665
621.467	141865
621.532	146044
621.596	139528
621.661	132660
621.726	127671
621.791	128438
621.855	131007
621.920	133131
621.985	133635
622.049	139548
622.114	137688
622.179	134819
622.243	140358
622.308	143329
622.373	145553
622.437	145836
622.502	136363
622.566	136300
622.631	137336
622.695	138655
622.760	139810
622.824	136664
622.889	138689
622.953	142671
623.018	161186
623.082	165927
623.147	144206
623.211	138058
623.276	141464
623.340	135540
623.404	130108
623.469	131759
623.533	133856
623.597	131020
623.662	131227
623.726	126029
623.790	119369
623.854	118028
623.919	118251
623.983	118737
624.047	122467
624.111	120798
624.176	123603
624.240	130536
624.304	139687
624.368	124849
624.432	122743
624.496	124550
624.560	128876
624.625	134172
624.689	127344
624.753	130448
624.817	123957
624.881	123383
624.945	117365
625.009	112736
625.073	115415
625.137	121761
625.201	131624
625.265	132199
625.329	117529
625.393	120000
625.456	118286
625.520	121417
625.584	125431
625.648	134557
625.712	155342
625.776	228172
625.839	256496
625.903	153081
625.967	110752
626.031	133177
626.095	183635
626.158	125930
626.222	97962
626.286	93781
626.349	90160
626.413	85949
626.477	89213
626.540	88766
626.604	88149
626.668	86854
626.731	85175
626.795	87876
626.858	88862
626.922	84636
626.986	84240
627.049	83631
627.113	85290
627.176	82155
627.240	81262
627.303	81695
627.366	80739
627.430	83111
627.493	82731
627.557	83720
627.620	83368
627.684	83008
627.747	82737
627.810	80849
627.874	76283
627.937	72836
628.000	76871
628.064	77011
628.127	70174
628.190	69393
628.253	68467
628.317	67285
628.380	65431
628.443	65221
628.506	67407
628.569	64525
628.632	61348
628.696	60799
628.759	59169
628.822	59163
628.885	57647
628.948	59027
629.011	59486
629.074	58255
629.137	56382
629.200	56799
629.263	59756
629.326	56141
629.389	55087
629.452	55604
629.515	57643
629.578	56432
629.641	57651
629.704	56593
629.767	57255
629.830	53662
629.892	53399
629.955	52614
630.018	55448
630.081	54566
630.144	60509
630.207	54979
630.269	56251
630.332	55550
630.395	54554
630.458	51914
630.520	50632
630.583	51347
630.646	48364
630.708	49377
630.771	49987
630.834	51030
630.896	49615
630.959	49763
631.021	48814
631.084	49934
631.146	50902
631.209	55189
631.272	48625
631.334	49281
631.397	48887
631.459	48247
631.522	49710
631.584	49955
631.646	51738
631.709	51521
631.771	57556
631.834	53431
631.896	48421
631.958	45983
632.021	47383
632.083	46275
632.145	48501
632.208	46684
632.270	46915
632.332	44738
632.395	45569
632.457	48293
632.519	45882
632.581	45855
632.643	44244
632.706	44763
632.768	44251
632.830	44380
632.892	44384
632.954	45412
633.016	45190
633.078	43551
633.141	43250
633.203	44603
633.265	44785
633.327	42655
633.389	43939
633.451	46698
633.513	51431
633.575	49503
633.637	47987
633.698	47557
633.760	46120
633.822	45354
633.884	45647
633.946	45162
634.008	45030
634.070	45671
634.132	45753
634.193	47544
634.255	48572
634.317	48749
634.379	49247
634.441	47569
634.502	46061
634.564	44043
634.626	42521
634.687	41783
634.749	41327
634.811	41879
634.873	38465
634.934	41020
634.996	40398
635.057	41010
635.119	40322
635.181	41581
635.242	42049
635.304	38910
635.365	42455
635.427	40730
635.488	41190
635.550	40394
635.611	40898
635.673	38882
635.734	42922
635.796	42601
635.857	46205
635.918	44178
635.980	45663
636.041	47384
636.102	48983
636.164	47592
636.225	48091
636.286	44163
636.348	43524
636.409	40409
636.470	40079
636.531	40495
636.593	41030
636.654	41756
636.715	37263
636.776	37853
636.838	35685
636.899	37911
636.960	36155
637.021	35768
637.082	36221
637.143	36139
637.204	34732
637.265	33826
637.326	35425
637.387	35235
637.448	34600
637.509	35877
637.570	35484
637.631	34692
637.692	32861
637.753	32544
637.814	33625
637.875	33385
637.936	35118
637.997	32967
638.058	34127
638.119	34629
638.179	33400
638.240	33686
638.301	33639
638.362	32867
638.423	33443
638.483	33922
638.544	32433
638.605	31427
638.666	31491
638.726	32933
638.787	33317
638.848	31402
638.908	30932
638.969	31544
639.030	31785
639.090	30236
639.151	30904
639.211	34016
639.272	36535
639.332	46542
639.393	37395
639.453	31593
639.514	33258
639.574	30367
639.635	29621
639.695	31149
639.756	30610
639.816	30611
639.877	32015
639.937	38998
639.997	47000
640.058	32798
640.118	30075
640.178	29511
640.239	29338
640.299	29117
640.359	29012
640.420	29104
640.480	30199
640.540	30483
640.600	31664
640.661	32306
640.721	29894
640.781	34318
640.841	30673
640.901	30452
640.961	29197
641.021	29949
641.082	32130
641.142	36414
641.202	31591
641.262	27054
641.322	29634
641.382	27707
641.442	28730
641.502	27661
641.562	28647
641.622	28626
641.682	28240
641.742	28446
641.802	30191
641.861	28819
641.921	28043
641.981	29591
642.041	30200
642.101	32954
642.161	28924
642.221	26398
642.280	26646
642.340	25492
642.400	25811
642.460	27923
642.519	27627
642.579	26088
642.639	28263
642.698	25850
642.758	27763
642.818	27469
642.877	26745
642.937	28552
642.997	29108
643.056	36273
643.116	29994
643.175	28569
643.235	26516
643.294	27510
643.354	28344
643.414	29805
643.473	31526
643.532	34584
643.592	41681
643.651	55764
643.711	86584
643.770	156235
643.830	350202
643.889	827225
643.948	274095
644.008	57301
644.067	38588
644.126	31884
644.186	30272
644.245	29061
644.304	25564
644.363	27392
644.423	24993
644.482	25983
644.541	26108
644.600	25352
644.659	30820
644.719	32431
644.778	42067
644.837	60762
644.896	104255
644.955	252692
645.014	114023
645.073	34520
645.132	28767
645.191	29111
645.250	26615
645.309	28191
645.368	28060
645.427	31109
645.486	39750
645.545	66437
645.604	33127
645.663	25532
645.722	24479
645.781	26335
645.840	27513
645.898	29785
645.957	38120
646.016	50929
646.075	81176
646.134	150870
646.192	365511
646.251	656093
646.310	134132
646.369	42275
646.427	34254
646.486	28840
646.545	25880
646.603	25146
646.662	23840
646.721	24278
646.779	22940
646.838	22589
646.896	26553
646.955	30308
647.014	40671
647.072	63662
647.131	159358
647.189	103776
647.248	27040
647.306	22574
647.365	22800
647.423	19736
647.481	22559
647.540	19905
647.598	21589
647.657	19752
647.715	20934
647.773	20350
647.832	20392
647.890	20164
647.948	19393
648.007	20904
648.065	19945
648.123	18793
648.181	20562
648.240	19646
648.298	18123
648.356	19763
648.414	20549
648.472	19581
648.531	19693
648.589	19076
648.647	18583
648.705	18874
648.763	19156
648.821	19649
648.879	19078
648.937	20359
648.995	21268
649.053	24459
649.111	31283
649.169	43424
649.227	70220
649.285	128802
649.343	382302
649.401	244830
649.459	58313
649.516	41527
649.574	23179
649.632	24135
649.690	24942
649.748	27588
649.806	31591
649.863	47403
649.921	110475
649.979	96845
650.037	24129
650.094	17824
650.152	19153
650.210	17055
650.268	18348
650.325	17627
650.383	18205
650.440	16362
650.498	17166
650.556	16091
650.613	15675
650.671	14998
650.728	16238
650.786	17185
650.843	17648
650.901	16428
650.958	16374
651.016	15731
651.073	14907
651.131	15181
651.188	14092
651.246	16884
651.303	14681
651.360	14469
651.418	13385
651.475	16046
651.532	13189
651.590	15228
651.647	13693
651.704	14802
651.762	15032
651.819	15536
651.876	14446
651.933	14784
651.990	15662
652.048	13418
652.105	14849
652.162	14386
652.219	13522
652.276	14137
652.333	14686
652.390	13737
652.448	14160
652.505	15049
652.562	13793
652.619	13867
652.676	13712
652.733	15589
652.790	14111
652.847	12257
652.904	14254
652.961	13333
653.017	13283
653.074	14851
653.131	14459
653.188	13138
653.245	13699
653.302	13538
653.359	12656
653.415	14118
653.472	13231
653.529	13796
653.586	13575
653.642	12957
653.699	13716
653.756	12797
653.813	13535
653.869	13039
653.926	12482
653.983	12872
654.039	12481
654.096	13035
654.152	13268
654.209	11886
654.266	13559
654.322	13875
654.379	15401
654.435	15063
654.492	15181
654.548	17739
654.605	23137
654.661	17303
654.717	13188
654.774	13802
654.830	13621
654.887	13490
654.943	13857
655.000	13284
655.056	14083
655.112	14063
655.168	13868
655.225	14277
655.281	14743
655.337	16945
655.394	22941
655.450	19035
655.506	16463
655.562	22639
655.618	21904
655.675	13002
655.731	12701
655.787	12390
655.843	13439
655.899	12616
655.955	12840
656.011	13281
656.067	11908
656.123	13318
656.179	13770
656.235	14800
656.291	11562
656.347	13740
656.403	13183
656.459	13758
656.515	13681
656.571	14553
656.627	13507
656.683	13330
656.739	13587
656.795	12336
656.850	12718
656.906	14443
656.962	14273
657.018	11914
657.074	12620
657.129	15021
657.185	16157
657.241	24796
657.297	20891
657.352	13768
657.408	12362
657.464	13994
657.519	12709
657.575	11092
657.630	12344
657.686	12972
657.742	11952
657.797	13412
657.853	13046
657.908	14005
657.964	12063
658.019	12635
658.075	12893
658.130	12956
658.186	11282
658.241	13382
658.297	11100
658.352	12052
658.407	12170
658.463	11864
658.518	12563
658.573	12513
658.629	12215
658.684	11877
658.739	12296
658.795	11480
658.850	12359
658.905	11777
658.960	12753
659.016	10890
659.071	12197
659.126	13117
659.181	12656
659.236	16459
659.291	18141
659.346	14177
659.401	13716
659.457	12721
659.512	12083
659.567	13454
659.622	12005
659.677	12390
659.732	11880
659.787	12439
659.842	13224
659.897	15518
659.952	12820
660.007	11649
660.061	12125
660.116	11779
660.171	11948
660.226	11301
660.281	11743
660.336	11160
660.391	12747
660.445	11550
660.500	12049
660.555	12699
660.610	12112
660.664	12846
660.719	11459
660.774	12902
660.828	11939
660.883	12619
660.938	11545
660.992	12022
661.047	12275
661.101	11978
661.156	12094
661.211	11293
661.265	11394
661.320	11651
661.374	11618
661.429	11232
661.483	11145
661.538	11246
661.592	11921
661.647	11891
661.701	11796
661.755	12580
661.810	12321
661.864	11339
661.919	10861
661.973	12116
662.027	11952
662.081	10758
662.136	11434
662.190	12017
662.244	12737
662.299	11871
662.353	11589
662.407	10612
662.461	11701
662.515	11809
662.569	11780
662.624	12524
662.678	11857
662.732	11284
662.786	10842
662.840	12184
662.894	12677
662.948	11003
663.002	11083
663.056	11561
663.110	11790
663.164	11173
663.218	11488
663.272	11361
663.326	11729
663.380	12547
663.434	12322
663.488	11491
663.542	12571
663.595	10785
663.649	11185
663.703	12126
663.757	11019
663.811	11109
663.864	10759
663.918	11440
663.972	11213
664.026	11085
664.079	11180
664.133	12087
664.187	10914
664.240	10886
664.294	10884
664.348	12116
664.401	11206
664.455	10373
664.508	10557
664.562	12683
664.615	11154
664.669	10614
664.722	11573
664.776	10987
664.829	11047
664.883	11505
664.936	11225
664.990	12070
665.043	12930
665.097	12879
665.150	14281
665.203	11600
665.257	12107
665.310	13008
665.363	13170
665.417	12650
665.470	11558
665.523	12190
665.576	11603
665.630	11785
665.683	11314
665.736	12311
665.789	12594
665.842	11707
665.895	11415
665.949	12531
666.002	10564
666.055	11612
666.108	12821
666.161	11761
666.214	12532
666.267	12086
666.320	12526
666.373	12410
666.426	11711
666.479	11463
666.532	11863
666.585	13241
666.638	13499
666.691	12374
666.744	13064
666.796	12719
666.849	13209
666.902	12352
666.955	12116
667.008	11401
667.060	10313
667.113	10913
667.166	10598
667.219	11827
667.271	11223
667.324	11111
667.377	12127
667.430	10409
667.482	11844
667.535	11726
667.587	11704
667.640	11005
667.693	13666
667.745	16480
667.798	17633
667.850	12783
667.903	11716
667.955	12680
668.008	11656
668.060	13700
668.113	12960
668.165	13606
668.218	13374
668.270	12219
668.322	12172
668.375	12040
668.427	12147
668.479	11877
668.532	12797
668.584	12748
668.636	11386
668.689	12863
668.741	11958
668.793	11993
668.845	11667
668.898	12154
668.950	11369
669.002	12605
669.054	12059
669.106	11863
669.158	13002
669.211	11518
669.263	11711
669.315	12832
669.367	12713
669.419	13207
669.471	13713
669.523	12872
669.575	13701
669.627	14125
669.679	12712
669.731	12537
669.783	12238
669.835	13576
669.886	12937
669.938	13351
669.990	12777
670.042	13080
670.094	13553
670.146	13926
670.197	14052
670.249	16640
670.301	18490
670.353	21377
670.404	26743
670.456	35606
670.508	53634
670.560	85726
670.611	144472
670.663	252071
670.715	535971
670.766	831106
670.818	363047
670.869	83500
670.921	41830
670.972	30996
671.024	24783
671.075	21085
671.127	19054
671.178	16501
671.230	15411
671.281	15935
671.333	14893
671.384	15343
671.436	16107
671.487	17841
671.538	19006
671.590	22006
671.641	30330
671.692	40951
671.744	71217
671.795	60603
671.846	28860
671.897	19420
671.949	17351
672.000	14405
672.051	14063
672.102	13645
672.153	12498
672.204	12787
672.256	12317
672.307	12328
672.358	14199
672.409	13499
672.460	12457
672.511	12190
672.562	12109
672.613	11138
672.664	10642
672.715	11419
672.766	11512
672.817	11407
672.868	10648
672.919	11413
672.970	11038
673.021	11245
673.071	10737
673.122	10979
673.173	10778
673.224	10286
673.275	11784
673.326	11006
673.376	10397
673.427	10100
673.478	10587
673.528	10860
673.579	10996
673.630	11129
673.680	11841
673.731	10727
673.782	10717
673.832	10902
673.883	11387
673.934	9355
673.984	9608
674.035	9309
674.085	10418
674.136	11249
674.186	11529
674.237	12165
674.287	15868
674.338	12255
674.388	10588
674.438	10718
674.489	10438
674.539	10180
674.589	10914
674.640	10893
674.690	10203
674.740	10370
674.791	12180
674.841	11165
674.891	11331
674.942	10093
674.992	9977
675.042	9632
675.092	8703
675.142	8610
675.193	9868
675.243	8789
675.293	9997
675.343	10775
675.393	9504
675.443	10566
675.493	9330
675.543	8948
675.593	10168
675.643	9720
675.693	9597
675.743	9613
675.793	9426
675.843	9120
675.893	10296
675.943	9410
675.993	9788
676.043	9553
676.093	9449
676.142	9109
676.192	10187
676.242	9445
676.292	8941
676.341	9582
676.391	9674
676.441	9263
676.491	8202
676.540	8393
676.590	8740
676.640	9270
676.689	8965
676.739	8256
676.789	8388
676.838	8629
676.888	8107
676.937	8151
676.987	8550
677.037	7804
677.086	8291
677.136	8169
677.185	8362
677.235	7917
677.284	7977
677.333	8058
677.383	8377
677.432	7081
677.482	7726
677.531	7744
677.580	7353
677.630	7697
677.679	7622
677.728	8200
677.778	8217
677.827	6262
677.876	8275
677.925	7800
677.975	7472
678.024	8281
678.073	7878
678.122	8581
678.171	7871
678.220	7529
678.269	8841
678.319	9368
678.368	8825
678.417	9140
678.466	9147
678.515	9858
678.564	9723
678.613	8495
678.662	8151
678.711	9157
678.760	8743
678.809	8189
678.857	8169
678.906	8614
678.955	8816
679.004	7763
679.053	7549
679.102	8224
679.151	8275
679.199	8993
679.248	7589
679.297	8411
679.346	8025
679.394	7893
679.443	7313
679.492	8265
679.540	7712
679.589	7679
679.638	8254
679.686	7948
679.735	7398
679.784	8488
679.832	8409
679.881	7714
679.929	6961
679.978	7139
680.026	7270
680.075	8130
680.123	7478
680.172	7214
680.220	7233
680.268	8008
680.317	7112
680.365	6900
680.414	7487
680.462	7054
680.510	7469
680.559	6920
680.607	6762
680.655	7404
680.703	6542
680.752	5698
680.800	6530
680.848	6758
680.896	5896
680.945	6884
680.993	7248
681.041	6884
681.089	7047
681.137	6511
681.185	6820
681.233	7324
681.258	7418
681.281	7422
681.329	6175
681.377	6268
681.380	6381
681.425	6842
681.473	8563
681.502	8254
681.521	7895
681.569	8453
681.617	8318
681.624	8420
681.665	8400
681.713	8639
681.745	8808
681.761	8764
681.809	8925
681.857	9443
681.867	9424
681.904	9017
681.952	9308
681.989	9778
682.000	9817
682.048	9621
682.096	9302
682.111	9699
682.143	10291
682.191	10192
682.233	10749
682.239	10745
682.286	10421
682.334	9906
682.354	10364
682.382	10821
682.430	11327
682.476	11068
682.477	10985
682.525	11187
682.572	10876
682.598	10804
682.620	10652
682.667	11324
682.715	11523
682.720	11611
682.763	11693
682.810	11965
682.841	12785
682.857	13098
682.905	10940
682.952	11706
682.963	11981
683.000	12707
683.047	12388
683.085	13121
683.095	13231
683.142	13250
683.190	13663
683.206	13603
683.237	13279
683.284	13996
683.328	13233
683.332	13101
683.379	13837
683.426	13245
683.449	13470
683.473	13655
683.521	14678
683.568	14866
683.571	14927
683.615	14766
683.662	14762
683.693	14976
683.709	15033
683.757	14845
683.804	15075
683.814	15246
683.851	15531
683.898	15665
683.936	15646
683.945	15578
683.992	16141
684.039	16077
684.057	16142
684.086	16157
684.133	16378
684.179	16907
684.180	16872
684.227	16899
684.274	17097
684.300	17129
684.321	17067
684.368	16743
684.415	17642
684.422	17646
684.462	17437
684.509	17425
684.543	17937
684.556	18053
684.603	17400
684.649	17651
684.665	17829
684.696	18078
684.743	18422
684.786	18923
684.790	18940
684.837	18930
684.883	19380
684.908	19977
684.930	20464
684.977	21256
685.023	21136
685.029	21160
685.070	20472
685.117	20784
685.150	20569
685.164	20651
685.210	22114
685.257	22434
685.272	22743
685.303	22858
685.350	21606
685.393	21559
685.396	21543
685.443	22023
685.490	23148
685.514	23033
685.536	22831
685.583	22307
685.629	22638
685.636	22717
685.675	22944
685.722	22717
685.757	23244
685.768	23449
685.815	23129
685.861	23783
685.878	23617
685.908	23155
685.954	23445
686.000	24515
686.000	24516
686.047	24182
686.093	25840
686.121	26154
686.139	26209
686.185	25050
686.232	25421
686.242	25454
686.278	25353
686.324	24736
686.363	24843
686.370	24808
686.416	24544
686.463	24485
686.484	24055
686.509	23956
686.555	24377
686.601	24948
686.606	25007
686.647	25210
686.693	25655
686.727	25064
686.739	24783
686.785	25045
686.831	25335
686.848	25291
686.877	25180
686.923	24902
686.969	24870
686.969	24867
687.015	25197
687.061	25885
687.090	26222
687.107	26298
687.153	25866
687.199	26009
687.211	25925
687.245	25809
687.291	26338
687.332	26662
687.336	26726
687.382	27869
687.428	27335
687.453	27595
687.474	27531
687.520	27799
687.565	27369
687.574	27218
687.611	26819
687.657	27422
687.695	27481
687.702	27519
687.748	27766
687.794	28114
687.816	28216
687.839	28170
687.885	27925
687.931	26945
687.937	27036
687.976	27996
688.022	28053
688.058	28261
688.067	28295
688.113	28636
688.158	28452
688.179	28461
688.204	28401
688.249	28667
688.295	28713
688.300	28717
688.340	29598
688.386	30897
688.421	30494
688.431	30116
688.477	29748
688.522	29447
688.542	29296
688.567	29562
688.613	29902
688.658	29172
688.663	29240
688.703	30107
688.749	30152
688.784	30576
688.794	30647
688.839	30600
688.884	31046
688.905	30637
688.930	30134
688.975	30372
689.020	30474
689.026	30375
689.065	30291
689.110	30509
689.146	31087
689.155	31150
689.201	30911
689.246	30518
689.267	30331
689.291	30419
689.336	30558
689.381	31044
689.388	31011
689.426	30928
689.471	31012
689.509	31241
689.516	31274
689.561	30699
689.606	30533
689.630	30244
689.651	30438
689.696	31522
689.741	32236
689.750	32251
689.785	31933
689.830	31863
689.871	31714
689.875	31710
689.920	31263
689.965	31239
689.992	30639
690.010	30602
690.054	31244
690.099	31540
690.112	31638
690.144	31726
690.189	31677
690.233	31480
690.233	31517
690.278	31236
690.323	31441
690.354	31145
690.367	31250
690.412	31786
690.457	31952
690.474	32180
690.501	32328
690.546	31796
690.590	31823
690.595	31813
690.635	32388
690.680	32115
690.716	32486
690.724	32649
690.769	32742
690.813	33292
690.836	33176
690.857	33018
690.902	32755
690.946	33280
690.957	33122
690.991	33923
691.035	35944
691.077	37179
691.080	37263
691.124	37839
691.168	38530
691.198	38873
691.213	38577
691.257	37409
691.301	36780
691.318	36189
691.346	35657
691.390	35123
691.434	34231
691.439	34131
691.478	34711
691.522	34844
691.559	35424
691.567	35563
691.611	36120
691.655	35787
691.680	35693
691.699	35715
691.743	35908
691.787	36039
691.800	35992
691.831	36326
691.875	36716
691.919	37604
691.921	37555
691.964	37792
692.008	38055
692.041	38012
692.052	38026
692.096	38206
692.139	37944
692.162	37715
692.183	37562
692.227	37699
692.271	37733
692.282	37581
692.315	37462
692.359	37272
692.402	37332
692.403	37400
692.447	37452
692.490	37237
692.523	37406
692.534	37594
692.578	37792
692.622	38048
692.643	38045
692.666	38037
692.709	37818
692.753	37520
692.763	37517
692.797	37717
692.840	37446
692.884	37351
692.884	37425
692.928	37411
692.971	38176
693.004	38320
693.015	38347
693.059	38305
693.102	38050
693.124	37818
693.146	37915
693.189	38142
693.233	38598
693.245	38662
693.276	39063
693.320	39221
693.363	39322
693.365	39251
693.407	39531
693.450	39699
693.485	39867
693.493	39931
693.537	39889
693.580	39606
693.605	39452
693.624	39912
693.667	40720
693.710	41518
693.725	41890
693.753	43809
693.797	45941
693.840	48688
693.845	48871
693.883	48554
693.926	47975
693.966	47649
693.970	47459
694.013	44251
694.056	41191
694.086	38993
694.099	39236
694.142	39874
694.185	40350
694.206	40474
694.229	40558
694.272	40651
694.315	40826
694.326	40716
694.358	40654
694.401	40402
694.444	40599
694.446	40505
694.487	40413
694.530	40208
694.566	40043
694.573	40084
694.616	39768
694.659	39379
694.686	39225
694.702	39300
694.745	39117
694.787	38750
694.806	38622
694.830	38966
694.873	39339
694.916	39623
694.926	39564
694.959	39341
695.002	39330
695.044	39082
695.046	38996
695.087	39654
695.130	40040
695.166	40162
695.172	40326
695.215	40594
695.258	41356
695.286	41721
695.301	41878
695.343	41947
695.386	41994
695.406	41909
695.428	41746
695.471	41427
695.514	40863
695.526	40659
695.556	41325
695.599	42208
695.641	42886
695.646	42872
695.684	42776
695.726	42420
695.766	42169
695.769	42266
695.811	42207
695.854	42199
695.886	42079
695.896	42116
695.938	41665
695.981	41508
696.005	41129
696.023	41261
696.065	41671
696.108	41954
696.125	41928
696.150	42296
696.192	42949
696.235	43430
696.245	43468
696.277	43133
696.319	42421
696.361	41899
696.365	41747
696.404	41914
696.446	41855
696.485	41878
696.488	42021
696.530	42545
696.572	43095
696.604	43279
696.614	43310
696.656	43100
696.698	42879
696.724	42668
696.740	42689
696.783	42440
696.825	42276
696.844	42036
696.867	42355
696.909	42845
696.951	43236
696.964	43269
696.992	43299
697.034	43179
697.076	43097
697.083	42968
697.118	43525
697.160	44093
697.202	44638
697.203	44542
697.244	44151
697.286	43724
697.323	43037
697.327	43130
697.369	43144
697.411	43096
697.442	43019
697.453	43265
697.494	43772
697.536	44221
697.562	44435
697.578	44416
697.620	44032
697.661	43652
697.682	43360
697.703	43647
697.744	44031
697.786	44395
697.801	44419
697.828	44779
697.869	45091
697.911	45437
697.921	45403
697.952	45051
697.994	44534
698.035	43944
698.040	43753
698.077	43468
698.118	43080
698.160	42725
698.160	42613
698.201	42840
698.243	42951
698.279	42978
698.284	43212
698.325	44308
698.367	45470
698.399	46219
698.408	46087
698.449	44930
698.491	43852
698.518	42975
698.532	43341
698.573	44132
698.614	44925
698.638	45273
698.656	45341
698.697	45203
698.738	45062
698.757	44875
698.779	45116
698.820	45374
698.862	45606
698.877	45582
698.903	45963
698.944	46367
698.985	46774
698.996	46767
699.026	46888
699.067	46885
699.116	46761
699.235	45509
699.354	45006
699.474	44918
699.593	46549
699.713	45551
699.832	43830
699.951	46257
700.070	44154
700.190	44599
700.309	44141
700.428	43199
700.547	43184
700.667	42957
700.786	43543
700.905	41866
701.024	42571
701.143	42670
701.262	40515
701.381	40799
701.500	43249
701.619	42181
701.738	40397
701.857	41160
701.976	39783
702.095	39747
702.214	41190
702.333	40971
702.452	39728
702.571	39976
702.690	39719
702.809	39965
702.928	38452
703.047	39407
703.165	39177
703.284	38606
703.403	37828
703.522	39816
703.640	39152
703.759	40627
703.878	42627
703.997	38514
704.115	38511
704.234	37038
704.353	37628
704.471	36989
704.590	36102
704.708	36826
704.827	36544
704.946	36074
705.064	37333
705.183	36384
705.301	40278
705.420	54503
705.538	52724
705.656	45716
705.775	42878
705.893	44174
706.012	47447
706.130	44835
706.249	45732
706.367	46163
706.485	45825
706.604	44432
706.722	44106
706.840	45843
706.958	46188
707.077	44198
707.195	42462
707.313	42888
707.431	41397
707.549	42110
707.668	41465
707.786	41598
707.904	41404
708.022	40908
708.140	41854
708.258	39552
708.376	40725
708.494	40736
708.612	42297
708.730	55589
708.848	57290
708.966	49656
709.084	46822
709.202	46624
709.320	48665
709.438	48802
709.556	48300
709.674	46674
709.791	47823
709.909	46484
710.027	46519
710.145	46510
710.263	46855
710.380	45185
710.498	45154
710.616	45313
710.733	43332
710.851	43930
710.969	45139
711.086	43166
711.204	43163
711.322	42386
711.439	43448
711.557	42807
711.674	41997
711.792	41806
711.909	41697
712.027	41188
712.144	39984
712.262	41615
712.379	43769
712.497	56942
712.614	62471
712.732	52249
712.849	49077
712.966	48292
713.084	52076
713.201	51916
713.318	51007
713.436	50178
713.553	50922
713.670	49988
713.787	51147
713.905	50897
714.022	48510
714.139	47522
714.256	48819
714.373	50694
714.490	57280
714.608	75523
714.725	193490
714.842	281378
714.959	60147
715.076	47906
715.193	44598
715.310	45290
715.427	44179
715.544	42165
715.661	42325
715.778	42565
715.895	45785
716.011	45118
716.128	43918
716.245	43505
716.362	43073
716.479	44257
716.596	41602
716.713	42343
716.829	40592
716.946	41146
717.063	39880
717.180	40756
717.296	38746
717.413	39910
717.530	38754
717.646	38534
717.763	38672
717.880	37749
717.996	37371
718.113	38499
718.229	35885
718.346	36156
718.462	35486
718.579	38107
718.695	40105
718.812	39802
718.928	38713
719.045	36773
719.161	34283
719.277	35230
719.394	33423
719.510	35634
719.626	34333
719.743	41326
719.859	39376
719.975	43390
720.092	71984
720.208	157838
720.324	55564
720.440	37107
720.557	36697
720.673	37799
720.789	43582
720.905	60205
721.021	44611
721.137	33152
721.253	33297
721.369	34310
721.486	32966
721.602	36326
721.718	33055
721.834	30555
721.950	33058
722.066	30881
722.181	31261
722.297	31189
722.413	30566
722.529	30467
722.645	30368
722.761	29150
722.877	30092
722.993	29413
723.108	30939
723.224	29559
723.340	29237
723.456	27748
723.571	29020
723.687	27576
723.803	27670
723.918	27667
724.034	27484
724.150	28009
724.265	28845
724.381	34823
724.497	41068
724.612	27852
724.728	27164
724.843	26409
724.959	28695
725.074	32932
725.190	37617
725.305	26358
725.421	26457
725.536	25827
725.651	25611
725.767	25103
725.882	24804
725.997	25321
726.113	24699
726.228	23927
726.343	25208
726.459	23817
726.574	25704
726.689	24689
726.804	23520
726.920	24945
727.035	24745
727.150	25469
727.265	24111
727.380	24157
727.495	23883
727.610	22576
727.725	23180
727.841	22991
727.956	22387
728.071	25062
728.186	23087
728.301	21734
728.416	22541
728.531	21936
728.645	21112
728.760	22449
728.875	22421
728.990	21420
729.105	21735
729.220	21701
729.335	21531
729.449	21917
729.564	21746
729.679	20657
729.794	21748
729.908	21178
730.023	22242
730.138	19967
730.253	21227
730.367	20242
730.482	21159
730.596	20366
730.711	20902
730.826	19873
730.940	21195
731.055	20621
731.169	20480
731.284	19862
731.398	19669
731.513	20920
731.627	20208
731.742	21208
731.856	23275
731.970	20356
732.085	20399
732.199	22754
732.313	23725
732.428	34100
732.542	72469
732.656	64157
732.771	24921
732.885	21870
732.999	20694
733.113	21603
733.227	21538
733.342	21210
733.456	19733
733.570	20623
733.684	19419
733.798	19895
733.912	19676
734.026	19414
734.140	20222
734.254	20929
734.368	22399
734.482	26850
734.596	19913
734.710	19255
734.824	19313
734.938	19259
735.052	18347
735.166	19670
735.280	18919
735.393	19619
735.507	19151
735.621	21044
735.735	24238
735.849	20544
735.962	19044
736.076	19263
736.190	19243
736.303	19660
736.417	22051
736.531	19205
736.644	17567
736.758	18135
736.872	18543
736.985	16652
737.099	17058
737.212	16244
737.326	16841
737.439	17330
737.553	18232
737.666	17161
737.780	15834
737.893	16746
738.007	17223
738.120	17111
738.233	15561
738.347	17201
738.460	16230
738.573	16953
738.687	16645
738.800	16278
738.913	16082
739.026	16970
739.140	16149
739.253	15558
739.366	16168
739.479	16523
739.592	16051
739.705	16285
739.818	16197
739.932	15030
740.045	15620
740.158	15456
740.271	16270
740.384	15948
740.497	15164
740.610	15701
740.723	15193
740.836	15460
740.949	15521
741.062	16206
741.174	16736
741.287	15478
741.400	14781
741.513	14549
741.626	15409
741.739	15024
741.851	14598
741.964	14814
742.077	15047
742.189	15381
742.302	14404
742.415	14203
742.527	15057
742.640	14787
742.753	15008
742.865	13952
742.978	13938
743.090	14163
743.203	14167
743.316	14786
743.428	14810
743.541	14311
743.653	14816
743.766	14095
743.878	15055
743.990	14899
744.103	15153
744.215	13061
744.327	13213
744.440	14849
744.552	16159
744.664	13161
744.777	13872
744.889	14422
745.001	14552
745.113	14431
745.226	13887
745.338	13213
745.450	13585
745.562	14295
745.674	13541
745.786	13846
745.898	12681
746.010	14056
746.122	13346
746.234	13253
746.347	13382
746.459	13331
746.570	12788
746.682	12880
746.794	12940
746.906	12918
747.018	12968
747.130	13272
747.242	13437
747.354	13127
747.466	13481
747.577	13101
747.689	13283
747.801	13005
747.913	12928
748.024	12600
748.136	12614
748.248	11939
748.359	12516
748.471	12133
748.583	12704
748.694	11364
748.806	12652
748.918	13271
749.029	12341
749.141	12520
749.252	13177
749.364	13154
749.475	13950
749.587	14394
749.698	13035
749.809	12807
749.921	11967
750.032	12554
750.144	11684
750.255	11998
750.366	12041
750.478	11619
750.589	12111
750.700	11221
750.811	12532
750.923	12199
751.034	13741
751.145	15900
751.256	11617
751.367	10809
751.479	11919
751.590	11434
751.701	11858
751.812	11811
751.923	12286
752.034	10859
752.145	11541
752.256	10577
752.367	11989
752.478	10497
752.589	11773
752.700	11919
752.811	11155
752.922	11319
753.032	10861
753.143	12138
753.254	10771
753.365	11536
753.476	10230
753.586	11346
753.697	10662
753.808	11470
753.919	11245
754.029	10787
754.140	10683
754.251	11246
754.361	11464
754.472	10231
754.582	10958
754.693	10815
754.804	11048
754.914	10660
755.025	10546
755.135	10614
755.246	11146
755.356	9908
755.466	10700
755.577	11779
755.687	10264
755.798	11083
755.908	10832
756.018	10829
756.129	10858
756.239	10162
756.349	9905
756.460	10585
756.570	11935
756.680	10507
756.790	10945
756.900	10750
757.011	10740
757.121	11075
757.231	10415
757.341	10376
757.451	10275
757.561	9714
757.671	9658
757.781	10186
757.891	10272
758.001	10575
758.111	10802
758.221	10167
758.331	11845
758.441	10873
758.551	10705
758.661	10454
758.771	10754
758.880	10783
758.990	10767
759.100	11096
759.210	11214
759.320	11435
759.429	10567
759.539	10772
759.649	10923
759.758	10696
759.868	11232
759.978	10381
760.087	11038
760.197	11105
760.307	11368
760.416	10205
760.526	10518
760.635	10567
760.745	10852
760.854	10089
760.964	12030
761.073	10483
761.182	11841
761.292	10380
761.401	10415
761.511	9968
761.620	10429
761.729	10328
761.839	11119
761.948	10912
762.057	10824
762.166	10413
762.276	9748
762.385	11600
762.494	11116
762.603	10707
762.712	11219
762.822	11585
762.931	11299
763.040	10265
763.149	10713
763.258	11431
763.367	11533
763.476	11371
763.585	11388
763.694	11748
763.803	12048
763.912	11719
764.021	11763
764.130	11361
764.238	11323
764.347	12591
764.456	12180
764.565	11504
764.674	12154
764.783	12034
764.891	12289
765.000	12853
765.109	13237
765.217	13997
765.326	14646
765.435	16270
765.543	16814
765.652	17270
765.761	20382
765.869	26500
765.978	37147
766.086	56893
766.195	101875
766.303	229823
766.412	572805
766.520	623925
766.629	266998
766.737	96470
766.846	55097
766.954	37807
767.062	30253
767.171	24286
767.279	21245
767.387	18597
767.496	17175
767.604	16310
767.712	15643
767.820	14521
767.928	14953
768.037	14004
768.145	14100
768.253	14682
768.361	12867
768.469	14249
768.577	12985
768.685	12662
768.793	14086
768.901	14854
769.009	14361
769.117	15703
769.225	17896
769.333	21945
769.441	27739
769.549	44051
769.657	87316
769.765	237732
769.873	548085
769.981	320153
770.088	82890
770.196	41378
770.304	27275
770.412	21873
770.519	20017
770.627	16187
770.735	15799
770.842	14029
770.950	14567
771.058	13659
771.165	13629
771.273	13341
771.380	12641
771.488	12455
771.595	12916
771.703	12662
771.810	12760
771.918	11741
772.025	12253
772.133	12213
772.240	11732
772.348	13031
772.455	13226
772.562	12387
772.670	11930
772.777	12035
772.884	11183
772.991	11758
773.099	10832
773.206	11480
773.313	10622
773.420	11200
773.528	10566
773.635	11020
773.742	12218
773.849	11028
773.956	10557
774.063	10905
774.170	10467
774.277	11767
774.384	11159
774.491	10957
774.598	10585
774.705	11156
774.812	11539
774.919	11621
775.026	11147
775.133	11273
775.239	11462
775.346	10276
775.453	10371
775.560	10511
775.667	11662
775.773	9844
775.880	10764
775.987	10600
776.093	11068
776.200	10520
776.307	10695
776.413	10491
776.520	10213
776.627	10766
776.733	9750
776.840	9716
776.946	11218
777.053	10509
777.159	10124
777.266	9930
777.372	10291
777.478	11270
777.585	10347
777.691	9403
777.798	10298
777.904	10465
778.010	9790
778.117	11025
778.223	10427
778.329	10032
778.435	9196
778.542	10148
778.648	10511
778.754	9269
778.860	10391
778.966	10101
779.072	9659
779.178	9673
779.284	9722
779.391	9733
779.497	9108
779.603	11502
779.708	10782
779.815	11230
779.920	15815
780.026	33134
780.132	13690
780.238	9598
780.344	9589
780.450	10065
780.556	9928
780.661	8506
780.767	9749
780.873	8209
780.979	9209
781.085	8799
781.190	9277
781.296	8928
781.402	8782
781.507	9638
781.613	8759
781.719	8532
781.824	8973
781.930	9492
782.035	9067
782.141	8916
782.246	8543
782.352	8292
782.457	8476
782.563	8591
782.668	8993
782.773	8717
782.879	8188
782.984	8493
783.090	10320
783.195	9931
783.300	8851
783.405	8786
783.511	8020
783.616	8487
783.721	9465
783.826	8977
783.932	8687
784.037	8730
784.142	8279
784.247	8335
784.352	8717
784.457	8187
784.562	9363
784.667	8091
784.772	7930
784.877	8148
784.982	8375
785.087	8323
785.192	8051
785.297	8184
785.402	8241
785.507	8803
785.611	8008
785.716	8246
785.821	7937
785.926	7936
786.031	8235
786.135	8097
786.240	8446
786.345	7291
786.450	7864
786.554	7264
786.659	7505
786.763	7164
786.868	7824
786.973	7938
787.077	7723
787.182	8201
787.286	8812
787.391	7097
787.495	7989
787.600	7823
787.704	6534
787.809	7024
787.913	7460
788.017	7279
788.122	7360
788.226	7764
788.330	7501
788.435	7488
788.539	7306
788.643	7188
788.747	7481
788.852	7418
788.956	7304
789.060	8338
789.164	7300
789.268	7985
789.372	7825
789.476	7695
789.580	7512
789.684	6510
789.788	7096
789.892	7465
789.996	7793
790.100	7173
790.204	7579
790.308	7495
790.412	7162
790.516	7564
790.620	6514
790.724	7940
790.828	7776
790.931	7285
791.035	7791
791.139	7084
791.242	6240
791.346	7367
791.450	7796
791.554	7143
791.657	6389
791.761	7771
791.864	7565
791.968	7495
792.072	8359
792.175	7127
792.279	7059
792.382	6799
792.486	6966
792.589	6768
792.693	7755
792.796	7179
792.899	7025
793.003	6944
793.106	5912
793.209	7279
793.313	7651
793.416	6316
793.519	7671
793.623	7604
793.726	8312
793.829	6629
793.932	6656
794.035	6127
794.138	6794
794.242	6902
794.345	6524
794.448	7800
794.551	7242
794.654	11244
794.757	18069
794.860	10049
794.963	7662
795.066	6085
795.169	7559
795.272	6347
795.375	6625
795.477	5292
795.580	6965
795.683	5530
795.786	6690
795.889	5313
795.991	7026
796.094	7112
796.197	5976
796.300	7555
796.402	5635
796.505	5164
796.608	6017
796.710	7386
796.813	6464
796.915	5378
797.018	6125
797.120	5771
797.223	5280
797.326	6822
797.428	6154
797.530	7067
797.633	6144
797.735	6321
797.838	7762
797.940	7937
798.042	5696
798.145	6150
798.247	6326
798.349	5502
798.452	6337
798.554	6003
798.656	5949
798.758	6314
798.860	6584
798.962	5639
799.065	5484
799.167	5683
799.269	6693
799.371	6219
799.473	6508
799.575	6517
799.677	7401
799.779	7065
799.881	5946
799.983	6857
800.085	5265
800.187	5515
800.289	4997
800.390	4674
800.492	6149
800.594	6248
800.696	5865
800.798	5407
800.899	5819
801.001	5441
801.103	4971
801.205	5624
801.306	5816
801.408	5545
801.509	5008
801.611	5625
801.713	5327
801.814	5294
801.916	5208
802.017	5359
802.119	4351
802.220	5280
802.322	4382
802.423	6923
802.525	4760
802.626	5801
802.727	5592
802.829	5579
802.930	3863
803.031	6052
803.133	4863
803.234	5524
803.335	5430
803.436	4921
803.538	4891
803.639	4716
803.740	5384
803.841	4321
803.942	5024
804.043	5608
804.144	4867
804.245	5276
804.346	4549
804.447	5556
804.548	5599
804.649	5916
804.750	4854
804.851	4365
804.952	4175
805.053	5103
805.154	4436
805.255	4880
805.355	4830
805.456	4525
805.557	4224
805.658	4386
805.758	5277
805.859	5294
805.960	5277
806.061	5358
806.161	3946
806.262	5572
806.362	4478
806.463	5164
806.564	5179
806.664	5207
806.765	5023
806.865	5039
806.966	5428
807.066	4720
807.166	5753
807.267	4975
807.367	4605
807.468	5421
807.568	3877
807.668	4847
807.769	5766
807.869	4376
807.969	4984
808.069	4408
808.170	4063
808.270	3981
808.370	5592
808.470	5197
808.570	4338
808.670	4982
808.770	5041
808.870	4893
808.970	5081
809.070	3798
809.170	3995
809.271	5199
809.370	5626
809.470	5311
809.570	4231
809.670	4362
809.770	4868
809.870	5324
809.970	4905
810.070	4731
810.169	5193
810.269	3944
810.369	4787
810.469	4193
810.568	4450
810.668	5142
810.768	5369
810.867	4758
810.967	4248
811.066	3905
811.166	4217
811.265	4955
811.365	4270
811.464	5404
811.564	4248
811.663	4640
811.763	4340
811.862	4842
811.962	5203
812.061	4959
812.160	3767
812.260	4859
812.359	5025
812.458	5693
812.557	9628
812.657	13074
812.756	7622
812.855	4615
812.954	4794
813.053	5438
813.153	4850
813.252	4580
813.351	5183
813.450	3907
813.549	4269
813.648	4609
813.747	4703
813.846	5716
813.945	4610
814.044	5224
814.143	4529
814.242	5619
814.341	4365
814.439	5480
814.538	5414
814.637	5336
814.736	5391
814.835	5785
814.933	5187
815.032	5749
815.131	6034
815.229	6590
815.328	7577
815.427	6496
815.525	6527
815.624	7525
815.722	6537
815.821	7172
815.919	6300
816.018	6059
816.116	7325
816.215	7089
816.313	7435
816.412	7345
816.510	8167
816.609	9179
816.707	8799
816.805	8725
816.904	9489
817.002	9835
817.100	9993
817.198	12422
817.296	11879
817.395	13739
817.493	15400
817.591	17436
817.689	22433
817.787	28648
817.885	39751
817.983	65101
818.081	112317
818.179	216448
818.277	400715
818.375	413139
818.473	224574
818.571	112136
818.669	71740
818.767	59274
818.865	55040
818.963	60608
819.061	79892
819.158	115450
819.256	195920
819.354	333493
819.452	496106
819.549	436692
819.647	274430
819.745	152115
819.842	93554
819.940	64046
820.038	46603
820.135	36734
820.233	30491
820.330	25239
820.428	22038
820.525	18724
820.623	17490
820.720	14313
820.818	14305
820.915	13338
821.012	11872
821.110	10216
821.207	10086
821.304	9230
821.402	9224
821.499	9703
821.596	8848
821.693	7608
821.791	8821
821.888	7743
821.985	9146
822.082	8640
822.179	7136
822.276	7172
822.373	6549
822.470	6804
822.567	6828
822.664	5747
822.761	6251
822.858	6105
822.955	5887
823.052	5734
823.149	6011
823.246	5935
823.343	5154
823.440	5594
823.536	5550
823.633	5511
823.730	5092
823.827	5572
823.923	5868
824.020	5801
824.117	5192
824.213	4493
824.310	5261
824.407	4778
824.503	5001
824.600	4464
824.696	5132
824.793	5694
824.889	4913
824.986	4995
825.082	3798
825.179	4801
825.275	4198
825.371	4554
825.468	5090
825.564	3333
825.660	4421
825.757	4595
825.853	5250
825.949	3810
826.045	4717
826.142	3663
826.238	4282
826.334	4571
826.430	3884
826.526	4024
826.622	3606
826.718	3579
826.814	4308
826.910	4949
827.006	3139
827.102	3845
827.198	4762
827.294	3214
827.390	4623
827.486	4906
827.582	3005
827.678	3233
827.774	5113
827.869	3531
827.965	4911
828.061	2793
828.157	3880
828.252	3839
828.348	2982
828.444	4360
828.539	3903
828.635	4032
828.731	4665
828.826	3045
828.922	3998
829.017	2913
829.113	4036
829.208	3101
829.304	2925
829.399	4929
829.495	3678
829.590	4810
829.685	3841
829.781	4170
829.876	3951
829.971	3740
830.066	3664
830.162	3596
830.257	3189
830.352	3648
830.447	4245
830.543	3870
830.638	2718
830.733	4758
830.828	3775
830.923	3758
831.018	4174
831.113	3722
831.208	3045
831.303	3113
831.398	3428
831.493	3213
831.588	4157
831.683	3427
831.778	4168
831.873	3700
831.967	3989
832.062	3355
832.157	3502
832.252	4741
832.346	3627
832.441	3550
832.536	4439
832.631	7417
832.725	6816
832.820	3847
832.914	2949
833.009	3602
833.104	3432
833.198	4185
833.293	3041
833.387	3161
833.482	3580
833.576	2204
833.670	3956
833.765	3657
833.859	3043
833.954	4363
834.048	4326
834.142	3683
834.237	3454
834.331	3674
834.425	3112
834.519	2804
834.613	4422
834.708	3314
834.802	3152
834.896	2708
834.990	2678
835.084	3608
835.178	3331
835.272	2796
835.366	3363
835.460	3847
835.554	2931
835.648	2729
835.742	2785
835.836	3015
835.930	2851
836.024	4575
836.117	3293
836.211	3730
836.305	4867
836.399	5218
836.493	2455
836.586	4528
836.680	2490
836.774	3028
836.867	3640
836.961	2836
837.055	2406
837.148	2436
837.242	3667
837.335	2136
837.429	2945
837.522	2570
837.616	3107
837.709	4214
837.803	4134
837.896	4454
837.989	3372
838.083	3846
838.176	4800
838.269	5051
838.363	3940
838.456	3277
838.549	4199
838.642	4559
838.735	6930
838.829	5489
838.922	2758
839.015	3328
839.108	2718
839.201	2954
839.294	2789
839.387	3364
839.480	2981
839.573	3649
839.666	3811
839.759	3673
839.852	2632
839.945	2713
840.038	3272
840.131	2760
840.223	3388
840.316	3423
840.409	2996
840.502	3191
840.594	3696
840.687	1903
840.780	3003
840.873	2686
840.965	2987
841.058	3558
841.150	4801
841.243	4100
841.336	3129
841.428	2828
841.521	1817
841.613	2082
841.706	3245
841.798	2828
841.890	3355
841.983	2424
842.075	2769
842.167	2764
842.260	2045
842.352	3839
842.444	4176
842.537	3893
842.629	6815
842.721	4305
842.813	2798
842.905	2216
842.997	3362
843.090	3433
843.182	4101
843.274	4945
843.366	8007
843.458	13913
843.550	12311
843.642	4437
843.734	3359
843.826	3519
843.918	3743
844.009	2319
844.101	2079
844.193	2149
844.285	2943
844.377	3208
844.469	2916
844.560	2640
844.652	2950
844.744	3427
844.835	2897
844.927	3021
845.019	2977
845.110	2973
845.202	3083
845.293	2711
845.385	2748
845.476	2762
845.568	3264
845.659	2306
845.751	3454
845.842	2410
845.934	2374
846.025	1896
846.116	3428
846.208	2738
846.299	2520
846.390	2811
846.482	3599
846.573	2655
846.664	3124
846.755	3623
846.846	4139
846.937	1635
847.029	3418
847.120	1824
847.211	2222
847.302	3420
847.393	1507
847.484	3117
847.575	1673
847.666	2308
847.757	2556
847.847	2260
847.938	3658
848.029	2126
848.120	2550
848.211	3116
848.302	2282
848.392	2531
848.483	2173
848.574	2123
848.664	1769
848.755	2276
848.846	2338
848.936	2069
849.027	2575
849.118	2097
849.208	2497
849.299	3194
849.389	3229
849.480	3625
849.570	4411
849.661	4497
849.751	8079
849.841	4659
849.932	2294
850.022	2388
850.112	2468
850.203	2354
850.293	2636
850.383	2231
850.474	2023
850.564	1905
850.654	2370
850.744	2871
850.834	2815
850.924	2838
851.014	2821
851.104	2667
851.194	2676
851.284	3243
851.374	2958
851.464	2552
851.554	2933
851.644	2888
851.734	3472
851.824	2718
851.914	2473
852.004	2499
852.094	2115
852.183	2632
852.273	2626
852.363	2549
852.452	2705
852.542	2887
852.632	2075
852.721	2382
852.811	2214
852.901	3392
852.990	2806
853.080	2784
853.169	2262
853.259	2440
853.348	1849
853.438	2468
853.527	3312
853.617	2092
853.706	3640
853.795	3967
853.885	8697
853.974	13751
854.063	21547
854.152	35637
854.242	20211
854.331	4848
854.420	3063
854.509	2547
854.598	3282
854.687	2473
854.777	2535
854.866	2421
854.955	2604
855.044	2210
855.133	1880
855.222	2232
855.311	1609
855.400	1902
855.488	2354
855.577	1619
855.666	2696
855.755	2665
855.844	2047
855.933	2005
856.021	2304
856.110	2810
856.199	1702
856.288	2089
856.376	2678
856.465	2454
856.554	2342
856.642	1404
856.731	2878
856.819	3381
856.908	2011
856.996	2353
857.085	2435
857.173	2494
857.262	2223
857.350	2744
857.438	1878
857.527	2744
857.615	2160
857.703	3601
857.792	2448
857.880	2011
857.968	2355
858.056	2341
858.145	2677
858.233	2403
858.321	1570
858.409	2748
858.497	1983
858.585	1990
858.673	2388
858.761	1409
858.849	2659
858.937	2245
859.025	2482
859.113	2071
859.201	2148
859.289	2123
859.377	2102
859.465	2981
859.552	2042
859.640	1387
859.728	2104
859.816	2179
859.903	2560
859.991	1505
860.079	2428
860.166	2202
860.254	2157
860.342	1849
860.429	1708
860.517	1368
860.604	2646
860.692	2112
860.779	2063
860.867	1897
860.954	2347
861.042	2328
861.129	2203
861.216	2727
861.304	2629
861.391	1855
861.478	2151
861.565	2113
861.653	2821
861.740	2275
861.827	2171
861.914	1883
862.001	1831
862.089	2436
862.176	2182
862.263	1819
862.350	1964
862.437	2275
862.524	1625
862.611	2006
862.698	1933
862.785	2619
862.871	1929
862.958	1827
863.045	1032
863.132	1988
863.219	2185
863.306	1872
863.392	2240
863.479	1322
863.566	1918
863.652	2418
863.739	2202
863.826	1970
863.912	1906
863.999	1363
864.086	2231
864.172	2038
864.259	2644
864.345	1649
864.432	2098
864.518	1758
864.604	2368
864.691	2512
864.777	2757
864.863	2648
864.950	2773
865.036	2277
865.122	2478
865.209	4346
865.295	2646
865.381	3523
865.467	3380
865.553	3082
865.639	2762
865.726	3606
865.812	5468
865.898	7923
865.984	10639
866.070	17874
866.156	23739
866.242	9360
866.328	4460
866.414	2954
866.499	3217
866.585	3756
866.671	3311
866.757	2762
866.843	3187
866.928	2026
867.014	2644
867.100	3245
867.186	2895
867.271	3331
867.357	2900
867.442	3600
867.528	2911
867.614	2328
867.699	2966
867.785	3225
867.870	2451
867.956	3266
868.041	2636
868.127	2601
868.212	2448
868.297	3137
868.383	2267
868.468	3676
868.553	4337
868.639	4607
868.724	5757
868.809	7955
868.894	4480
868.979	3106
869.065	2849
869.150	2247
869.235	2791
869.320	2223
869.405	2320
869.490	2224
869.575	2060
869.660	2466
869.745	1951
869.830	2434
869.915	3047
870.000	1796
870.085	2018
870.169	2587
870.254	3384
870.339	2878
870.424	1814
870.509	2436
870.593	1823
870.678	1924
870.763	1831
870.847	2499
870.932	1980
871.016	2725
871.101	1451
871.186	2788
871.270	2907
871.355	2171
871.439	2281
871.523	2728
871.608	1511
871.692	1412
871.777	3191
871.861	2421
871.945	2376
872.030	2420
872.114	2060
872.198	1846
872.282	1695
872.367	1684
872.451	2235
872.535	2096
872.619	2051
872.703	2480
872.787	2330
872.871	2126
872.955	2948
873.039	924
873.123	2042
873.207	2456
873.291	1725
873.375	1591
873.459	2134
873.543	1751
873.627	2281
873.711	2056
873.794	1918
873.878	2551
873.962	1717
874.045	2596
874.129	1561
874.137	1596
874.213	1953
874.245	1921
874.296	1865
874.352	1252
874.380	954
874.460	1735
874.464	1767
874.547	697
874.568	1070
874.631	2171
874.676	2162
874.714	2149
874.784	1787
874.798	1719
874.881	1844
874.892	1763
874.965	1205
874.999	1584
875.048	2118
875.107	1877
875.131	1787
875.215	1839
875.215	1839
875.298	1601
875.323	1428
875.381	1065
875.430	1325
875.465	1518
875.538	1703
875.548	1719
875.631	1238
875.646	1264
875.714	1394
875.753	1352
875.798	1295
875.861	1293
875.881	1323
875.964	2425
875.968	2385
876.047	1585
876.076	1652
876.130	1798
876.183	1798
876.213	1793
876.291	1999
876.296	2006
876.379	1326
876.398	1412
876.462	1724
876.506	1481
876.545	1322
876.613	802
876.628	677
876.711	1548
876.721	1529
876.794	1397
876.828	1587
876.877	1866
876.935	1503
876.960	1341
877.043	1054
877.043	1057
877.125	1573
877.150	1525
877.208	1429
877.258	1482
877.291	1447
877.365	1079
877.374	1063
877.456	1244
877.472	1329
877.539	1527
877.579	1405
877.622	1256
877.687	1404
877.704	1494
877.787	1450
877.794	1415
877.869	1011
877.901	1402
877.952	1839
878.008	1280
878.034	1080
878.115	815
878.117	808
878.199	919
878.222	802
878.282	569
878.329	1054
878.364	1448
878.437	1579
878.447	1569
878.529	759
878.544	700
878.611	508
878.651	584
878.694	689
878.758	1147
878.776	1265
878.858	880
878.865	906
878.941	1012
878.972	808
879.023	707
879.078	527
879.105	448
879.185	1134
879.187	1141
879.269	972
879.292	935
879.351	960
879.399	935
879.433	954
879.506	1084
879.516	1070
879.598	1418
879.613	1223
879.680	516
879.720	741
879.762	1008
879.827	1020
879.844	974
879.926	582
879.933	569
880.007	637
880.040	875
880.089	1133
880.147	1197
880.171	1274
880.253	1998
880.254	1998
880.335	1294
880.360	1470
880.417	2049
880.467	1977
880.499	2002
880.574	3125
880.580	3154
880.662	1694
880.680	1522
880.744	971
880.787	844
880.825	1101
880.893	1121
880.907	971
880.989	975
881.000	872
881.070	706
881.106	671
881.152	693
881.213	1011
881.233	938
881.315	252
881.319	219
881.396	499
881.426	627
881.478	664
881.532	1373
881.559	1546
881.639	351
881.641	334
881.722	421
881.745	546
881.803	686
881.852	548
881.885	440
881.958	678
881.966	706
882.047	920
882.064	942
882.129	1237
882.171	1290
882.210	1040
882.277	842
882.291	931
882.372	1347
882.383	1408
882.454	1266
882.489	831
882.535	334
882.596	216
882.616	214
882.697	468
882.702	493
882.778	1179
882.808	1172
882.859	481
882.914	13
882.940	76
883.020	359
883.021	358
883.102	573
883.127	647
883.183	878
883.233	614
883.264	334
883.339	27
883.345	30
883.426	223
883.445	325
883.507	732
883.551	809
883.587	773
883.657	943
883.668	933
883.749	822
883.763	773
883.830	488
883.869	297
883.910	358
883.975	751
883.991	859
884.072	888
884.081	960
884.152	993
884.187	856
884.233	729
884.292	655
884.314	705
884.394	289
884.398	299
884.475	139
884.504	79
884.555	195
884.610	319
884.636	490
884.716	877
884.716	873
884.797	415
884.821	265
884.877	793
884.927	1066
884.958	758
885.033	434
885.038	437
885.118	309
885.139	281
885.199	226
885.244	183
885.279	338
885.350	785
885.359	776
885.439	478
885.456	412
885.520	477
885.561	665
885.600	560
885.667	196
885.680	233
885.760	861
885.773	865
885.840	727
885.878	806
885.920	788
885.984	697
886.000	586
886.080	292
886.089	237
886.160	606
886.195	794
886.240	828
886.300	840
886.320	788
886.400	616
886.406	608
886.480	367
886.511	287
886.560	604
886.616	828
886.640	527
886.720	-250
886.722	-266
886.800	9
886.827	83
886.879	404
886.932	659
886.959	673
887.038	890
887.039	886
887.119	495
887.143	431
887.198	316
887.248	255
887.278	500
887.354	1011
887.358	995
887.437	631
887.459	578
887.517	554
887.564	478
887.596	345
887.669	15
887.676	11
887.755	33
887.774	64
887.835	78
887.880	80
887.914	164
887.985	309
887.994	352
888.073	657
888.090	761
888.153	558
888.195	361
888.232	301
888.300	263
888.311	256
888.391	164
888.405	161
888.470	264
888.510	311
888.549	426
888.615	643
888.628	616
888.708	442
888.720	425
888.787	570
888.825	641
888.866	506
888.930	289
888.945	282
889.024	296
889.035	298
889.103	426
889.140	502
889.182	559
889.245	670
889.261	585
889.340	178
889.349	138
889.419	-114
889.454	-245
889.498	32
889.559	463
889.577	346
889.656	-158
889.664	-200
889.735	150
889.768	322
889.814	146
889.873	-78
889.978	-53
890.083	376
890.187	-198
890.292	-327
890.397	315
890.501	55
890.606	-25
890.710	303
890.815	408
890.919	388
891.024	331
891.128	83
891.233	767
891.337	-174
891.442	700
891.546	92
891.650	199
891.755	79
891.859	784
891.963	701
892.068	179
892.172	54
892.276	921
892.380	121
892.484	15
892.589	325
892.693	266
892.797	466
892.901	-281
893.005	391
893.109	472
893.213	62
893.317	1005
893.421	406
893.525	-604
893.629	278
893.733	118
893.837	-206
893.941	-314
894.045	-354
894.148	297
894.252	225
894.356	-429
894.460	-271
894.564	921
894.667	-321
894.771	380
894.875	23
894.978	-128
895.082	38
895.186	-117
895.289	934
895.393	331
895.496	624
895.600	-329
895.703	229
895.807	-365
895.910	226
896.014	119
896.117	693
896.221	547
896.324	-17
896.427	192
896.531	-56
896.634	778
896.737	375
896.840	875
896.944	581
897.047	38
897.150	-831
897.253	374
897.356	503
897.460	889
897.563	323
897.666	472
897.769	802
897.872	132
897.975	-175
898.078	26
898.181	42
898.284	179
898.387	-125
898.490	430
898.593	-129
898.695	830
898.798	434
898.901	652
899.004	726
899.107	134
899.209	690
899.312	-122
899.415	209
899.518	782
899.620	306
899.723	307
899.826	812
899.928	882
900.031	-642
900.133	774
900.236	-146
900.338	321
900.441	281
900.543	215
900.646	-346
900.748	745
900.851	75
900.953	-668
901.055	-125
901.158	680
901.260	-31
901.362	317
901.465	-149
901.567	391
901.669	222
901.771	99
901.873	-83
901.976	-9
902.078	849
902.180	-73
902.282	-174
902.384	573
902.486	751
902.588	300
902.690	1108
902.792	84
902.894	-442
902.996	-365
903.098	-133
903.200	-385
903.302	507
903.404	644
903.505	8
903.607	189
903.709	358
903.811	1163
903.913	226
904.014	307
904.116	135
904.218	34
904.319	825
904.421	611
904.523	-292
904.624	-29
904.726	357
904.827	-107
904.929	484
905.030	602
905.132	-263
905.233	188
905.335	-248
905.436	-382
905.537	545
905.639	650
905.740	-1164
905.841	591
905.943	87
906.044	120
906.145	-328
906.247	180
906.348	685
906.449	1121
906.550	41
906.651	67
906.752	-221
906.854	-213
906.955	3
907.056	320
907.157	532
907.258	286
907.359	-477
907.460	-313
907.561	-393
907.662	-216
907.762	290
907.863	433
907.964	175
908.065	581
908.166	-586
908.267	-213
908.367	-254
908.468	726
908.569	-406
908.670	240
908.770	292
908.871	463
908.971	155
909.072	-85
909.173	-93
909.273	226
909.374	-286
909.474	326
909.575	-614
909.675	250
909.776	-18
909.876	638
909.977	-1024
910.077	53
910.177	20
910.278	244
910.378	-342
910.478	359
910.579	-460
910.679	371
910.779	152
910.879	867
910.980	-617
911.080	-256
911.180	-486
911.280	-8
911.380	145
911.480	238
911.580	-470
911.680	-222
911.780	-381
911.880	1037
911.980	143
912.080	-31
912.180	721
912.280	208
912.380	399
912.480	51
912.580	596
912.679	114
912.779	65
912.879	-34
912.979	-364
913.078	44
913.178	39
913.278	-59
913.377	-254
913.477	-266
913.577	100
913.676	83
913.776	-187
913.875	-136
913.975	-142
914.074	528
914.174	-264
914.273	-187
914.373	579
914.472	778
914.572	-509
914.671	649
914.770	131
914.870	-236
914.969	335
915.068	-185
915.167	-383
915.267	330
915.366	166
915.465	1162
915.564	-903
915.663	130
915.763	350
915.862	-196
915.961	-114
916.060	73
916.159	-54
916.258	272
916.357	-295
916.456	46
916.555	-150
916.654	-69
916.752	-419
916.851	-383
916.950	-548
917.049	-562
917.148	-463
917.247	481
917.345	-960
917.444	-232
917.543	12
917.642	1068
917.740	-284
917.839	-19
917.937	79
918.036	294
918.135	-317
918.233	450
918.332	-735
918.430	373
918.529	-277
918.627	303
918.726	-393
918.824	747
918.923	-284
919.021	-988
919.119	-280
919.218	-642
919.316	-387
919.414	234
919.512	-145
919.611	240
919.709	-314
919.807	533
919.905	-103
920.003	180
920.102	-542
920.200	319
920.298	-189
920.396	-254
920.494	-244
920.592	-43
920.690	72
920.788	-503
920.886	-725
920.984	3
921.082	-46
921.180	314
921.277	20
921.375	-99
921.473	-610
921.571	275
921.669	-282
921.766	510
921.864	815
921.962	177
922.060	-348
922.157	-145
922.255	222
922.352	279
922.450	838
922.548	-67
922.645	-656
922.743	571
922.840	-181
922.938	108
923.035	715
923.133	-236
923.230	-358
923.327	986
923.425	414
923.522	26
923.619	297
923.717	434
923.814	164
923.911	191
924.008	821
924.106	178
924.203	-533
924.300	537
924.397	-116
924.494	630
924.591	-422
924.688	-18
924.786	648
924.883	222
924.979	675
925.077	365
925.173	-675
925.270	400
925.367	335
925.464	648
925.561	429
925.658	457
925.755	-122
925.852	827
925.948	169
926.045	131
926.142	-724
926.239	-387
926.335	-33
926.432	243
926.529	-279
926.625	550
926.722	-6
926.818	175
926.915	-577
927.011	-125
927.108	274
927.204	974
927.301	-298
927.397	704
927.494	-125
927.590	552
927.687	-274
927.783	275
927.879	-775
927.976	49
928.072	177
928.168	472
928.264	-158
928.361	105
928.457	1065
928.553	80
928.649	-291
928.745	-134
928.841	424
928.937	-31
929.033	84
929.129	-434
929.225	-40
929.321	-20
929.417	-116
929.513	-79
929.609	-436
929.705	-379
929.801	-799
929.897	-425
929.993	-506
930.089	374
930.184	-151
930.280	-510
930.376	486
930.471	-159
930.567	-256
930.663	369
930.758	-611
930.854	-26
930.950	585
931.045	-261
931.141	-463
931.236	-1
931.332	-680
931.427	-199
931.523	-543
931.618	-234
931.714	-73
931.809	-510
931.905	-31
932.000	-328
932.095	-236
932.191	-104
932.286	415
932.381	515
932.476	-647
932.572	-185
932.667	-301
932.762	-2
932.857	-87
932.952	179
933.047	-405
933.142	-665
933.237	-230
933.332	-85
933.427	94
933.522	515
933.617	183
933.712	-57
933.807	-91
933.902	258
933.997	680
934.092	-14
934.187	-471
934.282	824
934.376	-422
934.471	-52
934.566	412
934.661	-17
934.755	-373
934.850	234
934.945	-435
935.039	-135
935.134	-88
935.228	-25
935.323	254
935.417	83
935.512	-662
935.606	216
935.701	-877
935.795	72
935.890	-67
935.984	906
936.079	-494
936.173	244
936.267	-306
936.362	-597
936.456	-203
936.550	-38
936.644	317
936.738	-240
936.833	-72
936.927	-193
937.021	-1105
937.115	63
937.209	-1101
937.303	255
937.397	232
937.491	1242
937.585	504
937.679	97
937.773	-397
937.867	-635
937.961	-378
938.055	-124
938.149	-437
938.243	796
938.337	173
938.430	-168
938.524	-288
938.618	237
938.712	69
938.805	614
938.899	243
938.993	-257
939.086	-436
939.180	-78
939.274	-1
939.367	87
939.461	-84
939.554	-496
939.648	-484
939.741	-230
939.835	-220
939.928	262
940.022	-58
940.115	-50
940.208	-141
940.302	35
940.395	-684
940.488	-152
940.582	-201
940.675	-343
940.768	432
940.861	-259
940.954	-57
941.048	-287
941.141	-985
941.234	-442
941.327	251
941.420	680
941.513	-303
941.606	-644
941.699	-250
941.792	557
941.885	-113
941.978	-17
942.071	-263
942.164	51
942.257	322
942.349	-206
942.442	-257
942.535	-622
942.628	-743
942.721	162
942.813	-193
942.906	317
942.999	35
943.091	-810
943.184	-521
943.277	-386
943.369	21
943.462	-214
943.554	-42
943.647	400
943.739	-705
943.832	-165
943.924	184
944.017	-24
944.109	-763
944.201	655
944.294	-150
944.386	-80
944.478	-307
944.571	95
944.663	234
944.755	1072
944.847	434
944.940	-149
945.032	-974
945.124	172
945.216	59
945.308	-434
945.400	216
945.492	456
945.584	793
945.676	-226
945.768	46
945.860	180
945.952	-571
946.044	-286
946.136	-397
946.228	42
946.320	331
946.412	814
946.503	-573
946.595	290
946.687	-399
946.779	-290
946.870	-104
946.962	282
947.054	177
947.145	-207
947.237	-925
947.329	-89
947.420	-783
947.512	182
947.603	88
947.695	-429
947.786	285
947.878	-322
947.969	-190
948.061	-615
948.152	-172
948.243	622
948.335	-536
948.426	-154
948.517	-426
948.609	-612
948.700	-690
948.791	310
948.882	-677
948.973	-144
949.065	-292
949.156	-266
949.247	-478
949.338	33
949.429	-607
949.520	186
949.611	-494
949.702	245
949.793	114
949.884	-401
949.975	-146
950.066	599
950.157	-727
950.247	-1247
950.338	-634
950.429	-779
950.520	-183
950.611	133
950.701	-29
950.792	-175
950.883	-10
950.973	179
951.064	-445
951.155	194
951.245	183
951.336	42
951.427	-222
951.517	539
951.608	18
951.698	-107
951.788	-111
951.879	-350
951.969	-132
952.060	90
952.150	-711
952.240	34
952.331	-1016
952.421	593
952.511	-225
952.602	-372
952.692	-697
952.782	327
952.872	-862
952.962	-75
953.052	9
953.143	-791
953.233	-9
953.323	572
953.413	-581
953.503	-291
953.593	699
953.683	14
953.773	-477
953.863	-461
953.953	-576
954.042	422
954.132	-510
954.222	153
954.312	-291
954.402	-597
954.492	-190
954.581	137
954.671	-1499
954.761	-547
954.850	17
954.940	243
955.030	-229
955.119	-128
955.209	-491
955.298	-524
955.388	-651
955.477	-237
955.567	-260
955.656	384
955.746	-307
955.835	113
955.925	-401
956.014	56
956.103	-952
956.193	-728
956.282	-262
956.371	74
956.461	-592
956.550	-305
956.639	-771
956.728	-488
956.817	103
956.906	293
956.995	455
957.085	-414
957.174	-337
957.263	-524
957.352	-568
957.441	1015
957.530	-499
957.619	-410
957.708	-489
957.796	-2
957.885	-130
957.974	278
958.063	32
958.152	-86
958.241	-239
958.329	-1021
958.418	263
958.507	-214
958.596	-324
958.684	-1139
958.773	-37
958.861	73
958.950	-1136
959.039	-14
959.127	-631
959.216	-42
959.304	-147
959.393	-291
959.481	-1028
959.570	409
959.658	-445
959.746	360
959.835	-981
959.923	-62
960.011	-1133
960.100	89
960.188	-234
960.276	-560
960.365	74
960.453	-550
960.541	-1078
960.629	-345
960.717	-760
960.805	-312
960.893	-696
960.981	-1094
961.069	-63
961.158	-567
961.245	-1364
961.333	123
961.421	-195
961.509	-43
961.597	-585
961.685	9
961.773	-873
961.861	-932
961.949	218
962.036	-875
962.124	-527
962.212	-346
962.299	-1000
962.387	-727
962.475	-151
962.562	-872
962.650	-709
962.738	-683
962.825	-440
962.913	-281
963.000	-978
963.088	-394
963.175	-475
963.263	27
963.350	-1031
963.438	-738
963.525	-643
963.612	163
963.700	225
963.787	1440
963.874	-492
963.962	-419
964.049	-358
964.136	-599
964.223	-834
964.310	-653
964.398	-314
964.485	-1437
964.572	-1101
964.659	-725
964.746	-779
964.833	-955
964.920	-906
965.007	85
965.094	113
965.181	-1080
965.268	-770
965.355	-736
965.441	-1157
965.528	-1121
965.615	584
965.702	-382
965.789	-860
965.875	-187
965.962	-1417
966.049	-552
966.136	-300
966.222	-776
966.309	-1320
966.395	-874
966.482	-1049
966.569	-1160
966.655	-559
966.742	-827
966.828	-1370
966.915	-699
967.001	-549
967.087	-631
967.174	-228
967.260	-652
967.347	-1718
967.433	-512
967.519	817
967.605	-664
967.692	-420
967.778	-468
967.864	-800
967.950	-793
968.036	-642
968.123	-306
968.209	-689
968.295	-1067
968.381	-66
968.467	-315
968.553	-1606
968.639	303
968.725	-1657
968.811	141
968.897	-661
968.983	-172
969.069	-1182
969.154	-86
969.240	302
969.326	-1095
969.412	-1282
969.497	-141
969.583	-1355
969.669	-20
969.755	-27
969.840	394
969.926	-823
970.012	-557
970.097	-499
970.183	-826
970.268	-1089
970.354	445
970.439	-1216
970.525	840
970.610	-229
970.696	278
970.781	-119
970.866	-1092
970.952	-688
971.037	-964
971.122	-875
971.208	8
971.293	-381
971.378	-878
971.463	-1071
971.549	-943
971.634	-475
971.719	-482
971.804	-584
971.889	-649
971.974	-1380
972.059	-100
972.144	-1215
972.229	-477
972.314	-759
972.399	-232
972.484	-1341
972.569	-739
972.654	-724
972.739	516
972.824	-909
972.908	-850
972.993	-1144
973.078	-1089
973.163	-544
973.247	-1354
973.332	-2008
973.417	353
973.501	-1784
973.586	-126
973.671	-470
973.755	-1071
973.840	-495
973.924	-447
974.009	-1435
974.093	-1176
974.178	-234
974.262	-1422
974.346	-481
974.431	-233
974.515	-767
974.600	-964
974.684	-495
974.768	-965
974.852	-119
974.937	-1427
975.021	217
975.105	-415
975.189	-780
975.273	384
975.358	-757
975.442	-1125
975.526	-486
975.610	-1226
975.694	-1530
975.778	-296
975.862	-255
975.946	-2276
976.030	-358
976.114	-1028
976.198	-574
976.281	-792
976.365	134
976.449	-608
976.533	187
976.617	-963
976.700	-668
976.784	-1701
976.868	-1051
976.951	-1125
977.035	-300
977.119	-874
977.202	-1369
977.286	-812
977.369	-781
977.453	-518
977.536	-446
977.620	-1017
977.703	-62
977.787	-1491
977.870	-1085
977.953	-276
978.037	-1301
978.120	85
978.203	-887
978.287	-1349
978.370	-880
978.453	-1210
978.536	-493
978.620	-335
978.703	-1515
978.786	-486
978.869	-1112
978.952	-988
979.035	-83
979.118	-153
979.201	-1008
979.284	-338
979.367	-943
979.450	-331
979.533	-883
979.616	-874
979.699	-1463
979.782	-519
979.865	-567
979.948	-783
980.030	-1134
980.113	-1061
980.196	-1510
980.279	-832
980.361	-1119
980.444	-1028
980.526	-690
980.609	-706
980.692	-970
980.774	-540
980.857	-1622
980.939	-262
981.022	-859
981.104	-1070
981.187	-1435
981.269	-514
981.352	-944
981.434	-1170
981.516	-1479
981.599	-223
981.681	-1380
981.763	-313
981.846	-1158
981.928	-699
982.010	-774
982.092	-1565
982.174	-781
982.256	-1249
982.339	-953
982.421	-1310
982.503	-569
982.585	-1115
982.667	-2199
982.749	-705
982.831	-706
982.913	-1511
982.995	-732
983.077	-1894
983.158	-929
983.240	-1532
983.322	0
983.404	-730
983.486	-1553
983.568	-413
983.649	-528
983.731	-422
983.813	-1310
983.894	-676
983.976	-1629
984.058	-666
984.139	-769
984.221	-818
984.302	-1055
984.384	-741
984.465	-1492
984.547	-1605
984.628	-1430
984.710	-1493
984.791	-1356
984.872	-711
984.954	-725
985.035	-345
985.116	-2037
985.198	-1204
985.279	-696
985.360	-1122
985.441	-1593
985.522	-872
985.604	-1572
985.685	-2079
985.766	396
985.847	-453
985.928	-1478
986.009	-564
986.090	-1134
986.171	97
986.252	-791
986.333	-169
986.414	-1718
986.495	-1196
986.576	-1764
986.656	-510
986.737	-1067
986.818	-1364
986.899	-1875
986.980	-102
987.060	-604
987.141	-1218
987.222	-1592
987.302	-873
987.383	-1309
987.464	-1249
987.544	-137
987.625	-1346
987.705	-354
987.786	-899
987.866	-634
987.947	-524
988.027	-1446
988.108	-1456
988.188	-880
988.268	-858
988.349	-1054
988.429	-907
988.509	-1340
988.589	-1137
988.670	-2062
988.750	-246
988.830	-1289
988.910	-756
988.990	-877
989.070	-1018
989.151	-1604
989.231	-1998
989.311	-869
989.391	-640
989.471	-1080
989.551	-817
989.631	-1155
989.711	-781
989.791	-1502
989.870	-1749
989.950	-595
990.030	-1395
990.110	-965
990.190	-1350
990.269	-1523
990.349	-1134
990.429	-1168
990.509	-841
990.588	-1759
990.668	-1315
990.747	-2080
990.827	-1288
990.907	-709
990.986	-1684
991.066	-1246
991.145	-883
991.225	-1897
991.304	-1183
991.383	-520
991.463	-882
991.542	-1118
991.622	-955
991.701	-439
991.780	-1698
991.859	-1273
991.939	-1620
992.018	-1295
992.097	-1152
992.176	-1465
992.256	-657
992.335	-1922
992.414	-222
992.493	-1638
992.572	-760
992.651	-425
992.730	-1313
992.809	-1053
992.888	-1499
992.967	-1492
993.046	-1142
993.125	-1254
993.203	-1650
993.282	-1420
993.361	-508
993.440	-1314
993.519	-1649
993.597	-1315
993.676	-818
993.755	-896
993.834	-878
993.912	-2318
993.991	-403
994.069	-1169
994.148	-1866
994.226	-1246
994.305	-1279
994.384	-2086
994.462	-558
994.540	-1844
994.619	-1497
994.697	-1750
994.776	-1768
994.854	-1434
994.932	-1805
995.011	-1709
995.089	-1213
995.167	-1463
995.245	-1156
995.324	-2628
995.402	-1093
995.480	-958
995.558	-1414
995.636	-2321
995.714	-1440
995.792	-636
995.870	-1047
995.948	-1600
996.026	-363
996.104	-2507
996.182	-815
996.260	-1584
996.338	-1426
996.416	-2191
996.494	-1503
996.572	-384
996.649	-924
996.727	-1758
996.805	-1104
996.883	-1453
996.960	-1820
997.038	-930
997.116	-571
997.193	-1955
997.271	-733
997.348	-1813
997.426	-1627
997.504	-1727
997.581	-789
997.658	-1015
997.736	-1850
997.813	-2159
997.891	-1102
997.968	-2282
998.046	-1346
998.123	-3231
998.200	-1502
998.277	-2283
998.355	-1116
998.432	-2422
998.509	-609
998.586	-1252
998.663	-949
998.741	-1615
998.818	-1677
998.895	-1410
998.972	-1232
999.049	-1985
999.126	-1869
999.203	-1113
999.280	-1333
999.357	-2407
999.434	-1276
999.511	-1371
999.587	-1064
999.664	-2273
999.741	-1428
999.818	-1130
999.895	-955
999.971	-1738
1000.048	-1332
1000.125	-1403
1000.202	-1623
1000.278	-1391
1000.355	-1408
1000.431	-2271
1000.508	-1820
1000.584	-2254
1000.661	-1180
1000.738	-2097
1000.814	-1172
1000.890	-1660
1000.967	-1569
1001.043	-1859
1001.120	-1590
1001.196	-2177
1001.272	-1774
1001.349	-2150
1001.425	-724
1001.501	-1907
1001.577	-1635
1001.654	-1565
1001.730	-1543
1001.806	-1813
1001.882	-1696
1001.958	-1566
1002.034	-1278
1002.110	-1213
1002.186	-1772
1002.262	-2129
1002.338	-1876
1002.414	-1102
1002.490	-783
1002.566	-2045
1002.642	-1463
1002.718	-700
1002.794	-981
1002.870	-1513
1002.945	-2210
1003.021	-1923
1003.097	-1692
1003.173	-1478
1003.248	-1792
1003.324	-1958
1003.400	-1143
1003.475	-1717
1003.551	-2044
1003.626	-1000
1003.702	-1266
1003.777	-2204
1003.853	-1975
1003.928	-1804
1004.004	-2188
1004.079	-1053
1004.155	-1397
1004.230	-2000
1004.305	-1064
1004.381	-1772
1004.456	-1469
1004.531	-1147
1004.607	-1541
1004.682	-1815
1004.757	-1670
1004.832	-863
1004.907	-1844
1004.982	-1827
1005.057	-1104
1005.133	-1748
1005.208	-1327
1005.283	-1610
1005.358	-810
1005.433	-1817
1005.508	-1336
1005.583	-2081
1005.657	-2529
1005.732	-1245
1005.807	-2156
1005.882	-1693
1005.957	-1250
1006.032	-1276
1006.106	-2082
1006.181	-1702
1006.256	-2388
1006.331	-2071
1006.405	-1746
1006.480	-2035
1006.554	-1638
1006.629	-902
1006.704	-1716
1006.778	-1851
1006.853	-537
1006.927	-1877
1007.002	-2307
1007.076	-1469
1007.150	-1749
1007.225	-1718
1007.299	-1669
1007.373	-2358
1007.448	-1610
1007.522	-1559
1007.596	-858
1007.671	-1861
1007.745	-1652
1007.819	-1841
1007.893	-1967
1007.967	-1648
1008.041	-2003
1008.115	-916
1008.190	-1222
1008.264	-1897
1008.338	-1426
1008.412	-1314
1008.486	-1814
1008.560	-1716
1008.633	-1463
1008.707	-2217
1008.781	-1475
1008.855	-2174
1008.929	-1997
1009.003	-2484
1009.076	-861
1009.150	-2009
1009.224	-1821
1009.298	-2334
1009.371	-2166
1009.445	-1512
1009.519	-1703
1009.592	-2135
1009.666	-1361
1009.739	-1826
1009.813	-2493
1009.886	-1233
1009.960	-2023
1010.033	-1911
1010.107	-1208
1010.180	-2091
1010.253	-1476
1010.327	-940
1010.400	-2422
1010.473	-1690
1010.547	-721
1010.620	-2156
1010.693	-1986
1010.766	-2153
1010.840	-1748
1010.913	-1830
1010.986	-2080
1011.059	-1682
1011.132	-1634
1011.205	-1322
1011.278	-1670
1011.351	-2494
1011.424	-1847
1011.497	-2071
1011.570	-2198
1011.643	-2719
1011.716	-1862
1011.789	-1517
1011.862	-1624
1011.934	-1533
1012.007	-2844
1012.080	-1661
1012.153	-1628
1012.225	-1473
1012.298	-2347
1012.371	-2577
1012.443	-1459
1012.516	-2251
1012.588	-1940
1012.661	-2219
1012.733	-1909
1012.806	-1283
1012.879	-1597
1012.951	-1793
1013.023	-1692
1013.096	-1556
1013.168	-2491
1013.241	-2081
1013.313	-2234
1013.385	-2216
1013.458	-1238
1013.530	-776
1013.602	-1884
1013.674	-2262
1013.746	-2062
1013.819	-1776
1013.891	-1611
1013.963	-2296
1014.035	-2339
1014.107	-1501
1014.179	-1392
1014.251	-2403
1014.323	-1605
1014.395	-1294
1014.467	-1721
1014.539	-2241
1014.611	-1890
1014.683	-1850
1014.754	-1345
1014.826	-1516
1014.898	-1157
1014.970	-2934
1015.042	-806
1015.113	-1669
1015.185	-2013
1015.257	-3091
1015.328	-1605
1015.400	-2497
1015.471	-1470
1015.543	-2577
1015.615	-1910
1015.686	-1721
1015.757	-1471
1015.829	-1017
1015.901	-2281
1015.972	-2293
1016.043	-2257
1016.115	-2385
1016.186	-1909
1016.257	-2694
1016.328	-1339
1016.400	-1293
1016.471	-1308
1016.542	-2368
1016.613	-1619
1016.685	-2083
1016.756	-1614
1016.827	-1892
1016.898	-1985
1016.969	-1515
1017.040	-1768
1017.111	-2023
1017.182	-1552
1017.253	-1906
1017.324	-1515
1017.395	-1964
1017.466	-1925
1017.537	-2719
1017.608	-2437
1017.678	-1775
1017.749	-2533
1017.820	-1948
1017.891	-2049
1017.961	-2315
1018.032	-2065
1018.103	-1794
1018.173	-2507
1018.244	-2660
1018.315	-2853
1018.385	-1608
1018.456	-2111
1018.526	-2154
1018.597	-1733
1018.667	-2049
1018.738	-1494
1018.808	-2055
1018.878	-2163
1018.949	-2323
1019.019	-1008
1019.089	-2313
1019.160	-1896
1019.230	-2687
1019.300	-1749
1019.371	-2772
1019.441	-2575
1019.511	-1713
1019.581	-2118
1019.651	-2174
1019.721	-1847
1019.791	-2168
1019.861	-1670
1019.931	-2220
1020.001	-2000
1020.071	-2044
1020.141	-2312
1020.211	-1347
1020.281	-1249
1020.351	-1789
1020.421	-2139
1020.491	-1854
1020.560	-1712
1020.630	-2269
1020.700	-2770
1020.770	-1648
1020.839	-1791
1020.909	-2051
1020.979	-1869
1021.048	-2781
1021.118	-2079
1021.187	-2580
1021.257	-2221
1021.326	-2053
1021.396	-1529
1021.465	-1546
1021.535	-1443
1021.604	-1845
1021.674	-1897
1021.743	-1774
1021.812	-2104
1021.882	-1926
1021.951	-1505
1022.020	-2580
1022.089	-2060
1022.159	-1905
1022.228	-1683
1022.297	-2295
1022.366	-2299
1022.435	-2270
1022.504	-1898
1022.573	-2693
1022.642	-1325
1022.711	-2584
1022.781	-1771
1022.849	-2317
1022.918	-2464
1022.987	-1846
1023.056	-1919
1023.125	-1325
1023.194	-2402
1023.263	-1600
1023.331	-1240
1023.400	-1244
1023.469	-2612
1023.538	-1953
1023.606	-2101
1023.675	-2585
1023.744	-2246
1023.812	-2734
1023.881	-1997
1023.949	-1780
1024.018	-2072
1024.086	-2365
1024.155	-1974
1024.223	-2131
1024.292	-1627
1024.360	-2117
1024.429	-2543
1024.497	-2228
1024.565	-953
1024.634	-2500
1024.702	-2721
1024.770	-2618
1024.838	-2774
1024.907	-1999
1024.975	-2317
1025.043	-1878
1025.111	-2270
1025.179	-2372
1025.247	-1738
1025.315	-2220
1025.383	-2059
1025.451	-2437
1025.519	-2283
1025.587	-1865
1025.655	-2087
1025.723	-2330
1025.791	-1863
1025.859	-2056
1025.927	-1123
1025.995	-1940
1026.062	-2037
1026.130	-2610
1026.198	-1708
1026.266	-2670
1026.333	-2143
1026.401	-2803
1026.469	-1074
1026.536	-1937
1026.604	-2220
1026.671	-2856
1026.739	-1551
1026.806	-2377
1026.874	-2324
1026.941	-2126
1027.009	-2156
1027.076	-2285
1027.144	-1639
1027.211	-2466
1027.278	-2325
1027.345	-2320
1027.413	-1784
1027.480	-2766
1027.547	-1476
1027.614	-2880
1027.682	-2183
1027.749	-2306
1027.816	-2444
1027.883	-1868
1027.950	-2685
1028.017	-2713
1028.084	-978
1028.151	-2573
1028.218	-2367
1028.285	-2222
1028.352	-2697
1028.419	-2274
1028.486	-2368
1028.553	-1988
1028.619	-2106
1028.686	-2883
1028.753	-2139
1028.820	-1786
1028.886	-2383
1028.953	-2264
1029.020	-1809
1029.086	-2475
1029.153	-2680
1029.220	-1901
1029.286	-1991
1029.353	-1838
1029.419	-2260
1029.486	-2446
1029.552	-3029
1029.619	-2513
1029.685	-2495
1029.751	-2327
1029.818	-1781
1029.884	-2414
1029.951	-1389
1030.017	-2116
1030.083	-1765
1030.149	-1176
1030.216	-2172
1030.282	-2295
1030.348	-2493
1030.414	-2734
1030.480	-2406
1030.546	-2407
1030.612	-2657
1030.678	-2249
1030.744	-2123
1030.810	-2157
1030.876	-2254
1030.942	-2060
1031.008	-1816
1031.074	-1888
1031.140	-2258
1031.206	-1835
1031.272	-2739
1031.337	-1344
1031.403	-2131
1031.469	-2780
1031.534	-2448
1031.600	-1878
1031.666	-2673
1031.731	-2573
1031.797	-2830
1031.863	-2249
1031.928	-2068
1031.994	-2057
1032.059	-2792
1032.125	-2542
1032.190	-1971
1032.256	-1859
1032.321	-2224
1032.386	-2250
1032.452	-2226
1032.517	-1929
1032.582	-2471
1032.647	-2174
1032.713	-2038
1032.778	-2321
1032.843	-1741
1032.908	-2982
1032.974	-1723
1033.039	-2298
1033.104	-2484
1033.169	-2162
1033.234	-2595
1033.299	-2293
1033.364	-1812
1033.429	-2596
1033.494	-1770
1033.559	-1969
1033.624	-1635
1033.688	-1894
1033.753	-1661
1033.818	-2066
1033.883	-1954
1033.948	-2262
1034.013	-2516
1034.077	-2989
1034.142	-2122
1034.207	-2513
1034.271	-1752
1034.336	-1535
1034.400	-1359
1034.465	-2074
1034.530	-2255
1034.594	-2554
1034.658	-2072
1034.723	-2382
1034.787	-1615
1034.852	-2590
1034.916	-2220
1034.981	-1908
1035.045	-1094
1035.109	-1911
1035.173	-1483
1035.238	-1538
1035.302	-2035
1035.366	-1858
1035.430	-1569
1035.495	-2042
1035.559	-2157
1035.623	-2680
1035.687	-2374
1035.751	-2582
1035.815	-1831
1035.879	-2283
1035.943	-1617
1036.007	-2162
1036.071	-2419
1036.135	-2498
1036.198	-1670
1036.262	-2577
1036.326	-2669
1036.390	-2626
1036.454	-2307
1036.517	-2014
1036.581	-2212
1036.645	-1959
1036.709	-2577
1036.772	-2270
1036.836	-1964
1036.900	-2530
1036.963	-2370
1037.026	-2690
1037.090	-1959
1037.154	-2536
1037.217	-2358
1037.280	-1732
1037.344	-1794
1037.407	-3032
1037.471	-1841
1037.534	-2116
1037.597	-1595
1037.661	-3137
1037.724	-1876
1037.787	-2625
1037.850	-2221
1037.913	-2732
1037.977	-2079
1038.040	-2393
1038.103	-2486
1038.166	-2599
1038.229	-2174
1038.292	-1868
1038.355	-2221
1038.418	-2209
1038.481	-2460
1038.544	-2403
1038.607	-2197
1038.670	-2294
1038.732	-2689
1038.795	-2905
1038.858	-1702
1038.921	-2173
1038.984	-2342
1039.046	-2535
1039.109	-2377
1039.172	-2337
1039.234	-2587
1039.297	-3243
1039.360	-2425
1039.422	-2599
1039.485	-2239
1039.547	-3421
1039.610	-2396
1039.672	-2259
1039.734	-1975
1039.797	-2274
1039.859	-2011
1039.922	-2565
1039.984	-2257
1040.046	-2569
1040.109	-2093
1040.171	-2481
1040.233	-2275
1040.295	-2475
1040.358	-2802
1040.420	-2428
1040.482	-2373
1040.544	-2758
1040.606	-2295
1040.668	-2115
1040.730	-2601
1040.792	-2379
1040.854	-2577
1040.916	-2057
1040.978	-3060
1041.040	-1997
1041.102	-2833
1041.164	-2145
1041.225	-2847
1041.287	-3023
1041.349	-1756
1041.411	-2189
1041.472	-2453
1041.534	-2549
1041.596	-2511
1041.657	-2075
1041.719	-2170
1041.781	-2590
1041.842	-1719
1041.904	-2813
1041.965	-3134
1042.027	-3317
1042.088	-2426
1042.150	-2347
1042.211	-2689
1042.272	-2371
1042.334	-1898
1042.395	-2913
1042.456	-1769
1042.518	-1924
1042.579	-1895
1042.640	-2535
1042.701	-2290
1042.763	-2589
1042.824	-2697
1042.885	-2728
1042.946	-2657
1043.007	-3043
1043.068	-2714
1043.129	-2504
1043.190	-3157
1043.251	-2138
1043.312	-2279
1043.373	-2137
1043.434	-2736
1043.495	-2532
1043.556	-2307
1043.616	-2580
1043.677	-2442
1043.738	-2459
1043.799	-2531
1043.859	-3147
1043.920	-1811
1043.981	-2491
1044.041	-2537
1044.102	-2849
1044.162	-2603
1044.223	-3065
1044.284	-2153
1044.344	-2625
1044.405	-2081
1044.465	-2780
1044.525	-2295
1044.586	-2913
1044.646	-2110
1044.707	-2791
1044.767	-1861
1044.827	-3094
1044.887	-1979
1044.948	-2371
1045.008	-1977
1045.068	-2813
1045.128	-2272
1045.188	-2172
1045.249	-1619
1045.309	-2467
1045.369	-2371
1045.429	-2539
1045.489	-2365
1045.549	-2559
1045.609	-2207
1045.669	-2491
1045.729	-1659
1045.789	-2852
1045.848	-2381
1045.908	-2311
1045.968	-2179
1046.028	-2087
1046.088	-1967
1046.147	-2027
1046.207	-2189
1046.267	-2683
1046.326	-1514
1046.386	-2133
1046.446	-2100
1046.505	-1716
1046.565	-1161
1046.624	-1684
1046.684	-1096
1046.743	-1605
1046.803	-679
1046.862	-1541
1046.922	0
