'Start Wavelength	183.907
'End Wavelength	1046.922
'Gate Delay	5.000
'Gate Width (ms)	1.050
'Laser Output Level	0.000
'X Position	0.000
'Y Position	0.000
'Z Position	0.000
'Grid Point Number	1.000
'Shot Number	100.000
183.907	-15.000
183.977	-348.000
184.047	11
184.116	143
184.186	-311
184.256	200
184.325	-5
184.395	-69
184.465	463
184.534	195
184.604	-245
184.674	532
184.743	90
184.813	420
184.883	507
184.952	-82
185.022	543
185.092	286
185.161	-106
185.231	137
185.301	365
185.370	461
185.440	698
185.509	-5
185.579	377
185.649	251
185.718	439
185.788	498
185.857	236
185.927	391
185.996	275
186.066	-235
186.136	814
186.205	650
186.275	147
186.344	42
186.414	579
186.483	43
186.553	271
186.622	1012
186.692	442
186.761	443
186.831	-473
186.900	196
186.970	-173
187.039	463
187.109	120
187.178	-332
187.248	378
187.317	390
187.387	-55
187.456	361
187.526	845
187.595	956
187.664	115
187.734	990
187.803	-204
187.873	97
187.942	905
188.012	275
188.081	23
188.150	-78
188.220	889
188.289	1211
188.358	329
188.428	1019
188.497	118
188.567	683
188.636	720
188.705	-18
188.775	263
188.844	125
188.913	127
188.983	-500
189.052	-69
189.121	576
189.191	-444
189.260	1118
189.329	278
189.399	67
189.468	403
189.537	-300
189.606	-12
189.676	898
189.745	-28
189.814	595
189.883	233
189.953	297
190.022	273
190.091	863
190.161	1703
190.230	-83
190.299	128
190.368	302
190.437	483
190.507	512
190.576	480
190.645	-304
190.714	328
190.783	-334
190.853	234
190.922	350
190.991	105
191.060	701
191.129	261
191.198	310
191.268	156
191.337	362
191.406	117
191.475	736
191.544	692
191.613	505
191.682	-808
191.752	405
191.821	-127
191.890	-118
191.959	506
192.028	385
192.097	678
192.166	262
192.235	300
192.304	335
192.373	68
192.442	-763
192.511	637
192.580	214
192.650	437
192.719	710
192.788	519
192.857	8
192.926	13
192.995	397
193.064	598
193.133	203
193.202	824
193.271	1244
193.340	802
193.409	339
193.478	479
193.547	953
193.615	948
193.684	839
193.753	319
193.822	1062
193.891	186
193.960	490
194.029	-152
194.098	463
194.167	462
194.236	952
194.305	21
194.374	-122
194.443	417
194.512	131
194.580	942
194.649	475
194.718	1011
194.787	283
194.856	587
194.925	494
194.994	379
195.062	584
195.131	863
195.200	551
195.269	416
195.338	233
195.407	-13
195.475	562
195.544	1316
195.613	718
195.682	104
195.751	1141
195.819	84
195.888	567
195.957	1375
196.026	899
196.094	960
196.163	747
196.232	290
196.301	336
196.369	702
196.438	500
196.507	528
196.576	574
196.644	489
196.713	557
196.782	-246
196.850	581
196.919	722
196.988	867
197.056	619
197.125	450
197.194	160
197.262	774
197.331	-334
197.400	-274
197.468	414
197.537	326
197.606	-73
197.674	693
197.743	1009
197.812	1027
197.880	2073
197.949	157
198.017	1786
198.086	705
198.155	875
198.223	1088
198.292	1874
198.360	545
198.429	507
198.497	456
198.566	1132
198.635	1895
198.703	563
198.772	846
198.840	2438
198.909	1367
198.977	-406
199.046	289
199.114	741
199.183	746
199.251	-85
199.320	-535
199.388	562
199.457	225
199.525	-91
199.594	1213
199.662	902
199.731	195
199.799	421
199.867	-27
199.936	57
200.004	967
200.073	349
200.141	135
200.210	343
200.278	359
200.346	315
200.415	1237
200.483	296
200.552	340
200.620	966
200.688	1163
200.757	670
200.825	101
200.893	694
200.962	315
201.030	248
201.098	626
201.167	555
201.235	-71
201.303	496
201.372	1162
201.440	912
201.508	1333
201.577	816
201.645	737
201.713	464
201.781	815
201.850	1304
201.918	237
201.986	221
202.055	820
202.123	697
202.191	340
202.259	-72
202.327	708
202.396	59
202.464	1048
202.532	379
202.600	3499
202.669	2044
202.737	178
202.805	586
202.873	388
202.941	141
203.009	834
203.078	504
203.146	828
203.214	769
203.282	-456
203.350	949
203.418	138
203.487	390
203.555	225
203.623	-280
203.691	830
203.759	20
203.827	572
203.895	549
203.963	-89
204.031	347
204.099	23
204.168	74
204.236	1118
204.304	859
204.372	-143
204.440	1023
204.508	221
204.576	400
204.644	804
204.712	-305
204.780	705
204.848	941
204.916	898
204.984	380
205.052	895
205.120	864
205.188	929
205.256	181
205.324	759
205.392	631
205.460	474
205.528	723
205.596	497
205.664	725
205.732	450
205.799	1724
205.867	3022
205.935	1177
206.003	983
206.071	289
206.139	-28
206.207	1182
206.275	252
206.343	-293
206.411	872
206.478	259
206.546	1039
206.614	706
206.682	362
206.750	40
206.818	650
206.885	1282
206.953	-216
207.021	1400
207.089	923
207.157	-55
207.225	534
207.292	59
207.360	460
207.428	53
207.496	414
207.563	299
207.631	846
207.699	463
207.767	1072
207.834	361
207.902	969
207.970	289
208.038	963
208.105	492
208.173	886
208.241	913
208.309	953
208.376	1282
208.444	2067
208.512	1328
208.579	968
208.647	1301
208.715	1917
208.782	352
208.850	452
208.918	977
208.985	-124
209.053	831
209.120	636
209.188	307
209.256	968
209.323	365
209.391	1173
209.459	899
209.526	1277
209.594	791
209.661	1578
209.729	1174
209.796	1238
209.864	398
209.932	-105
209.999	1657
210.067	709
210.134	1190
210.202	1458
210.269	1568
210.337	1700
210.404	974
210.472	289
210.539	797
210.607	786
210.674	1263
210.742	250
210.809	881
210.877	1343
210.944	2147
211.012	-413
211.079	2006
211.146	1260
211.214	1327
211.281	1810
211.349	964
211.416	1208
211.484	1561
211.551	1236
211.618	447
211.686	630
211.753	305
211.821	1131
211.888	684
211.955	1186
212.023	525
212.090	1417
212.157	-160
212.225	1200
212.292	2947
212.359	4505
212.427	10233
212.494	3973
212.561	1873
212.629	1288
212.696	958
212.763	1557
212.831	776
212.898	1236
212.965	1243
213.032	1449
213.100	1273
213.167	1294
213.234	1725
213.301	1215
213.369	1816
213.436	926
213.503	1558
213.570	810
213.638	414
213.705	510
213.772	626
213.839	1190
213.906	1439
213.973	1523
214.041	-2
214.108	1724
214.175	1411
214.242	1201
214.309	1250
214.376	1395
214.444	1172
214.511	2282
214.578	647
214.645	1380
214.712	366
214.779	1699
214.846	724
214.913	1004
214.980	1929
215.048	1999
215.115	2380
215.182	1881
215.249	1368
215.316	897
215.383	741
215.450	1030
215.517	1338
215.584	616
215.651	664
215.718	774
215.785	1452
215.852	1697
215.919	1929
215.986	593
216.053	1468
216.120	761
216.187	1402
216.254	1165
216.321	548
216.388	2199
216.455	1278
216.522	1452
216.589	1486
216.656	3459
216.722	2597
216.789	2122
216.856	2144
216.923	1885
216.990	1789
217.057	1558
217.124	1812
217.191	1091
217.258	2092
217.324	3116
217.391	3447
217.458	1816
217.525	1551
217.592	1219
217.659	939
217.725	2154
217.792	2625
217.859	2750
217.926	1461
217.993	1329
218.059	781
218.126	878
218.193	1181
218.260	799
218.327	343
218.393	791
218.460	863
218.527	735
218.594	855
218.660	2485
218.727	2616
218.794	557
218.860	838
218.927	1109
218.994	555
219.061	1087
219.127	1753
219.194	2408
219.261	1040
219.327	1048
219.394	881
219.461	-51
219.527	911
219.594	2392
219.661	1358
219.727	165
219.794	811
219.860	561
219.927	954
219.994	1581
220.060	3762
220.127	1889
220.193	1685
220.260	1091
220.326	2549
220.393	3762
220.460	4986
220.526	2828
220.593	1452
220.659	2120
220.726	2177
220.792	6156
220.859	4493
220.925	6322
220.992	7751
221.058	8870
221.125	6967
221.191	5309
221.258	2153
221.324	1986
221.391	1459
221.457	749
221.524	947
221.590	1736
221.657	6622
221.723	4080
221.789	4082
221.856	3674
221.922	2099
221.989	2132
222.055	1368
222.121	377
222.188	2195
222.254	1243
222.321	1217
222.387	1012
222.453	441
222.520	-216
222.586	351
222.652	615
222.719	547
222.785	754
222.851	904
222.918	1243
222.984	875
223.050	732
223.116	385
223.183	1462
223.249	266
223.315	247
223.382	949
223.448	591
223.514	276
223.580	989
223.647	513
223.713	998
223.779	1180
223.845	902
223.911	752
223.978	768
224.044	899
224.110	403
224.176	377
224.242	830
224.309	859
224.375	791
224.441	699
224.507	63
224.573	-254
224.639	1156
224.705	-2
224.772	1153
224.838	719
224.904	1364
224.970	617
225.036	431
225.102	1276
225.168	1081
225.234	861
225.300	528
225.366	420
225.432	719
225.499	1327
225.565	720
225.631	1153
225.697	1102
225.763	888
225.829	1995
225.895	2151
225.961	2875
226.027	2437
226.093	1480
226.159	2047
226.225	2730
226.291	7733
226.357	13861
226.423	6696
226.489	3641
226.554	1266
226.620	1801
226.686	4022
226.752	4647
226.818	6559
226.884	19685
226.950	14083
227.016	5041
227.082	2932
227.148	2864
227.214	2916
227.279	1425
227.345	1297
227.411	1454
227.477	1678
227.543	4242
227.609	4208
227.674	2876
227.740	741
227.806	1651
227.872	772
227.938	1641
228.003	1601
228.069	944
228.135	391
228.201	300
228.267	454
228.332	1212
228.398	1340
228.464	2199
228.530	205
228.595	310
228.661	801
228.727	1812
228.792	1489
228.858	843
228.924	409
228.990	2778
229.055	874
229.121	1843
229.187	689
229.252	964
229.318	836
229.384	593
229.449	1196
229.515	27
229.581	36
229.646	1362
229.712	1716
229.777	3440
229.843	2980
229.909	3384
229.974	2203
230.040	2457
230.105	1038
230.171	1724
230.236	2819
230.302	3779
230.368	3215
230.433	1708
230.499	1775
230.564	1833
230.630	927
230.695	543
230.761	1291
230.826	467
230.892	3264
230.957	1122
231.023	907
231.088	1203
231.154	1329
231.219	1585
231.284	1136
231.350	1629
231.415	731
231.481	1028
231.546	1136
231.612	1420
231.677	440
231.742	-64
231.808	1129
231.873	994
231.939	-180
232.004	2931
232.069	2725
232.135	855
232.200	866
232.265	555
232.331	441
232.396	712
232.461	256
232.527	1110
232.592	-49
232.657	1305
232.723	1865
232.788	1647
232.853	1852
232.918	155
232.984	527
233.049	702
233.114	774
233.179	1589
233.245	2507
233.310	2897
233.375	66
233.440	1205
233.506	-33
233.571	734
233.636	801
233.701	971
233.766	1468
233.832	2671
233.897	1159
233.962	444
234.027	2035
234.092	918
234.157	877
234.222	295
234.288	2125
234.353	6011
234.418	5584
234.483	3735
234.548	2169
234.613	1613
234.678	1743
234.743	1898
234.808	6289
234.873	3107
234.938	1916
235.004	1563
235.069	1690
235.134	627
235.199	1518
235.264	1457
235.329	326
235.394	1337
235.459	2256
235.524	1266
235.589	1435
235.654	871
235.719	-31
235.784	1021
235.849	1141
235.913	2705
235.978	3640
236.043	3298
236.108	1656
236.173	1248
236.238	1668
236.303	1121
236.368	1564
236.433	2089
236.498	3617
236.563	3258
236.627	5913
236.692	22184
236.757	16243
236.822	6308
236.887	4351
236.952	3571
237.017	1954
237.081	4092
237.146	3749
237.211	9139
237.276	23334
237.341	36027
237.405	13895
237.470	6856
237.535	4577
237.600	3231
237.664	2318
237.729	1434
237.794	1714
237.859	5682
237.923	3328
237.988	1823
238.053	3118
238.118	2478
238.182	8959
238.247	7712
238.312	3061
238.376	3327
238.441	794
238.506	2784
238.570	240
238.635	2040
238.700	1106
238.764	1193
238.829	3764
238.893	3935
238.958	2450
239.023	2687
239.087	1490
239.152	1154
239.216	1249
239.281	1741
239.346	1562
239.410	1352
239.475	1100
239.539	8881
239.604	5318
239.668	2649
239.733	1455
239.797	2193
239.862	7384
239.926	7640
239.991	3285
240.055	2037
240.120	1176
240.184	1176
240.249	342
240.313	604
240.378	791
240.442	4970
240.507	7921
240.571	2547
240.635	3940
240.700	3862
240.764	1616
240.829	1244
240.893	-25
240.957	1144
241.022	5000
241.086	7846
241.151	2376
241.215	1560
241.279	2919
241.344	3316
241.408	1808
241.472	1700
241.537	2188
241.601	1582
241.665	641
241.730	623
241.794	1727
241.858	347
241.922	1719
241.987	2575
242.051	936
242.115	198
242.179	857
242.244	715
242.308	1969
242.372	1419
242.436	1178
242.501	1892
242.565	920
242.629	953
242.693	1787
242.757	1049
242.822	1164
242.886	1962
242.950	1108
243.014	821
243.078	2141
243.142	2048
243.206	1357
243.271	1635
243.335	1322
243.399	2915
243.463	13305
243.527	31972
243.591	9054
243.655	3852
243.719	1801
243.783	3337
243.847	5803
243.911	5598
243.975	7075
244.040	3728
244.104	2259
244.168	876
244.232	2933
244.296	4344
244.360	4249
244.424	2104
244.488	1649
244.552	2145
244.615	254
244.679	1031
244.743	1938
244.807	1847
244.871	956
244.935	1505
244.999	-413
245.063	1004
245.127	2193
245.191	3596
245.255	3357
245.319	3132
245.383	1754
245.446	2284
245.510	485
245.574	1948
245.638	1681
245.702	1604
245.766	5633
245.829	3340
245.893	1669
245.957	973
246.021	2432
246.085	1707
246.149	2953
246.212	8620
246.276	11257
246.340	3564
246.404	3020
246.467	3603
246.531	4364
246.595	3362
246.659	3723
246.722	1946
246.786	3148
246.850	3326
246.913	4737
246.977	1371
247.041	2037
247.104	3338
247.168	2177
247.232	8526
247.295	16955
247.359	7225
247.423	2526
247.486	7165
247.550	3760
247.614	3229
247.677	3758
247.741	1912
247.804	2128
247.868	2463
247.932	6522
247.995	14197
248.059	4242
248.122	2027
248.186	3884
248.249	6182
248.313	26931
248.376	23400
248.440	14899
248.503	4834
248.567	5584
248.630	7036
248.694	9013
248.757	13337
248.821	27078
248.884	14739
248.948	12815
249.011	20128
249.075	32401
249.138	25703
249.202	8651
249.265	5232
249.328	7436
249.392	4946
249.455	4989
249.519	3070
249.582	4723
249.645	8233
249.709	4994
249.772	4453
249.835	3123
249.899	2754
249.962	2826
250.025	2894
250.089	9829
250.152	13206
250.215	5726
250.279	3255
250.342	4292
250.405	4409
250.468	3416
250.532	4825
250.595	8285
250.658	34404
250.721	49483
250.785	15178
250.848	9359
250.911	5647
250.974	4895
251.038	7667
251.101	15318
251.164	6813
251.227	7548
251.290	6595
251.354	10597
251.417	46496
251.480	38981
251.543	28483
251.606	82664
251.669	53363
251.732	21388
251.795	21910
251.859	22933
251.922	51506
251.985	25320
252.048	9163
252.111	7840
252.174	7790
252.237	13967
252.300	30987
252.363	34121
252.426	65123
252.489	23591
252.552	11781
252.615	7049
252.678	9622
252.741	23530
252.804	30205
252.867	65030
252.930	36177
252.993	18274
253.056	11799
253.119	7167
253.182	6261
253.245	11202
253.308	7773
253.371	6494
253.434	6379
253.497	6820
253.559	14607
253.622	7512
253.685	10870
253.748	10827
253.811	4179
253.874	6090
253.937	6001
254.000	4446
254.062	10660
254.125	13315
254.188	12863
254.251	9578
254.314	5168
254.376	9427
254.439	10774
254.502	8604
254.565	9498
254.628	17281
254.690	8595
254.753	5361
254.816	3992
254.878	4389
254.941	11572
255.004	9921
255.067	3865
255.129	3700
255.192	2326
255.255	1838
255.317	2443
255.380	1953
255.443	865
255.505	1362
255.568	1342
255.631	850
255.693	2128
255.756	716
255.819	1893
255.881	320
255.944	1406
256.006	663
256.069	1408
256.132	1743
256.194	2942
256.257	5914
256.319	4260
256.382	2909
256.444	2437
256.507	1654
256.569	1492
256.632	1467
256.694	3134
256.757	12783
256.819	33320
256.882	9987
256.944	3990
257.007	4701
257.069	4763
257.132	2968
257.194	2406
257.257	1708
257.319	1283
257.381	2100
257.444	9115
257.506	42697
257.569	40416
257.631	20256
257.693	11282
257.756	5143
257.818	3848
257.880	2170
257.943	2088
258.005	1248
258.067	2031
258.130	1009
258.192	2644
258.254	5339
258.317	2624
258.379	2757
258.441	8131
258.503	8074
258.566	10324
258.628	11191
258.690	1604
258.753	3812
258.815	6450
258.877	1902
258.939	1401
259.001	2183
259.064	2016
259.126	1903
259.188	3247
259.250	2354
259.312	3078
259.375	10612
259.437	5530
259.499	1569
259.561	1671
259.623	2868
259.685	918
259.747	2061
259.809	9027
259.872	14774
259.934	25606
259.996	20362
260.058	5187
260.120	2486
260.182	2550
260.244	1500
260.306	1610
260.368	2081
260.430	1349
260.492	4388
260.554	10217
260.616	7306
260.678	14324
260.740	15993
260.802	3307
260.864	3387
260.926	1846
260.988	2968
261.050	2132
261.112	6044
261.174	17214
261.236	12412
261.298	3654
261.359	7663
261.421	9758
261.483	2202
261.545	2417
261.607	885
261.669	1595
261.731	5233
261.793	11278
261.854	3516
261.916	3121
261.978	1755
262.040	2039
262.102	1640
262.164	4262
262.225	2833
262.287	1982
262.349	6985
262.411	4718
262.472	2804
262.534	4465
262.596	9144
262.658	3069
262.719	695
262.781	3103
262.843	9592
262.904	3759
262.966	2111
263.028	3500
263.090	22458
263.151	49428
263.213	14205
263.275	7371
263.336	2967
263.398	2896
263.459	1275
263.521	1470
263.583	6916
263.644	4259
263.706	1957
263.767	602
263.829	1066
263.891	-27
263.952	276
264.014	542
264.075	1922
264.137	6122
264.198	2687
264.260	893
264.321	298
264.383	5099
264.444	10037
264.506	2440
264.567	1343
264.629	4600
264.690	6863
264.752	2934
264.813	1682
264.875	32
264.936	1434
264.998	1729
265.059	1751
265.120	1049
265.182	2353
265.243	18019
265.305	13968
265.366	2845
265.427	1643
265.489	1999
265.550	293
265.611	1680
265.673	1962
265.734	901
265.795	942
265.857	533
265.918	100
265.979	5068
266.040	31179
266.102	20330
266.163	5528
266.224	4242
266.286	2488
266.347	1044
266.408	1149
266.469	2064
266.530	-190
266.592	555
266.653	4673
266.714	6803
266.775	1154
266.836	1034
266.898	-110
266.959	1328
267.020	1381
267.081	1651
267.142	818
267.203	-284
267.264	773
267.326	1819
267.387	242
267.448	687
267.509	960
267.570	852
267.631	826
267.692	125
267.753	1371
267.814	239
267.875	4122
267.936	8975
267.997	4079
268.058	3158
268.119	1111
268.180	884
268.241	-41
268.302	753
268.363	811
268.424	1390
268.485	1222
268.546	154
268.607	-110
268.668	56
268.729	298
268.790	1429
268.851	1775
268.912	5777
268.972	5395
269.033	2138
269.094	785
269.155	712
269.216	1301
269.277	291
269.338	670
269.398	699
269.459	968
269.520	2400
269.581	2523
269.642	4577
269.702	1689
269.763	1302
269.824	959
269.885	2436
269.945	3430
270.006	1523
270.067	150
270.128	494
270.188	499
270.249	972
270.310	78
270.370	1550
270.431	334
270.492	552
270.553	1777
270.613	4777
270.674	9324
270.734	2701
270.795	597
270.856	2531
270.916	1484
270.977	1066
271.038	1671
271.098	1658
271.159	3376
271.219	2394
271.280	788
271.340	1639
271.401	966
271.462	5237
271.522	2656
271.583	1353
271.643	1520
271.704	674
271.764	2284
271.825	6679
271.885	24863
271.946	30158
272.006	7486
272.066	15039
272.127	23724
272.187	6266
272.248	3553
272.308	4614
272.369	18688
272.429	8065
272.489	5678
272.550	6256
272.610	7592
272.671	3908
272.731	4154
272.791	5946
272.852	2987
272.912	3664
272.972	1963
273.033	1817
273.093	2721
273.153	3166
273.214	2093
273.274	2859
273.334	13309
273.394	24405
273.455	8346
273.515	8903
273.575	21168
273.635	8107
273.696	11710
273.756	24005
273.816	7660
273.876	4099
273.936	10375
273.997	16325
274.057	3964
274.117	2995
274.177	5857
274.237	31823
274.297	22273
274.358	14439
274.418	20315
274.478	13890
274.538	4412
274.598	4807
274.658	13151
274.718	16125
274.778	5203
274.838	3779
274.898	7859
274.958	22780
275.018	24179
275.078	13894
275.138	4505
275.198	2438
275.258	1548
275.318	2214
275.378	5945
275.438	6605
275.498	3442
275.558	11958
275.618	25130
275.678	15491
275.738	9060
275.798	5402
275.858	2379
275.918	1143
275.978	2369
276.038	3000
276.098	1490
276.157	5463
276.217	15988
276.277	6874
276.337	4344
276.397	2080
276.457	3199
276.517	1446
276.576	1182
276.636	1390
276.696	3229
276.756	8792
276.815	5672
276.875	2188
276.935	3063
276.995	2738
277.055	1038
277.114	2027
277.174	3720
277.234	13530
277.293	4081
277.353	2790
277.413	1427
277.472	1613
277.532	1976
277.592	3333
277.651	16103
277.711	26495
277.771	7989
277.830	32621
277.890	23160
277.950	17490
278.009	50641
278.069	16053
278.128	20460
278.188	26178
278.248	10441
278.307	31095
278.367	16024
278.426	4043
278.486	2900
278.545	1957
278.605	1668
278.664	2057
278.724	2501
278.783	10351
278.843	25386
278.902	4945
278.962	3422
279.021	4470
279.081	4984
279.140	4417
279.199	3593
279.259	4254
279.318	4722
279.378	6374
279.437	12684
279.496	48888
279.556	128636
279.615	87538
279.675	23668
279.734	14249
279.793	21355
279.853	33866
279.912	11211
279.971	6872
280.031	5396
280.090	14030
280.149	24357
280.208	17989
280.268	88231
280.327	77201
280.386	17915
280.445	13938
280.505	12803
280.564	6455
280.623	4649
280.682	9300
280.742	10748
280.801	3977
280.860	2140
280.919	2255
280.978	2110
281.037	2260
281.097	777
281.156	2355
281.215	1566
281.274	2480
281.333	17078
281.392	10782
281.451	2447
281.510	2066
281.569	1265
281.628	1153
281.688	1528
281.747	1822
281.806	1126
281.865	779
281.924	939
281.983	1084
282.042	579
282.101	383
282.160	1334
282.219	326
282.278	1925
282.337	9019
282.396	5154
282.454	1432
282.513	3222
282.572	13350
282.631	6143
282.690	2275
282.749	443
282.808	2265
282.867	1835
282.926	2491
282.985	660
283.043	830
283.102	509
283.161	2084
283.220	6935
283.279	14509
283.338	3588
283.396	2263
283.455	1564
283.514	2304
283.573	4050
283.631	1806
283.690	1734
283.749	1360
283.808	5589
283.866	5973
283.925	1799
283.984	2102
284.043	2447
284.101	3151
284.160	2614
284.219	3243
284.277	2289
284.336	5028
284.395	20476
284.453	15837
284.512	4813
284.570	6943
284.629	5706
284.688	6271
284.746	6887
284.805	8151
284.863	9949
284.922	13747
284.981	15108
285.039	21973
285.098	42397
285.156	103336
285.215	173095
285.273	164934
285.332	97564
285.390	50953
285.449	31914
285.507	21437
285.566	15614
285.624	11641
285.683	8775
285.741	6793
285.799	5801
285.858	4594
285.916	4533
285.975	3199
286.033	2700
286.091	2326
286.150	2004
286.208	2869
286.267	2075
286.325	2757
286.383	4844
286.442	3427
286.500	1648
286.558	2306
286.616	1464
286.675	2593
286.733	2124
286.791	2110
286.850	2265
286.908	3254
286.966	7250
287.024	2082
287.083	1176
287.141	1132
287.199	1202
287.257	3335
287.315	1388
287.374	3018
287.432	7535
287.490	4386
287.548	1981
287.606	1778
287.664	1267
287.723	2391
287.781	3373
287.839	1399
287.897	2147
287.955	3140
288.013	6008
288.071	15317
288.129	66830
288.187	167921
288.245	61886
288.303	19218
288.361	11832
288.419	8865
288.477	5042
288.535	3300
288.593	2834
288.651	1989
288.709	1656
288.767	1733
288.825	247
288.883	666
288.941	769
288.999	1035
289.057	519
289.115	279
289.173	834
289.231	1502
289.289	565
289.346	1103
289.404	1070
289.462	2726
289.520	3313
289.578	1045
289.636	459
289.694	576
289.751	294
289.809	665
289.867	1071
289.925	1620
289.983	1578
290.040	2
290.098	-304
290.156	1281
290.214	1496
290.271	223
290.329	879
290.387	-293
290.444	-129
290.502	486
290.560	-118
290.617	16
290.675	672
290.733	372
290.790	580
290.848	214
290.906	1307
290.963	684
291.021	619
291.078	87
291.136	1393
291.194	6393
291.251	13283
291.309	3456
291.366	290
291.424	962
291.481	1130
291.539	894
291.596	938
291.654	132
291.711	386
291.769	592
291.826	3355
291.884	934
291.941	-76
291.999	371
292.056	958
292.114	1587
292.171	353
292.228	999
292.286	1439
292.343	2901
292.401	4935
292.458	2687
292.515	206
292.573	1632
292.630	1781
292.687	1226
292.745	584
292.802	1857
292.859	6676
292.917	15787
292.974	7180
293.031	1679
293.089	921
293.146	197
293.203	322
293.260	469
293.318	870
293.375	2476
293.432	814
293.489	196
293.546	-74
293.604	2017
293.661	10256
293.718	27419
293.775	10607
293.832	4964
293.889	3220
293.947	4249
294.004	2582
294.061	2879
294.118	6898
294.175	14812
294.232	15157
294.289	5776
294.346	2080
294.403	1794
294.460	1877
294.517	1755
294.574	1707
294.631	285
294.688	1441
294.745	6953
294.802	30436
294.859	25712
294.916	8654
294.973	5034
295.030	4096
295.087	2605
295.144	2311
295.201	1107
295.258	984
295.315	2712
295.372	12545
295.429	21597
295.486	7980
295.542	3371
295.599	9814
295.656	15948
295.713	13215
295.770	19120
295.827	6979
295.883	1977
295.940	2370
295.997	5077
296.054	4057
296.111	1824
296.167	1401
296.224	1099
296.281	584
296.338	252
296.394	1177
296.451	2032
296.508	8607
296.564	17362
296.621	9162
296.678	24186
296.734	31650
296.791	8939
296.848	4827
296.904	6011
296.961	13490
297.018	25111
297.074	15761
297.131	5313
297.187	3798
297.244	6291
297.301	26992
297.357	43591
297.414	12350
297.470	4821
297.527	3096
297.583	2638
297.640	2896
297.696	2003
297.753	261
297.809	994
297.866	-126
297.922	732
297.979	1376
298.035	806
298.092	3169
298.148	14458
298.204	11593
298.261	5327
298.317	10242
298.374	29126
298.430	15337
298.486	5887
298.543	3825
298.599	3568
298.656	4363
298.712	8282
298.768	21703
298.824	13555
298.881	4307
298.937	2274
298.993	1841
299.050	3291
299.106	1831
299.162	2106
299.218	2208
299.275	1531
299.331	2351
299.387	7177
299.443	27567
299.500	25699
299.556	9902
299.612	3698
299.668	3988
299.724	5736
299.780	5609
299.837	2820
299.893	6762
299.949	23058
300.005	24449
300.061	21203
300.117	36085
300.173	15816
300.229	5702
300.285	8581
300.341	9291
300.397	4730
300.453	1587
300.510	2593
300.566	2463
300.622	3330
300.678	12948
300.734	23411
300.790	21645
300.845	25766
300.901	16031
300.957	22705
301.013	15661
301.069	5957
301.125	4022
301.181	3542
301.237	2683
301.293	2032
301.349	1733
301.405	1486
301.461	1893
301.516	3547
301.572	2813
301.628	5125
301.684	4774
301.740	8327
301.796	14355
301.851	9186
301.907	16067
301.963	15395
302.019	28843
302.074	76269
302.130	67624
302.186	28399
302.242	11675
302.297	7733
302.353	8213
302.409	15738
302.464	13086
302.520	10801
302.576	26549
302.631	29168
302.687	14055
302.743	5905
302.798	2455
302.854	2417
302.910	2407
302.965	2895
303.021	7220
303.076	6547
303.132	8400
303.187	10163
303.243	4647
303.299	2357
303.354	2051
303.410	1795
303.465	1042
303.521	1778
303.576	1164
303.632	2644
303.687	7287
303.743	23557
303.798	18141
303.853	6077
303.909	3094
303.964	2111
304.020	4619
304.075	8329
304.130	7124
304.186	13135
304.241	13733
304.297	10413
304.352	4825
304.358	4588
304.407	2655
304.449	3122
304.463	3282
304.518	3482
304.539	2907
304.573	1969
304.629	2812
304.630	2863
304.684	5462
304.720	13491
304.739	17556
304.794	26666
304.811	22597
304.850	12161
304.902	4522
304.905	4070
304.960	3094
304.992	2983
305.015	2923
305.071	3090
305.083	2961
305.126	2366
305.173	1069
305.181	885
305.236	1346
305.264	1819
305.292	2290
305.347	2423
305.354	2544
305.402	3273
305.445	3415
305.457	3489
305.512	4112
305.535	4353
305.567	4548
305.622	4942
305.626	5135
305.678	10888
305.716	23086
305.733	27395
305.788	29929
305.807	26590
305.843	20664
305.897	27291
305.898	27354
305.953	25952
305.988	17405
306.008	12737
306.063	7551
306.078	6505
306.118	4566
306.168	2815
306.173	2685
306.228	2471
306.259	2337
306.283	2292
306.338	1766
306.349	1843
306.393	2251
306.440	2952
306.448	3046
306.503	2987
306.530	3077
306.558	4766
306.613	11816
306.620	12819
306.668	20161
306.711	28677
306.723	29263
306.778	22541
306.801	17496
306.833	11327
306.888	4487
306.892	4199
306.943	3555
306.982	3193
306.997	3034
307.052	2911
307.072	2698
307.107	2871
307.162	4073
307.163	4085
307.217	6871
307.253	8762
307.272	9131
307.327	9091
307.343	8629
307.381	6893
307.434	6249
307.436	6596
307.491	15410
307.524	23196
307.546	25492
307.600	27589
307.614	25844
307.655	15865
307.704	6787
307.710	6617
307.765	7513
307.795	8960
307.819	11504
307.874	19113
307.885	19597
307.929	14946
307.975	10659
307.984	11007
308.038	14607
308.065	17910
308.093	32881
308.148	71495
308.156	80077
308.202	140314
308.246	179637
308.257	171118
308.312	87777
308.336	56988
308.366	44639
308.421	29405
308.426	27880
308.475	17952
308.517	11614
308.530	10861
308.585	9261
308.607	8510
308.639	8408
308.694	9213
308.697	9302
308.748	17645
308.787	25613
308.803	25475
308.857	19731
308.877	17450
308.912	15381
308.967	14046
308.967	14011
309.021	20566
309.058	25817
309.076	33022
309.130	58830
309.148	68229
309.185	122193
309.238	213151
309.239	214418
309.293	255273
309.328	252526
309.348	213921
309.402	99759
309.418	70022
309.457	49592
309.508	29337
309.511	29159
309.566	28904
309.598	29739
309.620	37370
309.674	59513
309.688	64993
309.729	63494
309.778	55406
309.783	53894
309.837	35222
309.868	25412
309.892	28805
309.946	39525
309.959	42814
310.001	59616
310.049	75060
310.055	72184
310.109	41677
310.139	24604
310.163	19531
310.218	10995
310.229	9395
310.272	7883
310.319	6275
310.326	6116
310.381	5175
310.409	4788
310.435	4624
310.489	4199
310.499	4167
310.543	4681
310.589	4834
310.598	4793
310.652	4967
310.679	4824
310.706	4317
310.760	3444
310.769	3276
310.814	3534
310.859	3968
310.868	3977
310.923	3789
310.948	3759
310.977	4278
311.031	5162
311.038	5282
311.085	5435
311.128	5361
311.139	5232
311.193	4606
311.218	4259
311.247	4185
311.301	4032
311.308	4011
311.356	4047
311.398	4017
311.410	3929
311.464	3409
311.488	3125
311.518	3182
311.572	3444
311.578	3451
311.626	6011
311.668	8307
311.680	8122
311.734	7052
311.758	6551
311.788	6718
311.842	6980
311.847	6982
311.896	8051
311.937	8994
311.950	9153
312.004	9672
312.027	9865
312.058	8164
312.112	5057
312.117	4733
312.165	4623
312.207	4507
312.297	6882
312.386	6553
312.476	5486
312.566	14173
312.656	6765
312.745	4017
312.835	5127
312.925	5215
313.015	4312
313.104	5697
313.194	4833
313.284	4779
313.374	6777
313.463	7359
313.553	3843
313.643	4394
313.732	3560
313.822	4016
313.912	4270
314.001	5497
314.091	6434
314.180	8717
314.270	7537
314.360	8238
314.449	7732
314.539	4531
314.628	3431
314.718	5045
314.808	7043
314.897	4718
314.987	4482
315.076	6686
315.166	8451
315.255	7737
315.345	7437
315.434	7330
315.524	5807
315.613	8331
315.703	10110
315.792	13889
315.881	37911
315.971	17301
316.060	13951
316.150	19607
316.239	19419
316.328	9280
316.418	4672
316.507	5700
316.597	7202
316.686	7407
316.775	8537
316.865	21133
316.954	5590
317.043	3909
317.133	4984
317.222	4285
317.311	4880
317.400	4859
317.490	6685
317.579	9922
317.668	6015
317.757	9136
317.847	19899
317.936	70349
318.025	36469
318.114	19016
318.203	12983
318.293	14677
318.382	33920
318.471	26161
318.560	30751
318.649	56053
318.738	14688
318.828	8269
318.917	10408
319.006	9932
319.095	25272
319.184	67915
319.273	44402
319.362	25621
319.451	7471
319.540	7122
319.629	15763
319.718	31769
319.807	12828
319.896	21396
319.985	86094
320.074	38475
320.163	8535
320.252	13190
320.341	10421
320.430	10076
320.519	14233
320.608	9229
320.697	6456
320.786	8118
320.875	9280
320.964	12224
321.053	20270
321.142	28029
321.230	33345
321.319	19657
321.408	51347
321.497	24748
321.586	20897
321.675	21646
321.764	22987
321.852	13667
321.941	27708
322.030	21625
322.119	18084
322.207	53598
322.296	34805
322.385	17557
322.474	20086
322.562	63888
322.651	37429
322.740	21681
322.829	33098
322.917	28564
323.006	19537
323.095	18095
323.183	11118
323.272	17461
323.361	26925
323.449	81587
323.538	30969
323.626	55619
323.715	40904
323.804	13116
323.892	49555
323.981	34670
324.069	9590
324.158	24010
324.246	29803
324.335	11115
324.424	20281
324.512	7965
324.601	11579
324.689	24933
324.778	58995
324.866	25005
324.954	7535
325.043	6751
325.131	11543
325.220	20406
325.308	25169
325.397	18187
325.485	13041
325.574	4994
325.662	4714
325.750	5987
325.839	4651
325.927	3800
326.015	5921
326.104	7465
326.192	12562
326.280	5473
326.369	5410
326.457	7398
326.545	15897
326.634	7300
326.722	3957
326.810	3976
326.898	4401
326.987	5912
327.075	12875
327.163	14443
327.251	7235
327.340	16482
327.428	34254
327.516	6077
327.604	4948
327.692	5206
327.781	4620
327.869	9632
327.957	6107
328.045	6648
328.133	3573
328.221	4826
328.309	4534
328.397	4474
328.485	6471
328.574	9162
328.662	32756
328.750	19701
328.838	6544
328.926	4651
329.014	3344
329.102	6558
329.190	16380
329.278	13867
329.366	3536
329.454	3330
329.542	3881
329.630	3700
329.718	3988
329.806	6030
329.893	5072
329.981	6040
330.069	8738
330.157	30913
330.245	106205
330.333	66079
330.421	11284
330.509	9818
330.597	38431
330.684	29208
330.772	8759
330.860	10311
330.948	13364
331.036	7760
331.123	3168
331.211	4143
331.299	5147
331.387	9694
331.475	23023
331.562	6890
331.650	4003
331.738	3981
331.825	6161
331.913	3340
332.001	2809
332.089	4761
332.176	10298
332.264	23911
332.352	22236
332.439	6857
332.527	4989
332.614	4112
332.702	6414
332.790	4774
332.877	11335
332.965	27601
333.052	10140
333.140	8955
333.228	26142
333.315	8252
333.403	4887
333.490	14339
333.578	16664
333.665	32120
333.753	16828
333.840	5567
333.928	6347
334.015	15612
334.103	23553
334.190	84950
334.278	26386
334.365	10745
334.452	8911
334.540	5396
334.627	6170
334.715	9705
334.802	16748
334.889	84055
334.977	107773
335.064	17466
335.151	7998
335.239	7356
335.326	9691
335.413	36181
335.501	65199
335.588	9683
335.675	6948
335.762	7487
335.850	13654
335.937	10516
336.024	22941
336.111	103471
336.199	56395
336.286	12708
336.373	6270
336.460	4574
336.547	4276
336.635	7188
336.722	6069
336.809	4601
336.896	6807
336.983	22712
337.070	60538
337.157	94739
337.245	60272
337.332	50185
337.419	5996
337.506	4060
337.593	5754
337.680	16526
337.767	62286
337.854	19238
337.941	19327
338.028	22971
338.115	8710
338.202	8783
338.289	14556
338.376	61799
338.463	23167
338.550	29912
338.637	41904
338.724	11197
338.811	20092
338.898	4863
338.984	3718
339.071	5244
339.158	5813
339.245	19039
339.332	13310
339.419	11988
339.506	13550
339.593	3004
339.679	4259
339.766	4032
339.853	5762
339.940	14773
340.027	5601
340.113	4554
340.200	6938
340.287	5153
340.374	6081
340.460	13958
340.547	5772
340.634	9050
340.720	38173
340.807	26879
340.894	3892
340.980	4450
341.067	4255
341.154	4259
341.240	8065
341.327	21115
341.414	7530
341.500	7746
341.587	4918
341.674	4678
341.760	10929
341.847	17038
341.933	5482
342.020	2488
342.106	2032
342.193	4078
342.279	11052
342.366	7264
342.452	14268
342.539	7519
342.625	15386
342.712	45321
342.798	18923
342.885	7473
342.971	2243
343.058	2445
343.144	2630
343.230	4976
343.317	3260
343.403	3763
343.490	2346
343.576	3058
343.662	4380
343.749	4598
343.835	6417
343.921	11033
344.008	61649
344.094	184836
344.180	44573
344.267	14314
344.353	43187
344.439	56023
344.525	20711
344.612	8599
344.698	6577
344.784	5369
344.870	3031
344.957	4446
345.043	7948
345.129	5431
345.215	11834
345.301	7753
345.387	5323
345.474	2784
345.560	2646
345.646	3134
345.732	3316
345.818	4827
345.904	4766
345.990	5453
346.076	4689
346.162	9439
346.249	5078
346.335	3522
346.421	4254
346.507	14930
346.593	73517
346.679	19586
346.765	4715
346.851	4421
346.937	4958
347.023	3542
347.108	4813
347.194	4717
347.280	3083
347.366	5794
347.452	16282
347.538	82901
347.624	62419
347.710	53759
347.796	8605
347.882	4267
347.967	3493
348.053	5375
348.139	3872
348.225	2803
348.311	3420
348.397	3400
348.482	4266
348.568	6270
348.654	2688
348.740	6242
348.825	5691
348.911	8203
348.997	29859
349.083	81281
349.168	14280
349.254	5265
349.340	5136
349.425	2998
349.511	5348
349.597	5769
349.682	12147
349.768	48828
349.854	27079
349.939	4746
350.025	2802
350.110	3220
350.196	2754
350.282	2458
350.367	1998
350.453	4918
350.538	6207
350.624	6270
350.709	5328
350.795	3401
350.880	3116
350.966	4592
351.051	6384
351.137	5100
351.222	4132
351.308	12148
351.393	45246
351.479	13239
351.564	5224
351.649	4102
351.735	3293
351.820	3633
351.906	3717
351.991	5291
352.076	24555
352.162	47554
352.247	9349
352.332	5334
352.418	10750
352.503	13756
352.588	57313
352.673	58618
352.759	11705
352.844	6032
352.929	5122
353.014	8606
353.100	6077
353.185	11136
353.270	15553
353.355	16981
353.441	4367
353.526	5582
353.611	11369
353.696	17159
353.781	9332
353.866	4572
353.952	4277
354.037	11843
354.122	30789
354.207	29109
354.292	11617
354.377	5067
354.462	3958
354.547	6106
354.632	5372
354.717	8049
354.802	14593
354.887	7101
354.972	3644
355.057	3142
355.142	2280
355.227	4000
355.312	7810
355.397	18261
355.482	49303
355.567	27808
355.652	15307
355.737	18101
355.822	52419
355.907	53615
355.991	7948
356.076	4532
356.161	4073
356.246	3386
356.331	3930
356.416	8725
356.501	76350
356.585	105213
356.670	14914
356.755	8995
356.840	11204
356.924	48911
357.009	214928
357.094	96540
357.179	19481
357.263	12449
357.348	10046
357.433	11148
357.517	10459
357.602	8470
357.687	6458
357.771	10904
357.856	33632
357.941	22999
358.025	34063
358.110	195252
358.195	110873
358.279	15614
358.364	9697
358.448	32025
358.533	108056
358.617	83383
358.702	78666
358.787	32729
358.871	14926
358.956	14428
359.040	4655
359.125	3085
359.209	4645
359.294	13393
359.378	29013
359.462	14972
359.547	8147
359.631	5165
359.716	3119
359.800	3645
359.885	6810
359.969	5706
360.053	4447
360.138	4241
360.222	7306
360.306	15066
360.391	11615
360.475	16354
360.559	47162
360.644	39073
360.728	32640
360.812	36704
360.896	137371
360.981	59059
361.065	30948
361.149	8126
361.233	7457
361.318	5683
361.402	7715
361.486	6902
361.570	4888
361.654	7898
361.739	16268
361.823	73127
361.907	145809
361.991	28179
362.075	11975
362.159	30191
362.243	22791
362.327	20266
362.411	29015
362.495	15336
362.580	7453
362.664	5836
362.748	5295
362.832	7097
362.916	11653
363.000	38435
363.084	108269
363.168	173629
363.252	44002
363.336	12489
363.420	15646
363.503	53563
363.587	79649
363.671	15129
363.755	9376
363.839	15747
363.923	7323
364.007	15108
364.091	19175
364.175	17877
364.258	95835
364.342	80711
364.426	94728
364.510	57661
364.594	23382
364.677	21624
364.761	105776
364.845	94154
364.929	27483
365.013	24208
365.096	16922
365.180	23340
365.264	18894
365.347	96065
365.431	47095
365.515	11605
365.598	6624
365.682	5456
365.766	8349
365.849	12660
365.933	6439
366.017	8730
366.100	6716
366.184	2518
366.267	3792
366.351	4358
366.435	3270
366.518	2844
366.602	2458
366.685	3548
366.769	5044
366.852	8218
366.936	17425
367.019	11857
367.103	5865
367.186	13543
367.270	4844
367.353	3199
367.436	4132
367.520	3073
367.603	5665
367.687	8276
367.770	18720
367.853	10337
367.937	28459
368.020	65587
368.104	16089
368.187	12252
368.270	19775
368.353	18022
368.437	17385
368.520	40570
368.603	27769
368.687	34964
368.770	85588
368.853	21527
368.936	15466
369.020	16650
369.103	7100
369.186	4688
369.269	5674
369.352	10567
369.436	16543
369.519	11440
369.602	4988
369.685	5994
369.768	5874
369.851	4705
369.934	3735
370.018	4615
370.101	13813
370.184	12981
370.267	7896
370.350	14289
370.433	21848
370.516	55277
370.599	85123
370.682	24310
370.765	39209
370.848	48038
370.931	97772
371.014	41448
371.097	7779
371.180	6671
371.263	3444
371.346	3036
371.429	4046
371.511	4569
371.594	8447
371.677	14889
371.760	16848
371.843	13847
371.926	57053
372.009	175520
372.091	62734
372.174	30116
372.257	89318
372.340	39915
372.423	21717
372.505	26606
372.588	11211
372.671	22575
372.754	93145
372.836	54889
372.919	25214
373.002	59963
373.085	21745
373.167	14983
373.250	34956
373.332	84621
373.415	95128
373.498	232707
373.580	92116
373.663	94152
373.746	163277
373.828	38392
373.911	14344
373.993	12679
374.076	50127
374.159	56287
374.241	21260
374.324	76746
374.406	58163
374.489	50238
374.571	190366
374.654	91198
374.736	29632
374.819	107502
374.901	151877
374.983	180845
375.066	35230
375.148	10782
375.231	36638
375.313	90663
375.395	35980
375.478	8962
375.560	5761
375.643	8892
375.725	24321
375.807	133458
375.890	117424
375.972	43289
376.054	22022
376.136	33297
376.219	16629
376.301	30876
376.383	127483
376.465	55453
376.548	28257
376.630	30938
376.712	104578
376.794	60139
376.877	6941
376.959	3765
377.041	5794
377.123	9165
377.205	14005
377.287	3664
377.369	2367
377.452	4112
377.534	3996
377.616	4021
377.698	4517
377.780	3134
377.862	3635
377.944	5295
378.026	2369
378.108	2960
378.190	3059
378.272	3544
378.354	1776
378.436	2335
378.518	5074
378.600	23194
378.682	21004
378.764	50933
378.846	50544
378.928	11736
379.010	17319
379.091	10642
379.173	4381
379.255	3993
379.337	5123
379.419	19792
379.501	79822
379.583	37044
379.664	7063
379.746	15840
379.828	49984
379.910	74701
379.991	71491
380.073	13183
380.155	7801
380.237	6044
380.318	3841
380.400	3754
380.482	10374
380.564	19341
380.645	18313
380.727	19966
380.809	10169
380.890	7788
380.972	5410
381.053	5280
381.135	6384
381.217	14923
381.298	57766
381.380	31685
381.461	18608
381.543	90504
381.624	144223
381.706	28382
381.787	11566
381.869	13089
381.951	32399
382.032	163631
382.113	123045
382.195	25651
382.276	16135
382.358	31158
382.439	95162
382.521	99528
382.602	168511
382.684	77691
382.765	130781
382.846	164451
382.928	260197
383.009	159919
383.090	83949
383.172	308379
383.253	559856
383.334	196426
383.416	158257
383.497	95962
383.578	40981
383.659	70588
383.741	246530
383.822	727563
383.903	434573
383.984	122364
384.066	189423
384.147	133015
384.228	29400
384.309	19753
384.390	16446
384.471	11819
384.553	11560
384.634	15196
384.715	17817
384.796	9408
384.877	10393
384.958	44930
385.039	68068
385.120	25309
385.201	10291
385.282	12060
385.363	12036
385.444	11193
385.525	17131
385.606	70658
385.687	74856
385.768	16564
385.849	15561
385.930	65258
386.011	148493
386.092	44860
386.173	9464
386.254	7033
386.335	6522
386.416	7850
386.496	27551
386.577	59804
386.658	21258
386.739	11135
386.820	10411
386.901	8154
386.981	7194
387.062	5626
387.143	9702
387.224	49942
387.304	54802
387.385	18998
387.466	10456
387.547	13503
387.627	10192
387.708	15630
387.789	83730
387.869	125941
387.950	36849
388.031	6218
388.111	3937
388.192	13034
388.273	20547
388.353	14216
388.434	7689
388.514	12930
388.595	74718
388.676	119912
388.756	58862
388.837	49533
388.917	36171
388.998	6138
389.078	6309
389.159	6136
389.239	4189
389.320	9853
389.400	7949
389.480	15700
389.561	58162
389.641	34079
389.722	8798
389.802	15894
389.883	19777
389.963	66613
390.043	46742
390.124	13067
390.204	14416
390.284	60219
390.365	43383
390.445	33127
390.525	97635
390.605	99909
390.686	35876
390.766	12576
390.846	6841
390.927	4513
391.007	5080
391.087	6126
391.167	6930
391.247	5333
391.328	7296
391.408	12988
391.488	10563
391.568	4230
391.648	6189
391.728	11755
391.808	10651
391.888	12054
391.969	25986
392.049	56201
392.129	22927
392.209	20333
392.289	64385
392.369	39092
392.449	24036
392.529	18313
392.609	14579
392.689	17149
392.769	60079
392.849	61791
392.929	32030
393.009	85181
393.089	79211
393.169	56458
393.248	151823
393.328	598766
393.408	760438
393.488	238912
393.568	65698
393.648	32113
393.728	20248
393.807	14418
393.887	14140
393.967	12161
394.047	12653
394.127	14431
394.206	19678
394.286	54668
394.366	296878
394.446	399765
394.525	95391
394.605	21924
394.685	16220
394.764	31396
394.844	57921
394.924	48484
395.003	15593
395.083	10323
395.163	9053
395.242	7493
395.322	9341
395.402	5815
395.481	9461
395.561	18592
395.640	66186
395.720	57985
395.799	69852
395.879	63229
395.958	28154
396.038	80485
396.117	390456
396.197	524757
396.276	155146
396.356	45812
396.435	33240
396.515	25521
396.594	28066
396.673	48242
396.753	157718
396.832	576926
396.912	518654
396.991	138400
397.070	35847
397.150	19040
397.229	13241
397.308	16077
397.388	32196
397.467	18186
397.546	7339
397.625	5651
397.705	8684
397.784	10067
397.863	5888
397.942	3639
398.022	4284
398.101	14140
398.180	58454
398.259	34901
398.338	8859
398.417	6526
398.497	3920
398.576	5376
398.655	3429
398.734	2720
398.813	3220
398.892	13534
398.971	63494
399.050	38146
399.129	4753
399.208	3105
399.287	3477
399.366	1669
399.445	2487
399.524	3488
399.603	2114
399.682	6327
399.761	18442
399.840	64584
399.919	61648
399.998	8657
400.077	2020
400.156	1916
400.235	4098
400.313	2691
400.392	3540
400.471	22344
400.550	49813
400.629	15045
400.708	4509
400.786	4418
400.865	11802
400.944	16167
401.023	8684
401.102	1498
401.180	1435
401.259	1779
401.338	2936
401.416	4378
401.495	4421
401.574	3064
401.652	1950
401.731	5285
401.810	4381
401.888	3134
401.967	658
402.046	2257
402.124	3701
402.203	6686
402.281	3829
402.360	4311
402.438	15552
402.517	13451
402.596	4078
402.674	4086
402.753	2053
402.831	2134
402.910	3437
402.988	15195
403.066	73065
403.145	50485
403.223	18111
403.302	60512
403.380	48897
403.459	48450
403.537	20362
403.615	6398
403.694	1710
403.772	2040
403.850	1408
403.929	1582
404.007	1257
404.085	7142
404.164	10661
404.242	2656
404.320	3714
404.398	5854
404.477	17737
404.555	116290
404.633	127802
404.711	18644
404.789	3906
404.868	4396
404.946	2347
405.024	1389
405.102	1955
405.180	1605
405.258	975
405.336	2129
405.415	1703
405.493	6550
405.571	8083
405.649	2308
405.727	1206
405.805	4406
405.883	4138
405.961	4791
406.039	4889
406.117	2303
406.195	5448
406.273	20554
406.351	108969
406.429	79011
406.507	10581
406.585	3996
406.663	3618
406.740	5775
406.818	4612
406.896	2636
406.974	3223
407.052	6020
407.130	55761
407.208	105331
407.285	22355
407.363	2899
407.441	3077
407.519	2461
407.596	3523
407.674	9037
407.752	31492
407.830	35297
407.907	12588
407.985	4745
408.063	1803
408.141	1365
408.218	4240
408.296	4657
408.373	4318
408.451	4874
408.529	3779
408.606	922
408.684	1435
408.762	780
408.839	408
408.917	1622
408.994	1670
409.072	1300
409.149	1775
409.227	3976
409.304	5157
409.382	4572
409.459	4576
409.537	7224
409.614	7566
409.692	4569
409.769	4507
409.846	7055
409.924	11062
410.001	8550
410.079	4914
410.156	3684
410.233	2949
410.311	2306
410.388	2064
410.465	3003
410.543	3661
410.620	2787
410.697	2533
410.775	3352
410.852	1286
410.929	4132
411.006	5990
411.083	2547
411.161	8157
411.238	10371
411.315	4627
411.392	1649
411.469	4336
411.547	6217
411.624	1966
411.701	1957
411.778	2854
411.855	8454
411.932	3886
412.009	2294
412.086	1297
412.163	2496
412.240	2526
412.317	4383
412.394	3951
412.471	999
412.548	208
412.625	1823
412.702	1601
412.779	7811
412.856	4510
412.933	945
413.010	1749
413.087	2510
413.164	22038
413.241	41450
413.318	9908
413.395	4913
413.471	8688
413.548	4152
413.625	1374
413.702	2772
413.779	1848
413.855	30
413.932	213
414.009	196
414.086	532
414.162	1829
414.239	2462
414.316	18858
414.393	59831
414.469	24409
414.546	2040
414.623	1606
414.699	807
414.776	2362
414.853	1510
414.929	1571
415.006	1061
415.082	1721
415.159	1547
415.236	1214
415.312	1394
415.389	5668
415.465	8187
415.542	3650
415.618	676
415.695	4708
415.771	3319
415.848	2186
415.924	2033
416.000	1336
416.077	1609
416.153	-351
416.230	-887
416.306	425
416.383	741
416.459	886
416.535	-203
416.612	-40
416.688	880
416.764	543
416.841	333
416.917	1407
416.993	950
417.069	2185
417.146	2828
417.222	4754
417.298	2415
417.374	1295
417.451	1610
417.527	2872
417.603	4050
417.679	2505
417.755	1928
417.831	426
417.908	1168
417.984	674
418.060	-263
418.136	5807
418.212	8981
418.288	3171
418.364	1559
418.440	1296
418.516	2826
418.592	4519
418.668	9600
418.744	16784
418.820	13266
418.896	3082
418.972	643
419.048	1445
419.124	6691
419.200	5773
419.276	924
419.352	67
419.428	1613
419.504	1158
419.579	3044
419.655	994
419.731	1920
419.807	9277
419.883	19668
419.959	15728
420.034	3661
420.110	5631
420.186	32132
420.262	32534
420.337	5441
420.413	3100
420.489	2182
420.565	1186
420.640	1590
420.716	2503
420.792	388
420.867	2028
420.943	1382
421.019	5068
421.094	4335
421.170	2034
421.245	1094
421.321	2029
421.397	1961
421.472	5271
421.548	17683
421.623	15526
421.699	5487
421.774	5105
421.850	3471
421.925	7761
422.001	8781
422.076	6156
422.152	7121
422.227	12171
422.302	14703
422.378	19541
422.453	37109
422.529	83716
422.604	244622
422.679	432730
422.755	332510
422.830	128146
422.905	48387
422.981	25994
423.056	16298
423.131	12031
423.207	8909
423.282	8003
423.357	13227
423.432	10164
423.508	8726
423.583	18462
423.658	16987
423.733	5225
423.808	5295
423.883	6470
423.959	5370
424.034	5404
424.109	4459
424.184	1817
424.259	1296
424.334	2335
424.409	757
424.484	968
424.559	2630
424.634	1518
424.709	3415
424.784	4744
424.859	2434
424.934	3805
425.009	21143
425.084	43771
425.159	17824
425.234	3223
425.309	734
425.384	6259
425.459	14764
425.534	4835
425.609	1348
425.683	841
425.758	602
425.833	1885
425.908	1175
425.983	9902
426.058	43763
426.132	21388
426.207	3282
426.282	4587
426.357	3844
426.431	1136
426.506	799
426.581	1810
426.655	656
426.730	1209
426.805	696
426.879	2204
426.954	840
427.029	4575
427.103	29878
427.178	98523
427.253	51412
427.327	5255
427.402	4150
427.476	14977
427.551	8927
427.625	2810
427.700	2095
427.774	1201
427.849	1761
427.923	1282
427.998	1311
428.072	1280
428.147	5117
428.221	24698
428.296	93327
428.370	60876
428.444	6559
428.519	5210
428.593	11366
428.667	11165
428.742	10927
428.816	12009
428.890	46780
428.965	101169
429.039	33962
429.113	16121
429.188	6475
429.262	2066
429.336	4187
429.410	18454
429.485	13230
429.559	9419
429.633	9177
429.707	3113
429.781	6972
429.855	52225
429.930	101792
430.004	44763
430.078	55850
430.152	55917
430.226	107187
430.300	139170
430.374	23666
430.448	6157
430.522	14362
430.596	56160
430.670	40044
430.744	88395
430.818	167051
430.892	38716
430.966	5397
431.040	2549
431.114	153
431.188	728
431.262	1142
431.336	1229
431.410	4450
431.484	15540
431.557	13304
431.631	2137
431.705	1444
431.779	11161
431.853	75309
431.927	68884
432.000	7772
432.074	1594
432.148	2137
432.222	2208
432.295	460
432.369	1253
432.443	3220
432.516	27192
432.590	99901
432.664	42768
432.737	3572
432.811	971
432.885	-126
432.958	-26
433.032	-81
433.106	-336
433.179	-610
433.253	329
433.326	-43
433.400	-95
433.473	169
433.547	106
433.620	-174
433.694	2829
433.767	3936
433.841	804
433.914	769
433.988	346
434.061	79
434.134	316
434.208	-737
434.281	-282
434.355	-507
434.428	714
434.501	215
434.575	334
434.648	191
434.721	-288
434.795	99
434.868	-692
434.941	-638
435.014	149
435.088	689
435.161	1323
435.234	4016
435.307	6074
435.381	1987
435.454	2156
435.527	3045
435.600	3308
435.673	2932
435.746	1517
435.819	1388
435.892	1217
435.966	-12
436.039	-37
436.112	942
436.185	495
436.258	-846
436.331	-1347
436.404	-104
436.477	-645
436.550	-549
436.623	260
436.696	-490
436.769	717
436.842	512
436.915	699
436.987	1309
437.060	334
437.133	-44
437.206	-311
437.279	175
437.352	-584
437.425	45
437.498	1387
437.570	4044
437.643	5427
437.716	-216
437.789	503
437.861	1918
437.934	12903
438.007	7268
438.080	1137
438.152	863
438.225	4040
438.298	33842
438.370	132736
438.443	64595
438.516	14515
438.588	3327
438.661	78
438.734	946
438.806	1142
438.879	1816
438.951	2410
439.024	6947
439.096	2666
439.169	323
439.241	368
439.314	-502
439.386	1257
439.459	3242
439.531	6327
439.604	2120
439.676	185
439.749	-631
439.821	-214
439.893	-350
439.966	465
440.038	856
440.110	1985
440.183	-284
440.255	-211
440.327	2130
440.400	13129
440.472	77799
440.544	65814
440.617	8086
440.689	4390
440.761	5356
440.833	11295
440.905	7181
440.978	668
441.050	-159
441.122	1289
441.194	-610
441.266	431
441.338	819
441.411	2348
441.483	21046
441.555	43704
441.627	9439
441.699	3549
441.771	3330
441.843	781
441.915	-292
441.987	-13
442.059	699
442.131	1280
442.203	2944
442.275	3963
442.347	3917
442.419	5413
442.491	29962
442.563	99272
442.635	49333
442.706	17440
442.778	15635
442.850	3248
442.922	1133
442.994	1890
443.066	3558
443.137	3359
443.209	2374
443.281	3905
443.353	9023
443.425	37296
443.496	165314
443.568	187423
443.640	72251
443.711	12768
443.783	4278
443.855	2876
443.926	448
443.998	1643
444.070	2152
444.141	2039
444.213	4111
444.285	5376
444.356	3470
444.428	2909
444.499	1490
444.571	999
444.642	737
444.714	1576
444.785	4021
444.857	3987
444.928	9507
445.000	6914
445.071	6564
445.143	9280
445.214	5788
445.285	9668
445.357	28112
445.428	92877
445.500	270213
445.571	178147
445.642	94639
445.714	31645
445.785	21613
445.856	7364
445.928	6316
445.999	4954
446.070	4279
446.141	4007
446.213	5353
446.284	2834
446.355	2565
446.426	1442
446.497	1354
446.569	2467
446.640	4606
446.711	4465
446.782	1409
446.853	1460
446.924	1553
446.995	1437
447.066	1472
447.138	3211
447.209	1579
447.280	-366
447.351	-379
447.422	345
447.493	1242
447.564	1481
447.635	3810
447.706	1189
447.777	144
447.847	-61
447.918	-499
447.989	1283
448.060	915
448.131	6006
448.202	5679
448.273	4975
448.344	1761
448.414	1236
448.485	59
448.556	406
448.627	-581
448.698	-78
448.768	-847
448.839	152
448.910	2047
448.981	2808
449.051	783
449.122	-30
449.193	-552
449.263	-343
449.334	-372
449.405	1425
449.475	5437
449.546	3301
449.616	3139
449.687	3633
449.758	669
449.828	764
449.899	478
449.969	135
450.040	-101
450.110	527
450.181	1476
450.251	851
450.322	-88
450.392	405
450.463	6
450.533	-567
450.604	240
450.674	-255
450.744	1
450.815	34
450.885	23
450.955	253
451.026	245
451.096	-119
451.166	237
451.237	2700
451.307	10167
451.377	4409
451.447	450
451.518	132
451.588	-128
451.658	-63
451.728	1074
451.799	9552
451.869	13274
451.939	1769
452.009	380
452.079	195
452.149	360
452.219	1709
452.289	11703
452.360	9540
452.430	1579
452.500	1838
452.570	2078
452.640	3384
452.710	11557
452.780	19287
452.850	12737
452.920	13412
452.990	3621
453.060	1509
453.129	2498
453.199	3373
453.269	10453
453.339	30876
453.409	51356
453.479	44575
453.549	69627
453.619	75255
453.688	30862
453.758	4353
453.828	261
453.898	920
453.968	641
454.037	665
454.087	785
454.107	827
454.168	-253
454.177	-418
454.247	-350
454.249	-326
454.316	171
454.330	192
454.386	217
454.411	1831
454.456	4499
454.492	7145
454.525	9507
454.574	5334
454.595	3514
454.655	791
454.665	352
454.734	302
454.736	358
454.804	2037
454.817	3435
454.873	9124
454.898	10387
454.943	12661
454.979	8101
455.013	3952
455.060	1877
455.082	995
455.141	1529
455.152	1600
455.221	5562
455.222	5679
455.291	13885
455.303	12206
455.360	4660
455.384	3904
455.430	2673
455.465	2885
455.499	2926
455.546	6928
455.569	8731
455.627	7209
455.638	6954
455.707	921
455.708	922
455.777	121
455.789	221
455.846	724
455.869	526
455.916	51
455.950	126
455.985	161
456.031	156
456.054	167
456.112	-25
456.124	-44
456.193	243
456.193	234
456.262	203
456.274	297
456.332	890
456.355	1149
456.401	1496
456.436	869
456.470	172
456.516	235
456.540	314
456.597	-58
456.609	-128
456.678	816
456.678	815
456.747	341
456.759	252
456.817	-296
456.840	-132
456.886	116
456.920	166
456.955	277
457.001	108
457.024	40
457.082	459
457.093	547
457.162	1293
457.163	1305
457.232	2233
457.243	2094
457.301	1311
457.324	954
457.370	454
457.405	450
457.439	510
457.485	742
457.508	801
457.566	1048
457.577	1109
457.646	1055
457.647	1074
457.715	3175
457.727	3456
457.784	5166
457.808	7129
457.853	9998
457.889	13519
457.922	15443
457.969	10265
457.991	9335
458.050	9583
458.060	9635
458.129	16765
458.130	17028
458.198	22942
458.211	20878
458.267	12029
458.292	8368
458.336	3994
458.372	3329
458.405	4104
458.453	6310
458.474	8051
458.533	15048
458.543	15698
458.611	31231
458.614	31479
458.680	25908
458.694	21318
458.749	9634
458.775	6847
458.818	3261
458.855	2459
458.887	1739
458.936	978
458.955	794
459.016	1205
459.024	1253
459.093	1339
459.097	1336
459.162	1323
459.177	1424
459.230	1717
459.257	1943
459.299	2178
459.338	2052
459.368	1996
459.418	2423
459.437	2493
459.499	2281
459.505	2240
459.574	1608
459.579	1511
459.643	669
459.659	820
459.711	1195
459.740	1208
459.780	1119
459.820	1063
459.849	1186
459.900	1728
459.917	1977
459.981	2205
459.986	2162
460.054	2114
460.061	2101
460.123	2085
460.141	2171
460.191	3081
460.222	3433
460.260	3730
460.302	4645
460.328	4672
460.382	4148
460.397	4029
460.462	2348
460.465	2334
460.534	3154
460.543	3251
460.602	9543
460.623	12191
460.671	19652
460.703	28101
460.739	28795
460.783	27224
460.808	25021
460.864	6653
460.876	4549
460.944	1994
460.945	1963
461.013	1500
461.024	1473
461.081	1084
461.104	1146
461.150	1702
461.184	2127
461.218	2354
461.264	2013
461.286	1867
461.345	1578
461.355	1463
461.423	1209
461.425	1208
461.491	1752
461.505	1777
461.559	2726
461.585	3265
461.628	5080
461.665	7123
461.696	8158
461.745	12113
461.764	11848
461.825	5041
461.832	4764
461.901	2288
461.905	2276
461.969	2075
461.985	2045
462.037	2269
462.065	2287
462.105	2006
462.145	1963
462.173	2646
462.225	3786
462.241	4152
462.305	6734
462.310	6652
462.378	5454
462.385	4982
462.446	1987
462.465	1415
462.514	1891
462.545	2459
462.582	2362
462.625	2074
462.650	1822
462.705	1386
462.718	1408
462.785	1351
462.786	1367
462.854	2625
462.865	2792
462.922	2858
462.945	3183
462.990	3496
463.025	2955
463.058	2408
463.104	1993
463.126	1879
463.184	1505
463.194	1538
463.262	2064
463.264	2077
463.330	1845
463.344	1778
463.398	2330
463.424	2487
463.466	1823
463.504	1593
463.533	2003
463.583	2376
463.601	2369
463.663	2472
463.669	2510
463.737	2722
463.743	2791
463.805	4287
463.823	4657
463.873	6988
463.903	8571
463.940	9306
463.982	10606
464.008	9399
464.062	5309
464.076	4924
464.142	2261
464.144	2223
464.211	1881
464.221	1879
464.279	2377
464.301	2564
464.347	2802
464.381	2944
464.414	3095
464.461	3329
464.482	3487
464.540	4016
464.550	3987
464.617	3636
464.620	3620
464.685	3663
464.699	3621
464.753	4408
464.779	4890
464.820	5282
464.859	5624
464.888	5116
464.938	4121
464.956	4259
465.018	4875
465.023	4879
465.091	4878
465.098	4841
465.158	4728
465.177	4727
465.226	4067
465.257	3727
465.293	3799
465.336	3667
465.361	4182
465.416	5556
465.428	5674
465.495	6277
465.496	6307
465.563	9813
465.575	10426
465.631	12444
465.654	13582
465.698	9827
465.734	5801
465.765	4938
465.813	3823
465.833	3733
465.893	3850
465.900	3862
465.968	3988
465.972	3988
466.035	3934
466.052	3918
466.102	3969
466.131	3976
466.170	3980
466.210	4002
466.237	3956
466.290	3844
466.304	3920
466.369	4140
466.372	4187
466.439	5531
466.449	5704
466.506	6001
466.528	6124
466.573	7460
466.607	8411
466.641	11653
466.687	16185
466.708	17499
466.766	21304
466.775	20021
466.842	10084
466.845	9592
466.909	7492
466.925	7059
466.977	5815
467.004	5207
467.044	5868
467.083	6507
467.111	6782
467.163	7308
467.178	7491
467.242	8198
467.245	8169
467.312	7393
467.321	7283
467.379	6168
467.400	5750
467.446	6766
467.480	7490
467.559	6627
467.638	4967
467.717	5087
467.796	6740
467.875	7313
467.955	6339
468.034	7507
468.113	16380
468.192	23624
468.271	8551
468.350	6036
468.429	7289
468.508	8223
468.588	6758
468.667	6247
468.746	6180
468.825	5254
468.904	5036
468.983	4974
469.062	7222
469.141	9087
469.220	4970
469.299	4901
469.378	5180
469.456	6644
469.535	7191
469.614	5295
469.693	5648
469.772	7000
469.851	7917
469.930	6642
470.009	4614
470.088	5889
470.166	7783
470.245	11335
470.324	12910
470.403	8661
470.482	5893
470.560	5605
470.639	5751
470.718	6739
470.797	5784
470.875	5576
470.954	7220
471.033	8526
471.111	4425
471.190	3987
471.269	3414
471.347	3416
471.426	4616
471.505	5634
471.583	5912
471.662	5327
471.740	5222
471.819	4201
471.898	4469
471.976	4372
472.055	4077
472.133	5159
472.212	6186
472.290	6460
472.369	3758
472.447	4699
472.526	3501
472.604	4730
472.683	4425
472.761	4835
472.839	4251
472.918	5352
472.996	4090
473.075	4910
473.153	5425
473.231	3845
473.310	4144
473.388	4604
473.466	4448
473.545	5006
473.623	6850
473.701	7555
473.780	5006
473.858	3515
473.936	5474
474.014	4488
474.093	5147
474.171	6076
474.249	8987
474.327	6791
474.405	3210
474.484	2463
474.562	4431
474.640	3696
474.718	4163
474.796	4502
474.874	4619
474.952	3106
475.030	3818
475.108	4240
475.187	4401
475.265	5559
475.343	7534
475.421	9210
475.499	4756
475.577	4316
475.655	5677
475.733	9029
475.811	14738
475.889	13143
475.966	10507
476.044	5189
476.122	5496
476.200	8035
476.278	6202
476.356	4339
476.434	4582
476.512	5370
476.590	7849
476.667	6476
476.745	4226
476.823	3864
476.901	4031
476.979	4160
477.056	3770
477.134	3496
477.212	4611
477.290	3813
477.367	3739
477.445	3272
477.523	3330
477.601	4311
477.678	3734
477.756	4296
477.834	4723
477.911	3925
477.989	3385
478.066	3196
478.144	3879
478.222	5425
478.299	8894
478.377	9173
478.454	3814
478.532	3162
478.609	3933
478.687	4461
478.764	2544
478.842	3062
478.919	3513
478.997	4774
479.074	3051
479.152	3800
479.229	4439
479.307	3673
479.384	3048
479.461	2907
479.539	3104
479.616	3636
479.694	3921
479.771	3836
479.848	3374
479.926	3981
480.003	5442
480.080	3699
480.157	2951
480.235	3783
480.312	3162
480.389	3190
480.467	4990
480.544	6492
480.621	4628
480.698	3995
480.775	4129
480.853	4600
480.930	3907
481.007	3521
481.084	4060
481.161	4357
481.238	4415
481.315	2989
481.392	2908
481.470	3179
481.547	3252
481.624	2847
481.701	3528
481.778	3936
481.855	3240
481.932	5794
482.009	7539
482.086	6568
482.163	3819
482.240	6389
482.317	12030
482.393	9930
482.470	3897
482.547	3697
482.624	3294
482.701	3513
482.778	2978
482.855	3701
482.932	2808
483.009	2704
483.085	4367
483.162	3933
483.239	5235
483.316	2188
483.393	4815
483.469	2649
483.546	3755
483.623	4227
483.699	3237
483.776	2891
483.853	3049
483.930	5887
484.006	12244
484.083	22078
484.160	15524
484.236	21118
484.313	17648
484.389	13313
484.466	12525
484.543	11082
484.619	10535
484.696	12949
484.772	12698
484.849	11162
484.925	10257
485.002	10218
485.078	11090
485.155	11123
485.231	9553
485.308	8905
485.384	9010
485.461	11145
485.537	15214
485.614	18721
485.690	10157
485.766	8234
485.843	9105
485.919	13335
485.995	14430
486.072	8430
486.148	7587
486.224	7659
486.301	8478
486.377	9735
486.453	9722
486.530	10538
486.606	13062
486.682	13787
486.758	15664
486.835	16231
486.911	13345
486.987	19420
487.063	23581
487.139	31315
487.215	22733
487.292	12518
487.368	10620
487.444	10687
487.520	14068
487.596	13967
487.672	20032
487.748	53388
487.824	87644
487.900	31582
487.976	12282
488.052	10587
488.128	13833
488.204	10623
488.280	8331
488.356	9506
488.432	16256
488.508	25584
488.584	12622
488.660	8097
488.736	8960
488.812	8039
488.888	11229
488.964	13222
489.039	26557
489.115	44233
489.191	29108
489.267	9048
489.343	8431
489.418	6625
489.494	6741
489.570	6217
489.646	7770
489.722	7008
489.797	7033
489.873	10136
489.949	17910
490.024	18064
490.100	7013
490.176	6932
490.251	7748
490.327	10732
490.403	7728
490.478	7084
490.554	6340
490.629	5951
490.705	4952
490.781	6177
490.856	6780
490.932	6908
491.007	7024
491.083	6650
491.158	5219
491.234	7429
491.309	13727
491.385	14094
491.460	7154
491.536	7093
491.611	6418
491.686	6842
491.762	8603
491.837	16563
491.913	29900
491.988	38958
492.063	54702
492.139	16165
492.214	8668
492.289	5134
492.365	4426
492.440	7082
492.515	6067
492.590	6437
492.666	5057
492.741	6031
492.816	8185
492.891	5544
492.967	5025
493.042	4764
493.117	4109
493.192	4967
493.267	4716
493.342	7403
493.418	8540
493.493	4164
493.568	4014
493.643	4314
493.718	5679
493.793	8334
493.868	9934
493.943	6733
494.018	5631
494.093	3863
494.168	4353
494.243	4000
494.318	3939
494.393	3943
494.468	5124
494.543	4120
494.618	4826
494.693	4684
494.768	3891
494.842	4375
494.917	3850
494.992	4755
495.067	4189
495.142	4239
495.217	4053
495.292	4177
495.366	5219
495.441	6073
495.516	8238
495.591	10605
495.665	33831
495.740	90282
495.815	47104
495.890	7592
495.964	5154
496.039	7229
496.114	5642
496.188	6032
496.263	6883
496.338	5281
496.412	4707
496.487	6458
496.561	7482
496.636	8307
496.710	5882
496.785	7132
496.860	7056
496.934	6069
497.009	6218
497.083	6657
497.158	7581
497.232	9321
497.307	9356
497.381	8161
497.455	8337
497.530	11130
497.604	8432
497.679	9756
497.753	13904
497.827	18815
497.902	19134
497.976	20672
498.050	35495
498.125	127410
498.199	169349
498.273	36099
498.348	24398
498.422	19055
498.496	16357
498.570	15324
498.645	10072
498.719	9288
498.793	11876
498.867	13952
498.941	18849
499.016	46165
499.090	142972
499.164	72173
499.238	8599
499.312	7484
499.386	8842
499.460	9414
499.534	6972
499.609	9055
499.683	11906
499.757	12033
499.831	19869
499.905	81879
499.979	104006
500.053	15403
500.127	13392
500.201	10737
500.275	8073
500.349	6900
500.422	7958
500.496	10445
500.570	21989
500.644	48790
500.718	97078
500.792	31767
500.866	6564
500.940	7771
501.013	6901
501.087	6010
501.161	11298
501.235	15370
501.309	24424
501.382	71478
501.456	83568
501.530	17254
501.603	23655
501.677	13627
501.751	3517
501.825	6022
501.898	9920
501.972	28235
502.046	24749
502.119	5615
502.193	12789
502.266	31239
502.340	20351
502.413	13575
502.487	29012
502.561	17542
502.634	7122
502.708	5435
502.781	4953
502.855	5234
502.928	2708
503.002	3195
503.075	3550
503.149	3799
503.222	3989
503.295	3602
503.369	5675
503.442	6750
503.516	18859
503.589	53949
503.662	42297
503.736	12066
503.809	25044
503.882	23651
503.956	29360
504.029	36809
504.102	32441
504.175	49844
504.249	17735
504.322	7720
504.395	6309
504.468	4095
504.542	3501
504.615	3293
504.688	2750
504.761	2652
504.834	4930
504.907	5497
504.980	9030
505.053	5122
505.127	4391
505.200	8401
505.273	5161
505.346	3062
505.419	2615
505.492	3511
505.565	2314
505.638	3234
505.711	2468
505.784	1597
505.857	2012
505.930	3664
506.003	1375
506.076	4361
506.149	3533
506.221	4807
506.294	5367
506.367	9928
506.440	38847
506.513	29686
506.586	5726
506.659	3289
506.731	2468
506.804	2950
506.877	4657
506.950	4800
507.022	2916
507.095	2915
507.168	4660
507.241	3536
507.313	2659
507.386	2530
507.459	4516
507.531	3073
507.604	1758
507.677	3462
507.749	1043
507.822	4189
507.894	8294
507.967	11600
508.040	6316
508.112	5226
508.185	4716
508.257	4305
508.330	8276
508.402	4257
508.475	4280
508.547	5393
508.620	3452
508.692	6413
508.765	4174
508.837	3045
508.909	3488
508.982	4003
509.054	4636
509.127	3777
509.199	3444
509.271	2383
509.344	2894
509.416	3240
509.488	3278
509.560	3978
509.633	3461
509.705	4537
509.777	4286
509.849	5794
509.922	4652
509.994	3244
510.066	3789
510.138	3386
510.210	9181
510.283	8448
510.355	6957
510.427	5328
510.499	6433
510.571	5486
510.643	5603
510.715	8360
510.787	6265
510.859	5956
510.931	5665
511.003	7943
511.076	8647
511.148	3585
511.219	3339
511.291	6130
511.363	7912
511.435	3572
511.507	3219
511.579	4973
511.651	5515
511.723	3983
511.795	3467
511.867	3510
511.939	4481
512.010	7456
512.082	8353
512.154	4230
512.226	4395
512.298	6958
512.369	10147
512.441	8592
512.513	7729
512.585	6317
512.656	6099
512.728	6585
512.800	4370
512.871	5434
512.943	5271
513.015	4542
513.086	4215
513.158	5202
513.230	5553
513.301	7329
513.373	10100
513.444	5854
513.516	4254
513.588	4424
513.659	5539
513.731	6980
513.802	5521
513.874	10666
513.945	20133
514.016	8730
514.088	4671
514.159	5221
514.231	6655
514.302	10257
514.374	7145
514.445	4842
514.516	11496
514.588	9141
514.659	5129
514.730	9854
514.802	9731
514.873	6573
514.944	9314
515.016	7100
515.087	6567
515.158	7771
515.229	10657
515.301	8153
515.372	11045
515.443	6354
515.514	5451
515.585	3736
515.656	4943
515.728	5577
515.799	4455
515.870	5271
515.941	4808
516.012	5012
516.083	7321
516.154	7337
516.225	10855
516.296	11361
516.367	8602
516.438	10345
516.509	12636
516.580	19400
516.651	53536
516.722	215272
516.793	130873
516.864	21211
516.935	18716
517.006	20402
517.077	28062
517.148	60532
517.219	224691
517.289	457675
517.360	105645
517.431	34069
517.502	8891
517.573	8402
517.643	8050
517.714	8068
517.785	9933
517.856	9795
517.926	13597
517.997	16053
518.068	19985
518.138	29263
518.209	42385
518.280	142777
518.350	609311
518.421	324132
518.492	31306
518.562	15184
518.633	12607
518.703	12179
518.774	19683
518.845	51552
518.915	62525
518.986	19105
519.056	12594
519.127	16934
519.197	25749
519.268	48536
519.338	42025
519.408	9664
519.479	12537
519.549	9685
519.620	7504
519.690	4951
519.760	4362
519.831	5267
519.901	5800
519.971	4326
520.042	4437
520.112	5548
520.182	7365
520.253	8558
520.323	4965
520.393	7028
520.463	13810
520.534	7545
520.604	18454
520.674	9864
520.744	7280
520.814	18167
520.885	20109
520.955	14978
521.025	53913
521.095	32089
521.165	6026
521.235	4911
521.305	3755
521.375	4272
521.445	5241
521.515	5879
521.585	7562
521.655	7205
521.725	6201
521.795	6228
521.865	2273
521.935	7332
522.005	4408
522.075	3343
522.145	4412
522.215	4019
522.285	6501
522.355	7452
522.424	13785
522.494	13377
522.564	8100
522.634	13297
522.704	47608
522.774	25393
522.843	5690
522.913	4571
522.983	5540
523.053	4451
523.122	4982
523.192	6417
523.262	20876
523.331	28603
523.401	6708
523.471	4094
523.540	4420
523.610	2163
523.680	2894
523.749	3226
523.819	3544
523.888	3461
523.958	3554
524.027	3967
524.097	3708
524.166	3415
524.236	3299
524.305	4966
524.375	3117
524.444	2452
524.514	4663
524.583	3696
524.653	2843
524.722	5598
524.791	3427
524.861	4194
524.930	2283
524.999	3227
525.069	5851
525.138	5018
525.207	4984
525.277	4615
525.346	2791
525.415	3884
525.484	3992
525.554	3742
525.623	5571
525.692	5414
525.761	4666
525.830	6163
525.900	7170
525.969	10770
526.038	18615
526.107	32070
526.176	109649
526.245	107998
526.314	32347
526.383	52714
526.452	85221
526.522	118263
526.591	158183
526.660	41150
526.729	20531
526.797	22337
526.867	37549
526.935	157317
527.004	317593
527.073	220692
527.142	20629
527.211	8027
527.280	6812
527.349	6045
527.418	3272
527.487	3725
527.555	2766
527.624	2895
527.693	2577
527.762	3378
527.831	2301
527.899	3686
527.968	3313
528.037	2139
528.106	4059
528.174	7176
528.243	6132
528.312	7537
528.380	11783
528.449	3719
528.518	3814
528.586	1400
528.655	2694
528.723	2365
528.792	1644
528.861	2435
528.929	1939
528.998	3416
529.066	2511
529.135	2892
529.203	1460
529.272	697
529.340	3128
529.409	3386
529.477	2803
529.545	2801
529.614	5255
529.682	2666
529.751	4239
529.819	6747
529.887	4033
529.956	2082
530.024	4177
530.092	2150
530.161	3671
530.229	5524
530.297	3918
530.365	3318
530.434	2994
530.502	2605
530.570	2982
530.638	564
530.707	3960
530.775	4579
530.843	2388
530.911	3151
530.979	2484
531.047	3016
531.115	2787
531.183	2764
531.252	3788
531.320	2837
531.388	2179
531.456	3610
531.524	1380
531.592	2908
531.660	4643
531.728	1970
531.796	2706
531.864	2970
531.932	2706
532.000	2174
532.067	2568
532.135	3401
532.203	4905
532.271	3228
532.339	7160
532.407	18262
532.475	13991
532.542	7093
532.610	7488
532.678	8131
532.746	32340
532.814	108423
532.881	36305
532.949	6351
533.017	4445
533.084	4038
533.152	2773
533.220	3315
533.287	2940
533.355	3172
533.423	2978
533.490	1743
533.558	2230
533.625	3220
533.693	4017
533.761	3369
533.828	4625
533.896	2728
533.963	7517
534.031	9186
534.098	12912
534.166	7597
534.233	4035
534.300	4660
534.368	3796
534.435	3858
534.503	4448
534.570	5384
534.637	4936
534.705	5953
534.772	6998
534.840	10256
534.907	44315
534.974	79256
535.041	12110
535.109	5779
535.176	3658
535.243	4576
535.310	4105
535.378	2774
535.445	3770
535.512	3664
535.579	3432
535.646	3017
535.714	3377
535.781	4993
535.848	5605
535.915	4332
535.982	3450
536.049	3103
536.116	4282
536.183	3820
536.250	3176
536.317	3791
536.384	4248
536.451	7387
536.518	7796
536.585	4291
536.652	7334
536.719	10033
536.786	6950
536.853	6231
536.920	8084
536.987	13846
537.053	13492
537.120	44600
537.187	57529
537.254	7506
537.321	4106
537.388	5874
537.454	3157
537.521	4335
537.588	2648
537.654	5417
537.721	5537
537.788	6364
537.855	3762
537.921	4374
537.988	4229
538.055	4368
538.121	3417
538.188	5352
538.254	6353
538.321	12984
538.388	10569
538.454	4493
538.521	4685
538.587	4173
538.654	2947
538.720	4231
538.787	4896
538.853	4554
538.920	5185
538.986	5486
539.053	4434
539.119	4793
539.185	4814
539.252	5393
539.318	8507
539.385	7926
539.451	5945
539.517	6921
539.583	7107
539.650	11728
539.716	39939
539.782	16780
539.849	5153
539.915	5321
539.981	5205
540.047	6505
540.114	6706
540.180	5665
540.246	4725
540.312	6360
540.378	13098
540.444	15559
540.510	13038
540.576	44017
540.643	20526
540.709	3656
540.775	5006
540.841	4527
540.907	6222
540.973	9617
541.039	8883
541.105	8928
541.171	5232
541.237	4354
541.303	6105
541.369	7199
541.435	6763
541.500	11357
541.566	9531
541.632	5195
541.698	5142
541.764	4657
541.830	4401
541.896	2913
541.961	5066
542.027	4852
542.093	5151
542.159	5083
542.224	5173
542.290	7982
542.356	11350
542.421	16974
542.487	7866
542.553	4723
542.618	5571
542.684	5940
542.750	5891
542.815	6998
542.881	9877
542.947	33909
543.012	36368
543.078	6317
543.143	4651
543.209	5649
543.274	5304
543.340	6788
543.405	12191
543.471	25694
543.536	9500
543.602	5082
543.667	3299
543.732	5142
543.798	5105
543.863	5258
543.928	5098
543.994	3778
544.059	5419
544.124	5427
544.190	5232
544.255	5224
544.320	6083
544.386	4313
544.451	7446
544.516	9545
544.581	8480
544.646	19524
544.712	44117
544.777	12046
544.842	6762
544.907	6441
544.972	6136
545.037	5272
545.102	7055
545.168	6417
545.233	7253
545.298	7466
545.363	7918
545.428	9230
545.493	14365
545.558	30914
545.623	18968
545.688	6438
545.753	6244
545.818	6814
545.883	7106
545.947	6899
546.012	7789
546.077	6489
546.142	7976
546.207	7107
546.272	9754
546.337	10355
546.401	8712
546.466	8533
546.531	8268
546.596	9268
546.661	8615
546.725	9088
546.790	8313
546.855	10090
546.919	9229
546.984	11523
547.049	12398
547.113	14518
547.178	14114
547.243	17197
547.307	18326
547.372	20630
547.436	21405
547.501	19918
547.565	22139
547.630	22731
547.695	22107
547.759	21980
547.823	21483
547.888	20890
547.952	21177
548.017	22371
548.081	22996
548.146	24881
548.210	24403
548.274	23780
548.339	23291
548.403	21939
548.468	20500
548.532	19688
548.596	20491
548.660	19544
548.725	22510
548.789	24853
548.853	26148
548.917	22431
548.982	23955
549.046	23367
549.110	18801
549.174	17900
549.238	21180
549.303	23102
549.367	25567
549.431	23781
549.495	21798
549.559	21217
549.623	23900
549.687	27659
549.751	31378
549.815	32749
549.879	33000
549.943	29498
550.007	32948
550.071	32433
550.135	32614
550.199	27839
550.263	28868
550.327	26746
550.391	28120
550.455	28744
550.519	30450
550.582	31702
550.646	38207
550.710	42220
550.774	37061
550.838	36146
550.901	37538
550.965	39799
551.029	40971
551.093	43842
551.156	48303
551.220	56826
551.284	71809
551.347	53137
551.411	49807
551.475	54872
551.538	41000
551.602	37502
551.666	34911
551.729	32917
551.793	32333
551.856	31437
551.920	30950
551.983	30193
552.047	30815
552.110	30767
552.174	30411
552.237	31658
552.301	30498
552.364	28743
552.428	29289
552.491	28137
552.554	30788
552.618	30184
552.681	31487
552.745	31039
552.808	37243
552.871	48104
552.934	35987
552.998	30406
553.061	28753
553.124	28568
553.187	27473
553.251	29069
553.314	29083
553.377	28353
553.440	30480
553.503	31986
553.567	34314
553.630	31796
553.693	28597
553.756	32123
553.819	29807
553.882	29150
553.945	28699
554.008	28352
554.071	29060
554.134	29884
554.197	27959
554.260	27080
554.323	28284
554.386	28478
554.449	29401
554.512	30252
554.575	27727
554.638	27665
554.701	27253
554.764	28501
554.827	26091
554.889	25114
554.952	24337
555.015	23317
555.078	24387
555.141	24796
555.203	23571
555.266	23744
555.329	24640
555.391	23266
555.454	23010
555.517	23596
555.580	21519
555.642	19791
555.705	20382
555.768	21002
555.830	20979
555.893	19431
555.955	18685
556.018	17625
556.080	17933
556.143	19023
556.206	19192
556.268	19348
556.330	18050
556.393	18905
556.455	17217
556.518	19078
556.580	19344
556.643	17098
556.705	16050
556.767	14950
556.830	16410
556.892	15937
556.955	18789
557.017	18586
557.079	15638
557.142	15164
557.204	15216
557.266	21592
557.328	21087
557.391	13735
557.453	12908
557.515	13667
557.577	13819
557.639	15388
557.701	12885
557.764	12194
557.826	13103
557.888	14171
557.950	14585
558.012	16736
558.074	18596
558.136	34505
558.198	96524
558.260	46910
558.322	16637
558.384	16907
558.446	19483
558.508	23120
558.570	28126
558.632	36745
558.694	54921
558.756	62958
558.818	153716
558.880	469195
558.942	196728
559.003	102699
559.065	65814
559.127	23774
559.189	24415
559.251	26713
559.312	37231
559.374	74686
559.436	274307
559.498	191303
559.559	29690
559.621	23305
559.683	26904
559.744	39132
559.806	112117
559.868	226738
559.929	55639
559.991	24595
560.052	31563
560.114	88549
560.176	75909
560.237	47029
560.299	95782
560.360	29902
560.422	11225
560.483	9993
560.545	8696
560.606	9630
560.667	8743
560.729	7886
560.790	8538
560.852	8281
560.913	8610
560.974	8429
561.036	7673
561.097	7385
561.158	8102
561.220	8275
561.281	7453
561.342	7683
561.403	10063
561.465	10933
561.526	19526
561.587	31291
561.648	11797
561.709	8546
561.771	7122
561.832	8088
561.893	6960
561.954	7578
562.015	7294
562.076	7757
562.137	7558
562.198	7685
562.259	7786
562.320	6818
562.381	8118
562.442	10320
562.503	9865
562.564	6945
562.625	7836
562.686	7916
562.747	8272
562.808	7611
562.869	8271
562.930	7951
562.991	9060
563.051	8111
563.112	7717
563.173	6710
563.234	7144
563.294	7475
563.355	7138
563.416	7604
563.477	7500
563.537	6948
563.598	7729
563.659	7913
563.720	6757
563.780	8323
563.841	8137
563.901	8200
563.962	7088
564.023	7930
564.083	6807
564.144	7936
564.204	8227
564.265	7330
564.325	8029
564.386	11493
564.446	12222
564.507	7163
564.567	7855
564.628	7473
564.688	7186
564.749	6869
564.809	7631
564.869	8739
564.930	7339
564.990	7158
565.050	7201
565.111	7361
565.171	7344
565.231	7390
565.292	7915
565.352	6776
565.412	7825
565.472	6997
565.532	7643
565.593	7632
565.653	7587
565.713	7471
565.773	7838
565.833	8437
565.893	11682
565.953	8018
566.013	7509
566.074	7609
566.134	9748
566.194	12766
566.254	14144
566.314	10322
566.374	8490
566.434	8295
566.494	8142
566.554	7800
566.614	8732
566.673	9339
566.733	9783
566.793	10439
566.853	10549
566.913	11002
566.973	10572
567.033	10733
567.092	11240
567.152	10843
567.212	10679
567.272	10759
567.331	11690
567.391	11416
567.451	13030
567.511	14518
567.570	14353
567.630	12429
567.690	11182
567.749	11656
567.809	12334
567.868	14087
567.928	15587
567.988	17514
568.047	19493
568.107	24334
568.166	32286
568.226	51124
568.285	77273
568.345	64497
568.404	47444
568.464	39186
568.523	36336
568.582	38012
568.642	40447
568.701	52392
568.761	76013
568.820	126357
568.879	129137
568.939	86320
568.998	60410
569.057	44466
569.116	35643
569.176	28082
569.235	23907
569.294	20191
569.353	17434
569.413	16700
569.472	14532
569.531	14050
569.590	12629
569.649	11864
569.708	11248
569.767	11718
569.827	12631
569.886	12351
569.945	10067
570.004	10445
570.063	10071
570.122	11453
570.181	10249
570.240	9888
570.299	10387
570.358	11504
570.417	9653
570.475	8119
570.534	8597
570.593	9421
570.652	9566
570.711	9412
570.770	7749
570.829	9607
570.887	9553
570.946	9685
571.005	8498
571.064	8426
571.122	9201
571.181	9002
571.240	8713
571.299	8589
571.357	7392
571.416	7819
571.475	8344
571.533	9358
571.592	7964
571.650	7758
571.709	7961
571.768	7525
571.826	8921
571.885	7551
571.943	6995
572.002	7744
572.060	7572
572.119	6812
572.177	7237
572.236	7265
572.294	6871
572.352	7916
572.411	8090
572.469	6703
572.528	7285
572.586	7661
572.644	7604
572.703	10671
572.761	8147
572.819	7867
572.877	5883
572.936	6471
572.994	6627
573.052	6966
573.110	6777
573.169	7433
573.227	6462
573.285	7704
573.343	6469
573.401	6620
573.459	7119
573.517	6964
573.576	6307
573.634	7216
573.692	7037
573.750	7701
573.808	7213
573.866	7838
573.924	7843
573.982	8551
574.040	6830
574.098	6192
574.155	6166
574.213	6933
574.271	6736
574.329	7050
574.387	6010
574.445	5893
574.503	6320
574.560	6794
574.618	5710
574.676	5439
574.734	5581
574.792	6230
574.849	6717
574.907	5996
574.965	6259
575.022	5987
575.080	5187
575.138	5924
575.195	6590
575.253	5499
575.311	6332
575.368	6578
575.426	5943
575.483	7012
575.541	5114
575.598	5483
575.656	5517
575.713	5170
575.771	6842
575.828	6277
575.886	5633
575.943	7114
576.001	6339
576.058	5929
576.115	6336
576.173	8004
576.230	7941
576.287	8661
576.345	7233
576.402	6840
576.459	6719
576.517	6561
576.574	7334
576.631	7293
576.688	6700
576.746	6263
576.803	6226
576.860	6799
576.917	6597
576.974	6855
577.031	7303
577.089	6597
577.146	5613
577.203	6249
577.260	7152
577.317	6163
577.374	6380
577.431	7008
577.488	6870
577.545	5930
577.602	7005
577.659	6330
577.716	6392
577.773	6053
577.830	6680
577.886	5645
577.943	6161
578.000	6578
578.057	7079
578.114	6350
578.171	7030
578.227	6064
578.284	6174
578.341	6777
578.398	7424
578.454	7055
578.511	7515
578.568	8695
578.625	7879
578.681	7187
578.738	6255
578.794	6887
578.851	6265
578.908	8161
578.964	7454
579.021	7779
579.077	6878
579.134	6862
579.190	7116
579.247	6647
579.303	6872
579.360	5988
579.416	6358
579.473	6848
579.529	6476
579.586	6496
579.642	7090
579.698	7164
579.755	6726
579.811	6884
579.867	7302
579.924	7307
579.980	6518
580.036	6663
580.093	7398
580.149	7579
580.205	7193
580.261	7157
580.317	7733
580.374	8019
580.430	8071
580.486	8398
580.542	7416
580.598	7385
580.619	7597
580.654	7967
580.692	7788
580.710	7702
580.765	7359
580.767	7348
580.823	8409
580.838	8300
580.879	7995
580.911	8217
580.935	8387
580.984	7889
580.991	7826
581.047	7727
581.057	7726
581.103	7663
581.130	8068
581.159	8509
581.203	8000
581.215	7871
581.270	8729
581.276	8614
581.326	7491
581.349	7993
581.382	8725
581.422	9031
581.438	9169
581.494	8562
581.494	8565
581.550	8785
581.567	8749
581.606	8627
581.640	8371
581.661	8228
581.713	9677
581.717	9789
581.773	8706
581.786	8635
581.829	8409
581.859	8896
581.885	9297
581.932	9369
581.940	9387
581.996	9308
582.004	9295
582.052	9063
582.077	8985
582.107	8966
582.150	9137
582.163	9178
582.219	10533
582.223	10477
582.274	9831
582.296	9746
582.330	9590
582.368	10050
582.386	10241
582.441	9954
582.441	9951
582.497	9567
582.514	9557
582.552	9757
582.587	9835
582.608	9729
582.659	9758
582.663	9779
582.719	11195
582.732	11087
582.774	10634
582.805	10609
582.830	10573
582.877	10883
582.885	10937
582.941	11298
582.950	11243
582.996	11083
583.023	11714
583.052	12322
583.095	11714
583.107	11555
583.162	11838
583.168	11781
583.218	11250
583.240	11320
583.273	11430
583.313	12067
583.328	12306
583.384	12081
583.385	12061
583.439	11337
583.458	11523
583.494	11945
583.531	11813
583.549	11774
583.603	11446
583.605	11437
583.660	13095
583.676	12815
583.715	12131
583.748	12475
583.770	12674
583.820	13059
583.825	13108
583.881	13610
583.893	13487
583.936	13029
583.965	13026
583.991	12965
584.038	13555
584.046	13688
584.101	13904
584.110	13834
584.156	13632
584.183	14303
584.211	14902
584.255	14384
584.266	14279
584.321	13998
584.328	14058
584.376	14796
584.400	14944
584.431	14974
584.472	15358
584.486	15532
584.541	15464
584.545	15463
584.596	15676
584.617	16040
584.651	16820
584.689	17304
584.706	17460
584.761	17718
584.762	17705
584.816	17738
584.834	17906
584.871	18136
584.906	18548
584.926	18822
584.978	19073
584.980	19110
585.035	20077
585.051	20515
585.090	21867
585.123	22506
585.145	22857
585.195	23557
585.200	23667
585.254	25326
585.267	25754
585.309	27463
585.340	28611
585.364	29954
585.412	32949
585.419	33338
585.473	37140
585.484	37942
585.528	44334
585.556	49936
585.583	62992
585.628	90993
585.637	104232
585.692	201006
585.700	220247
585.747	302467
585.772	294520
585.801	207943
585.845	84140
585.856	70728
585.910	42434
585.917	39357
585.965	34365
585.989	32755
586.019	32299
586.061	31749
586.074	31678
586.128	30930
586.133	30924
586.183	32614
586.205	32823
586.237	32587
586.277	32784
586.292	32973
586.346	32589
586.349	32581
586.401	33999
586.421	34265
586.455	34949
586.493	36079
586.509	37627
586.564	42877
586.565	42978
586.618	53877
586.637	56442
586.672	52459
586.709	46550
586.727	45529
586.781	44683
586.781	44752
586.835	43168
586.853	42949
586.889	43572
586.925	43295
586.944	43377
586.996	44768
586.998	44910
587.052	46583
587.068	47208
587.106	48684
587.140	49622
587.161	50427
587.212	52091
587.215	52285
587.269	54630
587.284	55286
587.323	57270
587.356	58272
587.377	59211
587.427	61833
587.431	62208
587.485	65679
587.499	66603
587.539	69570
587.571	71452
587.593	73382
587.643	77897
587.648	78497
587.702	83286
587.715	84321
587.755	88587
587.786	92020
587.810	95247
587.858	101434
587.864	102565
587.917	112316
587.930	114237
587.971	122443
588.001	128604
588.025	134841
588.073	146583
588.079	148600
588.133	165684
588.145	169290
588.187	187366
588.217	199839
588.241	212151
588.288	236246
588.295	240918
588.348	277960
588.360	285747
588.402	322744
588.431	348600
588.456	377188
588.503	432664
588.510	444015
588.564	532630
588.575	551140
588.617	657322
588.646	731178
588.671	829607
588.718	1021338
588.725	1068580
588.778	1434124
588.789	1507988
588.832	1864432
588.861	2102614
588.886	2153227
588.932	2189678
588.939	2166409
588.993	1858102
589.004	1816063
589.047	2132069
589.075	2302562
589.100	2149359
589.147	1788900
589.154	1740730
589.207	1347772
589.218	1268200
589.261	1149990
589.290	1073981
589.314	1096788
589.361	1147390
589.368	1183190
589.421	1474242
589.433	1535856
589.475	1869878
589.504	2097060
589.528	2101637
589.576	2024672
589.582	2030848
589.635	2064950
589.647	2058263
589.689	1742563
589.718	1490390
589.742	1277289
589.790	859390
589.795	837359
589.849	623908
589.861	574738
589.902	491888
589.932	430064
589.955	396698
590.004	325349
590.009	321871
590.062	276876
590.075	265374
590.115	242381
590.146	224011
590.168	215068
590.218	193526
590.222	192813
590.275	177623
590.289	173203
590.328	163088
590.360	154140
590.381	150628
590.431	141056
590.435	140869
590.488	131148
590.503	128144
590.541	124348
590.574	120711
590.594	118662
590.645	111855
590.647	111962
590.700	106470
590.716	104507
590.753	102018
590.787	99383
590.806	98643
590.859	95318
590.859	95542
590.912	91962
590.930	90522
590.965	88792
591.001	86592
591.018	86163
591.071	84045
591.072	83768
591.124	82024
591.143	81105
591.177	80372
591.214	79178
591.230	79366
591.283	79044
591.285	78782
591.336	78268
591.356	77774
591.389	76529
591.427	74464
591.442	73958
591.495	71230
591.498	70797
591.547	70077
591.569	69543
591.600	69662
591.640	69154
591.653	69039
591.706	67677
591.711	67316
591.759	67652
591.782	67493
591.811	68965
591.853	70574
591.864	70140
591.917	66675
591.924	65959
591.969	65151
591.995	64355
592.022	65022
592.066	65532
592.075	65784
592.127	66016
592.137	65840
592.180	69110
592.208	70849
592.233	68702
592.279	63871
592.285	63845
592.338	61906
592.350	61254
592.390	60496
592.421	59577
592.443	59979
592.491	60258
592.495	60448
592.548	60326
592.562	60092
592.600	60401
592.633	60301
592.653	60029
592.704	58460
592.705	58832
592.775	60600
592.846	58516
592.916	60237
592.987	61417
593.058	60597
593.128	57594
593.199	56616
593.270	56685
593.341	55660
593.411	57375
593.482	57354
593.553	57160
593.623	56927
593.694	56665
593.764	59429
593.835	56184
593.906	56333
593.976	56100
594.047	57208
594.117	61347
594.188	62153
594.258	56342
594.329	56325
594.399	56878
594.470	56774
594.540	57237
594.611	57480
594.681	57515
594.751	57512
594.822	59632
594.892	60261
594.963	61481
595.033	61910
595.103	61758
595.174	64727
595.244	73221
595.314	84234
595.384	65039
595.455	64139
595.525	65949
595.595	66845
595.665	67938
595.736	66238
595.806	65614
595.876	66493
595.946	65171
596.016	66405
596.087	67642
596.157	69215
596.227	68067
596.297	71754
596.367	75058
596.437	79947
596.507	85055
596.577	92473
596.647	81235
596.717	79227
596.787	81603
596.857	80959
596.927	82060
596.997	81405
597.067	82605
597.137	84027
597.207	83327
597.277	85616
597.347	81617
597.417	80792
597.487	80863
597.557	83404
597.626	83443
597.696	84699
597.766	87846
597.836	93353
597.906	80319
597.975	75099
598.045	75663
598.115	77008
598.185	80618
598.254	89095
598.324	95832
598.394	98229
598.464	96831
598.533	92853
598.603	87558
598.672	86828
598.742	87190
598.812	87076
598.881	87944
598.951	87506
599.020	87441
599.090	89124
599.159	91615
599.229	88905
599.299	85252
599.368	90247
599.437	88156
599.507	83726
599.576	80970
599.646	80712
599.715	78329
599.785	79855
599.854	78482
599.924	79142
599.993	77172
600.062	76648
600.132	77937
600.201	82610
600.270	92665
600.340	98153
600.409	94334
600.478	93895
600.547	95597
600.617	91825
600.686	77693
600.755	71495
600.824	68288
600.894	66947
600.963	66453
601.032	64721
601.101	64625
601.170	62341
601.239	62693
601.308	64482
601.378	64796
601.447	62654
601.516	61831
601.585	65985
601.654	68385
601.723	66157
601.792	65803
601.861	67359
601.930	70698
601.999	74215
602.068	70692
602.137	75526
602.206	75996
602.275	73375
602.343	77403
602.412	78121
602.481	72594
602.550	72042
602.619	72910
602.688	74527
602.756	74896
602.825	74874
602.894	75257
602.963	77468
603.032	78059
603.100	78582
603.169	77821
603.238	79351
603.307	78650
603.375	77555
603.444	79639
603.513	79859
603.581	81815
603.650	83451
603.719	80173
603.787	80792
603.856	83141
603.924	85508
603.993	86885
604.061	90302
604.130	92523
604.198	93736
604.267	96372
604.335	96219
604.404	98204
604.472	99417
604.541	99527
604.609	102096
604.678	100675
604.746	102267
604.815	104836
604.883	106675
604.951	104236
605.020	106098
605.088	106568
605.156	108529
605.225	111154
605.293	109500
605.361	110322
605.429	110776
605.498	114727
605.566	117202
605.634	121965
605.702	124064
605.771	130116
605.839	129171
605.907	126632
605.975	121286
606.043	118842
606.111	119889
606.180	118218
606.248	118819
606.316	117342
606.384	120145
606.452	121395
606.520	126461
606.588	124217
606.656	120970
606.724	119574
606.792	112429
606.860	103477
606.928	94007
606.996	89817
607.064	88397
607.132	90033
607.200	94600
607.267	99774
607.335	99173
607.403	103346
607.471	100763
607.539	94515
607.607	97450
607.674	86484
607.742	87280
607.810	87579
607.878	89412
607.946	87686
608.013	92166
608.081	94760
608.149	95176
608.216	97273
608.284	99817
608.352	100361
608.419	101046
608.487	103822
608.555	99353
608.622	97292
608.690	102476
608.757	113569
608.825	116005
608.893	114136
608.960	112962
609.028	113438
609.095	112971
609.163	104655
609.230	95306
609.298	85887
609.365	89951
609.432	95376
609.500	104564
609.567	117978
609.635	134719
609.702	140763
609.769	139124
609.837	114669
609.904	97790
609.971	103261
610.039	120437
610.106	160334
610.173	317425
610.241	762682
610.308	741044
610.375	385124
610.442	153464
610.509	111179
610.577	103108
610.644	101307
610.711	102071
610.778	103754
610.845	106857
610.912	112656
610.980	116302
611.047	116113
611.114	114292
611.181	112649
611.248	109785
611.315	115292
611.382	118494
611.449	120949
611.516	123819
611.583	122118
611.650	125131
611.717	126449
611.784	130189
611.851	135449
611.918	148813
611.984	173545
612.051	250887
612.118	519181
612.185	1318737
612.252	1044504
612.319	243765
612.386	170981
612.452	154025
612.519	144778
612.586	148535
612.653	143703
612.719	144887
612.786	138840
612.853	129210
612.919	125180
612.986	127766
613.053	120926
613.120	113953
613.186	108638
613.253	111350
613.319	109900
613.386	112111
613.453	114384
613.519	118875
613.586	122170
613.652	139403
613.719	126925
613.785	124471
613.852	114132
613.918	112858
613.985	112609
614.051	119171
614.118	120158
614.184	116082
614.250	112431
614.317	115252
614.383	110427
614.449	115099
614.516	113974
614.582	115914
614.648	114692
614.715	111885
614.781	109859
614.847	111648
614.914	112002
614.980	109194
615.046	107435
615.112	113036
615.179	112632
615.245	116826
615.311	127737
615.377	154096
615.443	170772
615.509	133758
615.575	125746
615.642	124282
615.708	125934
615.774	133453
615.840	145627
615.906	167837
615.972	222030
616.038	381854
616.104	728197
616.170	1579556
616.236	1645097
616.302	387547
616.368	237339
616.434	174640
616.500	152035
616.565	162881
616.631	202236
616.697	175412
616.763	168495
616.829	239951
616.895	438722
616.961	468306
617.026	215630
617.092	136833
617.158	123722
617.224	118492
617.289	112375
617.355	106288
617.421	104455
617.487	103752
617.552	99220
617.618	96543
617.684	96663
617.749	98221
617.815	94047
617.880	91342
617.946	91200
618.012	94389
618.077	96648
618.143	91978
618.208	92694
618.274	98086
618.339	101856
618.405	86786
618.470	84329
618.536	86388
618.601	86994
618.667	81511
618.732	77000
618.798	75833
618.863	75205
618.928	74418
618.994	76678
619.059	80743
619.124	93229
619.190	82800
619.255	74204
619.320	75080
619.386	74439
619.451	73245
619.516	72232
619.581	71541
619.647	74947
619.712	73939
619.777	72084
619.842	72105
619.907	75311
619.972	75091
620.038	74740
620.103	72035
620.168	71706
620.233	73768
620.298	71308
620.363	72653
620.428	73543
620.493	77615
620.558	75965
620.623	78033
620.688	77117
620.753	76560
620.818	77587
620.883	78724
620.948	78338
621.013	77979
621.078	77064
621.143	78780
621.207	81709
621.272	78367
621.337	78640
621.402	78940
621.467	82595
621.532	85341
621.596	80545
621.661	76645
621.726	73863
621.791	75028
621.855	76569
621.920	79384
621.985	77226
622.049	82081
622.114	80466
622.179	79332
622.243	81642
622.308	82918
622.373	84416
622.437	85451
622.502	80378
622.566	78515
622.631	80150
622.695	81272
622.760	80470
622.824	80424
622.889	81170
622.953	83894
623.018	100573
623.082	106363
623.147	86218
623.211	82894
623.276	83650
623.340	78602
623.404	76580
623.469	76771
623.533	76242
623.597	75387
623.662	75613
623.726	71167
623.790	66988
623.854	66670
623.919	69046
623.983	67448
624.047	69493
624.111	68915
624.176	71481
624.240	73843
624.304	79018
624.368	71547
624.432	71577
624.496	70694
624.560	76650
624.625	81688
624.689	74945
624.753	76619
624.817	74430
624.881	72910
624.945	66220
625.009	63758
625.073	66116
625.137	72336
625.201	79589
625.265	81404
625.329	68429
625.393	70867
625.456	69817
625.520	71378
625.584	74585
625.648	80761
625.712	93271
625.776	139655
625.839	155562
625.903	90395
625.967	63035
626.031	78188
626.095	109343
626.158	74898
626.222	55446
626.286	52098
626.349	50123
626.413	47437
626.477	49956
626.540	48777
626.604	47619
626.668	48089
626.731	45865
626.795	48143
626.858	47999
626.922	45464
626.986	46392
627.049	44273
627.113	47831
627.176	46417
627.240	44703
627.303	44435
627.366	45302
627.430	46979
627.493	45778
627.557	45214
627.620	45070
627.684	46048
627.747	45925
627.810	43818
627.874	41806
627.937	38695
628.000	41652
628.064	42028
628.127	36866
628.190	37157
628.253	37302
628.317	36022
628.380	34649
628.443	34387
628.506	36011
628.569	32960
628.632	30854
628.696	31581
628.759	30917
628.822	29881
628.885	30225
628.948	29961
629.011	29951
629.074	29793
629.137	28875
629.200	28627
629.263	31302
629.326	28671
629.389	28490
629.452	27737
629.515	29001
629.578	28338
629.641	29860
629.704	28715
629.767	28880
629.830	28534
629.892	26257
629.955	26224
630.018	28625
630.081	30199
630.144	34925
630.207	29114
630.269	29632
630.332	28237
630.395	27640
630.458	26377
630.520	25316
630.583	25733
630.646	24879
630.708	24719
630.771	24507
630.834	25742
630.896	25668
630.959	26039
631.021	24393
631.084	26177
631.146	26892
631.209	28543
631.272	25548
631.334	26003
631.397	25975
631.459	26039
631.522	27321
631.584	27662
631.646	28767
631.709	30959
631.771	34780
631.834	31738
631.896	28077
631.958	25592
632.021	25422
632.083	24660
632.145	25654
632.208	25522
632.270	25433
632.332	24051
632.395	22847
632.457	25666
632.519	23593
632.581	23985
632.643	22923
632.706	23412
632.768	22716
632.830	23570
632.892	22634
632.954	22958
633.016	24652
633.078	22795
633.141	22788
633.203	22964
633.265	22776
633.327	22727
633.389	23200
633.451	25324
633.513	28710
633.575	28123
633.637	27477
633.698	26736
633.760	25467
633.822	24778
633.884	25074
633.946	25025
634.008	25707
634.070	26138
634.132	26869
634.193	28708
634.255	31826
634.317	31199
634.379	31934
634.441	28806
634.502	26670
634.564	24567
634.626	23239
634.687	22860
634.749	22592
634.811	21787
634.873	21929
634.934	22558
634.996	22581
635.057	21789
635.119	21792
635.181	23076
635.242	22688
635.304	21363
635.365	23993
635.427	22457
635.488	22562
635.550	21592
635.611	22100
635.673	21995
635.734	24172
635.796	24489
635.857	27559
635.918	27288
635.980	29377
636.041	31073
636.102	32481
636.164	33317
636.225	32681
636.286	28543
636.348	26644
636.409	23847
636.470	22484
636.531	23160
636.593	22741
636.654	22558
636.715	20415
636.776	19670
636.838	19209
636.899	20684
636.960	18749
637.021	18902
637.082	18050
637.143	18714
637.204	18104
637.265	18231
637.326	18280
637.387	18059
637.448	17201
637.509	18981
637.570	17654
637.631	18107
637.692	16499
637.753	17123
637.814	18137
637.875	17291
637.936	17820
637.997	17407
638.058	18451
638.119	18220
638.179	16807
638.240	16716
638.301	17349
638.362	16602
638.423	16350
638.483	17374
638.544	15964
638.605	17174
638.666	15130
638.726	17922
638.787	16544
638.848	15464
638.908	15503
638.969	15547
639.030	15718
639.090	14976
639.151	16530
639.211	18327
639.272	19685
639.332	30583
639.393	20952
639.453	16673
639.514	17314
639.574	15826
639.635	14465
639.695	15578
639.756	14546
639.816	16740
639.877	17456
639.937	24969
639.997	34894
640.058	17817
640.118	14418
640.178	15633
640.239	13867
640.299	14356
640.359	13758
640.420	15936
640.480	16147
640.540	18324
640.600	18605
640.661	18304
640.721	16235
640.781	21233
640.841	18161
640.901	15839
640.961	16174
641.021	16587
641.082	17754
641.142	22860
641.202	17784
641.262	12770
641.322	13528
641.382	13416
641.442	14171
641.502	13516
641.562	14406
641.622	13729
641.682	14765
641.742	16318
641.802	16099
641.861	15219
641.921	15471
641.981	15394
642.041	14677
642.101	18333
642.161	14687
642.221	11863
642.280	13487
642.340	12267
642.400	12083
642.460	13979
642.519	12897
642.579	12717
642.639	13202
642.698	11953
642.758	15733
642.818	14117
642.877	12900
642.937	14745
642.997	16963
643.056	22439
643.116	15824
643.175	15291
643.235	14329
643.294	14676
643.354	15002
643.414	16735
643.473	18895
643.532	22699
643.592	31840
643.651	49357
643.711	88904
643.770	174915
643.830	413570
643.889	1023715
643.948	319057
644.008	46931
644.067	27498
644.126	22176
644.186	19163
644.245	16635
644.304	13892
644.363	16300
644.423	13063
644.482	13961
644.541	13212
644.600	13239
644.659	18253
644.719	21535
644.778	31741
644.837	50710
644.896	101549
644.955	261417
645.014	112177
645.073	23060
645.132	17525
645.191	16166
645.250	14252
645.309	16300
645.368	14929
645.427	20028
645.486	28088
645.545	54482
645.604	22022
645.663	14416
645.722	13688
645.781	15844
645.840	16016
645.898	20609
645.957	30214
646.016	45112
646.075	84272
646.134	167694
646.192	423904
646.251	786683
646.310	144335
646.369	33002
646.427	25246
646.486	18412
646.545	16290
646.603	14594
646.662	13953
646.721	13205
646.779	12368
646.838	12248
646.896	16528
646.955	21227
647.014	30548
647.072	55655
647.131	157364
647.189	101806
647.248	16234
647.306	12669
647.365	11599
647.423	10343
647.481	11000
647.540	9410
647.598	11081
647.657	9681
647.715	10369
647.773	9590
647.832	10706
647.890	9301
647.948	9919
648.007	9804
648.065	8694
648.123	8572
648.181	10993
648.240	10044
648.298	8646
648.356	9282
648.414	9187
648.472	9801
648.531	9585
648.589	9166
648.647	9419
648.705	8930
648.763	8461
648.821	8652
648.879	9176
648.937	11440
648.995	12715
649.053	15686
649.111	22825
649.169	38315
649.227	69191
649.285	136105
649.343	424771
649.401	269402
649.459	50795
649.516	32255
649.574	14292
649.632	15036
649.690	15589
649.748	17952
649.806	22941
649.863	40022
649.921	106708
649.979	93648
650.037	15783
650.094	8744
650.152	9968
650.210	8610
650.268	9277
650.325	8869
650.383	9061
650.440	6685
650.498	8271
650.556	7791
650.613	7274
650.671	8202
650.728	8316
650.786	8499
650.843	9758
650.901	8642
650.958	7150
651.016	7433
651.073	6329
651.131	6132
651.188	5298
651.246	7374
651.303	6611
651.360	7163
651.418	7230
651.475	7666
651.532	5369
651.590	6942
651.647	5649
651.704	7411
651.762	6534
651.819	7273
651.876	6017
651.933	6028
651.990	7009
652.048	6066
652.105	6396
652.162	6837
652.219	5601
652.276	6428
652.333	7113
652.390	5173
652.448	6443
652.505	6370
652.562	6075
652.619	5872
652.676	7158
652.733	7404
652.790	5904
652.847	5093
652.904	6821
652.961	5757
653.017	4934
653.074	6469
653.131	6688
653.188	5219
653.245	5226
653.302	5748
653.359	4612
653.415	6027
653.472	5757
653.529	5863
653.586	4982
653.642	5809
653.699	5929
653.756	4906
653.813	4478
653.869	6304
653.926	5306
653.983	4964
654.039	5622
654.096	5768
654.152	6757
654.209	4712
654.266	6021
654.322	5481
654.379	6943
654.435	5802
654.492	7517
654.548	8745
654.605	13775
654.661	8778
654.717	5747
654.774	5764
654.830	5580
654.887	5437
654.943	6258
655.000	7489
655.056	6057
655.112	5536
655.168	5590
655.225	6201
655.281	6954
655.337	6913
655.394	10375
655.450	9403
655.506	7871
655.562	10915
655.618	10521
655.675	5374
655.731	5956
655.787	5073
655.843	6501
655.899	4328
655.955	6358
656.011	4434
656.067	3967
656.123	5275
656.179	5056
656.235	5881
656.291	3920
656.347	7393
656.403	5539
656.459	5781
656.515	6084
656.571	6130
656.627	6056
656.683	5870
656.739	5696
656.795	5823
656.850	5766
656.906	7576
656.962	6455
657.018	5295
657.074	5725
657.129	7073
657.185	9221
657.241	15692
657.297	12511
657.352	5516
657.408	4774
657.464	6733
657.519	5793
657.575	4582
657.630	4776
657.686	5070
657.742	4793
657.797	4862
657.853	5143
657.908	6693
657.964	4394
658.019	5292
658.075	5212
658.130	5645
658.186	4684
658.241	5156
658.297	4427
658.352	4981
658.407	5012
658.463	4732
658.518	5128
658.573	4902
658.629	3900
658.684	3841
658.739	4747
658.795	3997
658.850	5403
658.905	5152
658.960	4759
659.016	5169
659.071	4473
659.126	5801
659.181	5542
659.236	9304
659.291	11595
659.346	6592
659.401	6794
659.457	4975
659.512	5074
659.567	5956
659.622	4586
659.677	5478
659.732	4323
659.787	5577
659.842	5220
659.897	6328
659.952	4653
660.007	4430
660.061	4900
660.116	3798
660.171	3698
660.226	4645
660.281	5765
660.336	4611
660.391	4399
660.445	4320
660.500	3902
660.555	4813
660.610	3908
660.664	5407
660.719	4964
660.774	4913
660.828	4799
660.883	4579
660.938	4981
660.992	4224
661.047	5512
661.101	3830
661.156	3908
661.211	5321
661.265	4854
661.320	5218
661.374	3982
661.429	4138
661.483	5037
661.538	4494
661.592	4618
661.647	4434
661.701	5217
661.755	5121
661.810	4868
661.864	4788
661.919	3935
661.973	4754
662.027	4196
662.081	4114
662.136	4072
662.190	5254
662.244	4737
662.299	4396
662.353	5626
662.407	3836
662.461	4766
662.515	4493
662.569	4637
662.624	5391
662.678	4511
662.732	4521
662.786	4078
662.840	5218
662.894	5155
662.948	4384
663.002	5334
663.056	4336
663.110	3474
663.164	4217
663.218	4352
663.272	5208
663.326	5026
663.380	5655
663.434	4837
663.488	4319
663.542	4708
663.595	5316
663.649	4740
663.703	5160
663.757	4277
663.811	3724
663.864	3784
663.918	5063
663.972	3935
664.026	4898
664.079	3812
664.133	5069
664.187	4524
664.240	3224
664.294	3950
664.348	4614
664.401	4372
664.455	4129
664.508	3189
664.562	4628
664.615	5005
664.669	4346
664.722	4081
664.776	4314
664.829	4833
664.883	4021
664.936	4173
664.990	5321
665.043	4160
665.097	5321
665.150	6483
665.203	4655
665.257	4265
665.310	5083
665.363	4768
665.417	5237
665.470	5235
665.523	4853
665.576	5278
665.630	4126
665.683	4601
665.736	4887
665.789	5006
665.842	4512
665.895	4415
665.949	4838
666.002	4157
666.055	5093
666.108	5541
666.161	4957
666.214	4549
666.267	6275
666.320	5500
666.373	5906
666.426	5212
666.479	4773
666.532	4929
666.585	5111
666.638	5978
666.691	5496
666.744	5667
666.796	5882
666.849	5548
666.902	5086
666.955	4306
667.008	4860
667.060	4386
667.113	3981
667.166	4733
667.219	5207
667.271	4183
667.324	4727
667.377	4438
667.430	4739
667.482	4275
667.535	4582
667.587	5211
667.640	5410
667.693	6207
667.745	9076
667.798	11699
667.850	5714
667.903	5336
667.955	4901
668.008	4992
668.060	5926
668.113	5214
668.165	6499
668.218	5318
668.270	5378
668.322	4959
668.375	4900
668.427	5350
668.479	4739
668.532	4933
668.584	4239
668.636	4746
668.689	5647
668.741	4750
668.793	5022
668.845	4999
668.898	5580
668.950	4655
669.002	5394
669.054	4324
669.106	4359
669.158	5134
669.211	5059
669.263	5179
669.315	5612
669.367	5548
669.419	5421
669.471	5942
669.523	7305
669.575	8144
669.627	6997
669.679	6023
669.731	6162
669.783	6577
669.835	6791
669.886	6749
669.938	6461
669.990	6560
670.042	6787
670.094	7409
670.146	9406
670.197	9970
670.249	12453
670.301	14492
670.353	20768
670.404	28394
670.456	42441
670.508	64315
670.560	106527
670.611	179612
670.663	309984
670.715	640943
670.766	969096
670.818	490534
670.869	112439
670.921	50174
670.972	32101
671.024	23527
671.075	18841
671.127	14417
671.178	12521
671.230	10508
671.281	11011
671.333	9073
671.384	9047
671.436	9300
671.487	11009
671.538	11705
671.590	15504
671.641	22801
671.692	35930
671.744	68955
671.795	54498
671.846	21592
671.897	11353
671.949	8490
672.000	7999
672.051	6164
672.102	6828
672.153	5724
672.204	5758
672.256	5516
672.307	5751
672.358	4705
672.409	5347
672.460	4892
672.511	5356
672.562	4607
672.613	5065
672.664	4690
672.715	5143
672.766	4382
672.817	4276
672.868	4393
672.919	4092
672.970	3592
673.021	4655
673.071	4006
673.122	4596
673.173	4049
673.224	4457
673.275	3535
673.326	3859
673.376	4398
673.427	3918
673.478	4139
673.528	4380
673.579	3463
673.630	3772
673.680	4834
673.731	4034
673.782	3452
673.832	4193
673.883	4205
673.934	3265
673.984	3196
674.035	4721
674.085	3910
674.136	4407
674.186	4206
674.237	5087
674.287	6330
674.338	5644
674.388	3777
674.438	3807
674.489	3751
674.539	4814
674.589	4044
674.640	3951
674.690	3595
674.740	4132
674.791	3772
674.841	3978
674.891	4104
674.942	4596
674.992	3309
675.042	3708
675.092	2333
675.142	3819
675.193	3669
675.243	3612
675.293	3867
675.343	3990
675.393	3783
675.443	3929
675.493	2698
675.543	3364
675.593	4237
675.643	3584
675.693	3531
675.743	3901
675.793	3097
675.843	2821
675.893	3003
675.943	3260
675.993	3436
676.043	3931
676.093	2961
676.142	3255
676.192	3569
676.242	3401
676.292	2869
676.341	3846
676.391	3050
676.441	2900
676.491	3129
676.540	2953
676.590	2710
676.640	3468
676.689	2318
676.739	2023
676.789	2681
676.838	2889
676.888	2805
676.937	2065
676.987	3124
677.037	3026
677.086	1885
677.136	2889
677.185	2559
677.235	2928
677.284	2310
677.333	2497
677.383	2888
677.432	1946
677.482	2417
677.531	2620
677.580	2243
677.630	2684
677.679	2386
677.728	2652
677.778	2963
677.827	3292
677.876	2011
677.925	2566
677.975	2866
678.024	2439
678.073	2179
678.122	2684
678.171	3318
678.220	3380
678.269	3765
678.319	3960
678.368	3803
678.417	2773
678.466	3716
678.515	3267
678.564	2728
678.613	2995
678.662	2691
678.711	3140
678.760	2424
678.809	3042
678.857	2691
678.906	2985
678.955	2837
679.004	3432
679.053	2162
679.102	2503
679.151	3127
679.199	2843
679.248	3185
679.297	3546
679.346	3375
679.394	3421
679.443	2039
679.492	3565
679.540	2914
679.589	3007
679.638	2669
679.686	2864
679.735	2306
679.784	2369
679.832	3379
679.881	2464
679.929	2725
679.978	2450
680.026	2151
680.075	2264
680.123	1311
680.172	2761
680.220	1803
680.268	2268
680.317	2422
680.365	2834
680.414	1898
680.462	1661
680.510	2655
680.559	1063
680.607	2263
680.655	2245
680.703	2346
680.752	1961
680.800	1739
680.848	1875
680.896	2043
680.945	2907
680.993	2408
681.041	1724
681.089	2365
681.137	2176
681.185	2213
681.233	2585
681.258	2355
681.281	2093
681.329	2331
681.377	2449
681.380	2508
681.425	2748
681.473	2804
681.502	2943
681.521	2965
681.569	2550
681.617	2944
681.624	2957
681.665	2690
681.713	2904
681.745	2845
681.761	2755
681.809	3187
681.857	3010
681.867	3189
681.904	3638
681.952	3277
681.989	3516
682.000	3534
682.048	3529
682.096	3484
682.111	3492
682.143	3346
682.191	4541
682.233	4167
682.239	4071
682.286	3316
682.334	3612
682.354	3630
682.382	3569
682.430	4056
682.476	4329
682.477	4294
682.525	4159
682.572	4052
682.598	4023
682.620	3939
682.667	4719
682.715	5610
682.720	5566
682.763	4796
682.810	4541
682.841	4978
682.857	5151
682.905	4726
682.952	4883
682.963	5044
683.000	5401
683.047	5105
683.085	5440
683.095	5480
683.142	5276
683.190	5712
683.206	5707
683.237	5658
683.284	5742
683.328	6064
683.332	6056
683.379	6158
683.426	5430
683.449	5845
683.473	6207
683.521	6098
683.568	6161
683.571	6225
683.615	6678
683.662	6301
683.693	6539
683.709	6596
683.757	5957
683.804	6798
683.814	6708
683.851	6315
683.898	6803
683.936	6671
683.945	6609
683.992	6925
684.039	7139
684.057	7398
684.086	7775
684.133	7593
684.179	7600
684.180	7570
684.227	7321
684.274	7522
684.300	7525
684.321	7431
684.368	7858
684.415	7826
684.422	7738
684.462	7165
684.509	7901
684.543	7996
684.556	7984
684.603	7484
684.649	7575
684.665	7426
684.696	7165
684.743	8354
684.786	8909
684.790	8929
684.837	8453
684.883	9320
684.908	9269
684.930	9204
684.977	9505
685.023	9712
685.029	9691
685.070	9162
685.117	9041
685.150	9451
685.164	9669
685.210	9830
685.257	10376
685.272	10470
685.303	10458
685.350	9946
685.393	10079
685.396	10074
685.443	10507
685.490	10962
685.514	10662
685.536	10408
685.583	10597
685.629	10285
685.636	10319
685.675	10327
685.722	10275
685.757	10703
685.768	10837
685.815	10773
685.861	10830
685.878	11057
685.908	11401
685.954	11060
686.000	11268
686.000	11263
686.047	11672
686.093	11558
686.121	12082
686.139	12322
686.185	11938
686.232	11490
686.242	11428
686.278	11182
686.324	12095
686.363	11079
686.370	10899
686.416	11241
686.463	11727
686.484	11948
686.509	12202
686.555	11839
686.601	11791
686.606	11838
686.647	12103
686.693	11955
686.727	11716
686.739	11653
686.785	11919
686.831	11588
686.848	11896
686.877	12290
686.923	11420
686.969	11753
686.969	11756
687.015	11805
687.061	12186
687.090	12441
687.107	12453
687.153	12585
687.199	12880
687.211	12755
687.245	12318
687.291	12650
687.332	12699
687.336	12744
687.382	13335
687.428	12846
687.453	12954
687.474	12820
687.520	13160
687.565	12931
687.574	12985
687.611	13394
687.657	12762
687.695	13139
687.702	13275
687.748	13643
687.794	14472
687.816	14507
687.839	14206
687.885	13773
687.931	13465
687.937	13461
687.976	13689
688.022	13835
688.058	14221
688.067	14343
688.113	14424
688.158	14077
688.179	14157
688.204	14127
688.249	14026
688.295	14154
688.300	14115
688.340	14288
688.386	14556
688.421	14825
688.431	14810
688.477	14209
688.522	14657
688.542	14465
688.567	14420
688.613	14858
688.658	14814
688.663	14847
688.703	14867
688.749	14944
688.784	14328
688.794	14290
688.839	14506
688.884	15109
688.905	15034
688.930	14798
688.975	15030
689.020	14973
689.026	15050
689.065	15787
689.110	15535
689.146	15326
689.155	15255
689.201	15570
689.246	15304
689.267	15181
689.291	15162
689.336	15401
689.381	15224
689.388	15301
689.426	15862
689.471	15712
689.509	15863
689.516	15877
689.561	15445
689.606	15868
689.630	15539
689.651	15329
689.696	15649
689.741	15482
689.750	15525
689.785	15803
689.830	15695
689.871	16001
689.875	16046
689.920	15667
689.965	15531
689.992	15424
690.010	15417
690.054	15430
690.099	15804
690.112	15793
690.144	15779
690.189	15726
690.233	15730
690.233	15752
690.278	15771
690.323	16157
690.354	15694
690.367	15623
690.412	16075
690.457	15882
690.474	16062
690.501	16150
690.546	15844
690.590	16119
690.595	16033
690.635	15794
690.680	16193
690.716	15890
690.724	15861
690.769	16869
690.813	16465
690.836	16745
690.857	17046
690.902	17005
690.946	17042
690.957	17132
690.991	17886
691.035	18432
691.077	19281
691.080	19345
691.124	19606
691.168	19993
691.198	20184
691.213	19961
691.257	19474
691.301	18686
691.318	18292
691.346	18029
691.390	17759
691.434	17480
691.439	17434
691.478	17648
691.522	17760
691.559	17753
691.567	17807
691.611	18165
691.655	18125
691.680	18239
691.699	18285
691.743	18707
691.787	18491
691.800	18422
691.831	18587
691.875	18814
691.919	19204
691.921	19184
691.964	19227
692.008	18698
692.041	18445
692.052	18511
692.096	18943
692.139	19384
692.162	19375
692.183	19172
692.227	19006
692.271	18717
692.282	18617
692.315	18715
692.359	18736
692.402	19121
692.403	19159
692.447	18889
692.490	18673
692.523	18727
692.534	18883
692.578	19184
692.622	19513
692.643	19714
692.666	19642
692.709	19195
692.753	18400
692.763	18301
692.797	18549
692.840	18677
692.884	18701
692.884	18739
692.928	18862
692.971	18745
693.004	18829
693.015	18997
693.059	19057
693.102	19618
693.124	19675
693.146	19580
693.189	19158
693.233	19019
693.245	19073
693.276	19782
693.320	20003
693.363	20113
693.365	20098
693.407	20518
693.450	20430
693.485	20493
693.493	20594
693.537	20732
693.580	20872
693.605	21141
693.624	21383
693.667	21174
693.710	21479
693.725	21466
693.753	22638
693.797	24699
693.840	26514
693.845	26685
693.883	26966
693.926	27160
693.966	27157
693.970	27000
694.013	24980
694.056	22856
694.086	21446
694.099	21540
694.142	21251
694.185	21421
694.206	21445
694.229	21397
694.272	21260
694.315	20771
694.326	20661
694.358	21064
694.401	21211
694.444	21936
694.446	21902
694.487	22026
694.530	22299
694.566	22321
694.573	22234
694.616	21383
694.659	20667
694.686	20093
694.702	20076
694.745	20119
694.787	19890
694.806	19863
694.830	20208
694.873	20499
694.916	20690
694.926	20746
694.959	20772
695.002	20756
695.044	20739
695.046	20689
695.087	21070
695.130	21220
695.166	21351
695.172	21397
695.215	21466
695.258	21411
695.286	21333
695.301	21332
695.343	21365
695.386	21318
695.406	21170
695.428	21096
695.471	20933
695.514	20796
695.526	20706
695.556	21093
695.599	21714
695.641	22160
695.646	22158
695.684	22063
695.726	21840
695.766	21589
695.769	21646
695.811	21818
695.854	21896
695.886	21929
695.896	21926
695.938	21515
695.981	21189
696.005	21000
696.023	21269
696.065	21924
696.108	22304
696.125	22494
696.150	22828
696.192	23152
696.235	23487
696.245	23504
696.277	23314
696.319	23187
696.361	22721
696.365	22647
696.404	22717
696.446	22660
696.485	22496
696.488	22564
696.530	22727
696.572	23017
696.604	22947
696.614	22977
696.656	23134
696.698	23123
696.724	23111
696.740	23115
696.783	22888
696.825	22764
696.844	22644
696.867	22769
696.909	22882
696.951	22808
696.964	22822
696.992	23024
697.034	23047
697.076	23085
697.083	23020
697.118	23297
697.160	23661
697.202	23976
697.203	23923
697.244	23630
697.286	23213
697.323	22781
697.327	22858
697.369	22974
697.411	23160
697.442	23218
697.453	23345
697.494	23575
697.536	23881
697.562	23982
697.578	24046
697.620	24064
697.661	24055
697.682	23986
697.703	24327
697.744	24866
697.786	25535
697.801	25661
697.828	25764
697.869	25833
697.911	25876
697.921	25834
697.952	25482
697.994	24886
698.035	24365
698.040	24226
698.077	24443
698.118	24658
698.160	24911
698.160	24846
698.201	24596
698.243	24294
698.279	23964
698.284	24046
698.325	24215
698.367	24366
698.399	24461
698.408	24516
698.449	24402
698.491	24331
698.518	24192
698.532	24432
698.573	25029
698.614	25584
698.638	25845
698.656	25933
698.697	25941
698.738	25979
698.757	25917
698.779	26003
698.820	26057
698.862	26096
698.877	26040
698.903	26006
698.944	25843
698.985	25681
698.996	25568
699.026	25729
699.067	25857
699.116	25944
699.235	25495
699.354	24643
699.474	25339
699.593	25982
699.713	26648
699.832	24346
699.951	25476
700.070	25153
700.190	24277
700.309	23896
700.428	24820
700.547	24031
700.667	23267
700.786	23781
700.905	23330
701.024	24514
701.143	24381
701.262	23261
701.381	23288
701.500	23480
701.619	24701
701.738	23159
701.857	23032
701.976	22305
702.095	22671
702.214	23267
702.333	23891
702.452	22731
702.571	23108
702.690	23683
702.809	22171
702.928	20810
703.047	21829
703.165	21656
703.284	21571
703.403	21855
703.522	22147
703.640	22513
703.759	22822
703.878	25429
703.997	21534
704.115	20841
704.234	20936
704.353	21167
704.471	20888
704.590	20062
704.708	19646
704.827	20209
704.946	20226
705.064	20472
705.183	20853
705.301	21958
705.420	28564
705.538	26636
705.656	24108
705.775	22803
705.893	24345
706.012	25182
706.130	23791
706.249	24114
706.367	24143
706.485	24354
706.604	22953
706.722	24279
706.840	25199
706.958	26363
707.077	25285
707.195	23244
707.313	22519
707.431	22465
707.549	21106
707.668	20600
707.786	22638
707.904	21188
708.022	21128
708.140	20989
708.258	20992
708.376	22237
708.494	21147
708.612	22732
708.730	27636
708.848	28419
708.966	25485
709.084	25311
709.202	24293
709.320	24366
709.438	24047
709.556	24704
709.674	24728
709.791	23483
709.909	23248
710.027	23478
710.145	23296
710.263	24173
710.380	23061
710.498	23820
710.616	23094
710.733	22439
710.851	22944
710.969	23911
711.086	23026
711.204	22884
711.322	22481
711.439	22058
711.557	21533
711.674	22365
711.792	21236
711.909	21429
712.027	21594
712.144	21377
712.262	22088
712.379	22938
712.497	28898
712.614	29834
712.732	25665
712.849	24753
712.966	23995
713.084	28488
713.201	26341
713.318	25948
713.436	25326
713.553	25073
713.670	25469
713.787	26144
713.905	25914
714.022	24856
714.139	25495
714.256	28084
714.373	31702
714.490	42456
714.608	76901
714.725	293713
714.842	451763
714.959	52628
715.076	28483
715.193	25406
715.310	24339
715.427	23169
715.544	22313
715.661	22183
715.778	21958
715.895	23855
716.011	23108
716.128	22480
716.245	22613
716.362	23084
716.479	24175
716.596	21823
716.713	21617
716.829	21090
716.946	21768
717.063	20683
717.180	20261
717.296	19943
717.413	19273
717.530	19607
717.646	19870
717.763	20217
717.880	18577
717.996	19262
718.113	19597
718.229	19520
718.346	18711
718.462	18420
718.579	20373
718.695	26406
718.812	23988
718.928	21024
719.045	19929
719.161	17780
719.277	18377
719.394	18193
719.510	18863
719.626	18846
719.743	22097
719.859	24877
719.975	33550
720.092	88144
720.208	249673
720.324	55026
720.440	20588
720.557	20720
720.673	22756
720.789	27893
720.905	38711
721.021	26149
721.137	17433
721.253	18235
721.369	17196
721.486	17707
721.602	19705
721.718	16932
721.834	15915
721.950	16044
722.066	15559
722.181	16523
722.297	16774
722.413	16268
722.529	15040
722.645	15147
722.761	14542
722.877	15830
722.993	14818
723.108	16677
723.224	15966
723.340	15517
723.456	14969
723.571	14763
723.687	13028
723.803	13814
723.918	15161
724.034	14404
724.150	14274
724.265	14252
724.381	19352
724.497	24677
724.612	14075
724.728	13340
724.843	14012
724.959	14083
725.074	18249
725.190	22649
725.305	14568
725.421	14530
725.536	13365
725.651	13291
725.767	12916
725.882	13041
725.997	13088
726.113	13691
726.228	13149
726.343	13865
726.459	12630
726.574	13334
726.689	12406
726.804	12259
726.920	12262
727.035	12721
727.150	12903
727.265	12938
727.380	12743
727.495	12766
727.610	12029
727.725	12755
727.841	12283
727.956	13017
728.071	12086
728.186	12295
728.301	11828
728.416	13192
728.531	12367
728.645	11653
728.760	12132
728.875	12563
728.990	11585
729.105	11197
729.220	12033
729.335	11773
729.449	11522
729.564	10645
729.679	11168
729.794	11562
729.908	11676
730.023	12191
730.138	12079
730.253	11854
730.367	10873
730.482	10724
730.596	10405
730.711	10862
730.826	12157
730.940	12464
731.055	10990
731.169	11119
731.284	10860
731.398	10766
731.513	12518
731.627	11681
731.742	12592
731.856	13958
731.970	12231
732.085	13388
732.199	15719
732.313	21204
732.428	41455
732.542	114277
732.656	95973
732.771	22864
732.885	15072
732.999	14659
733.113	14999
733.227	13473
733.342	12957
733.456	12459
733.570	12270
733.684	11972
733.798	11508
733.912	12212
734.026	11541
734.140	12801
734.254	12308
734.368	14384
734.482	17126
734.596	11772
734.710	11337
734.824	11969
734.938	10655
735.052	11554
735.166	12199
735.280	11823
735.393	10907
735.507	11358
735.621	12139
735.735	14543
735.849	12502
735.962	10498
736.076	11875
736.190	10865
736.303	12277
736.417	14160
736.531	10249
736.644	10591
736.758	10096
736.872	9857
736.985	9925
737.099	9796
737.212	9553
737.326	10397
737.439	11307
737.553	9793
737.666	10700
737.780	9970
737.893	10177
738.007	9837
738.120	10168
738.233	9736
738.347	9326
738.460	9689
738.573	10600
738.687	10707
738.800	10663
738.913	10969
739.026	11324
739.140	9820
739.253	9098
739.366	9692
739.479	10180
739.592	8496
739.705	9146
739.818	9946
739.932	9283
740.045	9400
740.158	10005
740.271	9007
740.384	9720
740.497	9725
740.610	9624
740.723	9505
740.836	9381
740.949	9307
741.062	10990
741.174	11081
741.287	9344
741.400	8727
741.513	9045
741.626	9967
741.739	9241
741.851	8960
741.964	9276
742.077	9106
742.189	8890
742.302	9322
742.415	8167
742.527	9254
742.640	8581
742.753	8988
742.865	9912
742.978	8384
743.090	8751
743.203	8491
743.316	8726
743.428	7323
743.541	7883
743.653	7942
743.766	8469
743.878	8655
743.990	8496
744.103	8941
744.215	8526
744.327	8537
744.440	8837
744.552	11611
744.664	9294
744.777	8556
744.889	8359
745.001	8852
745.113	7495
745.226	8529
745.338	8044
745.450	7561
745.562	7869
745.674	7581
745.786	7734
745.898	8082
746.010	7108
746.122	7510
746.234	8280
746.347	7512
746.459	8422
746.570	8000
746.682	7397
746.794	8169
746.906	7468
747.018	7375
747.130	7577
747.242	7801
747.354	7004
747.466	8128
747.577	7311
747.689	6736
747.801	7504
747.913	6654
748.024	6602
748.136	6419
748.248	7367
748.359	7099
748.471	7529
748.583	6796
748.694	7190
748.806	7474
748.918	7970
749.029	7006
749.141	7391
749.252	7967
749.364	7166
749.475	10026
749.587	8950
749.698	6531
749.809	7505
749.921	6573
750.032	6908
750.144	6628
750.255	6506
750.366	7299
750.478	6264
750.589	6865
750.700	6251
750.811	7231
750.923	7536
751.034	9959
751.145	12253
751.256	7135
751.367	6384
751.479	6404
751.590	6655
751.701	6511
751.812	6454
751.923	6351
752.034	6703
752.145	6649
752.256	5777
752.367	6191
752.478	6545
752.589	6415
752.700	6365
752.811	6155
752.922	6584
753.032	6639
753.143	7284
753.254	6091
753.365	6365
753.476	6216
753.586	5674
753.697	6049
753.808	5681
753.919	5865
754.029	5472
754.140	6305
754.251	6504
754.361	6124
754.472	5972
754.582	5967
754.693	6674
754.804	6514
754.914	5954
755.025	5016
755.135	5370
755.246	5368
755.356	5661
755.466	6106
755.577	5299
755.687	6039
755.798	5104
755.908	5554
756.018	5427
756.129	6322
756.239	6289
756.349	6077
756.460	5805
756.570	6122
756.680	5143
756.790	5738
756.900	6391
757.011	6023
757.121	5680
757.231	5784
757.341	4943
757.451	5252
757.561	5054
757.671	4676
757.781	5463
757.891	6030
758.001	6053
758.111	6084
758.221	5564
758.331	5789
758.441	6224
758.551	7214
758.661	6735
758.771	6026
758.880	6251
758.990	6285
759.100	5588
759.210	6395
759.320	5389
759.429	5690
759.539	5774
759.649	6483
759.758	5810
759.868	6184
759.978	5130
760.087	6055
760.197	6145
760.307	6288
760.416	5603
760.526	6489
760.635	6636
760.745	6284
760.854	6200
760.964	7466
761.073	6244
761.182	7122
761.292	6319
761.401	6466
761.511	6122
761.620	6766
761.729	5568
761.839	6288
761.948	6305
762.057	6282
762.166	5616
762.276	5248
762.385	6257
762.494	5705
762.603	5927
762.712	6506
762.822	5490
762.931	5352
763.040	5668
763.149	5415
763.258	5589
763.367	6054
763.476	5868
763.585	5852
763.694	5879
763.803	6532
763.912	7524
764.021	6367
764.130	6604
764.238	5884
764.347	6205
764.456	6864
764.565	6426
764.674	6443
764.783	5863
764.891	6031
765.000	7551
765.109	7421
765.217	7221
765.326	7985
765.435	9710
765.543	10083
765.652	10171
765.761	12526
765.869	16999
765.978	22895
766.086	38213
766.195	72164
766.303	177424
766.412	530132
766.520	581466
766.629	184032
766.737	60690
766.846	33448
766.954	21576
767.062	18242
767.171	13905
767.279	12875
767.387	10892
767.496	9804
767.604	8778
767.712	9658
767.820	8033
767.928	8626
768.037	7230
768.145	6682
768.253	7690
768.361	7484
768.469	7733
768.577	7187
768.685	7323
768.793	8765
768.901	7466
769.009	8242
769.117	8578
769.225	9428
769.333	13128
769.441	17876
769.549	30785
769.657	63827
769.765	198640
769.873	515609
769.981	248147
770.088	51760
770.196	24055
770.304	16508
770.412	13612
770.519	11651
770.627	11150
770.735	8888
770.842	7783
770.950	7797
771.058	7661
771.165	7924
771.273	7433
771.380	7961
771.488	8139
771.595	7902
771.703	7604
771.810	7926
771.918	7289
772.025	7413
772.133	7474
772.240	7150
772.348	8516
772.455	7952
772.562	8052
772.670	6629
772.777	7612
772.884	7974
772.991	7146
773.099	7328
773.206	6984
773.313	7157
773.420	6857
773.528	6777
773.635	6576
773.742	7068
773.849	6649
773.956	7345
774.063	6555
774.170	6477
774.277	6587
774.384	6839
774.491	6350
774.598	7157
774.705	7283
774.812	8054
774.919	7026
775.026	6947
775.133	6718
775.239	6846
775.346	7049
775.453	6554
775.560	6136
775.667	6225
775.773	5347
775.880	6105
775.987	5425
776.093	5981
776.200	5804
776.307	5309
776.413	6501
776.520	5770
776.627	6350
776.733	6366
776.840	5005
776.946	6604
777.053	6222
777.159	5988
777.266	4751
777.372	5598
777.478	6486
777.585	6116
777.691	5746
777.798	5574
777.904	5556
778.010	7036
778.117	6431
778.223	5871
778.329	5206
778.435	5488
778.542	6387
778.648	6122
778.754	5916
778.860	5752
778.966	5267
779.072	5693
779.178	5327
779.284	5044
779.391	5106
779.497	4895
779.603	5945
779.708	5998
779.815	6794
779.920	9765
780.026	21856
780.132	8756
780.238	4872
780.344	4592
780.450	5259
780.556	5571
780.661	5002
780.767	5429
780.873	4922
780.979	4244
781.085	4270
781.190	5385
781.296	4327
781.402	4939
781.507	5001
781.613	4521
781.719	4757
781.824	5076
781.930	5053
782.035	5456
782.141	5447
782.246	4532
782.352	5012
782.457	5202
782.563	4975
782.668	4270
782.773	4299
782.879	4755
782.984	5450
783.090	6420
783.195	6349
783.300	6004
783.405	5365
783.511	4263
783.616	5547
783.721	4955
783.826	4560
783.932	4776
784.037	4818
784.142	4575
784.247	3932
784.352	5285
784.457	4399
784.562	4391
784.667	4240
784.772	4757
784.877	4421
784.982	4360
785.087	4265
785.192	4372
785.297	4480
785.402	4177
785.507	4096
785.611	4134
785.716	4027
785.821	3740
785.926	3939
786.031	4348
786.135	4343
786.240	4209
786.345	3197
786.450	3873
786.554	4694
786.659	3407
786.763	2850
786.868	3909
786.973	3925
787.077	4898
787.182	3784
787.286	4448
787.391	3856
787.495	3337
787.600	3390
787.704	3614
787.809	4192
787.913	3778
788.017	4058
788.122	4516
788.226	3579
788.330	3823
788.435	3057
788.539	4238
788.643	4103
788.747	3292
788.852	3529
788.956	3954
789.060	3525
789.164	3911
789.268	2902
789.372	4028
789.476	3409
789.580	3017
789.684	2924
789.788	4135
789.892	3672
789.996	3440
790.100	2957
790.204	3492
790.308	4168
790.412	3678
790.516	3299
790.620	3929
790.724	4617
790.828	4243
790.931	3034
791.035	4415
791.139	3455
791.242	3577
791.346	4153
791.450	3360
791.554	3438
791.657	3003
791.761	4020
791.864	3869
791.968	4278
792.072	4188
792.175	3717
792.279	3760
792.382	3168
792.486	3868
792.589	3518
792.693	4235
792.796	3295
792.899	3389
793.003	3761
793.106	3018
793.209	2535
793.313	3816
793.416	2362
793.519	4399
793.623	4288
793.726	5353
793.829	3705
793.932	3310
794.035	3490
794.138	4217
794.242	3201
794.345	3090
794.448	3348
794.551	4266
794.654	8180
794.757	11685
794.860	5270
794.963	3481
795.066	2859
795.169	3519
795.272	2504
795.375	3603
795.477	2724
795.580	3397
795.683	2486
795.786	3212
795.889	2664
795.991	4639
796.094	3536
796.197	3080
796.300	4213
796.402	2982
796.505	2953
796.608	2696
796.710	3535
796.813	3703
796.915	2902
797.018	3479
797.120	2992
797.223	2255
797.326	3560
797.428	3521
797.530	2607
797.633	3688
797.735	3957
797.838	3617
797.940	4467
798.042	3266
798.145	3135
798.247	2939
798.349	2274
798.452	2992
798.554	2864
798.656	2600
798.758	4097
798.860	2961
798.962	2645
799.065	2566
799.167	1972
799.269	4258
799.371	3267
799.473	3739
799.575	3221
799.677	3681
799.779	4486
799.881	2918
799.983	4104
800.085	2900
800.187	3353
800.289	2923
800.390	2154
800.492	3496
800.594	2912
800.696	2653
800.798	3077
800.899	2150
801.001	2697
801.103	2117
801.205	2301
801.306	2979
801.408	2411
801.509	3347
801.611	2851
801.713	3087
801.814	2291
801.916	2252
802.017	2579
802.119	1889
802.220	2449
802.322	1294
802.423	4047
802.525	2259
802.626	2396
802.727	2959
802.829	3493
802.930	1317
803.031	3765
803.133	1502
803.234	2786
803.335	2980
803.436	1313
803.538	1808
803.639	1508
803.740	2700
803.841	1906
803.942	2008
804.043	1764
804.144	1457
804.245	1404
804.346	2438
804.447	1751
804.548	2937
804.649	3830
804.750	2248
804.851	2546
804.952	2598
805.053	2110
805.154	1183
805.255	2678
805.355	2135
805.456	2161
805.557	1929
805.658	1623
805.758	2156
805.859	1682
805.960	2191
806.061	1890
806.161	2004
806.262	2442
806.362	2073
806.463	1900
806.564	2524
806.664	2290
806.765	2501
806.865	2600
806.966	2677
807.066	1185
807.166	3000
807.267	2630
807.367	1347
807.468	2480
807.568	967
807.668	2872
807.769	2389
807.869	2108
807.969	1751
808.069	1643
808.170	2510
808.270	1762
808.370	2078
808.470	2689
808.570	1969
808.670	1574
808.770	3034
808.870	1383
808.970	1661
809.070	1592
809.170	1597
809.271	2268
809.370	1814
809.470	1155
809.570	2160
809.670	2718
809.770	1507
809.870	1243
809.970	3017
810.070	2057
810.169	1735
810.269	946
810.369	2426
810.469	1881
810.568	1715
810.668	1743
810.768	1583
810.867	2024
810.967	1375
811.066	1614
811.166	1617
811.265	1786
811.365	2012
811.464	2033
811.564	2362
811.663	2366
811.763	1118
811.862	2254
811.962	2182
812.061	1681
812.160	2373
812.260	2484
812.359	3038
812.458	5555
812.557	12631
812.657	25252
812.756	10807
812.855	3451
812.954	2452
813.053	2743
813.153	2984
813.252	1379
813.351	2225
813.450	2205
813.549	2594
813.648	2620
813.747	1860
813.846	2506
813.945	1671
814.044	1954
814.143	1762
814.242	2339
814.341	2171
814.439	2734
814.538	3079
814.637	2042
814.736	2781
814.835	2974
814.933	2456
815.032	2466
815.131	2404
815.229	4082
815.328	5419
815.427	3719
815.525	4584
815.624	4095
815.722	3879
815.821	4503
815.919	4169
816.018	4166
816.116	5111
816.215	4100
816.313	5000
816.412	4744
816.510	4833
816.609	6618
816.707	5780
816.805	5995
816.904	4979
817.002	6955
817.100	7990
817.198	7359
817.296	7960
817.395	8846
817.493	11065
817.591	11781
817.689	15592
817.787	19926
817.885	28680
817.983	49571
818.081	94206
818.179	199825
818.277	432382
818.375	462001
818.473	206072
818.571	85805
818.669	51227
818.767	41420
818.865	40300
818.963	44598
819.061	60839
819.158	92447
819.256	169661
819.354	334994
819.452	600069
819.549	512714
819.647	254874
819.745	117331
819.842	68064
819.940	46171
820.038	32705
820.135	24859
820.233	20296
820.330	16175
820.428	13013
820.525	12893
820.623	10775
820.720	8525
820.818	8434
820.915	8250
821.012	7553
821.110	6021
821.207	6473
821.304	5051
821.402	5641
821.499	5623
821.596	5032
821.693	5009
821.791	5724
821.888	3634
821.985	7220
822.082	6021
822.179	5240
822.276	4165
822.373	4243
822.470	4442
822.567	3980
822.664	3879
822.761	4010
822.858	2834
822.955	3821
823.052	3471
823.149	3140
823.246	3165
823.343	3201
823.440	3428
823.536	3148
823.633	2504
823.730	2423
823.827	3248
823.923	3357
824.020	2922
824.117	2581
824.213	1835
824.310	3302
824.407	2199
824.503	3090
824.600	2512
824.696	2549
824.793	3564
824.889	2452
824.986	2388
825.082	2658
825.179	2511
825.275	2222
825.371	2638
825.468	2660
825.564	1798
825.660	2701
825.757	3063
825.853	2057
825.949	1136
826.045	2639
826.142	2417
826.238	2553
826.334	1580
826.430	1636
826.526	1566
826.622	1755
826.718	1836
826.814	1548
826.910	2286
827.006	1870
827.102	929
827.198	2928
827.294	2025
827.390	3068
827.486	2036
827.582	1823
827.678	1098
827.774	2517
827.869	1155
827.965	2459
828.061	1665
828.157	2168
828.252	1484
828.348	981
828.444	1863
828.539	845
828.635	1477
828.731	2227
828.826	1184
828.922	2092
829.017	2067
829.113	2598
829.208	1743
829.304	936
829.399	2993
829.495	2443
829.590	2216
829.685	1262
829.781	1956
829.876	1455
829.971	1686
830.066	711
830.162	712
830.257	1947
830.352	1163
830.447	1924
830.543	1803
830.638	283
830.733	2560
830.828	770
830.923	2467
831.018	1597
831.113	1690
831.208	1242
831.303	1013
831.398	1515
831.493	1641
831.588	3042
831.683	848
831.778	1401
831.873	721
831.967	2173
832.062	1314
832.157	-189
832.252	1209
832.346	867
832.441	1846
832.536	2890
832.631	4458
832.725	5010
832.820	1342
832.914	1713
833.009	714
833.104	2483
833.198	2286
833.293	947
833.387	1550
833.482	1417
833.576	919
833.670	1597
833.765	881
833.859	1374
833.954	2007
834.048	1817
834.142	1515
834.237	1252
834.331	1226
834.425	1091
834.519	315
834.613	1441
834.708	793
834.802	1772
834.896	1028
834.990	1367
835.084	1306
835.178	791
835.272	811
835.366	755
835.460	2143
835.554	777
835.648	1180
835.742	1237
835.836	1000
835.930	-211
836.024	1538
836.117	1840
836.211	1873
836.305	2107
836.399	2043
836.493	1234
836.586	1225
836.680	721
836.774	1762
836.867	1741
836.961	709
837.055	130
837.148	938
837.242	971
837.335	688
837.429	1493
837.522	1112
837.616	1082
837.709	1605
837.803	1692
837.896	1423
837.989	665
838.083	1679
838.176	2598
838.269	2276
838.363	1663
838.456	1131
838.549	1555
838.642	2240
838.735	5058
838.829	3848
838.922	1056
839.015	666
839.108	458
839.201	705
839.294	114
839.387	1044
839.480	623
839.573	875
839.666	1860
839.759	746
839.852	390
839.945	977
840.038	604
840.131	127
840.223	795
840.316	1037
840.409	1060
840.502	355
840.594	1279
840.687	-263
840.780	951
840.873	589
840.965	996
841.058	1434
841.150	2852
841.243	2085
841.336	742
841.428	484
841.521	500
841.613	47
841.706	1402
841.798	-285
841.890	629
841.983	665
842.075	1982
842.167	719
842.260	1562
842.352	747
842.444	741
842.537	2394
842.629	4310
842.721	1029
842.813	818
842.905	940
842.997	883
843.090	1895
843.182	1483
843.274	1523
843.366	4376
843.458	8380
843.550	8873
843.642	1833
843.734	1582
843.826	1107
843.918	1238
844.009	1295
844.101	161
844.193	722
844.285	485
844.377	603
844.469	1014
844.560	586
844.652	705
844.744	1362
844.835	524
844.927	986
845.019	1430
845.110	561
845.202	1019
845.293	432
845.385	709
845.476	715
845.568	1684
845.659	21
845.751	512
845.842	1444
845.934	697
846.025	1165
846.116	322
846.208	1032
846.299	-182
846.390	196
846.482	840
846.573	1651
846.664	1000
846.755	2004
846.846	1584
846.937	3
847.029	564
847.120	177
847.211	829
847.302	1436
847.393	-258
847.484	102
847.575	308
847.666	562
847.757	-207
847.847	448
847.938	1430
848.029	367
848.120	36
848.211	941
848.302	699
848.392	186
848.483	404
848.574	-373
848.664	-28
848.755	188
848.846	903
848.936	345
849.027	580
849.118	731
849.208	892
849.299	722
849.389	957
849.480	2463
849.570	4686
849.661	7720
849.751	16355
849.841	8682
849.932	1202
850.022	790
850.112	666
850.203	1367
850.293	432
850.383	538
850.474	527
850.564	498
850.654	458
850.744	560
850.834	484
850.924	1063
851.014	990
851.104	462
851.194	267
851.284	830
851.374	2000
851.464	719
851.554	874
851.644	681
851.734	1358
851.824	432
851.914	228
852.004	1009
852.094	128
852.183	601
852.273	1014
852.363	140
852.452	1134
852.542	460
852.632	620
852.721	813
852.811	-148
852.901	1143
852.990	660
853.080	1426
853.169	1060
853.259	740
853.348	694
853.438	1264
853.527	1596
853.617	2133
853.706	4069
853.795	5874
853.885	15171
853.974	28817
854.063	48162
854.152	88725
854.242	48391
854.331	7632
854.420	2957
854.509	1266
854.598	2436
854.687	783
854.777	1376
854.866	1231
854.955	1509
855.044	-538
855.133	599
855.222	10
855.311	60
855.400	344
855.488	404
855.577	-299
855.666	443
855.755	1218
855.844	674
855.933	182
856.021	278
856.110	674
856.199	-218
856.288	-480
856.376	656
856.465	-97
856.554	340
856.642	-130
856.731	442
856.819	487
856.908	-46
856.996	496
857.085	66
857.173	101
857.262	240
857.350	805
857.438	886
857.527	667
857.615	-285
857.703	372
857.792	417
857.880	805
857.968	178
858.056	168
858.145	84
858.233	766
858.321	186
858.409	883
858.497	-614
858.585	456
858.673	1563
858.761	-107
858.849	942
858.937	324
859.025	691
859.113	1019
859.201	-96
859.289	1019
859.377	847
859.465	253
859.552	-392
859.640	-354
859.728	1140
859.816	-396
859.903	1228
859.991	-43
860.079	-99
860.166	780
860.254	-290
860.342	399
860.429	170
860.517	-96
860.604	498
860.692	225
860.779	182
860.867	-227
860.954	-50
861.042	1031
861.129	1460
861.216	514
861.304	-304
861.391	643
861.478	99
861.565	-171
861.653	617
861.740	-558
861.827	312
861.914	779
862.001	-253
862.089	272
862.176	251
862.263	46
862.350	-214
862.437	178
862.524	643
862.611	-207
862.698	468
862.785	399
862.871	315
862.958	115
863.045	401
863.132	296
863.219	-171
863.306	-37
863.392	407
863.479	65
863.566	238
863.652	443
863.739	-137
863.826	1048
863.912	-17
863.999	-490
864.086	336
864.172	575
864.259	-328
864.345	-131
864.432	359
864.518	-5
864.604	134
864.691	664
864.777	408
864.863	1111
864.950	1562
865.036	207
865.122	1586
865.209	2540
865.295	2389
865.381	1778
865.467	2487
865.553	2114
865.639	2844
865.726	4030
865.812	7908
865.898	14953
865.984	22308
866.070	35878
866.156	53234
866.242	18927
866.328	4366
866.414	1953
866.499	2191
866.585	651
866.671	1915
866.757	1853
866.843	1742
866.928	2355
867.014	959
867.100	1948
867.186	1174
867.271	1628
867.357	2323
867.442	1829
867.528	1584
867.614	1737
867.699	1428
867.785	769
867.870	1104
867.956	1452
868.041	1671
868.127	2023
868.212	2748
868.297	1561
868.383	1764
868.468	2679
868.553	2406
868.639	3584
868.724	5303
868.809	7646
868.894	2666
868.979	978
869.065	1409
869.150	217
869.235	1313
869.320	1295
869.405	694
869.490	1074
869.575	883
869.660	871
869.745	1253
869.830	584
869.915	1018
870.000	781
870.085	1192
870.169	1004
870.254	1405
870.339	781
870.424	829
870.509	884
870.593	1240
870.678	730
870.763	1076
870.847	1145
870.932	959
871.016	1079
871.101	205
871.186	1770
871.270	1935
871.355	865
871.439	838
871.523	731
871.608	1215
871.692	297
871.777	1333
871.861	1004
871.945	270
872.030	1452
872.114	68
872.198	-95
872.282	633
872.367	1147
872.451	291
872.535	685
872.619	302
872.703	125
872.787	1267
872.871	1365
872.955	174
873.039	-453
873.123	616
873.207	1198
873.291	380
873.375	578
873.459	1540
873.543	295
873.627	574
873.711	975
873.794	537
873.878	571
873.962	-202
874.045	291
874.129	657
874.137	660
874.213	694
874.245	430
874.296	1
874.352	-148
874.380	-218
874.460	899
874.464	944
874.547	341
874.568	564
874.631	1232
874.676	671
874.714	194
874.784	689
874.798	787
874.881	1134
874.892	1071
874.965	676
874.999	510
875.048	262
875.107	968
875.131	1242
875.215	-18
875.215	-17
875.298	882
875.323	785
875.381	627
875.430	913
875.465	1073
875.538	295
875.548	193
875.631	678
875.646	477
875.714	-472
875.753	-16
875.798	518
875.861	716
875.881	755
875.964	992
875.968	936
876.047	97
876.076	456
876.130	1039
876.183	673
876.213	528
876.291	1073
876.296	1097
876.379	1099
876.398	1136
876.462	1281
876.506	612
876.545	41
876.613	100
876.628	109
876.711	704
876.721	716
876.794	864
876.828	681
876.877	405
876.935	434
876.960	469
877.043	399
877.043	402
877.125	721
877.150	735
877.208	896
877.258	421
877.291	86
877.365	272
877.374	300
877.456	913
877.472	819
877.539	395
877.579	393
877.622	429
877.687	150
877.704	16
877.787	671
877.794	619
877.869	460
877.901	608
877.952	667
878.008	448
878.034	366
878.115	191
878.117	189
878.199	-480
878.222	-131
878.282	900
878.329	985
878.364	888
878.437	833
878.447	857
878.529	301
878.544	384
878.611	606
878.651	458
878.694	289
878.758	499
878.776	632
878.858	72
878.865	98
878.941	223
878.972	397
879.023	526
879.078	-237
879.105	-432
879.185	-171
879.187	-169
879.269	746
879.292	744
879.351	628
879.399	45
879.433	-246
879.506	-1
879.516	7
879.598	392
879.613	306
879.680	-61
879.720	185
879.762	464
879.827	212
879.844	179
879.926	95
879.933	126
880.007	333
880.040	300
880.089	221
880.147	675
880.171	941
880.253	1633
880.254	1637
880.335	1891
880.360	1997
880.417	2607
880.467	3790
880.499	4676
880.574	7049
880.580	7127
880.662	3182
880.680	2535
880.744	709
880.787	588
880.825	539
880.893	480
880.907	468
880.989	512
881.000	491
881.070	342
881.106	195
881.152	169
881.213	234
881.233	224
881.315	-115
881.319	-107
881.396	270
881.426	450
881.478	553
881.532	354
881.559	332
881.639	670
881.641	670
881.722	-172
881.745	-143
881.803	466
881.852	676
881.885	521
881.958	170
881.966	160
882.047	793
882.064	812
882.129	872
882.171	937
882.210	1028
882.277	1205
882.291	1323
882.372	1815
882.383	1823
882.454	914
882.489	743
882.535	958
882.596	447
882.616	189
882.697	469
882.702	427
882.778	542
882.808	792
882.859	444
882.914	177
882.940	290
883.020	270
883.021	271
883.102	430
883.127	468
883.183	422
883.233	119
883.264	79
883.339	545
883.345	520
883.426	53
883.445	-126
883.507	14
883.551	200
883.587	191
883.657	298
883.668	348
883.749	667
883.763	643
883.830	230
883.869	60
883.910	15
883.975	455
883.991	533
884.072	496
884.081	454
884.152	391
884.187	421
884.233	800
884.292	1557
884.314	1503
884.394	684
884.398	652
884.475	473
884.504	474
884.555	439
884.610	365
884.636	512
884.716	826
884.716	828
884.797	557
884.821	500
884.877	559
884.927	509
884.958	604
885.033	1066
885.038	1050
885.118	442
885.139	283
885.199	302
885.244	625
885.279	771
885.350	676
885.359	668
885.439	658
885.456	630
885.520	670
885.561	629
885.600	614
885.667	722
885.680	698
885.760	795
885.773	741
885.840	686
885.878	699
885.920	538
885.984	328
886.000	360
886.080	717
886.089	737
886.160	575
886.195	439
886.240	499
886.300	632
886.320	592
886.400	540
886.406	530
886.480	449
886.511	326
886.560	-39
886.616	-323
886.640	-65
886.720	769
886.722	787
886.800	749
886.827	773
886.879	606
886.932	195
886.959	287
887.038	820
887.039	821
887.119	530
887.143	496
887.198	674
887.248	843
887.278	805
887.354	492
887.358	507
887.437	1056
887.459	1145
887.517	996
887.564	856
887.596	659
887.669	222
887.676	193
887.755	-146
887.774	-225
887.835	517
887.880	1052
887.914	855
887.985	327
887.994	328
888.073	595
888.090	596
888.153	770
888.195	931
888.232	681
888.300	210
888.311	233
888.391	421
888.405	441
888.470	587
888.510	698
888.549	786
888.615	936
888.628	996
888.708	1272
888.720	1333
888.787	976
888.825	721
888.866	773
888.930	821
888.945	748
889.024	416
889.035	370
889.103	849
889.140	1074
889.182	977
889.245	904
889.261	858
889.340	609
889.349	578
889.419	1038
889.454	1265
889.498	939
889.559	510
889.577	512
889.656	513
889.664	514
889.735	799
889.768	934
889.814	657
889.873	290
889.978	1007
890.083	1472
890.187	484
890.292	958
890.397	654
890.501	239
890.606	1018
890.710	1312
890.815	1472
890.919	1748
891.024	374
891.128	372
891.233	545
891.337	842
891.442	1071
891.546	550
891.650	337
891.755	1253
891.859	1833
891.963	1163
892.068	817
892.172	1256
892.276	332
892.380	1270
892.484	1031
892.589	580
892.693	653
892.797	1178
892.901	365
893.005	805
893.109	804
893.213	1275
893.317	1141
893.421	949
893.525	1054
893.629	815
893.733	750
893.837	730
893.941	936
894.045	1189
894.148	422
894.252	1031
894.356	751
894.460	1988
894.564	642
894.667	808
894.771	1018
894.875	-111
894.978	924
895.082	1078
895.186	1026
895.289	1297
895.393	321
895.496	1241
895.600	-25
895.703	614
895.807	490
895.910	1207
896.014	678
896.117	321
896.221	420
896.324	800
896.427	299
896.531	682
896.634	1043
896.737	1151
896.840	722
896.944	1526
897.047	693
897.150	970
897.253	343
897.356	771
897.460	1284
897.563	102
897.666	492
897.769	608
897.872	645
897.975	662
898.078	270
898.181	1109
898.284	423
898.387	176
898.490	1272
898.593	909
898.695	437
898.798	199
898.901	694
899.004	751
899.107	443
899.209	1314
899.312	1017
899.415	739
899.518	360
899.620	1133
899.723	879
899.826	232
899.928	1094
900.031	909
900.133	488
900.236	851
900.338	-429
900.441	439
900.543	392
900.646	909
900.748	962
900.851	993
900.953	504
901.055	1422
901.158	592
901.260	1401
901.362	321
901.465	1355
901.567	89
901.669	1141
901.771	239
901.873	429
901.976	277
902.078	905
902.180	282
902.282	1037
902.384	1059
902.486	954
902.588	1387
902.690	368
902.792	314
902.894	1111
902.996	-80
903.098	1176
903.200	408
903.302	311
903.404	956
903.505	692
903.607	894
903.709	1098
903.811	325
903.913	541
904.014	377
904.116	205
904.218	797
904.319	703
904.421	330
904.523	633
904.624	837
904.726	531
904.827	449
904.929	786
905.030	1007
905.132	1219
905.233	325
905.335	939
905.436	978
905.537	864
905.639	531
905.740	575
905.841	896
905.943	535
906.044	1224
906.145	754
906.247	372
906.348	-119
906.449	1801
906.550	917
906.651	1006
906.752	423
906.854	859
906.955	242
907.056	1313
907.157	1522
907.258	657
907.359	861
907.460	250
907.561	867
907.662	150
907.762	622
907.863	65
907.964	978
908.065	1337
908.166	431
908.267	800
908.367	207
908.468	460
908.569	1088
908.670	738
908.770	1080
908.871	202
908.971	625
909.072	557
909.173	415
909.273	1069
909.374	410
909.474	654
909.575	887
909.675	973
909.776	945
909.876	60
909.977	437
910.077	919
910.177	259
910.278	938
910.378	147
910.478	33
910.579	115
910.679	394
910.779	1373
910.879	1432
910.980	381
911.080	117
911.180	94
911.280	162
911.380	936
911.480	-435
911.580	542
911.680	328
911.780	-15
911.880	480
911.980	454
912.080	438
912.180	1765
912.280	217
912.380	302
912.480	124
912.580	485
912.679	431
912.779	436
912.879	422
912.979	367
913.078	1074
913.178	902
913.278	1469
913.377	595
913.477	1036
913.577	554
913.676	502
913.776	815
913.875	-471
913.975	55
914.074	225
914.174	431
914.273	762
914.373	114
914.472	100
914.572	-391
914.671	778
914.770	721
914.870	712
914.969	1375
915.068	388
915.167	457
915.267	935
915.366	337
915.465	243
915.564	558
915.663	1019
915.763	194
915.862	498
915.961	824
916.060	866
916.159	-54
916.258	-659
916.357	1071
916.456	1016
916.555	-232
916.654	142
916.752	450
916.851	367
916.950	928
917.049	202
917.148	294
917.247	630
917.345	206
917.444	231
917.543	846
917.642	451
917.740	522
917.839	241
917.937	224
918.036	719
918.135	156
918.233	153
918.332	111
918.430	132
918.529	566
918.627	677
918.726	518
918.824	710
918.923	535
919.021	952
919.119	-519
919.218	95
919.316	276
919.414	-199
919.512	101
919.611	518
919.709	241
919.807	-324
919.905	1048
920.003	460
920.102	40
920.200	48
920.298	880
920.396	742
920.494	-183
920.592	115
920.690	280
920.788	127
920.886	129
920.984	669
921.082	55
921.180	669
921.277	32
921.375	183
921.473	697
921.571	99
921.669	441
921.766	79
921.864	1145
921.962	1116
922.060	389
922.157	122
922.255	805
922.352	523
922.450	843
922.548	-85
922.645	594
922.743	446
922.840	897
922.938	1001
923.035	1135
923.133	1772
923.230	929
923.327	1649
923.425	1462
923.522	1023
923.619	943
923.717	1452
923.814	1921
923.911	1047
924.008	1895
924.106	756
924.203	1269
924.300	1420
924.397	896
924.494	597
924.591	1052
924.688	473
924.786	488
924.883	810
924.979	1631
925.077	908
925.173	888
925.270	536
925.367	1035
925.464	1403
925.561	1453
925.658	1789
925.755	1129
925.852	1027
925.948	1379
926.045	1161
926.142	1284
926.239	1106
926.335	831
926.432	904
926.529	1019
926.625	897
926.722	995
926.818	672
926.915	464
927.011	651
927.108	725
927.204	477
927.301	1105
927.397	966
927.494	1476
927.590	1122
927.687	870
927.783	1233
927.879	823
927.976	1027
928.072	1409
928.168	1249
928.264	854
928.361	788
928.457	719
928.553	369
928.649	1108
928.745	521
928.841	1458
928.937	800
929.033	176
929.129	167
929.225	820
929.321	1384
929.417	1187
929.513	988
929.609	1086
929.705	438
929.801	299
929.897	502
929.993	730
930.089	674
930.184	307
930.280	1009
930.376	472
930.471	314
930.567	175
930.663	1064
930.758	1351
930.854	597
930.950	678
931.045	1081
931.141	1504
931.236	1716
931.332	755
931.427	-35
931.523	1581
931.618	1071
931.714	353
931.809	822
931.905	-50
932.000	411
932.095	779
932.191	898
932.286	308
932.381	378
932.476	923
932.572	604
932.667	531
932.762	1157
932.857	730
932.952	413
933.047	345
933.142	649
933.237	-28
933.332	195
933.427	1215
933.522	1098
933.617	-130
933.712	839
933.807	859
933.902	662
933.997	1166
934.092	661
934.187	1122
934.282	499
934.376	372
934.471	742
934.566	744
934.661	1127
934.755	308
934.850	1197
934.945	291
935.039	557
935.134	481
935.228	470
935.323	1100
935.417	655
935.512	15
935.606	195
935.701	862
935.795	923
935.890	332
935.984	689
936.079	762
936.173	433
936.267	441
936.362	212
936.456	1262
936.550	999
936.644	546
936.738	238
936.833	53
936.927	-50
937.021	281
937.115	208
937.209	603
937.303	622
937.397	296
937.491	1015
937.585	174
937.679	950
937.773	516
937.867	-223
937.961	1238
938.055	966
938.149	876
938.243	-110
938.337	471
938.430	921
938.524	902
938.618	289
938.712	617
938.805	681
938.899	463
938.993	357
939.086	-106
939.180	-44
939.274	1304
939.367	620
939.461	455
939.554	947
939.648	521
939.741	581
939.835	962
939.928	792
940.022	1231
940.115	219
940.208	414
940.302	835
940.395	926
940.488	106
940.582	683
940.675	1245
940.768	567
940.861	836
940.954	499
941.048	649
941.141	-24
941.234	824
941.327	880
941.420	1285
941.513	362
941.606	8
941.699	536
941.792	-35
941.885	554
941.978	38
942.071	723
942.164	1000
942.257	609
942.349	507
942.442	640
942.535	273
942.628	335
942.721	598
942.813	-126
942.906	324
942.999	723
943.091	645
943.184	581
943.277	-486
943.369	724
943.462	-208
943.554	317
943.647	-79
943.739	1018
943.832	220
943.924	-27
944.017	569
944.109	567
944.201	1109
944.294	628
944.386	383
944.478	-135
944.571	481
944.663	185
944.755	929
944.847	722
944.940	816
945.032	412
945.124	706
945.216	2090
945.308	526
945.400	502
945.492	314
945.584	1080
945.676	-300
945.768	1503
945.860	884
945.952	891
946.044	656
946.136	64
946.228	265
946.320	902
946.412	-139
946.503	893
946.595	1282
946.687	289
946.779	227
946.870	296
946.962	706
947.054	342
947.145	255
947.237	1265
947.329	73
947.420	653
947.512	367
947.603	609
947.695	913
947.786	-264
947.878	-89
947.969	76
948.061	176
948.152	883
948.243	-217
948.335	565
948.426	240
948.517	209
948.609	153
948.700	211
948.791	331
948.882	773
948.973	186
949.065	274
949.156	460
949.247	774
949.338	214
949.429	-277
949.520	-205
949.611	503
949.702	519
949.793	-200
949.884	-341
949.975	592
950.066	197
950.157	-539
950.247	14
950.338	-320
950.429	-12
950.520	417
950.611	809
950.701	974
950.792	-145
950.883	161
950.973	906
951.064	94
951.155	342
951.245	-599
951.336	747
951.427	228
951.517	364
951.608	58
951.698	1091
951.788	-2
951.879	329
951.969	542
952.060	524
952.150	299
952.240	209
952.331	-102
952.421	146
952.511	-814
952.602	466
952.692	-5
952.782	-37
952.872	357
952.962	-229
953.052	112
953.143	240
953.233	0
953.323	176
953.413	491
953.503	470
953.593	102
953.683	508
953.773	-473
953.863	-400
953.953	214
954.042	201
954.132	-343
954.222	504
954.312	175
954.402	-242
954.492	-242
954.581	677
954.671	524
954.761	-948
954.850	886
954.940	-301
955.030	332
955.119	-216
955.209	-904
955.298	-489
955.388	-552
955.477	289
955.567	51
955.656	134
955.746	434
955.835	105
955.925	17
956.014	795
956.103	358
956.193	-99
956.282	-215
956.371	758
956.461	-309
956.550	-213
956.639	169
956.728	-263
956.817	478
956.906	106
956.995	-339
957.085	449
957.174	-348
957.263	454
957.352	-137
957.441	622
957.530	969
957.619	-267
957.708	60
957.796	-581
957.885	-460
957.974	-158
958.063	664
958.152	-1021
958.241	201
958.329	-787
958.418	-215
958.507	-363
958.596	548
958.684	-587
958.773	184
958.861	-304
958.950	-213
959.039	950
959.127	-517
959.216	-132
959.304	-331
959.393	9
959.481	-718
959.570	213
959.658	325
959.746	-277
959.835	0
959.923	-119
960.011	-742
960.100	-266
960.188	620
960.276	-98
960.365	-539
960.453	-255
960.541	-376
960.629	-305
960.717	-182
960.805	-661
960.893	-269
960.981	-1219
961.069	392
961.158	-496
961.245	-134
961.333	259
961.421	-11
961.509	155
961.597	201
961.685	-188
961.773	-566
961.861	-115
961.949	318
962.036	-515
962.124	892
962.212	-81
962.299	-576
962.387	-322
962.475	-349
962.562	-873
962.650	90
962.738	-66
962.825	41
962.913	-92
963.000	-876
963.088	-196
963.175	266
963.263	-950
963.350	-508
963.438	-1064
963.525	-459
963.612	326
963.700	340
963.787	735
963.874	1135
963.962	-314
964.049	-100
964.136	-904
964.223	-678
964.310	-283
964.398	-843
964.485	-490
964.572	49
964.659	-64
964.746	53
964.833	-317
964.920	-145
965.007	100
965.094	173
965.181	-435
965.268	139
965.355	-771
965.441	-264
965.528	-959
965.615	281
965.702	-1061
965.789	-660
965.875	35
965.962	-602
966.049	-914
966.136	-181
966.222	-340
966.309	-160
966.395	-913
966.482	321
966.569	-1052
966.655	-576
966.742	-1157
966.828	-566
966.915	-800
967.001	-705
967.087	217
967.174	270
967.260	111
967.347	484
967.433	531
967.519	805
967.605	-526
967.692	-522
967.778	-439
967.864	-416
967.950	-713
968.036	-9
968.123	-321
968.209	-863
968.295	-1433
968.381	-428
968.467	-155
968.553	-782
968.639	-249
968.725	-181
968.811	-375
968.897	391
968.983	-656
969.069	-511
969.154	-91
969.240	178
969.326	-1062
969.412	-1773
969.497	-697
969.583	-1038
969.669	-31
969.755	-573
969.840	-418
969.926	-243
970.012	-858
970.097	77
970.183	-443
970.268	-342
970.354	-557
970.439	-226
970.525	-418
970.610	-357
970.696	-310
970.781	135
970.866	-1118
970.952	63
971.037	-275
971.122	-465
971.208	14
971.293	319
971.378	-1390
971.463	-919
971.549	-287
971.634	-1307
971.719	-255
971.804	-585
971.889	348
971.974	-1104
972.059	-775
972.144	-573
972.229	-177
972.314	-842
972.399	-351
972.484	-255
972.569	87
972.654	-256
972.739	-58
972.824	-330
972.908	-301
972.993	-294
973.078	-56
973.163	-225
973.247	-472
973.332	-1786
973.417	325
973.501	-1216
973.586	-955
973.671	-237
973.755	-482
973.840	-250
973.924	-789
974.009	-364
974.093	-1082
974.178	204
974.262	-357
974.346	-335
974.431	-304
974.515	-526
974.600	-276
974.684	-346
974.768	-1016
974.852	427
974.937	-531
975.021	29
975.105	-83
975.189	-569
975.273	-321
975.358	-1503
975.442	-678
975.526	497
975.610	-1019
975.694	-554
975.778	-351
975.862	-605
975.946	-1947
976.030	-36
976.114	-894
976.198	-600
976.281	-847
976.365	-604
976.449	-556
976.533	-401
976.617	-1389
976.700	-338
976.784	-398
976.868	-194
976.951	-677
977.035	-693
977.119	-849
977.202	-493
977.286	-386
977.369	-1199
977.453	-1061
977.536	-1047
977.620	-189
977.703	-415
977.787	-734
977.870	642
977.953	288
978.037	-1068
978.120	246
978.203	-561
978.287	583
978.370	149
978.453	-754
978.536	-789
978.620	-210
978.703	-374
978.786	-494
978.869	-954
978.952	-1388
979.035	557
979.118	62
979.201	-799
979.284	107
979.367	-1158
979.450	-1351
979.533	-397
979.616	-1034
979.699	-1014
979.782	-578
979.865	-839
979.948	-463
980.030	-814
980.113	184
980.196	-798
980.279	56
980.361	-587
980.444	-964
980.526	-283
980.609	-666
980.692	-791
980.774	-217
980.857	-1656
980.939	-297
981.022	-788
981.104	-825
981.187	-1161
981.269	-137
981.352	-769
981.434	-1321
981.516	-842
981.599	258
981.681	-612
981.763	-600
981.846	-803
981.928	-422
982.010	-1088
982.092	-921
982.174	-488
982.256	-1051
982.339	-552
982.421	-450
982.503	-444
982.585	-1227
982.667	-667
982.749	-207
982.831	-334
982.913	-2142
982.995	-747
983.077	-1884
983.158	-293
983.240	-1105
983.322	604
983.404	-314
983.486	-1116
983.568	-257
983.649	-1044
983.731	-497
983.813	-1211
983.894	-971
983.976	-379
984.058	-1158
984.139	-36
984.221	-1339
984.302	-644
984.384	-746
984.465	-970
984.547	-308
984.628	-1378
984.710	-830
984.791	-1403
984.872	-1045
984.954	-814
985.035	-1417
985.116	-1303
985.198	-1034
985.279	-580
985.360	-582
985.441	-1381
985.522	-576
985.604	-1615
985.685	-2098
985.766	-485
985.847	96
985.928	-1132
986.009	-789
986.090	-1233
986.171	-877
986.252	-1242
986.333	-1545
986.414	-401
986.495	-1013
986.576	-1090
986.656	-814
986.737	-433
986.818	-1879
986.899	-1157
986.980	-1461
987.060	-372
987.141	-1340
987.222	-1426
987.302	-1257
987.383	-994
987.464	-1524
987.544	-732
987.625	-1072
987.705	-859
987.786	-1427
987.866	-1842
987.947	-1200
988.027	-1214
988.108	-1043
988.188	-547
988.268	-2054
988.349	-724
988.429	-1100
988.509	-709
988.589	-1242
988.670	-2686
988.750	-193
988.830	-1586
988.910	-874
988.990	-1654
989.070	-1282
989.151	-1079
989.231	-987
989.311	-1030
989.391	-843
989.471	-1192
989.551	-1032
989.631	-1289
989.711	-1918
989.791	-2344
989.870	-2086
989.950	-100
990.030	-1791
990.110	-972
990.190	-1566
990.269	-1352
990.349	-665
990.429	-973
990.509	-753
990.588	-1587
990.668	-1031
990.747	-1360
990.827	-1959
990.907	-892
990.986	-764
991.066	-1259
991.145	-1693
991.225	-576
991.304	-1309
991.383	-1561
991.463	-2221
991.542	-547
991.622	-1304
991.701	-1939
991.780	-1290
991.859	-1569
991.939	-1777
992.018	-1542
992.097	-1016
992.176	-890
992.256	-1692
992.335	-1459
992.414	-545
992.493	-1628
992.572	-2059
992.651	-510
992.730	-1133
992.809	-865
992.888	-1480
992.967	-1741
993.046	-1241
993.125	-1895
993.203	-834
993.282	-1273
993.361	-1312
993.440	-1085
993.519	-2298
993.597	-1220
993.676	-2667
993.755	-691
993.834	-1608
993.912	-1116
993.991	-1567
994.069	-2630
994.148	-1632
994.226	-1801
994.305	-1849
994.384	-2168
994.462	-1224
994.540	-2367
994.619	-2115
994.697	-1475
994.776	-2119
994.854	-668
994.932	-1874
995.011	-1569
995.089	-1626
995.167	-1662
995.245	-1592
995.324	-2565
995.402	-839
995.480	-1414
995.558	-1771
995.636	-2208
995.714	-2187
995.792	-1049
995.870	-2723
995.948	-1231
996.026	-2558
996.104	-1227
996.182	-978
996.260	-1669
996.338	-1738
996.416	-2342
996.494	-2161
996.572	-252
996.649	-1616
996.727	-2253
996.805	-1529
996.883	-2219
996.960	-1418
997.038	-2280
997.116	-862
997.193	-2059
997.271	-1117
997.348	-1488
997.426	-1518
997.504	-1917
997.581	-1242
997.658	-1053
997.736	-2000
997.813	-2117
997.891	-1430
997.968	-2236
998.046	-1912
998.123	-3117
998.200	-1097
998.277	-2323
998.355	-1765
998.432	-1919
998.509	-1856
998.586	-1258
998.663	-2614
998.741	-1856
998.818	-1462
998.895	-1480
998.972	-1738
999.049	-1255
999.126	-2452
999.203	-1335
999.280	-761
999.357	-3376
999.434	-1796
999.511	-1432
999.587	-2024
999.664	-2373
999.741	-1400
999.818	-2108
999.895	-2444
999.971	-2364
1000.048	-2045
1000.125	-1489
1000.202	-2790
1000.278	-1616
1000.355	-2284
1000.431	-2027
1000.508	-2135
1000.584	-1105
1000.661	-1453
1000.738	-1754
1000.814	-2451
1000.890	-1640
1000.967	-2691
1001.043	-1893
1001.120	-3096
1001.196	-1534
1001.272	-2425
1001.349	-1818
1001.425	-1641
1001.501	-2141
1001.577	-2428
1001.654	-2159
1001.730	-1652
1001.806	-1634
1001.882	-2003
1001.958	-1554
1002.034	-1512
1002.110	-1722
1002.186	-2030
1002.262	-2174
1002.338	-2645
1002.414	-1444
1002.490	-1783
1002.566	-1988
1002.642	-2602
1002.718	-2125
1002.794	-2197
1002.870	-1726
1002.945	-3035
1003.021	-1763
1003.097	-1582
1003.173	-1495
1003.248	-2205
1003.324	-2271
1003.400	-1700
1003.475	-2461
1003.551	-2257
1003.626	-2191
1003.702	-2381
1003.777	-2446
1003.853	-2369
1003.928	-2683
1004.004	-1698
1004.079	-1633
1004.155	-2110
1004.230	-2856
1004.305	-1241
1004.381	-1775
1004.456	-2226
1004.531	-2637
1004.607	-2293
1004.682	-1477
1004.757	-1863
1004.832	-2161
1004.907	-2943
1004.982	-872
1005.057	-2378
1005.133	-2779
1005.208	-1417
1005.283	-1532
1005.358	-2359
1005.433	-2766
1005.508	-1783
1005.583	-2527
1005.657	-1849
1005.732	-1569
1005.807	-2738
1005.882	-1873
1005.957	-2259
1006.032	-2064
1006.106	-1735
1006.181	-2277
1006.256	-1939
1006.331	-2798
1006.405	-2601
1006.480	-1789
1006.554	-1619
1006.629	-2078
1006.704	-2444
1006.778	-1657
1006.853	-2072
1006.927	-1847
1007.002	-2921
1007.076	-1654
1007.150	-1968
1007.225	-1511
1007.299	-1802
1007.373	-2671
1007.448	-2002
1007.522	-1673
1007.596	-2001
1007.671	-1649
1007.745	-829
1007.819	-2061
1007.893	-2512
1007.967	-1584
1008.041	-2819
1008.115	-2807
1008.190	-1982
1008.264	-1380
1008.338	-3304
1008.412	-2155
1008.486	-1285
1008.560	-1222
1008.633	-1749
1008.707	-2187
1008.781	-1662
1008.855	-2049
1008.929	-2723
1009.003	-2960
1009.076	-2804
1009.150	-2228
1009.224	-1679
1009.298	-2394
1009.371	-2203
1009.445	-2289
1009.519	-2222
1009.592	-2912
1009.666	-1635
1009.739	-1664
1009.813	-2803
1009.886	-740
1009.960	-2714
1010.033	-1338
1010.107	-1072
1010.180	-1921
1010.253	-2725
1010.327	-2163
1010.400	-1621
1010.473	-1717
1010.547	-1297
1010.620	-1737
1010.693	-2052
1010.766	-2718
1010.840	-1842
1010.913	-1783
1010.986	-1954
1011.059	-1933
1011.132	-1893
1011.205	-1430
1011.278	-2305
1011.351	-1507
1011.424	-1926
1011.497	-2328
1011.570	-1847
1011.643	-1586
1011.716	-2675
1011.789	-2254
1011.862	-1564
1011.934	-1418
1012.007	-2547
1012.080	-1747
1012.153	-1869
1012.225	-503
1012.298	-1914
1012.371	-2080
1012.443	-2120
1012.516	-2062
1012.588	-1055
1012.661	-1452
1012.733	-2079
1012.806	-1023
1012.879	-2147
1012.951	-2353
1013.023	-2421
1013.096	-1966
1013.168	-2009
1013.241	-1039
1013.313	-2408
1013.385	-2030
1013.458	-2023
1013.530	-1592
1013.602	-2428
1013.674	-1538
1013.746	-2230
1013.819	-1953
1013.891	-1798
1013.963	-2696
1014.035	-1830
1014.107	-2039
1014.179	-2340
1014.251	-1959
1014.323	-1246
1014.395	-1643
1014.467	-2220
1014.539	-1939
1014.611	-2067
1014.683	-1378
1014.754	-1499
1014.826	-1807
1014.898	-1321
1014.970	-2852
1015.042	-1299
1015.113	-2059
1015.185	-1989
1015.257	-2226
1015.328	-1895
1015.400	-2068
1015.471	-1977
1015.543	-2837
1015.615	-1736
1015.686	-2076
1015.757	-2461
1015.829	-2236
1015.901	-2152
1015.972	-1658
1016.043	-2056
1016.115	-1846
1016.186	-1379
1016.257	-2201
1016.328	-2129
1016.400	-1067
1016.471	-2694
1016.542	-1670
1016.613	-1253
1016.685	-2457
1016.756	-2202
1016.827	-740
1016.898	-2317
1016.969	-1130
1017.040	-1918
1017.111	-1963
1017.182	-1933
1017.253	-1806
1017.324	-2361
1017.395	-1945
1017.466	-1687
1017.537	-1490
1017.608	-1679
1017.678	-1401
1017.749	-2348
1017.820	-2088
1017.891	-2438
1017.961	-2353
1018.032	-1868
1018.103	-1884
1018.173	-1765
1018.244	-2544
1018.315	-1887
1018.385	-1164
1018.456	-2369
1018.526	-1807
1018.597	-2651
1018.667	-1905
1018.738	-2302
1018.808	-1513
1018.878	-1993
1018.949	-2187
1019.019	-2062
1019.089	-1706
1019.160	-1947
1019.230	-1887
1019.300	-599
1019.371	-1648
1019.441	-1844
1019.511	-1600
1019.581	-1573
1019.651	-1921
1019.721	-1735
1019.791	-1005
1019.861	-2290
1019.931	-2324
1020.001	-2758
1020.071	-2335
1020.141	-1836
1020.211	-2315
1020.281	-2002
1020.351	-2237
1020.421	-1251
1020.491	-1344
1020.560	-1834
1020.630	-2346
1020.700	-2251
1020.770	-1346
1020.839	-1656
1020.909	-1316
1020.979	-2084
1021.048	-1764
1021.118	-2042
1021.187	-1896
1021.257	-1546
1021.326	-2047
1021.396	-1970
1021.465	-1140
1021.535	-1972
1021.604	-1930
1021.674	-1465
1021.743	-1820
1021.812	-2326
1021.882	-1176
1021.951	-2161
1022.020	-2161
1022.089	-1974
1022.159	-2100
1022.228	-2124
1022.297	-2141
1022.366	-2755
1022.435	-1608
1022.504	-2413
1022.573	-1901
1022.642	-1757
1022.711	-3015
1022.781	-2381
1022.849	-1820
1022.918	-2299
1022.987	-1691
1023.056	-2456
1023.125	-1113
1023.194	-2072
1023.263	-1695
1023.331	-1747
1023.400	-1776
1023.469	-2410
1023.538	-1406
1023.606	-2299
1023.675	-1780
1023.744	-2364
1023.812	-1734
1023.881	-1500
1023.949	-2117
1024.018	-2173
1024.086	-2181
1024.155	-2246
1024.223	-1827
1024.292	-1835
1024.360	-1458
1024.429	-1493
1024.497	-2265
1024.565	-1521
1024.634	-2239
1024.702	-2386
1024.770	-2272
1024.838	-2097
1024.907	-1537
1024.975	-1842
1025.043	-2340
1025.111	-2422
1025.179	-1411
1025.247	-2491
1025.315	-1632
1025.383	-2535
1025.451	-2648
1025.519	-2484
1025.587	-1472
1025.655	-2284
1025.723	-2093
1025.791	-2463
1025.859	-1495
1025.927	-1523
1025.995	-1717
1026.062	-1538
1026.130	-1493
1026.198	-1828
1026.266	-1586
1026.333	-1205
1026.401	-2022
1026.469	-2143
1026.536	-1772
1026.604	-2494
1026.671	-2652
1026.739	-1998
1026.806	-1801
1026.874	-2219
1026.941	-2078
1027.009	-2223
1027.076	-2650
1027.144	-1779
1027.211	-2444
1027.278	-1868
1027.345	-1814
1027.413	-1791
1027.480	-2455
1027.547	-1628
1027.614	-2047
1027.682	-1952
1027.749	-2463
1027.816	-2769
1027.883	-1781
1027.950	-2146
1028.017	-2722
1028.084	-1375
1028.151	-2894
1028.218	-1733
1028.285	-2626
1028.352	-2618
1028.419	-2553
1028.486	-1823
1028.553	-2222
1028.619	-1832
1028.686	-1918
1028.753	-1209
1028.820	-1938
1028.886	-1716
1028.953	-1464
1029.020	-2177
1029.086	-1803
1029.153	-2560
1029.220	-3160
1029.286	-2397
1029.353	-1626
1029.419	-2428
1029.486	-2276
1029.552	-1643
1029.619	-2043
1029.685	-1932
1029.751	-1994
1029.818	-1387
1029.884	-2081
1029.951	-1672
1030.017	-2149
1030.083	-1924
1030.149	-2152
1030.216	-2288
1030.282	-1897
1030.348	-2451
1030.414	-2718
1030.480	-2454
1030.546	-2618
1030.612	-2187
1030.678	-2710
1030.744	-2011
1030.810	-2447
1030.876	-2657
1030.942	-2638
1031.008	-2314
1031.074	-2802
1031.140	-2397
1031.206	-1802
1031.272	-2479
1031.337	-2434
1031.403	-2019
1031.469	-2193
1031.534	-2366
1031.600	-1735
1031.666	-1960
1031.731	-2528
1031.797	-2438
1031.863	-2067
1031.928	-2552
1031.994	-2832
1032.059	-2302
1032.125	-1731
1032.190	-2002
1032.256	-3003
1032.321	-2766
1032.386	-2058
1032.452	-1750
1032.517	-2376
1032.582	-2962
1032.647	-2359
1032.713	-2596
1032.778	-2594
1032.843	-2644
1032.908	-2667
1032.974	-2249
1033.039	-3215
1033.104	-2134
1033.169	-2279
1033.234	-2520
1033.299	-2150
1033.364	-2251
1033.429	-2463
1033.494	-1388
1033.559	-2454
1033.624	-2407
1033.688	-2464
1033.753	-2444
1033.818	-2695
1033.883	-1812
1033.948	-2053
1034.013	-2327
1034.077	-2328
1034.142	-2497
1034.207	-2037
1034.271	-2480
1034.336	-1408
1034.400	-1776
1034.465	-2280
1034.530	-2456
1034.594	-2169
1034.658	-2178
1034.723	-2673
1034.787	-2269
1034.852	-2680
1034.916	-2557
1034.981	-2780
1035.045	-2219
1035.109	-2735
1035.173	-2297
1035.238	-2759
1035.302	-1603
1035.366	-1928
1035.430	-2273
1035.495	-1749
1035.559	-2631
1035.623	-2405
1035.687	-2907
1035.751	-2734
1035.815	-2920
1035.879	-2599
1035.943	-3181
1036.007	-3076
1036.071	-2495
1036.135	-2806
1036.198	-2587
1036.262	-2297
1036.326	-2161
1036.390	-1816
1036.454	-2224
1036.517	-1781
1036.581	-1882
1036.645	-1897
1036.709	-1937
1036.772	-2306
1036.836	-2857
1036.900	-2221
1036.963	-2502
1037.026	-1837
1037.090	-3671
1037.154	-3048
1037.217	-2796
1037.280	-2807
1037.344	-2108
1037.407	-2781
1037.471	-2871
1037.534	-2054
1037.597	-2356
1037.661	-3075
1037.724	-2806
1037.787	-2054
1037.850	-2684
1037.913	-2647
1037.977	-2239
1038.040	-2906
1038.103	-2641
1038.166	-3045
1038.229	-2545
1038.292	-2433
1038.355	-3167
1038.418	-2359
1038.481	-2691
1038.544	-2663
1038.607	-2614
1038.670	-3135
1038.732	-2243
1038.795	-1974
1038.858	-1971
1038.921	-2517
1038.984	-1986
1039.046	-1821
1039.109	-2183
1039.172	-1981
1039.234	-2784
1039.297	-2418
1039.360	-2840
1039.422	-2071
1039.485	-2713
1039.547	-2229
1039.610	-2874
1039.672	-1907
1039.734	-2155
1039.797	-2931
1039.859	-2627
1039.922	-3075
1039.984	-2320
1040.046	-2933
1040.109	-2177
1040.171	-2713
1040.233	-1717
1040.295	-1795
1040.358	-3233
1040.420	-2121
1040.482	-2381
1040.544	-3058
1040.606	-2670
1040.668	-2062
1040.730	-2184
1040.792	-2394
1040.854	-2666
1040.916	-1958
1040.978	-3420
1041.040	-1649
1041.102	-2069
1041.164	-2228
1041.225	-2563
1041.287	-2709
1041.349	-2270
1041.411	-1627
1041.472	-2163
1041.534	-2032
1041.596	-2913
1041.657	-2377
1041.719	-2577
1041.781	-1797
1041.842	-2707
1041.904	-1786
1041.965	-2662
1042.027	-1502
1042.088	-1629
1042.150	-2727
1042.211	-2287
1042.272	-1699
1042.334	-1843
1042.395	-2842
1042.456	-2756
1042.518	-2203
1042.579	-1733
1042.640	-2427
1042.701	-2403
1042.763	-2787
1042.824	-1731
1042.885	-1819
1042.946	-1709
1043.007	-2333
1043.068	-2416
1043.129	-1909
1043.190	-2777
1043.251	-1516
1043.312	-1980
1043.373	-1946
1043.434	-2402
1043.495	-2426
1043.556	-1636
1043.616	-1909
1043.677	-2457
1043.738	-1680
1043.799	-2402
1043.859	-1541
1043.920	-2798
1043.981	-2062
1044.041	-2661
1044.102	-2643
1044.162	-1877
1044.223	-1881
1044.284	-2075
1044.344	-1673
1044.405	-2128
1044.465	-1633
1044.525	-2061
1044.586	-2315
1044.646	-2270
1044.707	-2042
1044.767	-1355
1044.827	-2557
1044.887	-1859
1044.948	-1814
1045.008	-1612
1045.068	-1265
1045.128	-2324
1045.188	-2427
1045.249	-1717
1045.309	-2497
1045.369	-2083
1045.429	-1770
1045.489	-2426
1045.549	-2051
1045.609	-1701
1045.669	-1499
1045.729	-1844
1045.789	-1863
1045.848	-1779
1045.908	-874
1045.968	-1744
1046.028	-1840
1046.088	-1535
1046.147	-970
1046.207	-1780
1046.267	-2106
1046.326	-1252
1046.386	-1519
1046.446	-1173
1046.505	-1290
1046.565	-659
1046.624	-772
1046.684	-1171
1046.743	-790
1046.803	-610
1046.862	-601
1046.922	0
