'Start Wavelength	183.907
'End Wavelength	1046.922
'Gate Delay	5.000
'Gate Width (ms)	1.050
'Laser Output Level	0.000
'X Position	0.000
'Y Position	0.000
'Z Position	0.000
'Grid Point Number	1.000
'Shot Number	100.000
183.907	113.000
183.977	418.000
184.047	95
184.116	-71
184.186	218
184.256	182
184.325	-615
184.395	-43
184.465	612
184.534	156
184.604	-354
184.674	256
184.743	-94
184.813	963
184.883	-167
184.952	-760
185.022	526
185.092	-161
185.161	-24
185.231	545
185.301	258
185.370	315
185.440	-798
185.509	36
185.579	-14
185.649	356
185.718	191
185.788	387
185.857	691
185.927	-409
185.996	407
186.066	-225
186.136	-266
186.205	-88
186.275	219
186.344	311
186.414	246
186.483	-82
186.553	348
186.622	920
186.692	-377
186.761	-291
186.831	-562
186.900	-243
186.970	654
187.039	24
187.109	520
187.178	-138
187.248	-362
187.317	295
187.387	138
187.456	224
187.526	-391
187.595	-98
187.664	-260
187.734	587
187.803	673
187.873	1225
187.942	1095
188.012	307
188.081	26
188.150	1206
188.220	438
188.289	489
188.358	505
188.428	1018
188.497	-564
188.567	826
188.636	34
188.705	-426
188.775	165
188.844	377
188.913	341
188.983	128
189.052	-263
189.121	156
189.191	-265
189.260	1060
189.329	450
189.399	187
189.468	-471
189.537	580
189.606	770
189.676	825
189.745	90
189.814	761
189.883	-364
189.953	-242
190.022	412
190.091	1099
190.161	875
190.230	510
190.299	74
190.368	3
190.437	-664
190.507	-33
190.576	257
190.645	295
190.714	222
190.783	267
190.853	213
190.922	294
190.991	-62
191.060	-222
191.129	-432
191.198	-510
191.268	63
191.337	431
191.406	104
191.475	418
191.544	-344
191.613	495
191.682	-446
191.752	410
191.821	-240
191.890	120
191.959	-181
192.028	373
192.097	103
192.166	495
192.235	92
192.304	668
192.373	-35
192.442	650
192.511	314
192.580	83
192.650	233
192.719	1180
192.788	46
192.857	1475
192.926	595
192.995	169
193.064	-8
193.133	919
193.202	1263
193.271	862
193.340	512
193.409	1464
193.478	296
193.547	467
193.615	1640
193.684	1270
193.753	1206
193.822	1241
193.891	91
193.960	846
194.029	23
194.098	698
194.167	52
194.236	504
194.305	238
194.374	692
194.443	-398
194.512	637
194.580	384
194.649	816
194.718	671
194.787	752
194.856	160
194.925	877
194.994	107
195.062	1189
195.131	241
195.200	1342
195.269	1372
195.338	379
195.407	18
195.475	740
195.544	717
195.613	1155
195.682	943
195.751	519
195.819	1041
195.888	676
195.957	1211
196.026	819
196.094	937
196.163	1348
196.232	647
196.301	316
196.369	207
196.438	498
196.507	472
196.576	813
196.644	825
196.713	-457
196.782	740
196.850	866
196.919	119
196.988	594
197.056	-37
197.125	601
197.194	-368
197.262	636
197.331	261
197.400	235
197.468	-113
197.537	754
197.606	900
197.674	1113
197.743	1897
197.812	627
197.880	1088
197.949	1435
198.017	1371
198.086	880
198.155	98
198.223	537
198.292	1682
198.360	1127
198.429	-207
198.497	228
198.566	1276
198.635	1878
198.703	845
198.772	1057
198.840	1297
198.909	1847
198.977	630
199.046	711
199.114	204
199.183	822
199.251	1048
199.320	507
199.388	380
199.457	104
199.525	611
199.594	680
199.662	-108
199.731	504
199.799	469
199.867	705
199.936	785
200.004	916
200.073	466
200.141	865
200.210	462
200.278	841
200.346	176
200.415	538
200.483	286
200.552	998
200.620	314
200.688	994
200.757	144
200.825	1249
200.893	661
200.962	836
201.030	-205
201.098	620
201.167	257
201.235	849
201.303	1198
201.372	1079
201.440	96
201.508	1217
201.577	202
201.645	352
201.713	893
201.781	673
201.850	834
201.918	186
201.986	354
202.055	912
202.123	-47
202.191	1310
202.259	1135
202.327	529
202.396	-48
202.464	774
202.532	723
202.600	2599
202.669	1304
202.737	1662
202.805	1421
202.873	354
202.941	736
203.009	1265
203.078	856
203.146	836
203.214	-273
203.282	671
203.350	1165
203.418	981
203.487	492
203.555	366
203.623	132
203.691	1036
203.759	-80
203.827	488
203.895	449
203.963	1115
204.031	611
204.099	733
204.168	59
204.236	1897
204.304	681
204.372	1558
204.440	227
204.508	1338
204.576	405
204.644	624
204.712	-537
204.780	1689
204.848	1284
204.916	1678
204.984	1122
205.052	1133
205.120	952
205.188	380
205.256	619
205.324	1350
205.392	652
205.460	1255
205.528	80
205.596	834
205.664	1133
205.732	774
205.799	2487
205.867	3269
205.935	1049
206.003	1905
206.071	372
206.139	1333
206.207	552
206.275	854
206.343	663
206.411	1115
206.478	886
206.546	959
206.614	699
206.682	1212
206.750	953
206.818	2262
206.885	823
206.953	-368
207.021	653
207.089	1708
207.157	591
207.225	1200
207.292	444
207.360	964
207.428	592
207.496	872
207.563	614
207.631	1654
207.699	244
207.767	1154
207.834	805
207.902	1249
207.970	999
208.038	488
208.105	961
208.173	1662
208.241	1809
208.309	1823
208.376	1090
208.444	2163
208.512	1130
208.579	171
208.647	1118
208.715	1857
208.782	1159
208.850	1643
208.918	877
208.985	642
209.053	1061
209.120	1168
209.188	251
209.256	1642
209.323	336
209.391	1757
209.459	1858
209.526	475
209.594	1399
209.661	1925
209.729	506
209.796	1532
209.864	1453
209.932	394
209.999	1886
210.067	1731
210.134	1364
210.202	2037
210.269	1737
210.337	3065
210.404	601
210.472	1209
210.539	1847
210.607	999
210.674	2144
210.742	1887
210.809	1063
210.877	2062
210.944	1677
211.012	1345
211.079	2295
211.146	1441
211.214	1264
211.281	1759
211.349	1217
211.416	1248
211.484	1875
211.551	1544
211.618	793
211.686	1409
211.753	1805
211.821	2085
211.888	1657
211.955	2210
212.023	1411
212.090	1930
212.157	842
212.225	1702
212.292	2601
212.359	4050
212.427	8925
212.494	4976
212.561	2236
212.629	1472
212.696	2046
212.763	2888
212.831	1015
212.898	1850
212.965	1071
213.032	1249
213.100	1226
213.167	1868
213.234	1942
213.301	1788
213.369	1261
213.436	1719
213.503	1007
213.570	1951
213.638	1251
213.705	793
213.772	854
213.839	2040
213.906	2124
213.973	2189
214.041	1557
214.108	1967
214.175	2149
214.242	2092
214.309	1400
214.376	1350
214.444	1812
214.511	1256
214.578	995
214.645	2087
214.712	1710
214.779	2714
214.846	1604
214.913	2919
214.980	2270
215.048	3156
215.115	2487
215.182	2696
215.249	1736
215.316	1779
215.383	2260
215.450	1037
215.517	1032
215.584	1461
215.651	1643
215.718	1865
215.785	1920
215.852	1601
215.919	2081
215.986	2584
216.053	1806
216.120	885
216.187	1623
216.254	2405
216.321	1128
216.388	1813
216.455	2425
216.522	2350
216.589	1591
216.656	3544
216.722	3549
216.789	3832
216.856	3077
216.923	3237
216.990	2594
217.057	3249
217.124	2467
217.191	2801
217.258	3684
217.324	5072
217.391	5013
217.458	3196
217.525	2092
217.592	2752
217.659	1536
217.725	3513
217.792	2940
217.859	3104
217.926	1425
217.993	1824
218.059	1829
218.126	2131
218.193	1762
218.260	1751
218.327	676
218.393	2208
218.460	993
218.527	870
218.594	1085
218.660	2833
218.727	2602
218.794	1265
218.860	1811
218.927	1240
218.994	2161
219.061	1499
219.127	1349
219.194	2251
219.261	1049
219.327	1326
219.394	1241
219.461	940
219.527	912
219.594	1846
219.661	1543
219.727	622
219.794	910
219.860	1476
219.927	1375
219.994	2656
220.060	3496
220.127	3376
220.193	2035
220.260	2538
220.326	3173
220.393	6188
220.460	7263
220.526	4478
220.593	2838
220.659	3862
220.726	3143
220.792	6163
220.859	5551
220.925	9617
220.992	12031
221.058	10641
221.125	8152
221.191	6228
221.258	2723
221.324	2333
221.391	2186
221.457	1964
221.524	1525
221.590	2703
221.657	6234
221.723	4842
221.789	4570
221.856	4569
221.922	2600
221.989	2129
222.055	1321
222.121	1453
222.188	3394
222.254	911
222.321	1502
222.387	1500
222.453	1361
222.520	818
222.586	1040
222.652	2141
222.719	555
222.785	1837
222.851	567
222.918	1069
222.984	1761
223.050	1333
223.116	433
223.183	1883
223.249	334
223.315	1123
223.382	1175
223.448	831
223.514	775
223.580	1015
223.647	946
223.713	604
223.779	1044
223.845	654
223.911	1495
223.978	438
224.044	1529
224.110	1422
224.176	1226
224.242	1253
224.309	345
224.375	1482
224.441	571
224.507	896
224.573	215
224.639	1242
224.705	302
224.772	1248
224.838	851
224.904	2141
224.970	815
225.036	1234
225.102	1020
225.168	1759
225.234	1526
225.300	1322
225.366	538
225.432	998
225.499	1362
225.565	1449
225.631	893
225.697	1946
225.763	1526
225.829	2494
225.895	2355
225.961	3243
226.027	2906
226.093	1853
226.159	3403
226.225	4647
226.291	11906
226.357	16315
226.423	9032
226.489	5301
226.554	3526
226.620	3604
226.686	4373
226.752	6866
226.818	9574
226.884	19362
226.950	16663
227.016	7093
227.082	4778
227.148	3964
227.214	3256
227.279	2519
227.345	1698
227.411	2767
227.477	2253
227.543	5168
227.609	5479
227.674	2983
227.740	2044
227.806	2616
227.872	1462
227.938	1951
228.003	2638
228.069	1932
228.135	1187
228.201	1506
228.267	959
228.332	1637
228.398	1774
228.464	1731
228.530	71
228.595	945
228.661	702
228.727	2729
228.792	2669
228.858	1151
228.924	233
228.990	3182
229.055	1401
229.121	2802
229.187	809
229.252	1597
229.318	670
229.384	1639
229.449	1663
229.515	728
229.581	-369
229.646	2948
229.712	1692
229.777	2942
229.843	3271
229.909	3406
229.974	3037
230.040	3607
230.105	1764
230.171	1602
230.236	3593
230.302	4361
230.368	2815
230.433	2063
230.499	1853
230.564	2723
230.630	1740
230.695	1718
230.761	1719
230.826	462
230.892	3519
230.957	1606
231.023	551
231.088	2417
231.154	1287
231.219	2113
231.284	1958
231.350	3526
231.415	936
231.481	2614
231.546	1189
231.612	1167
231.677	937
231.742	857
231.808	1860
231.873	1310
231.939	267
232.004	3734
232.069	2622
232.135	2121
232.200	1135
232.265	1602
232.331	696
232.396	1153
232.461	584
232.527	926
232.592	1238
232.657	1428
232.723	2576
232.788	1969
232.853	1744
232.918	1510
232.984	618
233.049	529
233.114	1338
233.179	2160
233.245	3206
233.310	4113
233.375	707
233.440	1754
233.506	291
233.571	1070
233.636	1076
233.701	1316
233.766	2398
233.832	3136
233.897	1503
233.962	1066
234.027	2474
234.092	1300
234.157	1479
234.222	1089
234.288	1969
234.353	7092
234.418	6050
234.483	4249
234.548	2747
234.613	3012
234.678	2286
234.743	3209
234.808	7766
234.873	5002
234.938	2949
235.004	1841
235.069	1915
235.134	1315
235.199	1615
235.264	1718
235.329	698
235.394	2220
235.459	2471
235.524	2269
235.589	1580
235.654	1815
235.719	632
235.784	2029
235.849	2054
235.913	2780
235.978	4728
236.043	4284
236.108	2390
236.173	2498
236.238	1985
236.303	1846
236.368	1385
236.433	3627
236.498	4642
236.563	4468
236.627	8415
236.692	24875
236.757	18756
236.822	8085
236.887	6196
236.952	5615
237.017	3899
237.081	4518
237.146	5848
237.211	12775
237.276	24580
237.341	35312
237.405	17050
237.470	7780
237.535	6313
237.600	4012
237.664	3486
237.729	2204
237.794	4610
237.859	9956
237.923	4833
237.988	3061
238.053	3801
238.118	4201
238.182	9809
238.247	7888
238.312	3632
238.376	2975
238.441	1939
238.506	2824
238.570	872
238.635	2302
238.700	1407
238.764	1106
238.829	4146
238.893	5250
238.958	3052
239.023	3706
239.087	1363
239.152	2521
239.216	1035
239.281	1902
239.346	1186
239.410	1937
239.475	1578
239.539	9412
239.604	5621
239.668	3069
239.733	1562
239.797	2648
239.862	8380
239.926	8516
239.991	3464
240.055	2439
240.120	1692
240.184	2240
240.249	1213
240.313	415
240.378	1911
240.442	5614
240.507	8240
240.571	2479
240.635	3716
240.700	4577
240.764	2456
240.829	2326
240.893	877
240.957	1930
241.022	5609
241.086	8269
241.151	3399
241.215	1479
241.279	2730
241.344	4966
241.408	3559
241.472	2995
241.537	3403
241.601	3082
241.665	1449
241.730	2633
241.794	2742
241.858	2529
241.922	2012
241.987	3188
242.051	1595
242.115	2089
242.179	2358
242.244	1540
242.308	2169
242.372	2082
242.436	2550
242.501	2050
242.565	1292
242.629	1316
242.693	2056
242.757	2037
242.822	1959
242.886	2441
242.950	2378
243.014	2585
243.078	2767
243.142	3142
243.206	1733
243.271	2550
243.335	2122
243.399	4036
243.463	13111
243.527	31063
243.591	9289
243.655	5405
243.719	2633
243.783	4216
243.847	4973
243.911	6629
243.975	6941
244.040	5842
244.104	4157
244.168	2015
244.232	4752
244.296	5791
244.360	5744
244.424	3522
244.488	2607
244.552	2838
244.615	1201
244.679	1535
244.743	2869
244.807	2295
244.871	2104
244.935	2075
244.999	860
245.063	3034
245.127	3043
245.191	4535
245.255	4339
245.319	3546
245.383	2708
245.446	3033
245.510	1855
245.574	2676
245.638	2589
245.702	2524
245.766	6920
245.829	4616
245.893	2779
245.957	2418
246.021	3256
246.085	2690
246.149	3448
246.212	9438
246.276	10936
246.340	5920
246.404	4718
246.467	4448
246.531	4547
246.595	4037
246.659	3242
246.722	2853
246.786	4930
246.850	5026
246.913	5686
246.977	2556
247.041	3119
247.104	3395
247.168	3071
247.232	9331
247.295	15226
247.359	7378
247.423	3579
247.486	6905
247.550	4825
247.614	3908
247.677	5675
247.741	3270
247.804	2497
247.868	3628
247.932	7394
247.995	14473
248.059	5791
248.122	2982
248.186	4426
248.249	8060
248.313	24068
248.376	24602
248.440	15052
248.503	5565
248.567	6398
248.630	7640
248.694	12194
248.757	15091
248.821	24621
248.884	16813
248.948	14202
249.011	20491
249.075	28379
249.138	25297
249.202	11116
249.265	7339
249.328	8569
249.392	6570
249.455	5210
249.519	4622
249.582	5476
249.645	9301
249.709	5717
249.772	4364
249.835	4713
249.899	4157
249.962	3863
250.025	4074
250.089	10678
250.152	14111
250.215	7292
250.279	4955
250.342	5418
250.405	4842
250.468	3749
250.532	6485
250.595	9822
250.658	31808
250.721	45029
250.785	18262
250.848	10364
250.911	6761
250.974	6137
251.038	8597
251.101	15336
251.164	7942
251.227	8319
251.290	8876
251.354	11632
251.417	43877
251.480	38736
251.543	30146
251.606	73639
251.669	52579
251.732	22076
251.795	23048
251.859	23593
251.922	47931
251.985	27759
252.048	11471
252.111	8763
252.174	8664
252.237	15609
252.300	31148
252.363	35224
252.426	58431
252.489	25594
252.552	13269
252.615	8897
252.678	10424
252.741	23461
252.804	31010
252.867	60477
252.930	37456
252.993	19733
253.056	13863
253.119	9807
253.182	7925
253.245	12935
253.308	9259
253.371	8666
253.434	7816
253.497	8421
253.559	15327
253.622	9633
253.685	15575
253.748	14339
253.811	6360
253.874	8471
253.937	7129
254.000	6963
254.062	10318
254.125	15257
254.188	15039
254.251	11730
254.314	6513
254.376	12448
254.439	13198
254.502	11402
254.565	11170
254.628	19301
254.690	12662
254.753	6800
254.816	5549
254.878	5573
254.941	11251
255.004	10342
255.067	5268
255.129	5401
255.192	3305
255.255	2333
255.317	4826
255.380	2958
255.443	2397
255.505	2485
255.568	1616
255.631	2601
255.693	3198
255.756	2030
255.819	3046
255.881	1958
255.944	2442
256.006	1796
256.069	2402
256.132	1733
256.194	3950
256.257	8692
256.319	6233
256.382	4786
256.444	4485
256.507	3227
256.569	2451
256.632	3460
256.694	4641
256.757	16172
256.819	39892
256.882	14204
256.944	6886
257.007	6155
257.069	6491
257.132	3297
257.194	3835
257.257	2805
257.319	2730
257.381	2771
257.444	12222
257.506	47104
257.569	49106
257.631	25037
257.693	13718
257.756	6649
257.818	6019
257.880	3565
257.943	4103
258.005	2728
258.067	3032
258.130	2022
258.192	4600
258.254	8632
258.317	4456
258.379	3498
258.441	9955
258.503	8144
258.566	11268
258.628	12927
258.690	3671
258.753	3943
258.815	8939
258.877	4009
258.939	2475
259.001	2642
259.064	2242
259.126	2618
259.188	5024
259.250	3844
259.312	4328
259.375	12130
259.437	6941
259.499	3746
259.561	3302
259.623	3551
259.685	2520
259.747	2941
259.809	10859
259.872	17611
259.934	27154
259.996	23095
260.058	6199
260.120	3344
260.182	2950
260.244	2519
260.306	2498
260.368	2048
260.430	2073
260.492	5260
260.554	11762
260.616	8163
260.678	16008
260.740	17955
260.802	4771
260.864	4833
260.926	3414
260.988	3797
261.050	2994
261.112	7516
261.174	21034
261.236	13574
261.298	5019
261.359	8121
261.421	11692
261.483	2961
261.545	4155
261.607	1163
261.669	2798
261.731	5685
261.793	13760
261.854	5011
261.916	4636
261.978	2913
262.040	3496
262.102	2098
262.164	4756
262.225	3086
262.287	3429
262.349	8801
262.411	6483
262.472	3267
262.534	5515
262.596	11359
262.658	4053
262.719	2232
262.781	5008
262.843	10337
262.904	4830
262.966	3342
263.028	4847
263.090	23391
263.151	51103
263.213	15918
263.275	9825
263.336	4068
263.398	4277
263.459	1599
263.521	3459
263.583	8077
263.644	5475
263.706	2246
263.767	1515
263.829	2291
263.891	1170
263.952	1213
264.014	1104
264.075	2714
264.137	9429
264.198	4319
264.260	1418
264.321	1699
264.383	6564
264.444	14418
264.506	3099
264.567	2844
264.629	6072
264.690	9812
264.752	4559
264.813	1731
264.875	2295
264.936	2003
264.998	1886
265.059	1746
265.120	1922
265.182	4905
265.243	23668
265.305	20523
265.366	5065
265.427	2681
265.489	3634
265.550	764
265.611	3100
265.673	1907
265.734	1661
265.795	1681
265.857	1520
265.918	1945
265.979	6900
266.040	36412
266.102	25687
266.163	7156
266.224	8139
266.286	4269
266.347	2941
266.408	2638
266.469	2561
266.530	1532
266.592	1582
266.653	5058
266.714	8796
266.775	2910
266.836	2051
266.898	1936
266.959	3583
267.020	1946
267.081	2967
267.142	2238
267.203	1725
267.264	1201
267.326	3081
267.387	1433
267.448	894
267.509	2273
267.570	2079
267.631	1773
267.692	767
267.753	2314
267.814	1112
267.875	5212
267.936	10758
267.997	5308
268.058	5188
268.119	2433
268.180	1861
268.241	1027
268.302	1883
268.363	882
268.424	1953
268.485	2012
268.546	1083
268.607	1711
268.668	977
268.729	901
268.790	1317
268.851	2133
268.912	7540
268.972	9064
269.033	5402
269.094	1416
269.155	2099
269.216	1734
269.277	1552
269.338	813
269.398	1882
269.459	1980
269.520	4397
269.581	6032
269.642	6510
269.702	4004
269.763	3038
269.824	1632
269.885	3709
269.945	6237
270.006	3077
270.067	1957
270.128	988
270.188	471
270.249	1573
270.310	766
270.370	1569
270.431	1633
270.492	1557
270.553	1521
270.613	5848
270.674	10633
270.734	3978
270.795	2063
270.856	4602
270.916	2955
270.977	2666
271.038	3482
271.098	3134
271.159	5597
271.219	5131
271.280	894
271.340	2859
271.401	2211
271.462	6559
271.522	3385
271.583	2352
271.643	2191
271.704	2396
271.764	3213
271.825	9455
271.885	25797
271.946	30729
272.006	10193
272.066	15941
272.127	23554
272.187	7435
272.248	4112
272.308	4971
272.369	16253
272.429	8577
272.489	7968
272.550	8413
272.610	9761
272.671	5958
272.731	5141
272.791	8507
272.852	4997
272.912	5429
272.972	2521
273.033	3083
273.093	4202
273.153	5508
273.214	3340
273.274	3784
273.334	13741
273.394	25428
273.455	11576
273.515	11978
273.575	23516
273.635	9229
273.696	12983
273.756	23603
273.816	9322
273.876	5874
273.936	11823
273.997	19008
274.057	4845
274.117	4268
274.177	7958
274.237	31718
274.297	23027
274.358	17414
274.418	19888
274.478	16081
274.538	5836
274.598	4558
274.658	15960
274.718	19752
274.778	7397
274.838	3803
274.898	9163
274.958	26535
275.018	23876
275.078	15419
275.138	5880
275.198	3207
275.258	2129
275.318	3018
275.378	8600
275.438	8587
275.498	5795
275.558	12727
275.618	26088
275.678	16632
275.738	12015
275.798	8402
275.858	3767
275.918	2244
275.978	4586
276.038	3578
276.098	2214
276.157	6629
276.217	19956
276.277	9298
276.337	5718
276.397	3108
276.457	5026
276.517	2551
276.576	1881
276.636	2400
276.696	4618
276.756	11948
276.815	7750
276.875	3951
276.935	3692
276.995	3789
277.055	2173
277.114	2330
277.174	4044
277.234	15419
277.293	5603
277.353	3973
277.413	2083
277.472	2447
277.532	2251
277.592	4974
277.651	16564
277.711	27304
277.771	8783
277.830	34933
277.890	24754
277.950	18284
278.009	47262
278.069	17235
278.128	21525
278.188	29097
278.248	12879
278.307	31821
278.367	16953
278.426	5668
278.486	4700
278.545	2580
278.605	2322
278.664	2765
278.724	2701
278.783	9092
278.843	23291
278.902	5757
278.962	4608
279.021	5451
279.081	5966
279.140	5389
279.199	4643
279.259	4849
279.318	5224
279.378	7339
279.437	13816
279.496	47245
279.556	127359
279.615	90938
279.675	27151
279.734	15773
279.793	23280
279.853	31807
279.912	11939
279.971	7161
280.031	6328
280.090	13742
280.149	22073
280.208	19712
280.268	89173
280.327	80548
280.386	20644
280.445	18013
280.505	14187
280.564	6971
280.623	6056
280.682	9214
280.742	13360
280.801	5137
280.860	2631
280.919	3646
280.978	2935
281.037	2626
281.097	1337
281.156	2404
281.215	2895
281.274	3789
281.333	16302
281.392	11371
281.451	3075
281.510	2624
281.569	2140
281.628	2689
281.688	1839
281.747	3162
281.806	2038
281.865	2565
281.924	1526
281.983	1995
282.042	744
282.101	1417
282.160	1736
282.219	1178
282.278	2149
282.337	10113
282.396	5588
282.454	2593
282.513	4300
282.572	16724
282.631	9131
282.690	2942
282.749	2271
282.808	3824
282.867	2764
282.926	3966
282.985	1870
283.043	1442
283.102	1924
283.161	2540
283.220	6935
283.279	16297
283.338	4546
283.396	2491
283.455	2722
283.514	2786
283.573	5923
283.631	3971
283.690	2983
283.749	2840
283.808	7492
283.866	8664
283.925	2839
283.984	3270
284.043	4898
284.101	4989
284.160	2665
284.219	5371
284.277	4553
284.336	7886
284.395	23767
284.453	17722
284.512	6950
284.570	11113
284.629	9235
284.688	8666
284.746	9682
284.805	13362
284.863	15927
284.922	20467
284.981	23158
285.039	33233
285.098	56840
285.156	107917
285.215	117298
285.273	122414
285.332	106119
285.390	64660
285.449	39202
285.507	28515
285.566	20605
285.624	15997
285.683	13953
285.741	9915
285.799	8487
285.858	6972
285.916	6774
285.975	5200
286.033	3618
286.091	4797
286.150	2988
286.208	3667
286.267	3925
286.325	4742
286.383	7200
286.442	6311
286.500	2522
286.558	2758
286.616	2827
286.675	5228
286.733	3497
286.791	2996
286.850	3784
286.908	5247
286.966	9093
287.024	3542
287.083	1991
287.141	2449
287.199	2346
287.257	4521
287.315	2355
287.374	4103
287.432	9255
287.490	5833
287.548	3105
287.606	3102
287.664	2796
287.723	4662
287.781	4973
287.839	2844
287.897	3547
287.955	4112
288.013	6564
288.071	16641
288.129	65919
288.187	156502
288.245	65942
288.303	21698
288.361	12983
288.419	9824
288.477	7159
288.535	5076
288.593	3993
288.651	3345
288.709	2101
288.767	2642
288.825	2041
288.883	547
288.941	1476
288.999	1997
289.057	1666
289.115	706
289.173	1140
289.231	981
289.289	1683
289.346	2186
289.404	2722
289.462	5130
289.520	5696
289.578	1971
289.636	1158
289.694	226
289.751	790
289.809	2135
289.867	1464
289.925	1906
289.983	2978
290.040	1823
290.098	1117
290.156	1756
290.214	3089
290.271	604
290.329	1194
290.387	1364
290.444	834
290.502	481
290.560	814
290.617	928
290.675	1442
290.733	851
290.790	2047
290.848	1375
290.906	2225
290.963	1324
291.021	1974
291.078	1147
291.136	1483
291.194	7846
291.251	15618
291.309	3411
291.366	1168
291.424	2106
291.481	1317
291.539	1813
291.596	1991
291.654	439
291.711	443
291.769	1655
291.826	5067
291.884	2954
291.941	942
291.999	1605
292.056	2156
292.114	1875
292.171	947
292.228	2641
292.286	3500
292.343	5550
292.401	6618
292.458	3344
292.515	2068
292.573	4350
292.630	2913
292.687	2322
292.745	1799
292.802	3107
292.859	8666
292.917	17908
292.974	9421
293.031	3122
293.089	2191
293.146	1419
293.203	1218
293.260	1726
293.318	1931
293.375	3621
293.432	1485
293.489	1553
293.546	1324
293.604	3589
293.661	10616
293.718	25050
293.775	11879
293.832	6594
293.889	5050
293.947	5758
294.004	3776
294.061	3612
294.118	8429
294.175	17337
294.232	20085
294.289	7774
294.346	3966
294.403	3982
294.460	2719
294.517	2845
294.574	1979
294.631	1571
294.688	2482
294.745	8680
294.802	28398
294.859	30164
294.916	12206
294.973	7146
295.030	5697
295.087	4472
295.144	3153
295.201	2715
295.258	1447
295.315	3254
295.372	11780
295.429	19913
295.486	8914
295.542	5113
295.599	12560
295.656	21181
295.713	15278
295.770	19537
295.827	6880
295.883	3338
295.940	3586
295.997	7397
296.054	5474
296.111	2772
296.167	2267
296.224	1102
296.281	1894
296.338	2126
296.394	1228
296.451	3306
296.508	10040
296.564	17129
296.621	11958
296.678	24734
296.734	32611
296.791	12485
296.848	6274
296.904	7603
296.961	17736
297.018	24631
297.074	16012
297.131	6236
297.187	3902
297.244	7157
297.301	23087
297.357	37500
297.414	12239
297.470	5350
297.527	3741
297.583	3445
297.640	3241
297.696	3266
297.753	1485
297.809	1925
297.866	425
297.922	2094
297.979	1305
298.035	2639
298.092	4833
298.148	14138
298.204	11980
298.261	6357
298.317	10962
298.374	28632
298.430	15536
298.486	7203
298.543	4656
298.599	4736
298.656	6823
298.712	12185
298.768	25960
298.824	15778
298.881	5628
298.937	3649
298.993	1887
299.050	4610
299.106	3384
299.162	3617
299.218	2755
299.275	2472
299.331	3254
299.387	7221
299.443	26002
299.500	26084
299.556	10035
299.612	4974
299.668	4430
299.724	6891
299.780	6673
299.837	3604
299.893	6251
299.949	24057
300.005	26247
300.061	22197
300.117	34004
300.173	16385
300.229	7738
300.285	10536
300.341	12506
300.397	6564
300.453	3326
300.510	3282
300.566	2790
300.622	5122
300.678	15139
300.734	26486
300.790	22037
300.845	24478
300.901	15745
300.957	24788
301.013	17586
301.069	7106
301.125	5437
301.181	6550
301.237	3766
301.293	2374
301.349	2552
301.405	2060
301.461	2528
301.516	3460
301.572	3386
301.628	7644
301.684	6823
301.740	10306
301.796	15703
301.851	11024
301.907	18510
301.963	17166
302.019	26964
302.074	69279
302.130	63982
302.186	30065
302.242	12395
302.297	7939
302.353	8188
302.409	16546
302.464	12983
302.520	11785
302.576	27753
302.631	30406
302.687	17165
302.743	8216
302.798	4423
302.854	3262
302.910	4398
302.965	5052
303.021	10212
303.076	8853
303.132	12765
303.187	14925
303.243	6353
303.299	3239
303.354	2673
303.410	3595
303.465	2695
303.521	2369
303.576	2690
303.632	4187
303.687	7501
303.743	23061
303.798	18202
303.853	7627
303.909	3927
303.964	4173
304.020	7392
304.075	11461
304.130	9685
304.186	18645
304.241	18111
304.297	14005
304.352	7316
304.358	7050
304.407	4894
304.449	4572
304.463	4466
304.518	4716
304.539	4541
304.573	4256
304.629	3836
304.630	3889
304.684	6456
304.720	13436
304.739	16974
304.794	24772
304.811	20936
304.850	11545
304.902	5571
304.905	5202
304.960	3389
304.992	3485
305.015	3576
305.071	5256
305.083	4980
305.126	3848
305.173	2515
305.181	2321
305.236	1950
305.264	2164
305.292	2354
305.347	3754
305.354	3849
305.402	4471
305.445	4524
305.457	4545
305.512	5877
305.535	5603
305.567	5164
305.622	5260
305.626	5501
305.678	11018
305.716	21991
305.733	25994
305.788	27608
305.807	24081
305.843	17610
305.897	22424
305.898	22480
305.953	21193
305.988	14402
306.008	10565
306.063	7084
306.078	6236
306.118	4258
306.168	3474
306.173	3437
306.228	3002
306.259	2641
306.283	2268
306.338	2536
306.349	2475
306.393	2646
306.440	3783
306.448	3911
306.503	3466
306.530	3679
306.558	4910
306.613	11328
306.620	12202
306.668	18059
306.711	24751
306.723	25593
306.778	19511
306.801	15594
306.833	10738
306.888	5061
306.892	4801
306.943	3169
306.982	3072
306.997	3047
307.052	3179
307.072	2910
307.107	2754
307.162	4586
307.163	4603
307.217	6631
307.253	8145
307.272	8656
307.327	8660
307.343	8229
307.381	6935
307.434	6145
307.436	6307
307.491	13026
307.524	19104
307.546	21426
307.600	22898
307.614	20975
307.655	12713
307.704	6541
307.710	6332
307.765	6607
307.795	8082
307.819	9929
307.874	16164
307.885	16325
307.929	13569
307.975	10507
307.984	10640
308.038	14193
308.065	17857
308.093	29602
308.148	62364
308.156	69963
308.202	117471
308.246	145505
308.257	140917
308.312	77634
308.336	54859
308.366	42442
308.421	27633
308.426	26246
308.475	16775
308.517	11171
308.530	10244
308.585	8878
308.607	8504
308.639	8632
308.694	8976
308.697	9072
308.748	14434
308.787	20712
308.803	21171
308.857	16917
308.877	15061
308.912	13287
308.967	12818
308.967	12829
309.021	18204
309.058	22992
309.076	28697
309.130	50182
309.148	58512
309.185	96234
309.238	161258
309.239	162011
309.293	188359
309.328	184277
309.348	160370
309.402	82547
309.418	62960
309.457	44678
309.508	27106
309.511	26754
309.566	25669
309.598	26351
309.620	31907
309.674	49491
309.688	53904
309.729	52855
309.778	44384
309.783	43184
309.837	28390
309.868	21617
309.892	23072
309.946	29355
309.959	31834
310.001	43220
310.049	52460
310.055	50710
310.109	30585
310.139	19323
310.163	15257
310.218	8985
310.229	7888
310.272	6297
310.319	5363
310.326	5309
310.381	4485
310.409	4371
310.435	4131
310.489	3312
310.499	3250
310.543	3743
310.589	3965
310.598	3900
310.652	3622
310.679	3540
310.706	3389
310.760	2773
310.769	2712
310.814	2217
310.859	1791
310.868	1953
310.923	2674
310.948	3105
310.977	3392
311.031	3875
311.038	3962
311.085	3835
311.128	3406
311.139	3353
311.193	3261
311.218	3135
311.247	3176
311.301	3411
311.308	3422
311.356	3107
311.398	2926
311.410	2919
311.464	2691
311.488	2645
311.518	2685
311.572	2726
311.578	2735
311.626	4510
311.668	6074
311.680	5994
311.734	5467
311.758	5219
311.788	4942
311.842	4498
311.847	4445
311.896	5350
311.937	6153
311.950	6207
312.004	6373
312.027	6434
312.058	5580
312.112	4055
312.117	3900
312.165	3645
312.207	3427
312.297	4244
312.386	3971
312.476	4828
312.566	9072
312.656	4901
312.745	2694
312.835	3400
312.925	4291
313.015	3502
313.104	4178
313.194	3458
313.284	3106
313.374	4680
313.463	5145
313.553	3257
313.643	2898
313.732	3282
313.822	2586
313.912	2829
314.001	3508
314.091	3912
314.180	6002
314.270	5567
314.360	5215
314.449	4712
314.539	3352
314.628	2993
314.718	3640
314.808	5017
314.897	3864
314.987	3627
315.076	4540
315.166	5918
315.255	5270
315.345	5001
315.434	4393
315.524	5100
315.613	5516
315.703	7490
315.792	8181
315.881	23510
315.971	10456
316.060	9221
316.150	11333
316.239	12096
316.328	5833
316.418	3679
316.507	3841
316.597	5323
316.686	4996
316.775	5804
316.865	12229
316.954	3942
317.043	2585
317.133	3849
317.222	3133
317.311	2536
317.400	2749
317.490	5831
317.579	6095
317.668	4334
317.757	6343
317.847	13527
317.936	42622
318.025	22029
318.114	10837
318.203	7599
318.293	9150
318.382	18687
318.471	15569
318.560	18769
318.649	33745
318.738	8882
318.828	5424
318.917	5869
319.006	7151
319.095	15009
319.184	41853
319.273	28076
319.362	16118
319.451	4851
319.540	4625
319.629	10454
319.718	20566
319.807	8075
319.896	14144
319.985	52969
320.074	23880
320.163	5222
320.252	8079
320.341	7099
320.430	6674
320.519	9036
320.608	5924
320.697	3854
320.786	4223
320.875	6567
320.964	8723
321.053	13658
321.142	18390
321.230	21094
321.319	13437
321.408	33955
321.497	14969
321.586	14109
321.675	13487
321.764	13977
321.852	8818
321.941	18048
322.030	14099
322.119	12163
322.207	34160
322.296	20754
322.385	11118
322.474	13546
322.562	41883
322.651	23395
322.740	14649
322.829	21548
322.917	17899
323.006	12464
323.095	11049
323.183	7434
323.272	11243
323.361	17102
323.449	50601
323.538	18561
323.626	34062
323.715	24515
323.804	8851
323.892	29380
323.981	21614
324.069	6480
324.158	15182
324.246	17162
324.335	7125
324.424	13465
324.512	4893
324.601	7340
324.689	15131
324.778	34092
324.866	15804
324.954	5108
325.043	3773
325.131	7510
325.220	12657
325.308	15234
325.397	11567
325.485	8807
325.574	3672
325.662	3719
325.750	4022
325.839	4137
325.927	2455
326.015	4304
326.104	4558
326.192	7635
326.280	3185
326.369	3820
326.457	5325
326.545	10660
326.634	5372
326.722	2628
326.810	2698
326.898	4042
326.987	3457
327.075	8625
327.163	9103
327.251	5094
327.340	10941
327.428	20181
327.516	4050
327.604	3119
327.692	3657
327.781	3444
327.869	5770
327.957	4483
328.045	5027
328.133	3299
328.221	3043
328.309	3451
328.397	2888
328.485	4070
328.574	5834
328.662	21378
328.750	12722
328.838	4327
328.926	2269
329.014	2878
329.102	4499
329.190	10438
329.278	9116
329.366	2475
329.454	1720
329.542	2039
329.630	2032
329.718	3087
329.806	3885
329.893	3481
329.981	3791
330.069	6144
330.157	20450
330.245	65125
330.333	38541
330.421	7492
330.509	7279
330.597	25443
330.684	18960
330.772	6032
330.860	6983
330.948	8465
331.036	4462
331.123	2050
331.211	2554
331.299	2823
331.387	6442
331.475	14070
331.562	5029
331.650	2928
331.738	3244
331.825	4538
331.913	2484
332.001	2106
332.089	2797
332.176	6225
332.264	13885
332.352	12819
332.439	4812
332.527	3797
332.614	2486
332.702	4076
332.790	3062
332.877	7854
332.965	17194
333.052	6420
333.140	6371
333.228	17868
333.315	5218
333.403	3911
333.490	8576
333.578	10209
333.665	22708
333.753	11440
333.840	3574
333.928	3797
334.015	9677
334.103	14686
334.190	51457
334.278	15181
334.365	6795
334.452	5201
334.540	3753
334.627	4153
334.715	5451
334.802	10515
334.889	50846
334.977	64263
335.064	11165
335.151	5521
335.239	4750
335.326	6427
335.413	23358
335.501	38738
335.588	5967
335.675	3307
335.762	4175
335.850	8906
335.937	6773
336.024	14781
336.111	63000
336.199	34873
336.286	8417
336.373	4303
336.460	4020
336.547	2903
336.635	4086
336.722	4153
336.809	2811
336.896	5195
336.983	15762
337.070	38784
337.157	57257
337.245	36303
337.332	29481
337.419	4195
337.506	2580
337.593	3150
337.680	10369
337.767	37610
337.854	11646
337.941	11807
338.028	14676
338.115	5861
338.202	6104
338.289	9128
338.376	36083
338.463	13681
338.550	19131
338.637	25168
338.724	6378
338.811	12100
338.898	3117
338.984	2368
339.071	3658
339.158	3760
339.245	13217
339.332	9007
339.419	7799
339.506	8856
339.593	1452
339.679	3099
339.766	2632
339.853	3591
339.940	9836
340.027	4106
340.113	3327
340.200	5103
340.287	4522
340.374	4136
340.460	9915
340.547	4438
340.634	5621
340.720	24470
340.807	16971
340.894	3415
340.980	3012
341.067	2458
341.154	3721
341.240	4816
341.327	13571
341.414	5186
341.500	6705
341.587	3835
341.674	2874
341.760	8324
341.847	11183
341.933	3713
342.020	1568
342.106	1514
342.193	2840
342.279	6326
342.366	4638
342.452	8565
342.539	5037
342.625	10786
342.712	28393
342.798	12453
342.885	5582
342.971	1232
343.058	1464
343.144	2675
343.230	2397
343.317	3378
343.403	2485
343.490	1833
343.576	2140
343.662	3056
343.749	3074
343.835	3480
343.921	6670
344.008	36184
344.094	96341
344.180	23885
344.267	8400
344.353	26580
344.439	31483
344.525	14067
344.612	6778
344.698	4513
344.784	3426
344.870	2226
344.957	2435
345.043	4816
345.129	3869
345.215	9101
345.301	5562
345.387	3839
345.474	1490
345.560	1784
345.646	2583
345.732	2863
345.818	4328
345.904	3791
345.990	2895
346.076	3494
346.162	6678
346.249	3924
346.335	2628
346.421	2682
346.507	9058
346.593	40225
346.679	10559
346.765	2649
346.851	2690
346.937	3343
347.023	2599
347.108	3157
347.194	2934
347.280	3471
347.366	3457
347.452	10093
347.538	46184
347.624	36102
347.710	31860
347.796	5475
347.882	2378
347.967	2441
348.053	3361
348.139	2620
348.225	2098
348.311	3135
348.397	2266
348.482	3106
348.568	5069
348.654	1782
348.740	3077
348.825	4031
348.911	5390
348.997	19032
349.083	44147
349.168	7861
349.254	3668
349.340	4008
349.425	2455
349.511	3572
349.597	4311
349.682	7598
349.768	29572
349.854	15948
349.939	3368
350.025	1523
350.110	2693
350.196	1701
350.282	1970
350.367	1921
350.453	2974
350.538	3541
350.624	4497
350.709	4557
350.795	1174
350.880	2392
350.966	3200
351.051	4266
351.137	2848
351.222	2936
351.308	8158
351.393	28663
351.479	9025
351.564	3638
351.649	2630
351.735	2366
351.820	2394
351.906	2770
351.991	3603
352.076	14668
352.162	28337
352.247	5853
352.332	3161
352.418	9052
352.503	11030
352.588	38602
352.673	36139
352.759	8170
352.844	3703
352.929	4449
353.014	6022
353.100	3985
353.185	7582
353.270	9814
353.355	10957
353.441	3249
353.526	3805
353.611	8606
353.696	11512
353.781	6215
353.866	2509
353.952	3479
354.037	7075
354.122	20949
354.207	18741
354.292	7254
354.377	2493
354.462	2780
354.547	4099
354.632	3959
354.717	5083
354.802	9391
354.887	4400
354.972	2129
355.057	2063
355.142	1525
355.227	3482
355.312	5138
355.397	12339
355.482	33082
355.567	17273
355.652	10185
355.737	11625
355.822	32854
355.907	32484
355.991	5041
356.076	2544
356.161	3156
356.246	3058
356.331	3242
356.416	6323
356.501	46397
356.585	58949
356.670	9519
356.755	7233
356.840	7283
356.924	32294
357.009	128168
357.094	56295
357.179	12078
357.263	7920
357.348	7397
357.433	7491
357.517	7117
357.602	5511
357.687	4488
357.771	7759
357.856	24915
357.941	16040
358.025	22477
358.110	113079
358.195	62977
358.279	10839
358.364	6940
358.448	21913
358.533	67911
358.617	52196
358.702	49821
358.787	19663
358.871	10352
358.956	8944
359.040	3473
359.125	3152
359.209	2651
359.294	10993
359.378	20482
359.462	9788
359.547	5550
359.631	3462
359.716	1633
359.800	3268
359.885	5303
359.969	3154
360.053	3246
360.138	3414
360.222	4688
360.306	9684
360.391	8363
360.475	12146
360.559	31911
360.644	26088
360.728	19905
360.812	23601
360.896	79763
360.981	35304
361.065	20312
361.149	5430
361.233	5131
361.318	3771
361.402	5130
361.486	5050
361.570	3506
361.654	5272
361.739	10752
361.823	45375
361.907	82659
361.991	17127
362.075	7523
362.159	18680
362.243	14658
362.327	12852
362.411	17980
362.495	8903
362.580	4784
362.664	3618
362.748	3762
362.832	4617
362.916	6916
363.000	24221
363.084	71642
363.168	100221
363.252	25813
363.336	8133
363.420	10500
363.503	34530
363.587	48465
363.671	9319
363.755	5592
363.839	9923
363.923	5167
364.007	10433
364.091	12332
364.175	12777
364.258	59341
364.342	47539
364.426	61483
364.510	36070
364.594	14772
364.677	14609
364.761	64465
364.845	53651
364.929	16636
365.013	15707
365.096	10829
365.180	14865
365.264	13526
365.347	59945
365.431	27887
365.515	6697
365.598	4283
365.682	4194
365.766	5841
365.849	8217
365.933	4064
366.017	6174
366.100	4515
366.184	2207
366.267	2557
366.351	3097
366.435	1948
366.518	2022
366.602	2376
366.685	2509
366.769	3398
366.852	5562
366.936	11541
367.019	7253
367.103	3940
367.186	8738
367.270	4183
367.353	1767
367.436	2781
367.520	1773
367.603	3731
367.687	5964
367.770	12321
367.853	7301
367.937	18777
368.020	37515
368.104	10004
368.187	8000
368.270	13106
368.353	11427
368.437	12336
368.520	24951
368.603	17961
368.687	22142
368.770	51223
368.853	13783
368.936	10677
369.020	10665
369.103	4713
369.186	2281
369.269	3506
369.352	7758
369.436	11279
369.519	7791
369.602	3189
369.685	4596
369.768	3794
369.851	3188
369.934	2318
370.018	3549
370.101	9608
370.184	8705
370.267	5509
370.350	8793
370.433	13667
370.516	32624
370.599	48435
370.682	14960
370.765	26790
370.848	31966
370.931	58297
371.014	25390
371.097	5086
371.180	4869
371.263	2181
371.346	993
371.429	3060
371.511	3007
371.594	7030
371.677	10067
371.760	10897
371.843	9181
371.926	36601
372.009	99157
372.091	37467
372.174	20659
372.257	50503
372.340	22869
372.423	14503
372.505	17597
372.588	7919
372.671	15983
372.754	57816
372.836	32192
372.919	16807
373.002	36558
373.085	12952
373.167	9905
373.250	23406
373.332	51480
373.415	58874
373.498	132943
373.580	54239
373.663	57501
373.746	90497
373.828	22446
373.911	9547
373.993	9402
374.076	31549
374.159	35068
374.241	13871
374.324	47702
374.406	35715
374.489	31586
374.571	107194
374.654	50367
374.736	19257
374.819	61406
374.901	89107
374.983	102664
375.066	20373
375.148	6392
375.231	23750
375.313	55105
375.395	21230
375.478	5707
375.560	3617
375.643	5379
375.725	16255
375.807	78791
375.890	66830
375.972	25493
376.054	13696
376.136	19697
376.219	9824
376.301	20067
376.383	74787
376.465	31978
376.548	17792
376.630	20460
376.712	64145
376.794	34149
376.877	4222
376.959	2275
377.041	4049
377.123	6310
377.205	8053
377.287	2125
377.369	2521
377.452	2599
377.534	3009
377.616	2352
377.698	3194
377.780	1590
377.862	2536
377.944	3617
378.026	1266
378.108	2489
378.190	1927
378.272	2298
378.354	1912
378.436	1305
378.518	3520
378.600	15005
378.682	15159
378.764	33142
378.846	29897
378.928	7616
379.010	11925
379.091	7670
379.173	2370
379.255	2138
379.337	4807
379.419	13377
379.501	48960
379.583	22031
379.664	4517
379.746	11125
379.828	33463
379.910	47175
379.991	44125
380.073	8550
380.155	4438
380.237	3334
380.318	1785
380.400	3643
380.482	6621
380.564	12338
380.645	12397
380.727	11687
380.809	7462
380.890	5003
380.972	3749
381.053	3885
381.135	4920
381.217	10333
381.298	37767
381.380	19814
381.461	12913
381.543	57715
381.624	85407
381.706	17016
381.787	7717
381.869	8419
381.951	21986
382.032	95345
382.113	71922
382.195	15581
382.276	10380
382.358	19387
382.439	55869
382.521	60512
382.602	98625
382.684	48180
382.765	81631
382.846	105883
382.928	178476
383.009	108414
383.090	58471
383.172	208054
383.253	361363
383.334	126268
383.416	98218
383.497	57863
383.578	28565
383.659	49726
383.741	168141
383.822	465356
383.903	272196
383.984	82001
384.066	118028
384.147	80987
384.228	18563
384.309	12328
384.390	10573
384.471	8185
384.553	7802
384.634	10926
384.715	11743
384.796	6539
384.877	6767
384.958	30534
385.039	42290
385.120	15773
385.201	6191
385.282	7334
385.363	8198
385.444	7262
385.525	11801
385.606	41289
385.687	41121
385.768	9380
385.849	10495
385.930	40841
386.011	81597
386.092	25118
386.173	6285
386.254	3714
386.335	4197
386.416	5223
386.496	18687
386.577	36789
386.658	13716
386.739	7499
386.820	6290
386.901	5410
386.981	5148
387.062	2796
387.143	6852
387.224	32151
387.304	35076
387.385	12263
387.466	6088
387.547	9015
387.627	6075
387.708	10942
387.789	51978
387.869	74119
387.950	20845
388.031	2941
388.111	2484
388.192	8572
388.273	12988
388.353	8068
388.434	4660
388.514	9500
388.595	44410
388.676	69356
388.756	36488
388.837	32864
388.917	23205
388.998	3237
389.078	4127
389.159	3775
389.239	2106
389.320	5611
389.400	4761
389.480	11222
389.561	34970
389.641	20348
389.722	6268
389.802	10549
389.883	12652
389.963	39521
390.043	27252
390.124	6358
390.204	10055
390.284	38094
390.365	26803
390.445	21294
390.525	63395
390.605	64036
390.686	22572
390.766	8105
390.846	4250
390.927	2344
391.007	2810
391.087	4548
391.167	4431
391.247	2770
391.328	5296
391.408	7661
391.488	5873
391.568	2317
391.648	4081
391.728	7781
391.808	7522
391.888	7192
391.969	16663
392.049	34224
392.129	14330
392.209	12661
392.289	39062
392.369	22439
392.449	15273
392.529	9996
392.609	9213
392.689	10690
392.769	35938
392.849	36114
392.929	20572
393.009	52638
393.089	46103
393.169	33392
393.248	94232
393.328	376587
393.408	460299
393.488	140256
393.568	37508
393.648	19331
393.728	11025
393.807	8094
393.887	8743
393.967	7626
394.047	8369
394.127	10015
394.206	16053
394.286	47524
394.366	222411
394.446	276849
394.525	72151
394.605	16727
394.685	12001
394.764	21274
394.844	36290
394.924	30118
395.003	10485
395.083	7132
395.163	5716
395.242	5962
395.322	6024
395.402	3670
395.481	6446
395.561	13102
395.640	42325
395.720	37547
395.799	45610
395.879	40430
395.958	23434
396.038	71053
396.117	290819
396.197	367066
396.276	116740
396.356	34802
396.435	22899
396.515	16919
396.594	18566
396.673	30867
396.753	100552
396.832	361126
396.912	310843
396.991	81607
397.070	22457
397.150	11228
397.229	8279
397.308	10316
397.388	20120
397.467	10521
397.546	4425
397.625	2251
397.705	5794
397.784	6651
397.863	3680
397.942	2812
398.022	2364
398.101	9479
398.180	36658
398.259	20651
398.338	6087
398.417	4122
398.497	2326
398.576	3026
398.655	1655
398.734	1837
398.813	1756
398.892	8345
398.971	40049
399.050	21757
399.129	2003
399.208	2006
399.287	1594
399.366	935
399.445	796
399.524	1700
399.603	1248
399.682	4818
399.761	12168
399.840	40867
399.919	37063
399.998	4985
400.077	939
400.156	1078
400.235	3396
400.313	1287
400.392	2046
400.471	15803
400.550	31999
400.629	8118
400.708	3639
400.786	2365
400.865	6763
400.944	8833
401.023	5546
401.102	696
401.180	941
401.259	1534
401.338	1816
401.416	2790
401.495	2485
401.574	2397
401.652	1422
401.731	3665
401.810	2421
401.888	1165
401.967	176
402.046	2124
402.124	2161
402.203	3657
402.281	1897
402.360	2832
402.438	10357
402.517	6850
402.596	2436
402.674	2002
402.753	710
402.831	1191
402.910	1973
402.988	9704
403.066	45847
403.145	29527
403.223	12586
403.302	38491
403.380	29641
403.459	30082
403.537	12145
403.615	3457
403.694	346
403.772	2183
403.850	497
403.929	123
404.007	186
404.085	5121
404.164	5967
404.242	1801
404.320	2167
404.398	6241
404.477	12603
404.555	73337
404.633	74824
404.711	12530
404.789	3279
404.868	1850
404.946	1437
405.024	200
405.102	-315
405.180	-70
405.258	-435
405.336	884
405.415	515
405.493	3698
405.571	4955
405.649	715
405.727	-542
405.805	1782
405.883	2381
405.961	2349
406.039	2407
406.117	534
406.195	2597
406.273	13504
406.351	68426
406.429	47019
406.507	5965
406.585	1680
406.663	1172
406.740	2883
406.818	2736
406.896	839
406.974	1720
407.052	3253
407.130	35248
407.208	63469
407.285	13742
407.363	1732
407.441	1525
407.519	1213
407.596	3179
407.674	6357
407.752	30004
407.830	31625
407.907	8765
407.985	2429
408.063	1627
408.141	556
408.218	2722
408.296	3070
408.373	2590
408.451	2210
408.529	2385
408.606	-123
408.684	670
408.762	491
408.839	-126
408.917	111
408.994	330
409.072	118
409.149	1249
409.227	2507
409.304	3038
409.382	2378
409.459	2032
409.537	3816
409.614	3853
409.692	1795
409.769	1915
409.846	4463
409.924	6642
410.001	4393
410.079	2741
410.156	2736
410.233	1312
410.311	1269
410.388	955
410.465	1722
410.543	1612
410.620	363
410.697	1070
410.775	1820
410.852	-183
410.929	1721
411.006	3581
411.083	1817
411.161	4408
411.238	5438
411.315	1942
411.392	989
411.469	1858
411.547	2416
411.624	360
411.701	178
411.778	1133
411.855	5188
411.932	1420
412.009	-152
412.086	936
412.163	786
412.240	1176
412.317	2208
412.394	2339
412.471	830
412.548	1
412.625	205
412.702	1138
412.779	3390
412.856	2714
412.933	-547
413.010	552
413.087	2279
413.164	14371
413.241	26602
413.318	5466
413.395	2872
413.471	4988
413.548	1794
413.625	835
413.702	747
413.779	1733
413.855	-528
413.932	-201
414.009	-668
414.086	-102
414.162	434
414.239	1630
414.316	12692
414.393	38397
414.469	14555
414.546	1022
414.623	329
414.699	403
414.776	1117
414.853	305
414.929	918
415.006	896
415.082	679
415.159	155
415.236	522
415.312	780
415.389	2989
415.465	4370
415.542	1769
415.618	-23
415.695	3305
415.771	999
415.848	749
415.924	1747
416.000	648
416.077	146
416.153	-385
416.230	-1361
416.306	-602
416.383	35
416.459	763
416.535	-823
416.612	-483
416.688	-696
416.764	-268
416.841	-354
416.917	256
416.993	30
417.069	1122
417.146	987
417.222	3123
417.298	1055
417.374	-693
417.451	523
417.527	1044
417.603	1561
417.679	1501
417.755	1072
417.831	-794
417.908	-808
417.984	-794
418.060	-331
418.136	3270
418.212	5802
418.288	2042
418.364	308
418.440	-239
418.516	1972
418.592	2616
418.668	6561
418.744	10352
418.820	7932
418.896	1015
418.972	-174
419.048	550
419.124	4203
419.200	3433
419.276	449
419.352	-116
419.428	357
419.504	-175
419.579	1068
419.655	884
419.731	288
419.807	6150
419.883	13755
419.959	9133
420.034	2387
420.110	3397
420.186	21823
420.262	20540
420.337	3087
420.413	1862
420.489	439
420.565	998
420.640	677
420.716	1076
420.792	-717
420.867	1313
420.943	-320
421.019	2291
421.094	2029
421.170	1206
421.245	-683
421.321	1195
421.397	302
421.472	5344
421.548	17062
421.623	13113
421.699	3422
421.774	2502
421.850	1717
421.925	4915
422.001	4945
422.076	3397
422.152	4344
422.227	7071
422.302	9606
422.378	11979
422.453	22376
422.529	55030
422.604	165287
422.679	286208
422.755	212873
422.830	80840
422.905	30231
422.981	15448
423.056	10255
423.131	7663
423.207	5250
423.282	4869
423.357	8727
423.432	5870
423.508	5539
423.583	12017
423.658	9830
423.733	3116
423.808	2730
423.883	3828
423.959	3190
424.034	2979
424.109	2322
424.184	174
424.259	453
424.334	824
424.409	32
424.484	123
424.559	808
424.634	527
424.709	1818
424.784	2426
424.859	1815
424.934	1758
425.009	13469
425.084	28704
425.159	11403
425.234	1670
425.309	-423
425.384	4783
425.459	10178
425.534	3838
425.609	-367
425.683	91
425.758	-1
425.833	982
425.908	1657
425.983	6986
426.058	28239
426.132	12916
426.207	1255
426.282	3433
426.357	1602
426.431	158
426.506	693
426.581	644
426.655	904
426.730	241
426.805	-202
426.879	1617
426.954	870
427.029	2630
427.103	21883
427.178	63349
427.253	31211
427.327	2813
427.402	2340
427.476	10683
427.551	6341
427.625	1051
427.700	1124
427.774	755
427.849	1104
427.923	-284
427.998	267
428.072	645
428.147	2685
428.221	15492
428.296	58401
428.370	36472
428.444	4147
428.519	3175
428.593	6376
428.667	5942
428.742	6473
428.816	7197
428.890	30828
428.965	64432
429.039	20118
429.113	9434
429.188	3833
429.262	1509
429.336	3020
429.410	12822
429.485	9402
429.559	5678
429.633	5613
429.707	1713
429.781	4070
429.855	33157
429.930	64661
430.004	29083
430.078	35322
430.152	35722
430.226	68423
430.300	84427
430.374	13921
430.448	3275
430.522	8925
430.596	35467
430.670	25458
430.744	57660
430.818	103592
430.892	22763
430.966	2093
431.040	1121
431.114	494
431.188	496
431.262	-304
431.336	-163
431.410	2509
431.484	9386
431.557	8789
431.631	627
431.705	422
431.779	7217
431.853	47025
431.927	41241
432.000	5114
432.074	606
432.148	1103
432.222	286
432.295	58
432.369	315
432.443	890
432.516	18261
432.590	61360
432.664	26597
432.737	1986
432.811	-199
432.885	-108
432.958	1005
433.032	360
433.106	-46
433.179	-887
433.253	-982
433.326	255
433.400	-800
433.473	-449
433.547	-611
433.620	398
433.694	2007
433.767	2535
433.841	110
433.914	-305
433.988	-206
434.061	-389
434.134	-749
434.208	-558
434.281	-971
434.355	-378
434.428	305
434.501	-68
434.575	-779
434.648	326
434.721	-350
434.795	-1115
434.868	-412
434.941	-204
435.014	-333
435.088	-136
435.161	816
435.234	2345
435.307	3636
435.381	883
435.454	562
435.527	2105
435.600	2243
435.673	1528
435.746	-148
435.819	59
435.892	-386
435.966	-196
436.039	-363
436.112	-8
436.185	-601
436.258	-530
436.331	-1256
436.404	-513
436.477	-652
436.550	-1049
436.623	-538
436.696	-391
436.769	408
436.842	115
436.915	-260
436.987	584
437.060	127
437.133	-188
437.206	-422
437.279	-179
437.352	-1245
437.425	199
437.498	32
437.570	2577
437.643	3414
437.716	461
437.789	-543
437.861	1036
437.934	7518
438.007	3917
438.080	784
438.152	418
438.225	2795
438.298	23606
438.370	84581
438.443	40860
438.516	8325
438.588	1489
438.661	98
438.734	735
438.806	-172
438.879	1195
438.951	1553
439.024	3492
439.096	765
439.169	191
439.241	201
439.314	-334
439.386	730
439.459	1961
439.531	3019
439.604	1879
439.676	360
439.749	-507
439.821	-224
439.893	-375
439.966	-329
440.038	980
440.110	1461
440.183	823
440.255	-292
440.327	1003
440.400	8999
440.472	52316
440.544	42958
440.617	4775
440.689	2692
440.761	3977
440.833	6027
440.905	5928
440.978	1173
441.050	-81
441.122	-367
441.194	-546
441.266	351
441.338	-475
441.411	1427
441.483	15264
441.555	30506
441.627	7483
441.699	1642
441.771	2021
441.843	-170
441.915	-509
441.987	10
442.059	375
442.131	327
442.203	1527
442.275	2014
442.347	2770
442.419	3194
442.491	18475
442.563	62626
442.635	30423
442.706	12089
442.778	11924
442.850	2064
442.922	875
442.994	515
443.066	1950
443.137	1757
443.209	1225
443.281	2878
443.353	5468
443.425	24427
443.496	105380
443.568	117591
443.640	45336
443.711	7780
443.783	2184
443.855	2047
443.926	366
443.998	1199
444.070	1522
444.141	1364
444.213	2690
444.285	4626
444.356	2269
444.428	1927
444.499	47
444.571	831
444.642	217
444.714	-236
444.785	3073
444.857	2926
444.928	6370
445.000	5346
445.071	3265
445.143	6175
445.214	4820
445.285	5294
445.357	17234
445.428	60287
445.500	170087
445.571	115029
445.642	58588
445.714	20642
445.785	15378
445.856	5140
445.928	4390
445.999	3785
446.070	3302
446.141	2176
446.213	5037
446.284	2695
446.355	1275
446.426	975
446.497	621
446.569	2095
446.640	3748
446.711	3635
446.782	-139
446.853	1147
446.924	1222
446.995	771
447.066	896
447.138	2957
447.209	1640
447.280	-43
447.351	48
447.422	206
447.493	633
447.564	1493
447.635	2535
447.706	1092
447.777	-311
447.847	-641
447.918	-388
447.989	492
448.060	1241
448.131	4122
448.202	5136
448.273	4148
448.344	1053
448.414	117
448.485	-388
448.556	-258
448.627	-398
448.698	707
448.768	-304
448.839	-53
448.910	1858
448.981	2138
449.051	421
449.122	373
449.193	250
449.263	-29
449.334	311
449.405	1356
449.475	4665
449.546	4509
449.616	2913
449.687	3004
449.758	1151
449.828	101
449.899	-126
449.969	637
450.040	39
450.110	901
450.181	638
450.251	485
450.322	-151
450.392	-263
450.463	-464
450.533	346
450.604	433
450.674	149
450.744	357
450.815	130
450.885	455
450.955	70
451.026	-213
451.096	108
451.166	784
451.237	2643
451.307	7807
451.377	3822
451.447	679
451.518	648
451.588	-65
451.658	39
451.728	896
451.799	7278
451.869	11657
451.939	2929
452.009	938
452.079	53
452.149	655
452.219	1097
452.289	8976
452.360	9113
452.430	2527
452.500	239
452.570	1738
452.640	2411
452.710	7937
452.780	14230
452.850	10098
452.920	10588
452.990	3421
453.060	1425
453.129	1914
453.199	2626
453.269	8519
453.339	26533
453.409	44601
453.479	34223
453.549	54927
453.619	61672
453.688	31283
453.758	4637
453.828	1140
453.898	1122
453.968	1023
454.037	507
454.087	478
454.107	461
454.168	590
454.177	596
454.247	702
454.249	682
454.316	-12
454.330	167
454.386	838
454.411	1833
454.456	3324
454.492	5417
454.525	7276
454.574	4378
454.595	3135
454.655	1078
454.665	753
454.734	1015
454.736	1077
454.804	2860
454.817	3866
454.873	7572
454.898	9150
454.943	11946
454.979	7755
455.013	4016
455.060	1856
455.082	979
455.141	1410
455.152	1454
455.221	5391
455.222	5513
455.291	12324
455.303	11864
455.360	9549
455.384	10696
455.430	12090
455.465	10927
455.499	9886
455.546	9359
455.569	9012
455.627	7947
455.638	7836
455.707	1798
455.708	1804
455.777	697
455.789	665
455.846	598
455.869	725
455.916	1057
455.950	1149
455.985	1138
456.031	551
456.054	257
456.112	919
456.124	1059
456.193	847
456.193	839
456.262	1300
456.274	1404
456.332	1699
456.355	1490
456.401	949
456.436	856
456.470	794
456.516	414
456.540	183
456.597	304
456.609	349
456.678	577
456.678	569
456.747	523
456.759	479
456.817	348
456.840	412
456.886	472
456.920	542
456.955	702
457.001	822
457.024	794
457.082	763
457.093	790
457.162	2180
457.163	2189
457.232	1775
457.243	1652
457.301	817
457.324	737
457.370	826
457.405	775
457.439	702
457.485	695
457.508	676
457.566	1195
457.577	1282
457.646	1564
457.647	1572
457.715	2525
457.727	2703
457.784	4179
457.808	5762
457.853	7917
457.889	9967
457.922	10599
457.969	7057
457.991	6735
458.050	7571
458.060	7653
458.129	12868
458.130	13040
458.198	15798
458.211	14464
458.267	8308
458.292	5712
458.336	3323
458.372	3013
458.405	3576
458.453	4938
458.474	6146
458.533	12274
458.543	12891
458.611	22899
458.614	23042
458.680	16636
458.694	13578
458.749	6703
458.775	4938
458.818	2655
458.855	2234
458.887	1878
458.936	1351
458.955	1329
459.016	1613
459.024	1618
459.093	1753
459.097	1742
459.162	1778
459.177	1919
459.230	2181
459.257	2593
459.299	3031
459.338	2927
459.368	2754
459.418	2243
459.437	2132
459.499	2830
459.505	2867
459.574	1504
459.579	1476
459.643	1339
459.659	1325
459.711	1577
459.740	1905
459.780	2247
459.820	2269
459.849	2194
459.900	2432
459.917	2587
459.981	2611
459.986	2569
460.054	2348
460.061	2320
460.123	2461
460.141	2594
460.191	3182
460.222	3411
460.260	3864
460.302	4979
460.328	4923
460.382	4362
460.397	4379
460.462	3356
460.465	3401
460.534	5173
460.543	5463
460.602	15294
460.623	19142
460.671	30976
460.703	42723
460.739	41418
460.783	37910
460.808	34074
460.864	9542
460.876	7165
460.944	2869
460.945	2821
461.013	2666
461.024	2671
461.081	2642
461.104	2654
461.150	2271
461.184	1902
461.218	1928
461.264	2202
461.286	2399
461.345	2586
461.355	2555
461.423	2454
461.425	2449
461.491	1797
461.505	1687
461.559	3119
461.585	3938
461.628	6823
461.665	9586
461.696	10477
461.745	13691
461.764	12606
461.825	5578
461.832	5541
461.901	3086
461.905	3115
461.969	2490
461.985	2319
462.037	2366
462.065	2293
462.105	2094
462.145	2175
462.173	3418
462.225	5733
462.241	6220
462.305	8347
462.310	8166
462.378	6090
462.385	5603
462.446	3472
462.465	2911
462.514	2688
462.545	2946
462.582	2866
462.625	2700
462.650	2646
462.705	2330
462.718	2232
462.785	1604
462.786	1618
462.854	2901
462.865	3083
462.922	4128
462.945	4691
462.990	4057
463.025	3235
463.058	2869
463.104	2099
463.126	2034
463.184	2111
463.194	2110
463.262	2334
463.264	2340
463.330	2398
463.344	2430
463.398	3047
463.424	3156
463.466	2617
463.504	2481
463.533	2644
463.583	2614
463.601	2656
463.663	2657
463.669	2738
463.737	3899
463.743	4037
463.805	6191
463.823	6676
463.873	9410
463.903	11301
463.940	12061
463.982	13477
464.008	11419
464.062	5732
464.076	5424
464.142	2880
464.144	2835
464.211	2092
464.221	2044
464.279	2653
464.301	2913
464.347	2994
464.381	2997
464.414	3199
464.461	3436
464.482	3623
464.540	4398
464.550	4362
464.617	3710
464.620	3686
464.685	4341
464.699	4461
464.753	5924
464.779	6734
464.820	7051
464.859	7360
464.888	7175
464.938	6625
464.956	6633
465.018	6639
465.023	6530
465.091	5195
465.098	5023
465.158	4856
465.177	4834
465.226	5074
465.257	5260
465.293	5298
465.336	5270
465.361	5715
465.416	6862
465.428	7219
465.495	8972
465.496	9004
465.563	12110
465.575	12660
465.631	16541
465.654	18399
465.698	12447
465.734	6913
465.765	5933
465.813	4138
465.833	4409
465.893	5916
465.900	5844
465.968	5106
465.972	5055
466.035	5270
466.052	5298
466.102	5286
466.131	5290
466.170	5655
466.210	6018
466.237	5944
466.290	5797
466.304	5955
466.369	6572
466.372	6562
466.439	6081
466.449	5995
466.506	7247
466.528	7710
466.573	9252
466.607	10397
466.641	14646
466.687	20588
466.708	22583
466.766	28103
466.775	26399
466.842	13364
466.845	12720
466.909	9098
466.925	8270
466.977	8233
467.004	8266
467.044	8356
467.083	8441
467.111	9067
467.163	10209
467.178	10580
467.242	12083
467.245	12024
467.312	10472
467.321	10255
467.379	9431
467.400	9111
467.446	9306
467.480	9428
467.559	9049
467.638	7358
467.717	8431
467.796	9373
467.875	9528
467.955	9069
468.034	10645
468.113	22421
468.192	32629
468.271	11250
468.350	8203
468.429	8914
468.508	8881
468.588	7983
468.667	7306
468.746	7474
468.825	7426
468.904	6348
468.983	7294
469.062	9687
469.141	10961
469.220	7206
469.299	6410
469.378	6855
469.456	9219
469.535	8458
469.614	7652
469.693	7962
469.772	9606
469.851	10967
469.930	9778
470.009	7957
470.088	7294
470.166	9023
470.245	13467
470.324	15616
470.403	11162
470.482	6953
470.560	6793
470.639	6976
470.718	8386
470.797	6485
470.875	7919
470.954	8862
471.033	11541
471.111	5596
471.190	5209
471.269	5622
471.347	5577
471.426	5757
471.505	6938
471.583	7991
471.662	7604
471.740	6997
471.819	6125
471.898	5495
471.976	6230
472.055	5706
472.133	7049
472.212	9278
472.290	7121
472.369	5164
472.447	5793
472.526	5470
472.604	6223
472.683	6212
472.761	6154
472.839	5703
472.918	6139
472.996	5485
473.075	5857
473.153	6486
473.231	5472
473.310	6502
473.388	6499
473.466	5581
473.545	7616
473.623	9137
473.701	8843
473.780	6423
473.858	6032
473.936	6490
474.014	6399
474.093	6497
474.171	8539
474.249	10891
474.327	8151
474.405	5311
474.484	5156
474.562	5456
474.640	5825
474.718	6301
474.796	6072
474.874	5975
474.952	5247
475.030	5269
475.108	5997
475.187	6863
475.265	7272
475.343	9702
475.421	11466
475.499	5205
475.577	5403
475.655	6915
475.733	11970
475.811	19123
475.889	17355
475.966	12980
476.044	4488
476.122	6756
476.200	9285
476.278	7829
476.356	5290
476.434	4901
476.512	5702
476.590	8752
476.667	7672
476.745	5051
476.823	5304
476.901	5496
476.979	4133
477.056	5891
477.134	5589
477.212	5597
477.290	4895
477.367	4339
477.445	4239
477.523	4458
477.601	3946
477.678	4694
477.756	5707
477.834	6173
477.911	4421
477.989	4629
478.066	4258
478.144	4942
478.222	5953
478.299	10126
478.377	10027
478.454	4051
478.532	3678
478.609	3606
478.687	5548
478.764	4241
478.842	4631
478.919	4670
478.997	5006
479.074	4026
479.152	5182
479.229	6183
479.307	3657
479.384	4503
479.461	3981
479.539	3999
479.616	4401
479.694	3722
479.771	4779
479.848	4603
479.926	5416
480.003	6786
480.080	3769
480.157	3772
480.235	3594
480.312	3495
480.389	4329
480.467	6643
480.544	8681
480.621	4714
480.698	3289
480.775	4933
480.853	5056
480.930	4537
481.007	4143
481.084	5509
481.161	6542
481.238	6712
481.315	4022
481.392	3347
481.470	3542
481.547	3570
481.624	3468
481.701	4119
481.778	3978
481.855	4750
481.932	5562
482.009	11808
482.086	8153
482.163	4137
482.240	7310
482.317	13289
482.393	10414
482.470	4308
482.547	4072
482.624	3968
482.701	4024
482.778	3871
482.855	2917
482.932	3767
483.009	3075
483.085	4565
483.162	5114
483.239	5900
483.316	3805
483.393	4511
483.469	3694
483.546	3482
483.623	3751
483.699	3932
483.776	3051
483.853	4419
483.930	5998
484.006	15380
484.083	29165
484.160	20114
484.236	30787
484.313	25630
484.389	18056
484.466	15555
484.543	13843
484.619	14537
484.696	16046
484.772	15592
484.849	14993
484.925	13971
485.002	13078
485.078	13819
485.155	14506
485.231	13321
485.308	13192
485.384	13154
485.461	14929
485.537	20802
485.614	23610
485.690	12975
485.766	11590
485.843	13336
485.919	16837
485.995	17491
486.072	11628
486.148	12098
486.224	11601
486.301	11373
486.377	13021
486.453	12903
486.530	11938
486.606	17439
486.682	20306
486.758	20998
486.835	21777
486.911	17319
486.987	26499
487.063	31514
487.139	40938
487.215	29804
487.292	16552
487.368	12964
487.444	13838
487.520	17592
487.596	17202
487.672	22425
487.748	49254
487.824	77183
487.900	30074
487.976	13509
488.052	13205
488.128	16032
488.204	12999
488.280	12176
488.356	12927
488.432	21436
488.508	32722
488.584	15165
488.660	11069
488.736	11313
488.812	11515
488.888	14615
488.964	18878
489.039	36482
489.115	57816
489.191	37082
489.267	12504
489.343	10863
489.418	9430
489.494	10259
489.570	8205
489.646	10057
489.722	9292
489.797	9192
489.873	11644
489.949	23493
490.024	21233
490.100	9501
490.176	8820
490.251	10696
490.327	14867
490.403	9225
490.478	8536
490.554	7706
490.629	7675
490.705	6913
490.781	8851
490.856	7844
490.932	9616
491.007	9159
491.083	9510
491.158	7885
491.234	10460
491.309	18435
491.385	20009
491.460	8337
491.536	8343
491.611	8553
491.686	8141
491.762	11777
491.837	22873
491.913	38067
491.988	50176
492.063	69277
492.139	18402
492.214	10999
492.289	6602
492.365	6341
492.440	7901
492.515	7605
492.590	7215
492.666	5720
492.741	8396
492.816	10981
492.891	7107
492.967	7127
493.042	6210
493.117	6147
493.192	6244
493.267	9912
493.342	25778
493.418	34776
493.493	8794
493.568	5620
493.643	5691
493.718	7778
493.793	10023
493.868	13669
493.943	9111
494.018	6755
494.093	5572
494.168	6109
494.243	4282
494.318	5097
494.393	4853
494.468	5172
494.543	5133
494.618	5661
494.693	5213
494.768	4042
494.842	4941
494.917	5050
494.992	5059
495.067	5056
495.142	4038
495.217	4934
495.292	5985
495.366	6016
495.441	7651
495.516	9718
495.591	13207
495.665	45142
495.740	116585
495.815	50908
495.890	9157
495.964	5523
496.039	8154
496.114	6912
496.188	8634
496.263	8688
496.338	5357
496.412	6507
496.487	9328
496.561	8795
496.636	9763
496.710	6929
496.785	7244
496.860	9141
496.934	7387
497.009	7644
497.083	7881
497.158	7755
497.232	8603
497.307	10573
497.381	9147
497.455	11251
497.530	13191
497.604	10686
497.679	11584
497.753	16363
497.827	23861
497.902	22896
497.976	24921
498.050	44375
498.125	160946
498.199	189682
498.273	39376
498.348	28785
498.422	22435
498.496	19856
498.570	17736
498.645	13012
498.719	11488
498.793	13390
498.867	18337
498.941	23270
499.016	59512
499.090	177614
499.164	72298
499.238	9063
499.312	7937
499.386	10162
499.460	10737
499.534	8736
499.609	10132
499.683	12810
499.757	12966
499.831	25095
499.905	107089
499.979	116037
500.053	16825
500.127	16402
500.201	13047
500.275	8345
500.349	7194
500.422	10182
500.496	13827
500.570	27740
500.644	60840
500.718	119581
500.792	30726
500.866	8251
500.940	8499
501.013	8404
501.087	7584
501.161	14173
501.235	17864
501.309	31895
501.382	90700
501.456	92905
501.530	18929
501.603	29763
501.677	13466
501.751	5793
501.825	7248
501.898	11518
501.972	37402
502.046	24875
502.119	6456
502.193	16536
502.266	40552
502.340	20994
502.413	16202
502.487	34227
502.561	19470
502.634	6662
502.708	6031
502.781	5038
502.855	4832
502.928	3855
503.002	3053
503.075	3321
503.149	4230
503.222	4369
503.295	3927
503.369	7030
503.442	7703
503.516	25116
503.589	66733
503.662	47145
503.736	13096
503.809	30542
503.882	27811
503.956	38324
504.029	38876
504.102	29645
504.175	43114
504.249	15734
504.322	8396
504.395	6332
504.468	3724
504.542	4526
504.615	3479
504.688	4267
504.761	3039
504.834	6142
504.907	6020
504.980	10480
505.053	5184
505.127	5595
505.200	8261
505.273	5720
505.346	3838
505.419	2755
505.492	3366
505.565	2138
505.638	2746
505.711	2740
505.784	2746
505.857	2008
505.930	4133
506.003	1906
506.076	4722
506.149	4376
506.221	4561
506.294	6137
506.367	12841
506.440	50585
506.513	31223
506.586	7473
506.659	3788
506.731	3647
506.804	4377
506.877	6672
506.950	4223
507.022	3592
507.095	3210
507.168	5724
507.241	3501
507.313	2392
507.386	3272
507.459	6858
507.531	4327
507.604	2634
507.677	3246
507.749	1771
507.822	4847
507.894	10003
507.967	14271
508.040	7590
508.112	6166
508.185	5582
508.257	5881
508.330	8582
508.402	5194
508.475	4662
508.547	5026
508.620	5125
508.692	7366
508.765	6063
508.837	4767
508.909	3994
508.982	4024
509.054	6513
509.127	4535
509.199	4200
509.271	2986
509.344	3038
509.416	3671
509.488	4583
509.560	3742
509.633	4483
509.705	4461
509.777	5341
509.849	7319
509.922	5744
509.994	3720
510.066	4489
510.138	4744
510.210	12163
510.283	10030
510.355	8427
510.427	8002
510.499	7484
510.571	7105
510.643	6248
510.715	9629
510.787	8018
510.859	6821
510.931	7057
511.003	9577
511.076	10161
511.148	4760
511.219	5088
511.291	8036
511.363	9491
511.435	5784
511.507	4617
511.579	6079
511.651	5604
511.723	4776
511.795	5187
511.867	4293
511.939	6491
512.010	9509
512.082	9860
512.154	5034
512.226	5776
512.298	9899
512.369	14229
512.441	10759
512.513	10678
512.585	7051
512.656	8404
512.728	7985
512.800	6605
512.871	6111
512.943	6245
513.015	5432
513.086	7495
513.158	6838
513.230	6136
513.301	9759
513.373	11768
513.444	7169
513.516	5271
513.588	6462
513.659	6167
513.731	8911
513.802	6463
513.874	14019
513.945	24443
514.016	9811
514.088	5893
514.159	6718
514.231	9031
514.302	12919
514.374	9102
514.445	7195
514.516	13704
514.588	10849
514.659	9026
514.730	12385
514.802	12326
514.873	8782
514.944	10916
515.016	8235
515.087	8728
515.158	9988
515.229	13766
515.301	9714
515.372	13929
515.443	8730
515.514	7248
515.585	5710
515.656	6670
515.728	6247
515.799	5332
515.870	5996
515.941	7032
516.012	5612
516.083	10051
516.154	9583
516.225	13679
516.296	12743
516.367	11105
516.438	12004
516.509	16877
516.580	23683
516.651	64490
516.722	251908
516.793	130635
516.864	22776
516.935	21167
517.006	24902
517.077	32304
517.148	72401
517.219	260392
517.289	474109
517.360	109270
517.431	32702
517.502	10475
517.573	10842
517.643	9051
517.714	10207
517.785	11555
517.856	12346
517.926	15794
517.997	19195
518.068	23540
518.138	32972
518.209	48882
518.280	162167
518.350	660308
518.421	298726
518.492	31059
518.562	16181
518.633	13576
518.703	12046
518.774	20524
518.845	43985
518.915	50885
518.986	17128
519.056	13192
519.127	21478
519.197	30801
519.268	60446
519.338	43839
519.408	11197
519.479	13903
519.549	11168
519.620	7426
519.690	5430
519.760	6721
519.831	5717
519.901	7168
519.971	6422
520.042	5636
520.112	6417
520.182	8246
520.253	8995
520.323	5815
520.393	6847
520.463	13029
520.534	6104
520.604	17905
520.674	10191
520.744	8059
520.814	17154
520.885	17925
520.955	17272
521.025	65037
521.095	30691
521.165	7665
521.235	5207
521.305	5069
521.375	5495
521.445	5266
521.515	7549
521.585	9431
521.655	7953
521.725	7724
521.795	6413
521.865	2690
521.935	8295
522.005	5934
522.075	4143
522.145	5030
522.215	4762
522.285	7293
522.355	9653
522.424	17138
522.494	15029
522.564	10311
522.634	16538
522.704	56235
522.774	25146
522.843	5968
522.913	5600
522.983	6765
523.053	5300
523.122	5796
523.192	7663
523.262	26219
523.331	30626
523.401	6965
523.471	3649
523.540	4987
523.610	3551
523.680	3601
523.749	3812
523.819	4534
523.888	5101
523.958	3052
524.027	3352
524.097	3926
524.166	4124
524.236	3664
524.305	5703
524.375	3620
524.444	2883
524.514	4749
524.583	3290
524.653	4628
524.722	5736
524.791	3639
524.861	4470
524.930	3528
524.999	3210
525.069	6573
525.138	4254
525.207	4838
525.277	4129
525.346	4951
525.415	3786
525.484	3950
525.554	3762
525.623	5105
525.692	4502
525.761	5680
525.830	5703
525.900	6162
525.969	9575
526.038	15832
526.107	26760
526.176	86655
526.245	82365
526.314	27673
526.383	44774
526.452	66372
526.522	98615
526.591	126059
526.660	39038
526.729	19594
526.797	21222
526.867	38497
526.935	166034
527.004	273993
527.073	172951
527.142	16745
527.211	7184
527.280	6634
527.349	6824
527.418	2780
527.487	4597
527.555	2859
527.624	2406
527.693	2604
527.762	4561
527.831	2645
527.899	3201
527.968	2973
528.037	2718
528.106	4695
528.174	8594
528.243	7277
528.312	8379
528.380	14015
528.449	3646
528.518	4275
528.586	2062
528.655	3917
528.723	1223
528.792	2617
528.861	1837
528.929	1580
528.998	2295
529.066	1895
529.135	3068
529.203	1123
529.272	1304
529.340	2695
529.409	3013
529.477	1798
529.545	2413
529.614	5160
529.682	3329
529.751	4857
529.819	6138
529.887	3635
529.956	2071
530.024	3286
530.092	1845
530.161	3889
530.229	6494
530.297	3831
530.365	3466
530.434	1879
530.502	2216
530.570	2478
530.638	584
530.707	3126
530.775	4017
530.843	2399
530.911	2440
530.979	2706
531.047	2126
531.115	3033
531.183	2565
531.252	2946
531.320	2164
531.388	1450
531.456	2250
531.524	1438
531.592	3240
531.660	4224
531.728	1462
531.796	2356
531.864	1469
531.932	2007
532.000	2003
532.067	2540
532.135	3829
532.203	3870
532.271	3879
532.339	8115
532.407	21490
532.475	15119
532.542	7405
532.610	8093
532.678	8131
532.746	37998
532.814	117167
532.881	34285
532.949	5920
533.017	3906
533.084	2936
533.152	2556
533.220	2240
533.287	2640
533.355	2823
533.423	2869
533.490	2505
533.558	2805
533.625	3010
533.693	3295
533.761	3239
533.828	4444
533.896	2774
533.963	7472
534.031	8884
534.098	14349
534.166	6910
534.233	2621
534.300	3546
534.368	3910
534.435	2464
534.503	4169
534.570	4767
534.637	4550
534.705	4988
534.772	6130
534.840	7625
534.907	34859
534.974	60141
535.041	8898
535.109	3841
535.176	2594
535.243	3238
535.310	3410
535.378	2555
535.445	2859
535.512	3414
535.579	3009
535.646	2754
535.714	3715
535.781	4535
535.848	5494
535.915	4977
535.982	2809
536.049	3033
536.116	4672
536.183	3371
536.250	3331
536.317	2957
536.384	4859
536.451	6863
536.518	7911
536.585	3930
536.652	7281
536.719	9552
536.786	7957
536.853	5951
536.920	9341
536.987	13576
537.053	14004
537.120	51695
537.187	57043
537.254	6056
537.321	4574
537.388	5020
537.454	2598
537.521	2693
537.588	3525
537.654	4756
537.721	5806
537.788	5675
537.855	3862
537.921	4780
537.988	4132
538.055	5093
538.121	4572
538.188	4653
538.254	7305
538.321	14966
538.388	10589
538.454	4925
538.521	4407
538.587	4166
538.654	3667
538.720	3158
538.787	4627
538.853	4157
538.920	5370
538.986	5533
539.053	4881
539.119	4384
539.185	4713
539.252	7152
539.318	8698
539.385	8536
539.451	5839
539.517	7499
539.583	8026
539.650	14639
539.716	43318
539.782	15062
539.849	5682
539.915	4844
539.981	5133
540.047	6415
540.114	5496
540.180	6515
540.246	5061
540.312	6554
540.378	14030
540.444	16260
540.510	15798
540.576	47888
540.643	18516
540.709	4153
540.775	5280
540.841	4177
540.907	7103
540.973	10075
541.039	8904
541.105	9714
541.171	6305
541.237	4200
541.303	6413
541.369	7018
541.435	7113
541.500	12937
541.566	8500
541.632	4024
541.698	4632
541.764	3908
541.830	4059
541.896	3033
541.961	6186
542.027	4592
542.093	5416
542.159	5315
542.224	5752
542.290	7941
542.356	12334
542.421	16997
542.487	7033
542.553	4689
542.618	6466
542.684	5698
542.750	4533
542.815	6981
542.881	11033
542.947	38014
543.012	35294
543.078	5361
543.143	4733
543.209	5840
543.274	5791
543.340	6823
543.405	13808
543.471	26629
543.536	7845
543.602	4561
543.667	4238
543.732	5857
543.798	3677
543.863	5529
543.928	4384
543.994	3217
544.059	4361
544.124	4955
544.190	4842
544.255	4653
544.320	5741
544.386	4877
544.451	7457
544.516	9300
544.581	9103
544.646	22228
544.712	45354
544.777	11000
544.842	6096
544.907	6680
544.972	4880
545.037	5205
545.102	7257
545.168	5996
545.233	7060
545.298	8125
545.363	7823
545.428	9286
545.493	14718
545.558	33731
545.623	16601
545.688	6418
545.753	6206
545.818	6411
545.883	7006
545.947	5765
546.012	7144
546.077	6523
546.142	8086
546.207	6529
546.272	9118
546.337	9870
546.401	7892
546.466	8599
546.531	6525
546.596	7662
546.661	7843
546.725	8378
546.790	7431
546.855	8508
546.919	8849
546.984	8894
547.049	9325
547.113	11738
547.178	10369
547.243	12312
547.307	14294
547.372	15493
547.436	17125
547.501	14615
547.565	17297
547.630	16675
547.695	18129
547.759	16716
547.823	15919
547.888	15325
547.952	15487
548.017	16070
548.081	17646
548.146	18845
548.210	17963
548.274	16853
548.339	17015
548.403	16251
548.468	15107
548.532	14299
548.596	15337
548.660	15669
548.725	17526
548.789	18952
548.853	19577
548.917	16313
548.982	18636
549.046	18150
549.110	15328
549.174	13421
549.238	14768
549.303	15884
549.367	18671
549.431	16493
549.495	15569
549.559	15694
549.623	17411
549.687	21307
549.751	24170
549.815	24498
549.879	23246
549.943	21344
550.007	23118
550.071	23730
550.135	24289
550.199	21125
550.263	20536
550.327	19711
550.391	22128
550.455	21597
550.519	22257
550.582	23663
550.646	26846
550.710	30822
550.774	25946
550.838	25269
550.901	25997
550.965	28487
551.029	28372
551.093	31194
551.156	35156
551.220	44261
551.284	53893
551.347	39406
551.411	38938
551.475	43800
551.538	28789
551.602	26037
551.666	24772
551.729	22542
551.793	23131
551.856	22677
551.920	20608
551.983	22199
552.047	21313
552.110	22601
552.174	22347
552.237	22821
552.301	21811
552.364	20553
552.428	20599
552.491	20207
552.554	21823
552.618	22231
552.681	21849
552.745	22364
552.808	30463
552.871	39209
552.934	28001
552.998	21687
553.061	21000
553.124	21303
553.187	20302
553.251	19979
553.314	21100
553.377	21450
553.440	23054
553.503	33147
553.567	43848
553.630	23742
553.693	21626
553.756	21942
553.819	20956
553.882	20806
553.945	20020
554.008	20762
554.071	20382
554.134	21025
554.197	19900
554.260	18800
554.323	21915
554.386	20508
554.449	21093
554.512	21082
554.575	19377
554.638	19557
554.701	19345
554.764	18920
554.827	18789
554.889	17593
554.952	16814
555.015	16314
555.078	16885
555.141	17900
555.203	16584
555.266	16880
555.329	17962
555.391	16430
555.454	16766
555.517	16169
555.580	15312
555.642	14584
555.705	14536
555.768	15084
555.830	14979
555.893	12715
555.955	14125
556.018	12752
556.080	13753
556.143	14071
556.206	12930
556.268	12980
556.330	13218
556.393	13399
556.455	13252
556.518	14570
556.580	15218
556.643	11747
556.705	12360
556.767	10176
556.830	11840
556.892	13297
556.955	15772
557.017	14336
557.079	11149
557.142	10732
557.204	11705
557.266	18093
557.328	17015
557.391	9381
557.453	9710
557.515	9784
557.577	11318
557.639	11937
557.701	10335
557.764	8761
557.826	9676
557.888	10526
557.950	10349
558.012	11543
558.074	14526
558.136	26440
558.198	71101
558.260	35201
558.322	12672
558.384	13246
558.446	15556
558.508	17280
558.570	21113
558.632	31420
558.694	44695
558.756	47434
558.818	118545
558.880	351485
558.942	136185
559.003	76615
559.065	46923
559.127	18253
559.189	17145
559.251	19769
559.312	27236
559.374	54353
559.436	206498
559.498	135947
559.559	21308
559.621	17613
559.683	20248
559.744	30159
559.806	87181
559.868	166176
559.929	39641
559.991	18092
560.052	23663
560.114	64513
560.176	54911
560.237	35576
560.299	70587
560.360	20324
560.422	8572
560.483	9188
560.545	7580
560.606	7184
560.667	7445
560.729	7234
560.790	6359
560.852	6669
560.913	7421
560.974	5785
561.036	7085
561.097	7247
561.158	6662
561.220	7504
561.281	6860
561.342	7309
561.403	8827
561.465	9158
561.526	19793
561.587	29215
561.648	9146
561.709	7291
561.771	6360
561.832	6471
561.893	6404
561.954	7214
562.015	6329
562.076	6300
562.137	5829
562.198	5784
562.259	7245
562.320	6134
562.381	7106
562.442	9976
562.503	8607
562.564	6557
562.625	6149
562.686	6325
562.747	6641
562.808	7174
562.869	6764
562.930	8438
562.991	7770
563.051	7906
563.112	7321
563.173	5829
563.234	5751
563.294	7086
563.355	7116
563.416	7030
563.477	6881
563.537	6359
563.598	6779
563.659	7097
563.720	6418
563.780	6479
563.841	7495
563.901	7071
563.962	6701
564.023	6514
564.083	7294
564.144	6423
564.204	6557
564.265	7379
564.325	7354
564.386	11680
564.446	11339
564.507	6539
564.567	5663
564.628	6797
564.688	6807
564.749	7053
564.809	7823
564.869	7873
564.930	6655
564.990	6974
565.050	6477
565.111	6834
565.171	5940
565.231	6709
565.292	7680
565.352	6947
565.412	7423
565.472	7314
565.532	7823
565.593	7657
565.653	7061
565.713	6647
565.773	7122
565.833	8307
565.893	11483
565.953	7096
566.013	8092
566.074	7290
566.134	9274
566.194	12222
566.254	13376
566.314	9823
566.374	7850
566.434	8031
566.494	7806
566.554	6692
566.614	8464
566.673	8185
566.733	8700
566.793	9606
566.853	9040
566.913	9182
566.973	9951
567.033	10562
567.092	10563
567.152	9384
567.212	10258
567.272	10744
567.331	11113
567.391	9893
567.451	10908
567.511	12984
567.570	14328
567.630	10817
567.690	11432
567.749	10737
567.809	11597
567.868	13838
567.928	14547
567.988	16823
568.047	19336
568.107	22212
568.166	30831
568.226	50538
568.285	74535
568.345	59602
568.404	44681
568.464	37713
568.523	34436
568.582	35215
568.642	39349
568.701	49997
568.761	75446
568.820	123665
568.879	122775
568.939	81989
568.998	57208
569.057	41677
569.116	33178
569.176	26048
569.235	21240
569.294	18680
569.353	16430
569.413	15349
569.472	13594
569.531	12124
569.590	10945
569.649	11485
569.708	10805
569.767	10984
569.827	11432
569.886	10086
569.945	8490
570.004	9089
570.063	9011
570.122	8718
570.181	9954
570.240	8569
570.299	9503
570.358	9102
570.417	7357
570.475	7610
570.534	8895
570.593	7880
570.652	8238
570.711	8325
570.770	7496
570.829	8230
570.887	7930
570.946	8571
571.005	8085
571.064	7081
571.122	8583
571.181	8465
571.240	7700
571.299	6833
571.357	7293
571.416	7408
571.475	7921
571.533	8428
571.592	6929
571.650	7376
571.709	6480
571.768	7691
571.826	6517
571.885	6201
571.943	6354
572.002	6192
572.060	6498
572.119	6908
572.177	5985
572.236	6221
572.294	5975
572.352	6435
572.411	6284
572.469	5398
572.528	5909
572.586	6146
572.644	6816
572.703	9202
572.761	6922
572.819	6445
572.877	5695
572.936	6107
572.994	6156
573.052	5330
573.110	6465
573.169	6777
573.227	5049
573.285	6379
573.343	6021
573.401	6208
573.459	5877
573.517	5749
573.576	6533
573.634	5322
573.692	7119
573.750	5913
573.808	5742
573.866	6526
573.924	7570
573.982	7165
574.040	6582
574.098	6489
574.155	5969
574.213	5509
574.271	5281
574.329	6237
574.387	4662
574.445	5191
574.503	4781
574.560	5646
574.618	5100
574.676	5621
574.734	5962
574.792	6362
574.849	5149
574.907	5051
574.965	5138
575.022	4374
575.080	5184
575.138	5587
575.195	5139
575.253	4899
575.311	5696
575.368	5607
575.426	5490
575.483	6193
575.541	5700
575.598	4316
575.656	6225
575.713	5180
575.771	6030
575.828	6030
575.886	5527
575.943	6192
576.001	5592
576.058	4468
576.115	6224
576.173	6793
576.230	7362
576.287	7741
576.345	7613
576.402	6333
576.459	6001
576.517	5965
576.574	6697
576.631	6618
576.688	7007
576.746	6159
576.803	5181
576.860	5796
576.917	5772
576.974	5854
577.031	6582
577.089	5863
577.146	5471
577.203	6226
577.260	6674
577.317	7019
577.374	5702
577.431	6597
577.488	6160
577.545	5583
577.602	6406
577.659	5651
577.716	6418
577.773	6410
577.830	5258
577.886	5779
577.943	5390
578.000	6426
578.057	6189
578.114	5797
578.171	6611
578.227	6029
578.284	5900
578.341	6239
578.398	5741
578.454	6010
578.511	7143
578.568	7502
578.625	5852
578.681	6017
578.738	5091
578.794	5351
578.851	6293
578.908	6771
578.964	7233
579.021	6994
579.077	6629
579.134	5213
579.190	6344
579.247	5950
579.303	5850
579.360	6049
579.416	5921
579.473	5608
579.529	5937
579.586	5320
579.642	6212
579.698	6406
579.755	6664
579.811	5155
579.867	5496
579.924	5470
579.980	6157
580.036	5339
580.093	6474
580.149	6956
580.205	7190
580.261	6139
580.317	6966
580.374	6736
580.430	7350
580.486	7335
580.542	6309
580.598	6031
580.619	6356
580.654	6924
580.692	6409
580.710	6156
580.765	6703
580.767	6724
580.823	7211
580.838	6989
580.879	6391
580.911	6378
580.935	6375
580.984	6652
580.991	6692
581.047	6014
581.057	6231
581.103	7189
581.130	7019
581.159	6852
581.203	7784
581.215	8038
581.270	6942
581.276	6914
581.326	6610
581.349	6932
581.382	7427
581.422	6927
581.438	6731
581.494	7079
581.494	7082
581.550	7230
581.567	7260
581.606	7280
581.640	7424
581.661	7540
581.713	8234
581.717	8284
581.773	7257
581.786	7277
581.829	7405
581.859	7594
581.885	7749
581.932	7439
581.940	7376
581.996	7732
582.004	7769
582.052	7888
582.077	7908
582.107	7989
582.150	7920
582.163	7894
582.219	7827
582.223	7836
582.274	7931
582.296	7893
582.330	7804
582.368	8213
582.386	8449
582.441	8887
582.441	8886
582.497	8477
582.514	8269
582.552	8073
582.587	8197
582.608	8178
582.659	8738
582.663	8793
582.719	8556
582.732	8627
582.774	8808
582.805	8759
582.830	8723
582.877	9085
582.885	9132
582.941	8562
582.950	8648
582.996	9091
583.023	9171
583.052	9371
583.095	9266
583.107	9197
583.162	9569
583.168	9585
583.218	9648
583.240	9493
583.273	9363
583.313	9990
583.328	10196
583.384	9555
583.385	9509
583.439	8184
583.458	8714
583.494	9675
583.531	9394
583.549	9384
583.603	9795
583.605	9798
583.660	10635
583.676	10336
583.715	9529
583.748	9893
583.770	10295
583.820	10249
583.825	10215
583.881	11166
583.893	10985
583.936	10583
583.965	10973
583.991	11143
584.038	10405
584.046	10340
584.101	11311
584.110	11233
584.156	10501
584.183	10697
584.211	11115
584.255	11553
584.266	11660
584.321	11159
584.328	11185
584.376	11382
584.400	11574
584.431	12031
584.472	12210
584.486	12123
584.541	12172
584.545	12166
584.596	12218
584.617	12239
584.651	12703
584.689	13319
584.706	13426
584.761	13659
584.762	13644
584.816	13051
584.834	13460
584.871	14157
584.906	13827
584.926	13728
584.978	14385
584.980	14426
585.035	15112
585.051	15319
585.090	15951
585.123	16447
585.145	16715
585.195	17118
585.200	17227
585.254	18422
585.267	18909
585.309	20490
585.340	21486
585.364	22141
585.412	23133
585.419	23316
585.473	25207
585.484	25611
585.528	28382
585.556	31209
585.583	37577
585.628	52015
585.637	58214
585.692	106553
585.700	116618
585.747	158574
585.772	147466
585.801	103079
585.845	44322
585.856	37552
585.910	26928
585.917	25837
585.965	23589
585.989	22767
586.019	22743
586.061	22442
586.074	22441
586.128	23006
586.133	23039
586.183	23737
586.205	23995
586.237	24323
586.277	24229
586.292	24277
586.346	24599
586.349	24613
586.401	25383
586.421	25631
586.455	26342
586.493	27220
586.509	28097
586.564	30498
586.565	30575
586.618	37599
586.637	38993
586.672	37093
586.709	32896
586.727	31812
586.781	32126
586.781	32171
586.835	32109
586.853	31899
586.889	31797
586.925	31990
586.944	32325
586.996	33263
586.998	33339
587.052	34761
587.068	34942
587.106	36083
587.140	37320
587.161	37837
587.212	38252
587.215	38380
587.269	40576
587.284	41050
587.323	42080
587.356	42816
587.377	43749
587.427	46270
587.431	46478
587.485	48033
587.499	48497
587.539	50581
587.571	51978
587.593	53473
587.643	56733
587.648	57112
587.702	60230
587.715	60912
587.755	63648
587.786	66007
587.810	68393
587.858	71900
587.864	72573
587.917	79909
587.930	81483
587.971	87863
588.001	92426
588.025	96342
588.073	103962
588.079	105476
588.133	117908
588.145	120830
588.187	133159
588.217	141630
588.241	150310
588.288	166933
588.295	169943
588.348	195438
588.360	200781
588.402	227235
588.431	246215
588.456	266059
588.503	304363
588.510	311788
588.564	372702
588.575	385649
588.617	458316
588.646	509048
588.671	575192
588.718	707068
588.725	737856
588.778	980074
588.789	1030029
588.832	1264358
588.861	1420706
588.886	1451843
588.932	1460074
588.939	1444158
588.993	1234849
589.004	1213020
589.047	1431996
589.075	1542519
589.100	1446630
589.147	1211954
589.154	1179295
589.207	920664
589.218	869451
589.261	790780
589.290	742903
589.314	757642
589.361	793921
589.368	816460
589.421	1005162
589.433	1046150
589.475	1259146
589.504	1404187
589.528	1404871
589.576	1335022
589.582	1338274
589.635	1376828
589.647	1374468
589.689	1167510
589.718	999988
589.742	860623
589.790	591662
589.795	576199
589.849	432262
589.861	399544
589.902	342050
589.932	299508
589.955	277191
590.004	230010
590.009	227535
590.062	197333
590.075	189686
590.115	173117
590.146	159984
590.168	153902
590.218	139332
590.222	138708
590.275	127093
590.289	123825
590.328	117505
590.360	111950
590.381	109172
590.431	101473
590.435	101326
590.488	95074
590.503	93168
590.541	90071
590.574	86985
590.594	85512
590.645	80958
590.647	81017
590.700	76980
590.716	75702
590.753	74194
590.787	72470
590.806	71689
590.859	68572
590.859	68722
590.912	66852
590.930	66126
590.965	64804
591.001	63027
591.018	62773
591.071	61468
591.072	61280
591.124	60187
591.143	59465
591.177	58957
591.214	58031
591.230	58203
591.283	58433
591.285	58272
591.336	56931
591.356	56085
591.389	55664
591.427	54977
591.442	54584
591.495	52257
591.498	51953
591.547	51745
591.569	51369
591.600	51053
591.640	50267
591.653	50326
591.706	50014
591.711	49826
591.759	49914
591.782	49734
591.811	50303
591.853	50847
591.864	50607
591.917	48430
591.924	47970
591.969	47577
591.995	47143
592.022	47101
592.066	46678
592.075	47012
592.127	48131
592.137	48198
592.180	49218
592.208	49612
592.233	48746
592.279	46631
592.285	46739
592.338	46444
592.350	46235
592.390	44992
592.421	43801
592.443	43919
592.491	43765
592.495	43857
592.548	43248
592.562	42946
592.600	43724
592.633	44145
592.653	43988
592.704	42972
592.705	43216
592.775	42987
592.846	42687
592.916	42890
592.987	43413
593.058	43057
593.128	40765
593.199	41637
593.270	41687
593.341	39774
593.411	40582
593.482	40762
593.553	40912
593.623	39929
593.694	40706
593.764	40203
593.835	38727
593.906	39109
593.976	39940
594.047	39935
594.117	42129
594.188	42807
594.258	38898
594.329	38791
594.399	39993
594.470	39429
594.540	39120
594.611	39991
594.681	38825
594.751	40509
594.822	41254
594.892	41170
594.963	41657
595.033	41782
595.103	42236
595.174	42798
595.244	47620
595.314	51976
595.384	43118
595.455	43086
595.525	42755
595.595	44137
595.665	43980
595.736	43770
595.806	43179
595.876	43485
595.946	43016
596.016	43750
596.087	45035
596.157	44843
596.227	44340
596.297	46216
596.367	48055
596.437	50416
596.507	53338
596.577	56285
596.647	51046
596.717	50290
596.787	51706
596.857	51931
596.927	52110
596.997	52191
597.067	51917
597.137	53386
597.207	53108
597.277	53254
597.347	50712
597.417	50640
597.487	52128
597.557	52504
597.626	52852
597.696	53488
597.766	54982
597.836	58332
597.906	49520
597.975	47637
598.045	47130
598.115	48387
598.185	50840
598.254	55197
598.324	59987
598.394	59890
598.464	58732
598.533	56404
598.603	54044
598.672	53727
598.742	53373
598.812	53684
598.881	53170
598.951	54365
599.020	54276
599.090	55695
599.159	56882
599.229	55271
599.299	52178
599.368	55573
599.437	53150
599.507	50944
599.576	49174
599.646	49454
599.715	49433
599.785	48882
599.854	49578
599.924	48393
599.993	47093
600.062	47124
600.132	48072
600.201	49132
600.270	56297
600.340	58983
600.409	57421
600.478	56337
600.547	57466
600.617	54288
600.686	46463
600.755	43292
600.824	42479
600.894	41100
600.963	40831
601.032	40861
601.101	39743
601.170	38139
601.239	38119
601.308	38467
601.378	39168
601.447	38451
601.516	38489
601.585	39415
601.654	40989
601.723	39266
601.792	39201
601.861	40948
601.930	42953
601.999	43931
602.068	42093
602.137	44562
602.206	44162
602.275	44513
602.343	45445
602.412	45660
602.481	43317
602.550	42875
602.619	43723
602.688	45937
602.756	45124
602.825	44747
602.894	44797
602.963	45285
603.032	45574
603.100	46024
603.169	45132
603.238	47076
603.307	46676
603.375	46254
603.444	47323
603.513	46861
603.581	47145
603.650	49046
603.719	47581
603.787	47187
603.856	48559
603.924	49483
603.993	52144
604.061	51609
604.130	53983
604.198	56903
604.267	57021
604.335	56571
604.404	57468
604.472	57882
604.541	56649
604.609	59206
604.678	59497
604.746	59591
604.815	61154
604.883	61553
604.951	61949
605.020	62276
605.088	62369
605.156	62292
605.225	64668
605.293	64507
605.361	64579
605.429	64971
605.498	66569
605.566	68295
605.634	70636
605.702	72098
605.771	74802
605.839	76213
605.907	72741
605.975	71232
606.043	69842
606.111	70469
606.180	70427
606.248	69677
606.316	69778
606.384	68915
606.452	71432
606.520	74635
606.588	72822
606.656	70336
606.724	70120
606.792	65385
606.860	60869
606.928	55782
606.996	53758
607.064	53449
607.132	53209
607.200	55820
607.267	58981
607.335	58426
607.403	60259
607.471	58985
607.539	57271
607.607	58603
607.674	50517
607.742	51262
607.810	52115
607.878	51363
607.946	50899
608.013	53868
608.081	55989
608.149	56405
608.216	56337
608.284	58408
608.352	57911
608.419	59011
608.487	60409
608.555	58363
608.622	57751
608.690	59915
608.757	65846
608.825	68390
608.893	65739
608.960	66733
609.028	64695
609.095	64121
609.163	61394
609.230	56202
609.298	51590
609.365	53141
609.432	56385
609.500	62430
609.567	69440
609.635	78617
609.702	83021
609.769	79556
609.837	65978
609.904	55637
609.971	58175
610.039	64885
610.106	83214
610.173	149927
610.241	339165
610.308	295306
610.375	150720
610.442	73218
610.509	59923
610.577	58043
610.644	58309
610.711	59414
610.778	60005
610.845	62666
610.912	65857
610.980	68631
611.047	70561
611.114	67969
611.181	63527
611.248	63945
611.315	69369
611.382	68851
611.449	70743
611.516	71326
611.583	71277
611.650	72265
611.717	74192
611.784	72901
611.851	78737
611.918	82870
611.984	95911
612.051	133000
612.118	260361
612.185	630478
612.252	461804
612.319	119538
612.386	94267
612.452	87355
612.519	83685
612.586	83789
612.653	83630
612.719	84665
612.786	81380
612.853	74903
612.919	73258
612.986	74352
613.053	69540
613.120	65965
613.186	63676
613.253	65301
613.319	64944
613.386	65261
613.453	67114
613.519	69094
613.586	70569
613.652	79516
613.719	73944
613.785	71504
613.852	66747
613.918	64944
613.985	65421
614.051	72365
614.118	77345
614.184	77333
614.250	67687
614.317	67022
614.383	65675
614.449	67195
614.516	66135
614.582	68144
614.648	66658
614.715	65684
614.781	63749
614.847	64424
614.914	64211
614.980	63407
615.046	64330
615.112	64641
615.179	66146
615.245	68484
615.311	73753
615.377	90423
615.443	96841
615.509	77113
615.575	71783
615.642	71113
615.708	73254
615.774	77456
615.840	83018
615.906	93679
615.972	124083
616.038	204586
616.104	364857
616.170	765288
616.236	742189
616.302	178471
616.368	118417
616.434	90063
616.500	82916
616.565	87469
616.631	104445
616.697	91107
616.763	91422
616.829	124162
616.895	211235
616.961	213641
617.026	101912
617.092	71863
617.158	70403
617.224	68460
617.289	63583
617.355	61816
617.421	60819
617.487	61609
617.552	57550
617.618	56508
617.684	55909
617.749	59075
617.815	55799
617.880	53777
617.946	54731
618.012	56787
618.077	57082
618.143	53952
618.208	55857
618.274	59950
618.339	60664
618.405	51132
618.470	51560
618.536	50333
618.601	52458
618.667	48911
618.732	46746
618.798	44992
618.863	44901
618.928	44725
618.994	46414
619.059	48178
619.124	53548
619.190	48564
619.255	45173
619.320	44415
619.386	45366
619.451	44543
619.516	42795
619.581	43852
619.647	44806
619.712	44883
619.777	43264
619.842	43786
619.907	43876
619.972	45074
620.038	45400
620.103	44398
620.168	42089
620.233	43297
620.298	42896
620.363	43876
620.428	46044
620.493	45968
620.558	46061
620.623	46729
620.688	47579
620.753	45608
620.818	45872
620.883	46687
620.948	48282
621.013	46933
621.078	45971
621.143	44985
621.207	49196
621.272	46581
621.337	46505
621.402	48719
621.467	50168
621.532	50753
621.596	48323
621.661	45460
621.726	45110
621.791	45146
621.855	46747
621.920	47101
621.985	48171
622.049	49906
622.114	48341
622.179	48462
622.243	50001
622.308	50121
622.373	52676
622.437	52036
622.502	49306
622.566	48646
622.631	47489
622.695	49737
622.760	49086
622.824	48448
622.889	49497
622.953	52315
623.018	60856
623.082	61091
623.147	51307
623.211	50802
623.276	51369
623.340	48724
623.404	47219
623.469	47088
623.533	46736
623.597	46562
623.662	46041
623.726	43091
623.790	41380
623.854	40718
623.919	41539
623.983	42093
624.047	41839
624.111	42756
624.176	42990
624.240	43748
624.304	47132
624.368	43062
624.432	43912
624.496	44477
624.560	47792
624.625	48931
624.689	46900
624.753	48326
624.817	44955
624.881	43506
624.945	41766
625.009	40292
625.073	40317
625.137	44026
625.201	47722
625.265	49570
625.329	42596
625.393	43670
625.456	42951
625.520	43372
625.584	46273
625.648	48938
625.712	55912
625.776	79081
625.839	86338
625.903	51848
625.967	38152
626.031	47850
626.095	62851
626.158	44279
626.222	33688
626.286	32477
626.349	31130
626.413	30060
626.477	32551
626.540	31045
626.604	30002
626.668	30006
626.731	29020
626.795	30439
626.858	30919
626.922	29347
626.986	29121
627.049	27838
627.113	29616
627.176	29101
627.240	28566
627.303	28095
627.366	27993
627.430	28807
627.493	28625
627.557	27894
627.620	28902
627.684	28023
627.747	29767
627.810	26475
627.874	26678
627.937	24160
628.000	27786
628.064	27052
628.127	23135
628.190	24352
628.253	24503
628.317	22812
628.380	22140
628.443	21570
628.506	21827
628.569	21679
628.632	20356
628.696	20758
628.759	20524
628.822	20176
628.885	18918
628.948	19852
629.011	19165
629.074	18951
629.137	18091
629.200	18632
629.263	19681
629.326	18336
629.389	18651
629.452	18259
629.515	18709
629.578	18139
629.641	18977
629.704	19170
629.767	19534
629.830	18546
629.892	17937
629.955	17012
630.018	19292
630.081	19778
630.144	21073
630.207	18453
630.269	19854
630.332	18955
630.395	17499
630.458	18156
630.520	16829
630.583	17364
630.646	16364
630.708	15816
630.771	16649
630.834	16559
630.896	16195
630.959	16893
631.021	16494
631.084	17042
631.146	18151
631.209	18284
631.272	16523
631.334	15731
631.397	16410
631.459	16072
631.522	17451
631.584	17586
631.646	17610
631.709	18761
631.771	20902
631.834	19193
631.896	17208
631.958	14978
632.021	16548
632.083	15578
632.145	16671
632.208	16152
632.270	16391
632.332	14765
632.395	15649
632.457	16006
632.519	14766
632.581	16475
632.643	15771
632.706	16125
632.768	14914
632.830	14792
632.892	14086
632.954	15463
633.016	15862
633.078	15699
633.141	15506
633.203	14958
633.265	15571
633.327	14707
633.389	14789
633.451	15721
633.513	18135
633.575	16983
633.637	16453
633.698	17117
633.760	16173
633.822	16086
633.884	16577
633.946	15351
634.008	15395
634.070	16994
634.132	16661
634.193	18226
634.255	17149
634.317	17882
634.379	17952
634.441	16732
634.502	16205
634.564	14999
634.626	14464
634.687	15300
634.749	14255
634.811	14233
634.873	13144
634.934	13505
634.996	14238
635.057	14071
635.119	14664
635.181	13670
635.242	14766
635.304	12855
635.365	16497
635.427	13718
635.488	14226
635.550	14340
635.611	14529
635.673	12364
635.734	15198
635.796	14468
635.857	16819
635.918	15812
635.980	16854
636.041	17404
636.102	17440
636.164	17996
636.225	18384
636.286	15249
636.348	15707
636.409	13916
636.470	13231
636.531	13499
636.593	14305
636.654	14228
636.715	12359
636.776	12275
636.838	11183
636.899	12384
636.960	10911
637.021	11983
637.082	11820
637.143	11432
637.204	10531
637.265	10177
637.326	12238
637.387	10936
637.448	11038
637.509	12065
637.570	11472
637.631	11344
637.692	10157
637.753	10605
637.814	11410
637.875	10771
637.936	11547
637.997	10826
638.058	11270
638.119	11567
638.179	10189
638.240	10322
638.301	10390
638.362	10497
638.423	10148
638.483	11120
638.544	9624
638.605	11110
638.666	9754
638.726	11166
638.787	10535
638.848	10378
638.908	9764
638.969	10865
639.030	10250
639.090	8702
639.151	9736
639.211	11657
639.272	13060
639.332	17425
639.393	13191
639.453	10385
639.514	10241
639.574	10909
639.635	9529
639.695	10735
639.756	8730
639.816	11093
639.877	10461
639.937	15339
639.997	19720
640.058	10013
640.118	9159
640.178	9299
640.239	9044
640.299	8763
640.359	9040
640.420	8775
640.480	9927
640.540	9880
640.600	10574
640.661	10536
640.721	10604
640.781	13114
640.841	10992
640.901	9437
640.961	9846
641.021	9669
641.082	10373
641.142	13145
641.202	10854
641.262	7728
641.322	8577
641.382	7765
641.442	8908
641.502	8482
641.562	9773
641.622	8475
641.682	10061
641.742	8970
641.802	9374
641.861	9593
641.921	8481
641.981	11094
642.041	9972
642.101	10469
642.161	8864
642.221	7384
642.280	8760
642.340	8552
642.400	7152
642.460	8664
642.519	7863
642.579	8034
642.639	9244
642.698	6904
642.758	10436
642.818	8316
642.877	7638
642.937	8314
642.997	9607
643.056	12432
643.116	8733
643.175	9335
643.235	8353
643.294	8647
643.354	9691
643.414	10057
643.473	11242
643.532	13007
643.592	16995
643.651	25717
643.711	45662
643.770	86991
643.830	201793
643.889	478261
643.948	140468
644.008	22938
644.067	14156
644.126	11585
644.186	10056
644.245	10555
644.304	7217
644.363	9927
644.423	7401
644.482	8081
644.541	8183
644.600	7207
644.659	9820
644.719	11309
644.778	16319
644.837	24145
644.896	47766
644.955	113944
645.014	47529
645.073	11999
645.132	8670
645.191	9286
645.250	8063
645.309	8968
645.368	9141
645.427	12366
645.486	14392
645.545	25896
645.604	10938
645.663	8606
645.722	7832
645.781	8639
645.840	9198
645.898	11535
645.957	16547
646.016	22473
646.075	41800
646.134	81110
646.192	201957
646.251	354590
646.310	62382
646.369	15834
646.427	13194
646.486	9404
646.545	9404
646.603	8551
646.662	8569
646.721	7438
646.779	6428
646.838	6594
646.896	9946
646.955	11269
647.014	16658
647.072	25928
647.131	70182
647.189	41946
647.248	8560
647.306	6880
647.365	7165
647.423	5038
647.481	8018
647.540	5727
647.598	6334
647.657	6222
647.715	6690
647.773	5787
647.832	6348
647.890	4764
647.948	6319
648.007	5975
648.065	5337
648.123	5098
648.181	7708
648.240	5766
648.298	4976
648.356	5319
648.414	5525
648.472	5925
648.531	5992
648.589	5433
648.647	4451
648.705	5947
648.763	5444
648.821	5293
648.879	5892
648.937	7121
648.995	7365
649.053	8636
649.111	11682
649.169	19595
649.227	32642
649.285	65260
649.343	193327
649.401	115130
649.459	24857
649.516	17234
649.574	9006
649.632	11838
649.690	13297
649.748	10418
649.806	11609
649.863	20935
649.921	48122
649.979	39134
650.037	8229
650.094	4231
650.152	5111
650.210	4836
650.268	5586
650.325	5359
650.383	6951
650.440	4741
650.498	4688
650.556	5033
650.613	3818
650.671	4943
650.728	4463
650.786	5298
650.843	5334
650.901	4268
650.958	4735
651.016	4731
651.073	3789
651.131	3081
651.188	3174
651.246	4208
651.303	3374
651.360	5164
651.418	3815
651.475	4812
651.532	3547
651.590	4017
651.647	3165
651.704	4246
651.762	4343
651.819	4521
651.876	4091
651.933	4364
651.990	4116
652.048	3615
652.105	3799
652.162	4798
652.219	3963
652.276	4502
652.333	3861
652.390	2927
652.448	3867
652.505	3648
652.562	3851
652.619	3737
652.676	4835
652.733	5455
652.790	3715
652.847	2795
652.904	4151
652.961	2726
653.017	2916
653.074	4097
653.131	4151
653.188	3528
653.245	3247
653.302	4025
653.359	2845
653.415	4545
653.472	3368
653.529	4684
653.586	2393
653.642	2665
653.699	4039
653.756	2900
653.813	2908
653.869	3953
653.926	2559
653.983	3067
654.039	3764
654.096	3813
654.152	3802
654.209	2278
654.266	2927
654.322	2429
654.379	4403
654.435	3821
654.492	4432
654.548	5389
654.605	7483
654.661	5965
654.717	3377
654.774	3424
654.830	3318
654.887	3238
654.943	3733
655.000	3588
655.056	3693
655.112	3011
655.168	2785
655.225	3680
655.281	3509
655.337	3839
655.394	5093
655.450	5339
655.506	5046
655.562	5328
655.618	6913
655.675	3103
655.731	3413
655.787	2699
655.843	4078
655.899	3224
655.955	3446
656.011	3224
656.067	1951
656.123	4142
656.179	3125
656.235	4589
656.291	2699
656.347	4563
656.403	2745
656.459	3206
656.515	4020
656.571	4273
656.627	3817
656.683	2991
656.739	4069
656.795	3874
656.850	3920
656.906	4084
656.962	4579
657.018	2743
657.074	3131
657.129	4324
657.185	5261
657.241	8351
657.297	6133
657.352	3457
657.408	3191
657.464	3611
657.519	2849
657.575	2469
657.630	2860
657.686	2890
657.742	2777
657.797	3305
657.853	2681
657.908	4234
657.964	1674
658.019	3398
658.075	2733
658.130	4110
658.186	3057
658.241	3746
658.297	2415
658.352	3062
658.407	2828
658.463	2247
658.518	3383
658.573	3295
658.629	1836
658.684	3063
658.739	3656
658.795	2739
658.850	3453
658.905	2082
658.960	2796
659.016	2888
659.071	3209
659.126	2910
659.181	2895
659.236	5914
659.291	5595
659.346	3147
659.401	3835
659.457	4384
659.512	2505
659.567	4582
659.622	3146
659.677	3137
659.732	2441
659.787	3210
659.842	3133
659.897	3099
659.952	3887
660.007	2500
660.061	2772
660.116	2409
660.171	3093
660.226	2666
660.281	3133
660.336	1821
660.391	3655
660.445	2724
660.500	2955
660.555	2995
660.610	2225
660.664	2948
660.719	3078
660.774	3362
660.828	3004
660.883	3361
660.938	3267
660.992	2455
661.047	2960
661.101	2841
661.156	2951
661.211	2202
661.265	2829
661.320	3425
661.374	2715
661.429	1981
661.483	2958
661.538	2699
661.592	1937
661.647	3058
661.701	3642
661.755	2923
661.810	3039
661.864	2686
661.919	1757
661.973	2656
662.027	2998
662.081	2852
662.136	2267
662.190	3300
662.244	3871
662.299	2581
662.353	2514
662.407	3535
662.461	2602
662.515	3355
662.569	1755
662.624	3485
662.678	3243
662.732	2871
662.786	1640
662.840	2771
662.894	3135
662.948	2049
663.002	2723
663.056	2779
663.110	1228
663.164	2516
663.218	3110
663.272	3370
663.326	3243
663.380	2613
663.434	2699
663.488	2461
663.542	3330
663.595	2627
663.649	1885
663.703	3474
663.757	3080
663.811	2450
663.864	2318
663.918	3081
663.972	2631
664.026	2691
664.079	2270
664.133	2644
664.187	2522
664.240	2811
664.294	2879
664.348	3792
664.401	2817
664.455	2719
664.508	2545
664.562	2446
664.615	3403
664.669	2679
664.722	3151
664.776	2803
664.829	2464
664.883	2887
664.936	2435
664.990	3296
665.043	3788
665.097	3142
665.150	3999
665.203	2442
665.257	2791
665.310	3214
665.363	2679
665.417	2798
665.470	2167
665.523	2859
665.576	2270
665.630	3105
665.683	2813
665.736	2778
665.789	2684
665.842	2681
665.895	2647
665.949	2895
666.002	2767
666.055	2709
666.108	4272
666.161	2379
666.214	3911
666.267	3434
666.320	3343
666.373	3221
666.426	3091
666.479	3038
666.532	3287
666.585	3000
666.638	3687
666.691	3125
666.744	2820
666.796	2785
666.849	3678
666.902	3501
666.955	2947
667.008	2829
667.060	2229
667.113	1750
667.166	3280
667.219	2337
667.271	2631
667.324	3119
667.377	2470
667.430	2477
667.482	2370
667.535	3095
667.587	3325
667.640	3522
667.693	3746
667.745	5396
667.798	5941
667.850	3247
667.903	2286
667.955	2463
668.008	2471
668.060	3550
668.113	2946
668.165	2806
668.218	3692
668.270	3416
668.322	2883
668.375	2285
668.427	2797
668.479	2218
668.532	3209
668.584	2861
668.636	2441
668.689	2724
668.741	2152
668.793	3381
668.845	2819
668.898	2748
668.950	2721
669.002	2538
669.054	2226
669.106	2545
669.158	3324
669.211	2457
669.263	3361
669.315	2518
669.367	2472
669.419	2713
669.471	3835
669.523	4948
669.575	5149
669.627	3862
669.679	2760
669.731	3439
669.783	3129
669.835	4342
669.886	3455
669.938	3519
669.990	2821
670.042	2883
670.094	4458
670.146	4854
670.197	5004
670.249	6325
670.301	6556
670.353	10714
670.404	14642
670.456	19623
670.508	31581
670.560	54641
670.611	92305
670.663	158801
670.715	346752
670.766	562606
670.818	239704
670.869	47563
670.921	22225
670.972	13885
671.024	10498
671.075	8435
671.127	7103
671.178	5765
671.230	5107
671.281	4722
671.333	5037
671.384	3528
671.436	4562
671.487	5531
671.538	6047
671.590	7304
671.641	11299
671.692	16736
671.744	31048
671.795	24591
671.846	9291
671.897	5022
671.949	3767
672.000	3950
672.051	4089
672.102	4038
672.153	2797
672.204	3255
672.256	2774
672.307	2910
672.358	2688
672.409	3508
672.460	3754
672.511	2742
672.562	1812
672.613	2917
672.664	2461
672.715	2439
672.766	2440
672.817	2724
672.868	1670
672.919	1925
672.970	2681
673.021	1797
673.071	2154
673.122	2206
673.173	2003
673.224	2066
673.275	1961
673.326	2211
673.376	1566
673.427	1664
673.478	2089
673.528	3091
673.579	2140
673.630	1735
673.680	3012
673.731	1746
673.782	1887
673.832	2044
673.883	2561
673.934	1666
673.984	2173
674.035	2954
674.085	2525
674.136	2576
674.186	2357
674.237	3054
674.287	2894
674.338	2561
674.388	2327
674.438	1715
674.489	2500
674.539	2414
674.589	1836
674.640	2760
674.690	2052
674.740	2335
674.791	2055
674.841	2195
674.891	2296
674.942	2241
674.992	1939
675.042	1908
675.092	1921
675.142	1258
675.193	1429
675.243	1426
675.293	2717
675.343	1222
675.393	2116
675.443	2287
675.493	1477
675.543	1672
675.593	1069
675.643	1626
675.693	1379
675.743	1233
675.793	1444
675.843	1594
675.893	1299
675.943	2440
675.993	1719
676.043	1771
676.093	2030
676.142	1261
676.192	1740
676.242	1326
676.292	1653
676.341	1862
676.391	1327
676.441	2144
676.491	1704
676.540	1583
676.590	849
676.640	1319
676.689	974
676.739	1256
676.789	1815
676.838	1703
676.888	1498
676.937	1850
676.987	1064
677.037	1577
677.086	1527
677.136	1531
677.185	716
677.235	1423
677.284	1269
677.333	871
677.383	928
677.432	987
677.482	1163
677.531	1612
677.580	1666
677.630	951
677.679	1295
677.728	1352
677.778	1331
677.827	738
677.876	592
677.925	972
677.975	2010
678.024	1250
678.073	1543
678.122	686
678.171	853
678.220	1848
678.269	791
678.319	1559
678.368	1596
678.417	2026
678.466	1953
678.515	2021
678.564	2072
678.613	1647
678.662	1013
678.711	1097
678.760	1363
678.809	1843
678.857	448
678.906	880
678.955	1508
679.004	1118
679.053	1036
679.102	1333
679.151	747
679.199	1577
679.248	529
679.297	1392
679.346	1369
679.394	303
679.443	1302
679.492	1582
679.540	1592
679.589	1786
679.638	880
679.686	1453
679.735	1770
679.784	1232
679.832	1110
679.881	899
679.929	1153
679.978	1542
680.026	-289
680.075	763
680.123	1322
680.172	646
680.220	403
680.268	1744
680.317	642
680.365	-356
680.414	1174
680.462	969
680.510	1138
680.559	1226
680.607	1365
680.655	693
680.703	1238
680.752	1100
680.800	848
680.848	959
680.896	1007
680.945	1212
680.993	663
681.041	1595
681.089	1152
681.137	683
681.185	454
681.233	668
681.258	920
681.281	1116
681.329	435
681.377	435
681.380	505
681.425	951
681.473	2051
681.502	1879
681.521	1685
681.569	1471
681.617	1723
681.624	1666
681.665	981
681.713	1607
681.745	1726
681.761	1712
681.809	1206
681.857	2500
681.867	2286
681.904	1373
681.952	1929
681.989	2089
682.000	2085
682.048	1862
682.096	1705
682.111	1805
682.143	1885
682.191	1623
682.233	2844
682.239	2987
682.286	2533
682.334	2815
682.354	3058
682.382	3271
682.430	2528
682.476	3386
682.477	3367
682.525	2265
682.572	3735
682.598	3358
682.620	2999
682.667	3624
682.715	3790
682.720	3843
682.763	3920
682.810	3334
682.841	3622
682.857	3721
682.905	2632
682.952	3923
682.963	4024
683.000	4238
683.047	3994
683.085	4444
683.095	4505
683.142	3845
683.190	4615
683.206	4502
683.237	4252
683.284	4242
683.328	5137
683.332	5180
683.379	4050
683.426	3912
683.449	4156
683.473	4357
683.521	5038
683.568	5228
683.571	5237
683.615	4845
683.662	5412
683.693	5532
683.709	5568
683.757	5107
683.804	5273
683.814	5262
683.851	5152
683.898	6101
683.936	5960
683.945	5871
683.992	6355
684.039	6118
684.057	6181
684.086	6283
684.133	6310
684.179	6789
684.180	6775
684.227	6391
684.274	6779
684.300	6846
684.321	6863
684.368	6606
684.415	7083
684.422	6992
684.462	6154
684.509	6357
684.543	6285
684.556	6294
684.603	6773
684.649	6960
684.665	6970
684.696	6839
684.743	7189
684.786	7064
684.790	7042
684.837	7456
684.883	7940
684.908	8132
684.930	8266
684.977	7821
685.023	8075
685.029	8075
685.070	7762
685.117	8054
685.150	7603
685.164	7474
685.210	8266
685.257	8508
685.272	8536
685.303	8425
685.350	9088
685.393	9306
685.396	9314
685.443	8524
685.490	9602
685.514	9395
685.536	9108
685.583	9392
685.629	9268
685.636	9341
685.675	9627
685.722	9323
685.757	9089
685.768	9055
685.815	9238
685.861	9812
685.878	9909
685.908	9964
685.954	9317
686.000	9989
686.000	9994
686.047	10206
686.093	10247
686.121	10686
686.139	10806
686.185	10759
686.232	10792
686.242	10739
686.278	10386
686.324	10602
686.363	9921
686.370	9821
686.416	9833
686.463	10378
686.484	10257
686.509	10139
686.555	10020
686.601	10319
686.606	10311
686.647	10129
686.693	10736
686.727	10226
686.739	10081
686.785	10759
686.831	10698
686.848	10778
686.877	10712
686.923	10163
686.969	9950
686.969	9949
687.015	10473
687.061	10153
687.090	10667
687.107	10888
687.153	11277
687.199	10708
687.211	10846
687.245	11205
687.291	11011
687.332	11154
687.336	11195
687.382	11588
687.428	11573
687.453	11879
687.474	11861
687.520	11520
687.565	11678
687.574	11477
687.611	11059
687.657	11494
687.695	11761
687.702	11899
687.748	12421
687.794	13826
687.816	14107
687.839	13733
687.885	12873
687.931	12336
687.937	12167
687.976	11784
688.022	11938
688.058	12245
688.067	12324
688.113	12340
688.158	12446
688.179	12405
688.204	12405
688.249	12404
688.295	12599
688.300	12609
688.340	12936
688.386	13545
688.421	13759
688.431	13718
688.477	12931
688.522	13125
688.542	13095
688.567	13261
688.613	13257
688.658	13627
688.663	13588
688.703	13229
688.749	13203
688.784	13189
688.794	13203
688.839	13028
688.884	13391
688.905	13274
688.930	13195
688.975	13274
689.020	13602
689.026	13549
689.065	13364
689.110	13301
689.146	14031
689.155	14208
689.201	13603
689.246	13625
689.267	13649
689.291	13656
689.336	13318
689.381	14037
689.388	14021
689.426	14166
689.471	13835
689.509	13461
689.516	13380
689.561	14047
689.606	13757
689.630	13672
689.651	13731
689.696	13786
689.741	14032
689.750	14003
689.785	13867
689.830	14035
689.871	13685
689.875	13661
689.920	13560
689.965	14130
689.992	13799
690.010	13758
690.054	13626
690.099	14083
690.112	14207
690.144	14344
690.189	14282
690.233	13846
690.233	13863
690.278	13800
690.323	13566
690.354	13588
690.367	13767
690.412	13969
690.457	14426
690.474	14515
690.501	14360
690.546	14215
690.590	14169
690.595	14084
690.635	14014
690.680	14338
690.716	14511
690.724	14544
690.769	14645
690.813	15217
690.836	15073
690.857	15163
690.902	15467
690.946	15997
690.957	16055
690.991	17166
691.035	19088
691.077	20625
691.080	20681
691.124	20569
691.168	21217
691.198	21399
691.213	20999
691.257	19612
691.301	18246
691.318	17670
691.346	17191
691.390	16529
691.434	15498
691.439	15384
691.478	15389
691.522	15464
691.559	15757
691.567	15930
691.611	16331
691.655	16854
691.680	17016
691.699	16818
691.743	16819
691.787	16151
691.800	16001
691.831	16266
691.875	16765
691.919	17084
691.921	17063
691.964	17079
692.008	17268
692.041	17298
692.052	17385
692.096	17382
692.139	17600
692.162	17552
692.183	17380
692.227	17171
692.271	16843
692.282	16716
692.315	16863
692.359	17185
692.402	17691
692.403	17726
692.447	17426
692.490	17039
692.523	16969
692.534	17146
692.578	17556
692.622	18069
692.643	18079
692.666	17784
692.709	17811
692.753	17122
692.763	16984
692.797	17238
692.840	17832
692.884	18198
692.884	18235
692.928	17975
692.971	17765
693.004	17810
693.015	17908
693.059	17847
693.102	18038
693.124	17910
693.146	17851
693.189	17844
693.233	18077
693.245	17971
693.276	18160
693.320	18691
693.363	19163
693.365	19137
693.407	18950
693.450	18559
693.485	18377
693.493	18515
693.537	19069
693.580	19430
693.605	19644
693.624	20221
693.667	21498
693.710	22974
693.725	23315
693.753	25524
693.797	29243
693.840	33183
693.845	33500
693.883	32584
693.926	31552
693.966	30921
693.970	30680
694.013	27340
694.056	23848
694.086	21673
694.099	21636
694.142	20799
694.185	20341
694.206	20061
694.229	20020
694.272	19773
694.315	19603
694.326	19542
694.358	19834
694.401	19795
694.444	20062
694.446	20034
694.487	20365
694.530	20352
694.566	20294
694.573	20210
694.616	19544
694.659	18658
694.686	18281
694.702	18362
694.745	18197
694.787	18041
694.806	18006
694.830	18203
694.873	18373
694.916	18323
694.926	18349
694.959	18529
695.002	18447
695.044	18435
695.046	18395
695.087	18654
695.130	18575
695.166	18698
695.172	18785
695.215	18869
695.258	19267
695.286	19206
695.301	19178
695.343	19135
695.386	19134
695.406	18999
695.428	19045
695.471	19345
695.514	19349
695.526	19378
695.556	19679
695.599	20023
695.641	20156
695.646	20115
695.684	20038
695.726	19984
695.766	19930
695.769	19968
695.811	20074
695.854	19554
695.886	19481
695.896	19573
695.938	19554
695.981	19470
696.005	19453
696.023	19645
696.065	19793
696.108	20381
696.125	20375
696.150	20361
696.192	20407
696.235	20587
696.245	20588
696.277	20398
696.319	19809
696.361	19347
696.365	19253
696.404	19667
696.446	20164
696.485	20524
696.488	20567
696.530	20409
696.572	20240
696.604	20098
696.614	20123
696.656	20065
696.698	19827
696.724	19738
696.740	19754
696.783	19549
696.825	19350
696.844	19201
696.867	19368
696.909	19663
696.951	19911
696.964	19923
696.992	19932
697.034	19888
697.076	19909
697.083	19841
697.118	20129
697.160	20557
697.202	20915
697.203	20869
697.244	20639
697.286	20297
697.323	20012
697.327	20059
697.369	20003
697.411	19931
697.442	19764
697.453	19885
697.494	20269
697.536	20592
697.562	20759
697.578	20907
697.620	20998
697.661	21251
697.682	21341
697.703	21548
697.744	21682
697.786	21951
697.801	21974
697.828	22320
697.869	22721
697.911	23219
697.921	23258
697.952	22527
697.994	21526
698.035	20438
698.040	20263
698.077	20395
698.118	20396
698.160	20444
698.160	20388
698.201	20493
698.243	20606
698.279	20622
698.284	20733
698.325	21228
698.367	21764
698.399	22070
698.408	22042
698.449	21647
698.491	21298
698.518	20988
698.532	21066
698.573	21125
698.614	21157
698.638	21140
698.656	21262
698.697	21387
698.738	21523
698.757	21529
698.779	21639
698.820	21725
698.862	21814
698.877	21790
698.903	21904
698.944	21980
698.985	22060
698.996	22024
699.026	22201
699.067	22364
699.116	22501
699.235	21547
699.354	21739
699.474	21963
699.593	23854
699.713	22459
699.832	21326
699.951	22583
700.070	21382
700.190	21250
700.309	21527
700.428	20386
700.547	20592
700.667	20726
700.786	20998
700.905	20654
701.024	20731
701.143	20350
701.262	19612
701.381	20144
701.500	20738
701.619	20598
701.738	20108
701.857	19484
701.976	19374
702.095	18730
702.214	20310
702.333	20856
702.452	20030
702.571	19445
702.690	19338
702.809	19312
702.928	18815
703.047	19486
703.165	18663
703.284	18815
703.403	18401
703.522	18706
703.640	19388
703.759	19382
703.878	23819
703.997	19333
704.115	18289
704.234	16876
704.353	17933
704.471	17576
704.590	15863
704.708	16868
704.827	16779
704.946	17242
705.064	17819
705.183	17061
705.301	20855
705.420	26468
705.538	24045
705.656	21008
705.775	21348
705.893	25414
706.012	32142
706.130	21901
706.249	23452
706.367	21513
706.485	22552
706.604	21979
706.722	22230
706.840	23977
706.958	26573
707.077	23523
707.195	21200
707.313	19379
707.431	19966
707.549	18931
707.668	19752
707.786	18664
707.904	18692
708.022	20449
708.140	18765
708.258	19341
708.376	19925
708.494	18795
708.612	21637
708.730	26535
708.848	27485
708.966	23813
709.084	24034
709.202	21743
709.320	23634
709.438	22891
709.556	23669
709.674	22879
709.791	23110
709.909	22010
710.027	21906
710.145	22583
710.263	23036
710.380	21398
710.498	20968
710.616	21751
710.733	21006
710.851	21675
710.969	21331
711.086	20836
711.204	21347
711.322	20758
711.439	20527
711.557	20420
711.674	19868
711.792	19938
711.909	20398
712.027	20369
712.144	19585
712.262	19271
712.379	20838
712.497	28139
712.614	30144
712.732	25665
712.849	22973
712.966	22802
713.084	27926
713.201	26249
713.318	25493
713.436	24647
713.553	25205
713.670	23566
713.787	24467
713.905	25703
714.022	23546
714.139	21925
714.256	25043
714.373	27373
714.490	35757
714.608	59669
714.725	218386
714.842	318489
714.959	40154
715.076	24806
715.193	22088
715.310	22597
715.427	20925
715.544	20986
715.661	20792
715.778	20230
715.895	22730
716.011	22383
716.128	21119
716.245	19831
716.362	22497
716.479	22850
716.596	20757
716.713	20892
716.829	20239
716.946	20233
717.063	18667
717.180	18538
717.296	18274
717.413	18796
717.530	18632
717.646	18638
717.763	18684
717.880	17509
717.996	17504
718.113	18352
718.229	17276
718.346	17387
718.462	17063
718.579	18775
718.695	25898
718.812	23897
718.928	20909
719.045	18771
719.161	17055
719.277	16641
719.394	16962
719.510	16734
719.626	17308
719.743	20723
719.859	20640
719.975	27643
720.092	64237
720.208	172368
720.324	39237
720.440	18203
720.557	18729
720.673	22416
720.789	28530
720.905	43235
721.021	25952
721.137	16989
721.253	16378
721.369	16322
721.486	16989
721.602	19909
721.718	16163
721.834	14254
721.950	15562
722.066	14649
722.181	14930
722.297	14611
722.413	14245
722.529	14331
722.645	14303
722.761	13946
722.877	13537
722.993	14240
723.108	15022
723.224	14937
723.340	15302
723.456	13208
723.571	14395
723.687	13119
723.803	14670
723.918	13344
724.034	13705
724.150	13471
724.265	13956
724.381	19673
724.497	26506
724.612	13252
724.728	12577
724.843	12279
724.959	13947
725.074	19027
725.190	25141
725.305	12961
725.421	12787
725.536	12055
725.651	13027
725.767	12558
725.882	12975
725.997	12872
726.113	12429
726.228	11959
726.343	13039
726.459	10915
726.574	12809
726.689	11573
726.804	10977
726.920	11918
727.035	12042
727.150	11714
727.265	11331
727.380	11585
727.495	10956
727.610	10986
727.725	11349
727.841	11464
727.956	13143
728.071	14382
728.186	11043
728.301	9875
728.416	12369
728.531	10443
728.645	10746
728.760	10352
728.875	10846
728.990	10608
729.105	10945
729.220	10632
729.335	11457
729.449	9627
729.564	10974
729.679	9325
729.794	10412
729.908	10019
730.023	9873
730.138	8797
730.253	9975
730.367	10480
730.482	9514
730.596	10049
730.711	10884
730.826	10534
730.940	11650
731.055	9960
731.169	10066
731.284	9237
731.398	10774
731.513	10128
731.627	10796
731.742	11430
731.856	11784
731.970	9658
732.085	11341
732.199	11744
732.313	16148
732.428	28421
732.542	76261
732.656	61831
732.771	16101
732.885	11803
732.999	10788
733.113	10626
733.227	10929
733.342	9756
733.456	10074
733.570	9396
733.684	8887
733.798	10037
733.912	9683
734.026	9210
734.140	9980
734.254	9314
734.368	13209
734.482	16572
734.596	9350
734.710	9362
734.824	10251
734.938	8602
735.052	9160
735.166	10113
735.280	10271
735.393	9210
735.507	9280
735.621	9939
735.735	14123
735.849	10120
735.962	8953
736.076	8599
736.190	9534
736.303	10121
736.417	13512
736.531	7907
736.644	9052
736.758	7653
736.872	8380
736.985	7996
737.099	9399
737.212	8337
737.326	8456
737.439	7650
737.553	8167
737.666	8332
737.780	7600
737.893	7922
738.007	7974
738.120	7698
738.233	8176
738.347	8002
738.460	8071
738.573	8396
738.687	8521
738.800	8190
738.913	9760
739.026	8959
739.140	8102
739.253	8003
739.366	7910
739.479	7306
739.592	7301
739.705	7173
739.818	8211
739.932	7605
740.045	7175
740.158	7122
740.271	7735
740.384	7183
740.497	7799
740.610	7572
740.723	6873
740.836	6408
740.949	8006
741.062	9000
741.174	8978
741.287	6987
741.400	7311
741.513	7068
741.626	7815
741.739	7345
741.851	6546
741.964	7444
742.077	7293
742.189	7065
742.302	7482
742.415	7168
742.527	7377
742.640	6755
742.753	6821
742.865	5910
742.978	6988
743.090	6837
743.203	6307
743.316	7099
743.428	6449
743.541	6335
743.653	6227
743.766	6381
743.878	6882
743.990	7384
744.103	8763
744.215	6376
744.327	6859
744.440	7529
744.552	10585
744.664	7071
744.777	6931
744.889	5851
745.001	6851
745.113	5213
745.226	6136
745.338	6799
745.450	6084
745.562	6260
745.674	6616
745.786	5667
745.898	5539
746.010	6240
746.122	5787
746.234	5548
746.347	6032
746.459	5825
746.570	6067
746.682	6362
746.794	6414
746.906	5328
747.018	6562
747.130	6182
747.242	6587
747.354	5290
747.466	7167
747.577	5844
747.689	6448
747.801	5420
747.913	6238
748.024	5006
748.136	5174
748.248	5447
748.359	5724
748.471	5022
748.583	5907
748.694	6151
748.806	6393
748.918	6898
749.029	6722
749.141	6676
749.252	6592
749.364	6647
749.475	10471
749.587	8458
749.698	5872
749.809	5574
749.921	5820
750.032	5831
750.144	5215
750.255	5295
750.366	5811
750.478	4526
750.589	5849
750.700	5399
750.811	6493
750.923	6232
751.034	9893
751.145	12687
751.256	4736
751.367	4781
751.479	5516
751.590	5593
751.701	5705
751.812	4565
751.923	5168
752.034	5692
752.145	4904
752.256	4855
752.367	4471
752.478	4175
752.589	5014
752.700	4015
752.811	5453
752.922	4921
753.032	5839
753.143	5972
753.254	5356
753.365	5349
753.476	4901
753.586	4382
753.697	5217
753.808	5044
753.919	5090
754.029	4367
754.140	4159
754.251	5169
754.361	5506
754.472	4651
754.582	5174
754.693	4897
754.804	5668
754.914	4661
755.025	4480
755.135	4382
755.246	4557
755.356	3633
755.466	4997
755.577	4383
755.687	5220
755.798	4436
755.908	4992
756.018	5138
756.129	5011
756.239	4523
756.349	5395
756.460	4234
756.570	5340
756.680	4625
756.790	4998
756.900	5096
757.011	4222
757.121	4383
757.231	4732
757.341	4463
757.451	3582
757.561	3846
757.671	4377
757.781	3659
757.891	5354
758.001	4288
758.111	5650
758.221	5049
758.331	5324
758.441	5494
758.551	6794
758.661	5687
758.771	5764
758.880	5827
758.990	4852
759.100	4928
759.210	5003
759.320	4920
759.429	4796
759.539	4761
759.649	4897
759.758	4787
759.868	5902
759.978	4752
760.087	6161
760.197	5053
760.307	5487
760.416	4697
760.526	5196
760.635	5411
760.745	5631
760.854	5446
760.964	5400
761.073	5023
761.182	5515
761.292	4941
761.401	6498
761.511	5292
761.620	6029
761.729	4492
761.839	5627
761.948	5126
762.057	5600
762.166	5261
762.276	4268
762.385	5217
762.494	4677
762.603	4721
762.712	5626
762.822	5172
762.931	6068
763.040	5254
763.149	5729
763.258	5478
763.367	6064
763.476	5256
763.585	5870
763.694	5015
763.803	6660
763.912	5767
764.021	6341
764.130	5928
764.238	6890
764.347	5823
764.456	6201
764.565	7116
764.674	7469
764.783	6903
764.891	6289
765.000	8449
765.109	8024
765.217	8237
765.326	9700
765.435	12012
765.543	13310
765.652	14512
765.761	17519
765.869	23851
765.978	35911
766.086	58239
766.195	110427
766.303	248619
766.412	594205
766.520	598836
766.629	263698
766.737	98444
766.846	52820
766.954	34936
767.062	26587
767.171	21052
767.279	17022
767.387	13906
767.496	12772
767.604	10516
767.712	10550
767.820	8784
767.928	9548
768.037	8294
768.145	8750
768.253	8651
768.361	7900
768.469	7540
768.577	7875
768.685	7986
768.793	7841
768.901	8671
769.009	9168
769.117	9937
769.225	12819
769.333	16334
769.441	24852
769.549	44004
769.657	90923
769.765	256809
769.873	545149
769.981	302660
770.088	83309
770.196	35940
770.304	24359
770.412	18412
770.519	13793
770.627	11617
770.735	9761
770.842	8912
770.950	9203
771.058	7646
771.165	8956
771.273	7112
771.380	6797
771.488	6678
771.595	7183
771.703	5230
771.810	7210
771.918	5715
772.025	6532
772.133	6805
772.240	7026
772.348	6283
772.455	7071
772.562	5803
772.670	6460
772.777	6729
772.884	5860
772.991	6052
773.099	5796
773.206	5209
773.313	6209
773.420	4881
773.528	5101
773.635	5075
773.742	6344
773.849	5050
773.956	5682
774.063	6019
774.170	5663
774.277	5568
774.384	5917
774.491	5051
774.598	5858
774.705	5127
774.812	6383
774.919	6387
775.026	6074
775.133	5168
775.239	5462
775.346	5502
775.453	4962
775.560	5765
775.667	5848
775.773	4575
775.880	5059
775.987	5306
776.093	5936
776.200	4195
776.307	4930
776.413	4271
776.520	5320
776.627	4312
776.733	5415
776.840	3544
776.946	5453
777.053	5106
777.159	4455
777.266	4495
777.372	6578
777.478	5391
777.585	4188
777.691	4442
777.798	5127
777.904	4799
778.010	6583
778.117	6323
778.223	5449
778.329	4778
778.435	4778
778.542	5532
778.648	4911
778.754	3209
778.860	4250
778.966	4180
779.072	4507
779.178	4164
779.284	4352
779.391	4037
779.497	3724
779.603	5448
779.708	4557
779.815	6430
779.920	11354
780.026	27264
780.132	8709
780.238	4253
780.344	3730
780.450	4168
780.556	4059
780.661	3455
780.767	4398
780.873	4189
780.979	4716
781.085	3299
781.190	4097
781.296	3497
781.402	3709
781.507	2970
781.613	3133
781.719	3662
781.824	4431
781.930	3990
782.035	3973
782.141	3726
782.246	4011
782.352	2949
782.457	3672
782.563	4015
782.668	4147
782.773	3783
782.879	3863
782.984	4199
783.090	4681
783.195	5394
783.300	5332
783.405	3875
783.511	3899
783.616	3843
783.721	3813
783.826	4049
783.932	3871
784.037	4297
784.142	3444
784.247	3483
784.352	4236
784.457	3949
784.562	3778
784.667	4456
784.772	3731
784.877	2994
784.982	4169
785.087	3813
785.192	4249
785.297	2928
785.402	4173
785.507	3885
785.611	4036
785.716	2234
785.821	3612
785.926	3401
786.031	3337
786.135	3584
786.240	4039
786.345	2508
786.450	4060
786.554	3448
786.659	3198
786.763	3145
786.868	4278
786.973	3874
787.077	2875
787.182	2606
787.286	4286
787.391	3892
787.495	3530
787.600	2923
787.704	2939
787.809	2362
787.913	2895
788.017	3301
788.122	3286
788.226	3155
788.330	3206
788.435	3296
788.539	3069
788.643	2765
788.747	2883
788.852	3343
788.956	3317
789.060	2427
789.164	3443
789.268	2604
789.372	3831
789.476	2506
789.580	3523
789.684	2745
789.788	3257
789.892	3101
789.996	3796
790.100	3252
790.204	3067
790.308	2496
790.412	3539
790.516	3092
790.620	2922
790.724	3314
790.828	2785
790.931	2555
791.035	3720
791.139	2876
791.242	2431
791.346	3898
791.450	3269
791.554	2901
791.657	1685
791.761	3119
791.864	4194
791.968	2852
792.072	3598
792.175	3406
792.279	2524
792.382	2649
792.486	3349
792.589	3118
792.693	2890
792.796	2235
792.899	3817
793.003	2727
793.106	1854
793.209	2325
793.313	3895
793.416	2129
793.519	3593
793.623	4046
793.726	6316
793.829	2682
793.932	3762
794.035	2324
794.138	3328
794.242	3161
794.345	3384
794.448	2870
794.551	4373
794.654	7665
794.757	14072
794.860	5812
794.963	3022
795.066	1734
795.169	3248
795.272	2553
795.375	3148
795.477	3012
795.580	2947
795.683	1869
795.786	3607
795.889	2253
795.991	3314
796.094	3033
796.197	2925
796.300	2542
796.402	2599
796.505	1453
796.608	1973
796.710	2306
796.813	2535
796.915	2751
797.018	3649
797.120	2639
797.223	1958
797.326	3320
797.428	2835
797.530	1707
797.633	1923
797.735	3704
797.838	3347
797.940	4001
798.042	2282
798.145	2298
798.247	3098
798.349	1382
798.452	2839
798.554	1904
798.656	2225
798.758	3236
798.860	2652
798.962	2139
799.065	2151
799.167	1758
799.269	3748
799.371	2356
799.473	2920
799.575	1955
799.677	3121
799.779	3677
799.881	3078
799.983	3419
800.085	2095
800.187	2186
800.289	1623
800.390	2915
800.492	2964
800.594	2666
800.696	1414
800.798	1742
800.899	1958
801.001	2199
801.103	2559
801.205	1086
801.306	1946
801.408	1824
801.509	3128
801.611	2159
801.713	2069
801.814	1127
801.916	2422
802.017	1735
802.119	1204
802.220	1698
802.322	1005
802.423	3480
802.525	2231
802.626	1886
802.727	1549
802.829	2307
802.930	808
803.031	3284
803.133	2243
803.234	1777
803.335	2158
803.436	1484
803.538	2346
803.639	741
803.740	2343
803.841	1427
803.942	1856
804.043	2367
804.144	2082
804.245	1478
804.346	1840
804.447	1280
804.548	2357
804.649	3436
804.750	1916
804.851	1523
804.952	1850
805.053	1874
805.154	1655
805.255	2941
805.355	2587
805.456	1041
805.557	1779
805.658	903
805.758	2618
805.859	1643
805.960	1700
806.061	1591
806.161	1012
806.262	1774
806.362	1610
806.463	2480
806.564	2348
806.664	1214
806.765	2642
806.865	2736
806.966	2109
807.066	1904
807.166	2029
807.267	2560
807.367	1447
807.468	2247
807.568	1006
807.668	1832
807.769	3203
807.869	1012
807.969	2240
808.069	1900
808.170	1938
808.270	1339
808.370	2086
808.470	2102
808.570	2020
808.670	1236
808.770	2045
808.870	1300
808.970	2561
809.070	1688
809.170	1338
809.271	2244
809.370	2576
809.470	1703
809.570	1370
809.670	1550
809.770	1325
809.870	1951
809.970	1997
810.070	2180
810.169	2777
810.269	1173
810.369	2777
810.469	1171
810.568	1803
810.668	1574
810.768	1432
810.867	1844
810.967	1432
811.066	1766
811.166	1360
811.265	1953
811.365	1757
811.464	1441
811.564	1981
811.663	2343
811.763	1095
811.862	1858
811.962	2555
812.061	1969
812.160	1686
812.260	1817
812.359	2723
812.458	4276
812.557	9294
812.657	16032
812.756	6591
812.855	2505
812.954	2018
813.053	2255
813.153	2185
813.252	1434
813.351	1831
813.450	1687
813.549	2006
813.648	1909
813.747	2279
813.846	2628
813.945	2187
814.044	1483
814.143	1967
814.242	2550
814.341	1999
814.439	2148
814.538	2883
814.637	2024
814.736	2672
814.835	2125
814.933	2262
815.032	2463
815.131	2195
815.229	2896
815.328	3563
815.427	2374
815.525	2661
815.624	3348
815.722	3087
815.821	2658
815.919	3123
816.018	3434
816.116	4157
816.215	3682
816.313	3558
816.412	4653
816.510	3567
816.609	4599
816.707	4284
816.805	4889
816.904	4519
817.002	4480
817.100	6457
817.198	6899
817.296	6985
817.395	7740
817.493	9519
817.591	9459
817.689	14598
817.787	18313
817.885	27092
817.983	45511
818.081	85230
818.179	180965
818.277	391022
818.375	413387
818.473	175545
818.571	75712
818.669	46778
818.767	36691
818.865	35856
818.963	40088
819.061	53121
819.158	84038
819.256	151681
819.354	294818
819.452	526250
819.549	450931
819.647	215843
819.745	102058
819.842	60927
819.940	39732
820.038	29414
820.135	22737
820.233	20150
820.330	13943
820.428	12328
820.525	11397
820.623	9699
820.720	8670
820.818	8272
820.915	7598
821.012	7357
821.110	5040
821.207	5905
821.304	4476
821.402	5226
821.499	5253
821.596	5279
821.693	4552
821.791	5804
821.888	4932
821.985	6419
822.082	6021
822.179	4721
822.276	3370
822.373	3289
822.470	3265
822.567	3312
822.664	2133
822.761	4009
822.858	2292
822.955	2528
823.052	2497
823.149	2668
823.246	2572
823.343	2936
823.440	2365
823.536	2679
823.633	2232
823.730	2236
823.827	2110
823.923	2728
824.020	3585
824.117	2970
824.213	799
824.310	2648
824.407	2141
824.503	3207
824.600	2038
824.696	2043
824.793	2598
824.889	2525
824.986	2072
825.082	2096
825.179	1730
825.275	1851
825.371	1516
825.468	2414
825.564	1193
825.660	1916
825.757	2304
825.853	2960
825.949	991
826.045	2103
826.142	1105
826.238	2377
826.334	1741
826.430	1494
826.526	2293
826.622	1387
826.718	1700
826.814	999
826.910	1947
827.006	1182
827.102	433
827.198	1799
827.294	881
827.390	2036
827.486	1882
827.582	1189
827.678	448
827.774	2571
827.869	1434
827.965	1878
828.061	717
828.157	1004
828.252	1679
828.348	923
828.444	1742
828.539	932
828.635	546
828.731	1835
828.826	436
828.922	1503
829.017	1528
829.113	1981
829.208	806
829.304	1465
829.399	1943
829.495	1512
829.590	1769
829.685	779
829.781	404
829.876	974
829.971	1469
830.066	903
830.162	732
830.257	1279
830.352	61
830.447	2165
830.543	1550
830.638	1258
830.733	2113
830.828	972
830.923	1586
831.018	1706
831.113	1337
831.208	1574
831.303	937
831.398	1420
831.493	956
831.588	1619
831.683	430
831.778	1361
831.873	694
831.967	1942
832.062	1018
832.157	0
832.252	1404
832.346	1073
832.441	1430
832.536	2560
832.631	4435
832.725	5862
832.820	1876
832.914	1507
833.009	332
833.104	1970
833.198	2203
833.293	853
833.387	1421
833.482	1372
833.576	102
833.670	1623
833.765	1154
833.859	784
833.954	1125
834.048	1763
834.142	1193
834.237	1081
834.331	360
834.425	1650
834.519	1346
834.613	1135
834.708	1028
834.802	1819
834.896	270
834.990	775
835.084	1442
835.178	2083
835.272	1222
835.366	1052
835.460	815
835.554	1090
835.648	1131
835.742	955
835.836	1044
835.930	517
836.024	634
836.117	2424
836.211	1083
836.305	1727
836.399	2857
836.493	1182
836.586	1359
836.680	1002
836.774	714
836.867	2154
836.961	-117
837.055	930
837.148	973
837.242	958
837.335	853
837.429	851
837.522	738
837.616	1189
837.709	2319
837.803	2113
837.896	398
837.989	709
838.083	1859
838.176	2817
838.269	3086
838.363	2482
838.456	579
838.549	2072
838.642	3090
838.735	6590
838.829	4018
838.922	756
839.015	439
839.108	817
839.201	777
839.294	888
839.387	1265
839.480	871
839.573	1424
839.666	1813
839.759	1060
839.852	912
839.945	803
840.038	869
840.131	1506
840.223	692
840.316	717
840.409	870
840.502	242
840.594	1329
840.687	-470
840.780	702
840.873	746
840.965	1233
841.058	1679
841.150	2754
841.243	2187
841.336	1866
841.428	414
841.521	687
841.613	250
841.706	1939
841.798	-107
841.890	1003
841.983	-396
842.075	1526
842.167	1196
842.260	974
842.352	1534
842.444	1095
842.537	2382
842.629	5085
842.721	2788
842.813	1133
842.905	491
842.997	1364
843.090	1897
843.182	1553
843.274	2280
843.366	5972
843.458	11092
843.550	11027
843.642	2674
843.734	1498
843.826	186
843.918	1402
844.009	879
844.101	1360
844.193	441
844.285	463
844.377	1508
844.469	1918
844.560	-36
844.652	608
844.744	171
844.835	868
844.927	368
845.019	839
845.110	1002
845.202	777
845.293	430
845.385	526
845.476	199
845.568	1572
845.659	614
845.751	793
845.842	-45
845.934	59
846.025	293
846.116	1079
846.208	879
846.299	267
846.390	812
846.482	1534
846.573	837
846.664	1895
846.755	1979
846.846	3471
846.937	-272
847.029	707
847.120	508
847.211	662
847.302	1479
847.393	-301
847.484	1666
847.575	819
847.666	-164
847.757	1001
847.847	215
847.938	1170
848.029	-292
848.120	263
848.211	406
848.302	1113
848.392	545
848.483	1030
848.574	124
848.664	920
848.755	435
848.846	1327
848.936	337
849.027	1003
849.118	533
849.208	321
849.299	-394
849.389	1362
849.480	1892
849.570	4551
849.661	6873
849.751	12926
849.841	6384
849.932	1533
850.022	625
850.112	1083
850.203	872
850.293	600
850.383	84
850.474	-181
850.564	813
850.654	802
850.744	551
850.834	340
850.924	-131
851.014	1283
851.104	38
851.194	1261
851.284	159
851.374	2278
851.464	1063
851.554	1930
851.644	499
851.734	701
851.824	797
851.914	945
852.004	527
852.094	852
852.183	351
852.273	820
852.363	993
852.452	264
852.542	-93
852.632	-115
852.721	504
852.811	640
852.901	467
852.990	1587
853.080	578
853.169	665
853.259	110
853.348	835
853.438	1410
853.527	2530
853.617	1319
853.706	3479
853.795	5303
853.885	12127
853.974	23966
854.063	40950
854.152	76430
854.242	39192
854.331	6477
854.420	2328
854.509	1393
854.598	1905
854.687	904
854.777	1404
854.866	938
854.955	1742
855.044	718
855.133	957
855.222	239
855.311	148
855.400	-89
855.488	1197
855.577	234
855.666	794
855.755	1093
855.844	987
855.933	757
856.021	594
856.110	1061
856.199	1027
856.288	59
856.376	623
856.465	-109
856.554	1595
856.642	-174
856.731	998
856.819	-15
856.908	389
856.996	348
857.085	702
857.173	727
857.262	553
857.350	958
857.438	1063
857.527	-312
857.615	254
857.703	556
857.792	504
857.880	697
857.968	928
858.056	294
858.145	227
858.233	163
858.321	-669
858.409	358
858.497	227
858.585	-313
858.673	902
858.761	80
858.849	226
858.937	204
859.025	616
859.113	454
859.201	-256
859.289	1050
859.377	821
859.465	487
859.552	11
859.640	-727
859.728	3
859.816	-279
859.903	811
859.991	-284
860.079	253
860.166	-11
860.254	892
860.342	475
860.429	1139
860.517	80
860.604	533
860.692	841
860.779	572
860.867	-38
860.954	61
861.042	862
861.129	785
861.216	392
861.304	-438
861.391	363
861.478	88
861.565	350
861.653	1067
861.740	-546
861.827	177
861.914	737
862.001	79
862.089	468
862.176	965
862.263	420
862.350	843
862.437	-396
862.524	965
862.611	-312
862.698	361
862.785	729
862.871	225
862.958	402
863.045	30
863.132	387
863.219	617
863.306	-118
863.392	779
863.479	-234
863.566	57
863.652	546
863.739	286
863.826	1004
863.912	998
863.999	-41
864.086	155
864.172	331
864.259	656
864.345	311
864.432	816
864.518	-5
864.604	662
864.691	384
864.777	1196
864.863	825
864.950	1128
865.036	280
865.122	660
865.209	1660
865.295	1573
865.381	969
865.467	1176
865.553	1183
865.639	2273
865.726	3345
865.812	6419
865.898	12067
865.984	17966
866.070	31099
866.156	44490
866.242	14476
866.328	3334
866.414	391
866.499	1732
866.585	1418
866.671	1274
866.757	1151
866.843	1807
866.928	470
867.014	942
867.100	1694
867.186	1018
867.271	1615
867.357	1669
867.442	1600
867.528	1411
867.614	309
867.699	975
867.785	596
867.870	246
867.956	906
868.041	1626
868.127	614
868.212	1606
868.297	595
868.383	1849
868.468	2032
868.553	2312
868.639	3411
868.724	5504
868.809	8018
868.894	2572
868.979	-41
869.065	1111
869.150	-113
869.235	1600
869.320	106
869.405	1591
869.490	636
869.575	618
869.660	393
869.745	1192
869.830	269
869.915	255
870.000	824
870.085	1089
870.169	67
870.254	862
870.339	590
870.424	-250
870.509	-418
870.593	85
870.678	972
870.763	774
870.847	447
870.932	458
871.016	285
871.101	374
871.186	451
871.270	615
871.355	412
871.439	801
871.523	484
871.608	471
871.692	525
871.777	1745
871.861	834
871.945	287
872.030	754
872.114	209
872.198	-67
872.282	200
872.367	956
872.451	156
872.535	214
872.619	435
872.703	-302
872.787	185
872.871	5
872.955	902
873.039	-143
873.123	653
873.207	564
873.291	-99
873.375	837
873.459	150
873.543	-134
873.627	6
873.711	-201
873.794	1569
873.878	151
873.962	-312
874.045	-180
874.129	397
874.137	375
874.213	156
874.245	160
874.296	167
874.352	-252
874.380	-456
874.460	35
874.464	54
874.547	120
874.568	294
874.631	833
874.676	764
874.714	698
874.784	599
874.798	582
874.881	1504
874.892	1318
874.965	14
874.999	-42
875.048	-132
875.107	41
875.131	111
875.215	-91
875.215	-91
875.298	-676
875.323	-447
875.381	81
875.430	622
875.465	1016
875.538	672
875.548	614
875.631	286
875.646	196
875.714	-222
875.753	46
875.798	408
875.861	215
875.881	143
875.964	843
875.968	831
876.047	609
876.076	602
876.130	585
876.183	-128
876.213	-503
876.291	578
876.296	647
876.379	764
876.398	712
876.462	513
876.506	383
876.545	260
876.613	656
876.628	744
876.711	-68
876.721	-16
876.794	540
876.828	419
876.877	144
876.935	518
876.960	665
877.043	200
877.043	203
877.125	877
877.150	829
877.208	674
877.258	502
877.291	358
877.365	96
877.374	61
877.456	930
877.472	874
877.539	674
877.579	658
877.622	723
877.687	569
877.704	518
877.787	831
877.794	824
877.869	631
877.901	527
877.952	283
878.008	317
878.034	412
878.115	584
878.117	587
878.199	292
878.222	294
878.282	144
878.329	528
878.364	877
878.437	792
878.447	779
878.529	103
878.544	53
878.611	-181
878.651	-167
878.694	-19
878.758	170
878.776	144
878.858	123
878.865	169
878.941	734
878.972	459
879.023	131
879.078	232
879.105	270
879.185	588
879.187	593
879.269	907
879.292	600
879.351	-120
879.399	259
879.433	477
879.506	449
879.516	451
879.598	178
879.613	180
879.680	236
879.720	311
879.762	369
879.827	191
879.844	114
879.926	-118
879.933	-38
880.007	1080
880.040	1077
880.089	715
880.147	495
880.171	608
880.253	2193
880.254	2198
880.335	2287
880.360	2743
880.417	4296
880.467	5672
880.499	6602
880.574	9876
880.580	9977
880.662	4645
880.680	3774
880.744	1271
880.787	461
880.825	-49
880.893	223
880.907	274
880.989	-20
881.000	-2
881.070	496
881.106	554
881.152	214
881.213	-189
881.233	-155
881.315	34
881.319	56
881.396	539
881.426	720
881.478	509
881.532	398
881.559	586
881.639	234
881.641	218
881.722	263
881.745	112
881.803	6
881.852	189
881.885	193
881.958	631
881.966	671
882.047	466
882.064	509
882.129	1122
882.171	1149
882.210	963
882.277	1621
882.291	1746
882.372	1106
882.383	1024
882.454	132
882.489	-65
882.535	80
882.596	214
882.616	226
882.697	277
882.702	262
882.778	77
882.808	258
882.859	320
882.914	-57
882.940	-144
883.020	109
883.021	111
883.102	-266
883.127	-72
883.183	425
883.233	144
883.264	17
883.339	306
883.345	314
883.426	560
883.445	571
883.507	411
883.551	53
883.587	69
883.657	651
883.668	656
883.749	341
883.763	289
883.830	315
883.869	281
883.910	67
883.975	127
883.991	209
884.072	-102
884.081	-55
884.152	394
884.187	301
884.233	-16
884.292	143
884.314	232
884.394	-95
884.398	-95
884.475	506
884.504	730
884.555	319
884.610	-269
884.636	-217
884.716	-15
884.716	-12
884.797	413
884.821	341
884.877	94
884.927	252
884.958	269
885.033	-8
885.038	-30
885.118	-381
885.139	-502
885.199	-378
885.244	-129
885.279	-34
885.350	42
885.359	33
885.439	180
885.456	111
885.520	-142
885.561	-29
885.600	55
885.667	-88
885.680	-41
885.760	255
885.773	288
885.840	77
885.878	91
885.920	200
885.984	145
886.000	56
886.080	-210
886.089	-251
886.160	-197
886.195	-118
886.240	-130
886.300	-43
886.320	82
886.400	399
886.406	409
886.480	423
886.511	546
886.560	645
886.616	493
886.640	319
886.720	-10
886.722	-20
886.800	118
886.827	201
886.879	124
886.932	16
886.959	129
887.038	327
887.039	322
887.119	-212
887.143	-368
887.198	65
887.248	406
887.278	189
887.354	-257
887.358	-232
887.437	74
887.459	231
887.517	204
887.564	63
887.596	-100
887.669	-369
887.676	-330
887.755	135
887.774	244
887.835	534
887.880	750
887.914	500
887.985	6
887.994	1
888.073	-92
888.090	-109
888.153	-189
888.195	-248
888.232	-92
888.300	235
888.311	273
888.391	424
888.405	475
888.470	439
888.510	398
888.549	248
888.615	-16
888.628	17
888.708	215
888.720	252
888.787	258
888.825	223
888.866	-99
888.930	-534
888.945	-585
889.024	-866
889.035	-892
889.103	-470
889.140	-284
889.182	-441
889.245	-626
889.261	-540
889.340	-80
889.349	-27
889.419	165
889.454	260
889.498	422
889.559	658
889.577	478
889.656	-316
889.664	-391
889.735	377
889.768	740
889.814	130
889.873	-675
889.978	-112
890.083	-451
890.187	351
890.292	-350
890.397	-619
890.501	101
890.606	394
890.710	583
890.815	663
890.919	-389
891.024	-285
891.128	442
891.233	145
891.337	49
891.442	312
891.546	482
891.650	362
891.755	-333
891.859	1099
891.963	-21
892.068	-261
892.172	110
892.276	-343
892.380	-629
892.484	-310
892.589	-190
892.693	354
892.797	-300
892.901	74
893.005	-204
893.109	296
893.213	121
893.317	708
893.421	-45
893.525	284
893.629	-428
893.733	642
893.837	-263
893.941	233
894.045	-111
894.148	-241
894.252	-1015
894.356	-84
894.460	463
894.564	70
894.667	-286
894.771	-384
894.875	-951
894.978	745
895.082	-384
895.186	-2
895.289	1340
895.393	270
895.496	-255
895.600	-276
895.703	-125
895.807	23
895.910	-378
896.014	-569
896.117	-765
896.221	-269
896.324	-553
896.427	-394
896.531	124
896.634	403
896.737	-26
896.840	389
896.944	-734
897.047	5
897.150	557
897.253	-65
897.356	-526
897.460	-37
897.563	-509
897.666	808
897.769	-459
897.872	-68
897.975	123
898.078	-386
898.181	-1178
898.284	418
898.387	126
898.490	181
898.593	496
898.695	-149
898.798	401
898.901	506
899.004	652
899.107	-559
899.209	57
899.312	33
899.415	-34
899.518	-481
899.620	-631
899.723	-372
899.826	752
899.928	476
900.031	-70
900.133	-601
900.236	-273
900.338	-107
900.441	-612
900.543	293
900.646	-70
900.748	489
900.851	210
900.953	-55
901.055	2
901.158	-190
901.260	-409
901.362	608
901.465	-519
901.567	93
901.669	333
901.771	-750
901.873	256
901.976	-672
902.078	37
902.180	211
902.282	-302
902.384	-93
902.486	513
902.588	181
902.690	355
902.792	-336
902.894	461
902.996	115
903.098	313
903.200	151
903.302	-711
903.404	-540
903.505	164
903.607	-536
903.709	-121
903.811	372
903.913	-201
904.014	-133
904.116	-487
904.218	95
904.319	-563
904.421	285
904.523	-686
904.624	416
904.726	-80
904.827	11
904.929	-1308
905.030	-171
905.132	354
905.233	212
905.335	95
905.436	314
905.537	-642
905.639	-99
905.740	21
905.841	-383
905.943	-209
906.044	-546
906.145	-743
906.247	-324
906.348	-159
906.449	-138
906.550	-360
906.651	96
906.752	-303
906.854	-839
906.955	-853
907.056	297
907.157	-194
907.258	243
907.359	-429
907.460	-418
907.561	658
907.662	78
907.762	-494
907.863	460
907.964	-1253
908.065	-195
908.166	182
908.267	-469
908.367	-720
908.468	-515
908.569	-157
908.670	-141
908.770	458
908.871	-203
908.971	-277
909.072	-113
909.173	-657
909.273	-90
909.374	-729
909.474	74
909.575	242
909.675	-82
909.776	327
909.876	189
909.977	-854
910.077	-386
910.177	1101
910.278	-393
910.378	-718
910.478	-570
910.579	-827
910.679	285
910.779	580
910.879	-541
910.980	59
911.080	-572
911.180	-406
911.280	-375
911.380	-132
911.480	-151
911.580	-180
911.680	-449
911.780	-494
911.880	991
911.980	-35
912.080	-209
912.180	-514
912.280	-551
912.380	582
912.480	-125
912.580	-94
912.679	-899
912.779	2
912.879	1041
912.979	-560
913.078	-494
913.178	-742
913.278	-160
913.377	-231
913.477	-254
913.577	-496
913.676	567
913.776	-539
913.875	457
913.975	545
914.074	-139
914.174	136
914.273	-749
914.373	-367
914.472	108
914.572	-97
914.671	-285
914.770	-313
914.870	51
914.969	-429
915.068	-377
915.167	-151
915.267	306
915.366	-621
915.465	-318
915.564	-615
915.663	-36
915.763	-704
915.862	306
915.961	245
916.060	-267
916.159	-566
916.258	-152
916.357	-681
916.456	290
916.555	-780
916.654	-162
916.752	-480
916.851	-132
916.950	-729
917.049	-152
917.148	-126
917.247	16
917.345	-1064
917.444	-425
917.543	202
917.642	497
917.740	25
917.839	35
917.937	-6
918.036	115
918.135	319
918.233	-105
918.332	-336
918.430	269
918.529	-1352
918.627	-754
918.726	-288
918.824	-481
918.923	-618
919.021	-520
919.119	-439
919.218	-368
919.316	-1226
919.414	-177
919.512	-1044
919.611	-377
919.709	138
919.807	545
919.905	-118
920.003	-1101
920.102	-475
920.200	-148
920.298	-116
920.396	-267
920.494	-345
920.592	-582
920.690	-739
920.788	460
920.886	-889
920.984	167
921.082	-472
921.180	954
921.277	-298
921.375	130
921.473	10
921.571	-514
921.669	-4
921.766	-295
921.864	-139
921.962	-585
922.060	205
922.157	-395
922.255	-410
922.352	-186
922.450	131
922.548	-264
922.645	65
922.743	500
922.840	184
922.938	1179
923.035	439
923.133	440
923.230	62
923.327	77
923.425	473
923.522	1238
923.619	698
923.717	618
923.814	744
923.911	423
924.008	-189
924.106	409
924.203	406
924.300	310
924.397	-475
924.494	635
924.591	258
924.688	890
924.786	1151
924.883	1243
924.979	380
925.077	472
925.173	309
925.270	1084
925.367	141
925.464	538
925.561	847
925.658	648
925.755	1153
925.852	751
925.948	700
926.045	295
926.142	-295
926.239	559
926.335	209
926.432	357
926.529	362
926.625	1287
926.722	1180
926.818	-85
926.915	340
927.011	165
927.108	-100
927.204	519
927.301	-220
927.397	14
927.494	449
927.590	663
927.687	-265
927.783	749
927.879	-139
927.976	82
928.072	186
928.168	168
928.264	814
928.361	329
928.457	-882
928.553	714
928.649	317
928.745	240
928.841	721
928.937	377
929.033	609
929.129	903
929.225	-317
929.321	955
929.417	127
929.513	420
929.609	-154
929.705	1119
929.801	291
929.897	268
929.993	300
930.089	-185
930.184	219
930.280	41
930.376	-104
930.471	305
930.567	350
930.663	-36
930.758	-358
930.854	-46
930.950	-569
931.045	202
931.141	251
931.236	88
931.332	122
931.427	-430
931.523	44
931.618	-87
931.714	-153
931.809	178
931.905	435
932.000	-358
932.095	-585
932.191	186
932.286	321
932.381	281
932.476	-323
932.572	-88
932.667	65
932.762	-394
932.857	-23
932.952	780
933.047	71
933.142	126
933.237	-455
933.332	201
933.427	116
933.522	-305
933.617	86
933.712	155
933.807	-25
933.902	-136
933.997	-514
934.092	-737
934.187	-73
934.282	-337
934.376	-111
934.471	-358
934.566	-833
934.661	-539
934.755	-424
934.850	1237
934.945	-101
935.039	-821
935.134	-311
935.228	-151
935.323	439
935.417	-170
935.512	46
935.606	-994
935.701	-513
935.795	11
935.890	-490
935.984	52
936.079	-229
936.173	-26
936.267	-281
936.362	-727
936.456	-386
936.550	919
936.644	-484
936.738	-348
936.833	310
936.927	-534
937.021	-28
937.115	-521
937.209	-908
937.303	700
937.397	218
937.491	91
937.585	-517
937.679	51
937.773	-429
937.867	-299
937.961	52
938.055	37
938.149	-94
938.243	-174
938.337	293
938.430	-164
938.524	-420
938.618	-38
938.712	187
938.805	268
938.899	-287
938.993	504
939.086	280
939.180	-27
939.274	-422
939.367	266
939.461	-247
939.554	-483
939.648	-135
939.741	731
939.835	228
939.928	364
940.022	105
940.115	-386
940.208	-31
940.302	-126
940.395	-64
940.488	-720
940.582	-342
940.675	-55
940.768	-541
940.861	-354
940.954	-293
941.048	93
941.141	-104
941.234	-386
941.327	-258
941.420	390
941.513	-152
941.606	-653
941.699	-327
941.792	-122
941.885	-213
941.978	-65
942.071	-1298
942.164	-740
942.257	-557
942.349	27
942.442	74
942.535	-305
942.628	572
942.721	131
942.813	-1645
942.906	-592
942.999	-38
943.091	-996
943.184	256
943.277	-83
943.369	-499
943.462	-794
943.554	-162
943.647	37
943.739	-217
943.832	692
943.924	-354
944.017	-288
944.109	-1126
944.201	85
944.294	-680
944.386	-159
944.478	-188
944.571	-4
944.663	17
944.755	-425
944.847	-428
944.940	-224
945.032	195
945.124	77
945.216	-196
945.308	-555
945.400	-449
945.492	802
945.584	-313
945.676	-924
945.768	71
945.860	568
945.952	-457
946.044	-161
946.136	-660
946.228	-141
946.320	-544
946.412	-291
946.503	-515
946.595	230
946.687	-746
946.779	-423
946.870	-884
946.962	-803
947.054	-264
947.145	-371
947.237	-302
947.329	48
947.420	-536
947.512	-562
947.603	-490
947.695	-395
947.786	-983
947.878	-531
947.969	-539
948.061	102
948.152	-596
948.243	276
948.335	-473
948.426	-477
948.517	-1022
948.609	-318
948.700	-1233
948.791	-476
948.882	-542
948.973	-631
949.065	-1335
949.156	-879
949.247	-1015
949.338	-120
949.429	-961
949.520	336
949.611	-1290
949.702	-121
949.793	-935
949.884	175
949.975	-238
950.066	-483
950.157	-467
950.247	-285
950.338	-537
950.429	-421
950.520	-608
950.611	-433
950.701	-384
950.792	132
950.883	-268
950.973	-154
951.064	-273
951.155	-903
951.245	-1138
951.336	-641
951.427	-648
951.517	-29
951.608	6
951.698	-554
951.788	-1165
951.879	87
951.969	-979
952.060	-472
952.150	-138
952.240	-211
952.331	-1430
952.421	1062
952.511	-203
952.602	66
952.692	-637
952.782	-1196
952.872	-693
952.962	-612
953.052	-567
953.143	-893
953.233	-472
953.323	-304
953.413	-419
953.503	-15
953.593	-533
953.683	-1038
953.773	-1042
953.863	-127
953.953	-755
954.042	-681
954.132	-1301
954.222	-408
954.312	-1192
954.402	-6
954.492	-358
954.581	-246
954.671	-1599
954.761	-783
954.850	-363
954.940	-789
955.030	-327
955.119	-900
955.209	-176
955.298	-381
955.388	-250
955.477	141
955.567	-901
955.656	-571
955.746	-601
955.835	-690
955.925	-755
956.014	-569
956.103	-1318
956.193	-415
956.282	-549
956.371	-83
956.461	-756
956.550	-366
956.639	-473
956.728	-479
956.817	-893
956.906	-652
956.995	-900
957.085	-1011
957.174	-641
957.263	-926
957.352	-482
957.441	-727
957.530	-956
957.619	-361
957.708	-1080
957.796	-187
957.885	-690
957.974	-876
958.063	-564
958.152	-1548
958.241	-992
958.329	-485
958.418	-915
958.507	-1293
958.596	-204
958.684	-681
958.773	-245
958.861	-615
958.950	-527
959.039	-58
959.127	-1213
959.216	-756
959.304	-783
959.393	-494
959.481	-626
959.570	-311
959.658	-513
959.746	-1065
959.835	-1027
959.923	-398
960.011	-1169
960.100	-1290
960.188	-452
960.276	-533
960.365	-769
960.453	-683
960.541	-1343
960.629	-446
960.717	-974
960.805	-1541
960.893	-1486
960.981	-947
961.069	-280
961.158	-939
961.245	-587
961.333	-1269
961.421	-1274
961.509	-104
961.597	-1205
961.685	-187
961.773	-952
961.861	-671
961.949	-732
962.036	-997
962.124	-830
962.212	-654
962.299	-935
962.387	-921
962.475	-288
962.562	-1263
962.650	-165
962.738	-130
962.825	-248
962.913	-257
963.000	-1275
963.088	-1169
963.175	-910
963.263	-45
963.350	-823
963.438	93
963.525	-1214
963.612	-527
963.700	-60
963.787	1258
963.874	943
963.962	-239
964.049	-1003
964.136	-44
964.223	-1270
964.310	-329
964.398	-1482
964.485	-280
964.572	-184
964.659	-808
964.746	-357
964.833	-270
964.920	-1125
965.007	-269
965.094	-661
965.181	-1558
965.268	-32
965.355	-401
965.441	-1253
965.528	-1048
965.615	-447
965.702	-562
965.789	-1198
965.875	-1291
965.962	-951
966.049	-1697
966.136	-697
966.222	-616
966.309	-420
966.395	-1764
966.482	-687
966.569	-1040
966.655	-1145
966.742	-910
966.828	-1405
966.915	-820
967.001	-713
967.087	-923
967.174	-827
967.260	-736
967.347	-857
967.433	-474
967.519	782
967.605	-279
967.692	-1784
967.778	-114
967.864	-781
967.950	-99
968.036	-1674
968.123	-979
968.209	-707
968.295	-1831
968.381	-367
968.467	-1202
968.553	-1035
968.639	-529
968.725	-1207
968.811	-1107
968.897	-871
968.983	-1224
969.069	-809
969.154	-195
969.240	-1260
969.326	-329
969.412	-792
969.497	-1274
969.583	-1090
969.669	-178
969.755	-2006
969.840	-595
969.926	-1134
970.012	-1080
970.097	-258
970.183	-527
970.268	-606
970.354	-1081
970.439	-1542
970.525	-388
970.610	-1087
970.696	-704
970.781	-1038
970.866	-1199
970.952	-872
971.037	-1108
971.122	-1272
971.208	-890
971.293	-1137
971.378	-1068
971.463	-639
971.549	-166
971.634	-356
971.719	-467
971.804	-1564
971.889	-70
971.974	-729
972.059	-917
972.144	-712
972.229	-335
972.314	-1339
972.399	-1350
972.484	-1240
972.569	202
972.654	-1804
972.739	-530
972.824	-334
972.908	-638
972.993	-1293
973.078	-670
973.163	-1771
973.247	-1334
973.332	-1347
973.417	-21
973.501	-1172
973.586	-900
973.671	-1518
973.755	-1014
973.840	-816
973.924	23
974.009	-1194
974.093	-1376
974.178	-620
974.262	-660
974.346	-347
974.431	-613
974.515	-1126
974.600	-838
974.684	-1266
974.768	-1076
974.852	-737
974.937	-2010
975.021	69
975.105	-545
975.189	-963
975.273	-450
975.358	-1540
975.442	-1623
975.526	-893
975.610	-728
975.694	-1528
975.778	-395
975.862	-880
975.946	-2550
976.030	-75
976.114	-734
976.198	-1453
976.281	-1147
976.365	-364
976.449	-605
976.533	-1151
976.617	-1012
976.700	-977
976.784	-374
976.868	-1247
976.951	-474
977.035	-781
977.119	-1207
977.202	-1297
977.286	-1092
977.369	-539
977.453	-204
977.536	-991
977.620	-912
977.703	-1408
977.787	-1312
977.870	-1106
977.953	-468
978.037	-1391
978.120	-538
978.203	-422
978.287	-878
978.370	-1000
978.453	-1294
978.536	-966
978.620	-37
978.703	-717
978.786	-1415
978.869	-1839
978.952	-1712
979.035	-415
979.118	-861
979.201	-1702
979.284	-1259
979.367	-1575
979.450	-329
979.533	-1908
979.616	-653
979.699	-1268
979.782	-1176
979.865	-2079
979.948	-1280
980.030	-1560
980.113	-829
980.196	-1594
980.279	-1568
980.361	-1338
980.444	-971
980.526	-735
980.609	-1143
980.692	-1196
980.774	-799
980.857	-1880
980.939	-96
981.022	-1256
981.104	-218
981.187	-1996
981.269	-689
981.352	-1597
981.434	-1274
981.516	-1521
981.599	-266
981.681	-788
981.763	-748
981.846	-1028
981.928	-1136
982.010	-1328
982.092	-2014
982.174	-667
982.256	-1607
982.339	-1303
982.421	-1321
982.503	-893
982.585	-1550
982.667	-795
982.749	-1174
982.831	-843
982.913	-1538
982.995	70
983.077	-1743
983.158	-1049
983.240	-1992
983.322	-932
983.404	-341
983.486	-1200
983.568	-219
983.649	-1044
983.731	-18
983.813	-1100
983.894	-816
983.976	-1217
984.058	-651
984.139	-945
984.221	-1696
984.302	-374
984.384	-715
984.465	-1174
984.547	-1259
984.628	-1329
984.710	-493
984.791	-1038
984.872	-1058
984.954	-897
985.035	-816
985.116	-1385
985.198	-1162
985.279	-728
985.360	-1451
985.441	-981
985.522	-348
985.604	-1637
985.685	-2044
985.766	-485
985.847	-339
985.928	-1523
986.009	-1295
986.090	-1613
986.171	-536
986.252	-1696
986.333	53
986.414	-1170
986.495	-587
986.576	-1581
986.656	-1157
986.737	-514
986.818	-696
986.899	-1633
986.980	-759
987.060	-490
987.141	-1120
987.222	-1283
987.302	-1406
987.383	-1222
987.464	-1073
987.544	-1331
987.625	-748
987.705	-1027
987.786	-556
987.866	-1490
987.947	-29
988.027	-1219
988.108	-648
988.188	-456
988.268	-725
988.349	-1604
988.429	-983
988.509	-1167
988.589	-789
988.670	-2018
988.750	503
988.830	-390
988.910	-997
988.990	-1696
989.070	-1052
989.151	-688
989.231	-1376
989.311	-755
989.391	-534
989.471	-1118
989.551	-1417
989.631	-1534
989.711	-908
989.791	-1905
989.870	-1560
989.950	-873
990.030	-818
990.110	-1896
990.190	-1033
990.269	-1360
990.349	-699
990.429	-891
990.509	-614
990.588	-1727
990.668	-1065
990.747	-1569
990.827	-384
990.907	-909
990.986	-754
991.066	-1175
991.145	-1236
991.225	-1726
991.304	-1986
991.383	-1054
991.463	-1822
991.542	-1562
991.622	-1310
991.701	-1425
991.780	-1307
991.859	-1554
991.939	-1308
992.018	-1090
992.097	-677
992.176	-1864
992.256	-1616
992.335	-2656
992.414	-836
992.493	-1701
992.572	-1539
992.651	-840
992.730	-873
992.809	-1703
992.888	-827
992.967	-856
993.046	-543
993.125	-1610
993.203	-674
993.282	-1626
993.361	-1188
993.440	-1043
993.519	-1995
993.597	-1242
993.676	-1857
993.755	-223
993.834	-1985
993.912	-1396
993.991	-1368
994.069	-1643
994.148	-556
994.226	-1621
994.305	-1445
994.384	-1146
994.462	-874
994.540	-1032
994.619	-1317
994.697	-1253
994.776	-2454
994.854	-1271
994.932	-1950
995.011	-1109
995.089	-876
995.167	-1629
995.245	-1231
995.324	-2382
995.402	-734
995.480	-1794
995.558	-1309
995.636	-2343
995.714	-1461
995.792	-544
995.870	-1518
995.948	-1449
996.026	-652
996.104	-2488
996.182	-1575
996.260	-1769
996.338	-809
996.416	-2339
996.494	-1482
996.572	-1030
996.649	-1767
996.727	-1471
996.805	-1351
996.883	-1747
996.960	-2614
997.038	-1872
997.116	-1395
997.193	-2123
997.271	-1607
997.348	-1731
997.426	-1233
997.504	-2359
997.581	-999
997.658	-650
997.736	-1046
997.813	-1586
997.891	-1610
997.968	-1259
998.046	-1969
998.123	-2014
998.200	-1221
998.277	-2541
998.355	-1474
998.432	-2479
998.509	-1705
998.586	-1478
998.663	-279
998.741	-2063
998.818	-1432
998.895	-1609
998.972	-917
999.049	-1840
999.126	-1698
999.203	-1494
999.280	-1888
999.357	-1941
999.434	-1669
999.511	-1403
999.587	-180
999.664	-2707
999.741	-1273
999.818	-1712
999.895	-1904
999.971	-1214
1000.048	-1292
1000.125	-650
1000.202	-1758
1000.278	-1234
1000.355	-1880
1000.431	-2254
1000.508	-2462
1000.584	-1966
1000.661	-1100
1000.738	-2108
1000.814	-1619
1000.890	-1301
1000.967	-1908
1001.043	-951
1001.120	-1955
1001.196	-1819
1001.272	-2083
1001.349	-1594
1001.425	-602
1001.501	-1988
1001.577	-1913
1001.654	-1139
1001.730	-1810
1001.806	-2202
1001.882	-2204
1001.958	-1572
1002.034	-1672
1002.110	-1626
1002.186	-1770
1002.262	-2024
1002.338	-2310
1002.414	-1934
1002.490	-1445
1002.566	-2615
1002.642	-1024
1002.718	-1974
1002.794	-2088
1002.870	-1109
1002.945	-2138
1003.021	-2045
1003.097	-1849
1003.173	-1261
1003.248	-2175
1003.324	-2091
1003.400	-602
1003.475	-2097
1003.551	-2103
1003.626	-1060
1003.702	-1632
1003.777	-1588
1003.853	-1726
1003.928	-2398
1004.004	-1724
1004.079	-1208
1004.155	-659
1004.230	-2413
1004.305	-798
1004.381	-2507
1004.456	-1891
1004.531	-2163
1004.607	-1960
1004.682	-1899
1004.757	-1290
1004.832	-1723
1004.907	-1738
1004.982	-2002
1005.057	-1091
1005.133	-2090
1005.208	-1628
1005.283	-1774
1005.358	-1227
1005.433	-2185
1005.508	-2338
1005.583	-2422
1005.657	-1234
1005.732	-1408
1005.807	-1879
1005.882	-1501
1005.957	-1450
1006.032	-1646
1006.106	-1644
1006.181	-1939
1006.256	-1997
1006.331	-2552
1006.405	-2973
1006.480	-2059
1006.554	-1883
1006.629	-1148
1006.704	-1704
1006.778	-1166
1006.853	-1380
1006.927	-1473
1007.002	-1809
1007.076	-1273
1007.150	-1758
1007.225	-2503
1007.299	-2017
1007.373	-2864
1007.448	-1997
1007.522	-1063
1007.596	-1116
1007.671	-1973
1007.745	-2299
1007.819	-2521
1007.893	-2329
1007.967	-1642
1008.041	-2492
1008.115	-1952
1008.190	-1735
1008.264	-1479
1008.338	-2175
1008.412	-2455
1008.486	-1798
1008.560	-1817
1008.633	-1971
1008.707	-2275
1008.781	-1451
1008.855	-1996
1008.929	-1220
1009.003	-2522
1009.076	-2456
1009.150	-1760
1009.224	-2214
1009.298	-1962
1009.371	-2640
1009.445	-1141
1009.519	-2146
1009.592	-1977
1009.666	-1419
1009.739	-2699
1009.813	-1649
1009.886	-1303
1009.960	-1339
1010.033	-822
1010.107	-1425
1010.180	-2346
1010.253	-1834
1010.327	-2341
1010.400	-1940
1010.473	-2025
1010.547	-1011
1010.620	-1795
1010.693	-1572
1010.766	-2192
1010.840	-1848
1010.913	-1746
1010.986	-2304
1011.059	-2305
1011.132	-2844
1011.205	-1151
1011.278	-2338
1011.351	-2097
1011.424	-1820
1011.497	-2142
1011.570	-1644
1011.643	-2707
1011.716	-2318
1011.789	-2279
1011.862	-1976
1011.934	-2016
1012.007	-2400
1012.080	-1429
1012.153	-2600
1012.225	-1267
1012.298	-2059
1012.371	-1787
1012.443	-595
1012.516	-2882
1012.588	-1922
1012.661	-1891
1012.733	-2638
1012.806	-1175
1012.879	-2659
1012.951	-2535
1013.023	-2075
1013.096	-2254
1013.168	-2083
1013.241	-1715
1013.313	-1750
1013.385	-2547
1013.458	-1847
1013.530	-1896
1013.602	-2525
1013.674	-1521
1013.746	-2106
1013.819	-1823
1013.891	-1760
1013.963	-2463
1014.035	-1480
1014.107	-2183
1014.179	-1739
1014.251	-2114
1014.323	-1820
1014.395	-2361
1014.467	-1708
1014.539	-2473
1014.611	-2420
1014.683	-1899
1014.754	-1664
1014.826	-1778
1014.898	-1650
1014.970	-2726
1015.042	-1882
1015.113	-1260
1015.185	-2892
1015.257	-3060
1015.328	-2156
1015.400	-2080
1015.471	-1815
1015.543	-2889
1015.615	-1719
1015.686	-2459
1015.757	-2906
1015.829	-2036
1015.901	-2437
1015.972	-2498
1016.043	-1720
1016.115	-1473
1016.186	-2215
1016.257	-2247
1016.328	-1725
1016.400	-1852
1016.471	-2223
1016.542	-1980
1016.613	-1876
1016.685	-1902
1016.756	-2306
1016.827	-2580
1016.898	-2046
1016.969	-1502
1017.040	-1693
1017.111	-2495
1017.182	-1373
1017.253	-1330
1017.324	-1729
1017.395	-2519
1017.466	-1962
1017.537	-2980
1017.608	-1628
1017.678	-2176
1017.749	-1699
1017.820	-2349
1017.891	-2344
1017.961	-2109
1018.032	-1908
1018.103	-1729
1018.173	-1780
1018.244	-2119
1018.315	-1954
1018.385	-1878
1018.456	-2104
1018.526	-2766
1018.597	-1493
1018.667	-2065
1018.738	-2893
1018.808	-2077
1018.878	-1132
1018.949	-1634
1019.019	-2026
1019.089	-2545
1019.160	-1797
1019.230	-2666
1019.300	-1713
1019.371	-2143
1019.441	-836
1019.511	-2566
1019.581	-2487
1019.651	-1991
1019.721	-1423
1019.791	-1717
1019.861	-1383
1019.931	-3154
1020.001	-2463
1020.071	-1946
1020.141	-1955
1020.211	-2067
1020.281	-2503
1020.351	-2380
1020.421	-1981
1020.491	-1441
1020.560	-2891
1020.630	-2265
1020.700	-1069
1020.770	-2792
1020.839	-1444
1020.909	-3012
1020.979	-2200
1021.048	-2735
1021.118	-1972
1021.187	-1849
1021.257	-1723
1021.326	-1400
1021.396	-2098
1021.465	-1979
1021.535	-2534
1021.604	-2669
1021.674	-2179
1021.743	-2284
1021.812	-3337
1021.882	-2551
1021.951	-1572
1022.020	-2342
1022.089	-2741
1022.159	-2442
1022.228	-2820
1022.297	-2533
1022.366	-1949
1022.435	-2269
1022.504	-2542
1022.573	-2459
1022.642	-2048
1022.711	-2209
1022.781	-2366
1022.849	-1668
1022.918	-3005
1022.987	-1924
1023.056	-2962
1023.125	-2361
1023.194	-1698
1023.263	-2478
1023.331	-996
1023.400	-1856
1023.469	-2630
1023.538	-2031
1023.606	-2258
1023.675	-1826
1023.744	-1672
1023.812	-2858
1023.881	-2087
1023.949	-2659
1024.018	-2771
1024.086	-2356
1024.155	-1455
1024.223	-2743
1024.292	-1395
1024.360	-2198
1024.429	-2122
1024.497	-2676
1024.565	-1818
1024.634	-2536
1024.702	-1302
1024.770	-2216
1024.838	-1783
1024.907	-2132
1024.975	-2614
1025.043	-2757
1025.111	-3242
1025.179	-2130
1025.247	-1379
1025.315	-1918
1025.383	-2279
1025.451	-2163
1025.519	-2247
1025.587	-2317
1025.655	-2114
1025.723	-2500
1025.791	-2241
1025.859	-1745
1025.927	-1281
1025.995	-2227
1026.062	-2072
1026.130	-2086
1026.198	-2210
1026.266	-2566
1026.333	-2405
1026.401	-1786
1026.469	-1838
1026.536	-2234
1026.604	-2090
1026.671	-2782
1026.739	-2398
1026.806	-2234
1026.874	-2233
1026.941	-2752
1027.009	-2183
1027.076	-2668
1027.144	-1515
1027.211	-2643
1027.278	-1880
1027.345	-2225
1027.413	-1673
1027.480	-2694
1027.547	-2399
1027.614	-2173
1027.682	-1899
1027.749	-1934
1027.816	-2361
1027.883	-2394
1027.950	-1344
1028.017	-3225
1028.084	-1194
1028.151	-3070
1028.218	-2070
1028.285	-3030
1028.352	-2477
1028.419	-2992
1028.486	-2829
1028.553	-2255
1028.619	-2663
1028.686	-2524
1028.753	-2706
1028.820	-1920
1028.886	-2452
1028.953	-2824
1029.020	-2006
1029.086	-2828
1029.153	-1727
1029.220	-2491
1029.286	-2196
1029.353	-2407
1029.419	-2052
1029.486	-2738
1029.552	-2432
1029.619	-2410
1029.685	-1715
1029.751	-2414
1029.818	-1693
1029.884	-2840
1029.951	-1697
1030.017	-2482
1030.083	-2267
1030.149	-2107
1030.216	-2167
1030.282	-1959
1030.348	-2014
1030.414	-2082
1030.480	-2338
1030.546	-2512
1030.612	-2265
1030.678	-1839
1030.744	-2370
1030.810	-2348
1030.876	-2485
1030.942	-2776
1031.008	-1373
1031.074	-2102
1031.140	-1865
1031.206	-2066
1031.272	-1939
1031.337	-2023
1031.403	-2373
1031.469	-3343
1031.534	-2231
1031.600	-2376
1031.666	-2139
1031.731	-2378
1031.797	-2283
1031.863	-2605
1031.928	-2143
1031.994	-3208
1032.059	-2375
1032.125	-2725
1032.190	-2406
1032.256	-2517
1032.321	-2220
1032.386	-2422
1032.452	-1869
1032.517	-2705
1032.582	-2777
1032.647	-2341
1032.713	-2231
1032.778	-2074
1032.843	-2459
1032.908	-2672
1032.974	-1774
1033.039	-3071
1033.104	-1822
1033.169	-2895
1033.234	-1855
1033.299	-2180
1033.364	-1771
1033.429	-2365
1033.494	-1746
1033.559	-2618
1033.624	-1528
1033.688	-2624
1033.753	-2749
1033.818	-2486
1033.883	-1982
1033.948	-2761
1034.013	-1685
1034.077	-1656
1034.142	-2524
1034.207	-2089
1034.271	-1660
1034.336	-1729
1034.400	-1676
1034.465	-1596
1034.530	-1398
1034.594	-2497
1034.658	-1876
1034.723	-2046
1034.787	-1934
1034.852	-2614
1034.916	-2560
1034.981	-2251
1035.045	-1817
1035.109	-3046
1035.173	-1767
1035.238	-2924
1035.302	-2422
1035.366	-1972
1035.430	-2553
1035.495	-2484
1035.559	-1941
1035.623	-2674
1035.687	-2432
1035.751	-2395
1035.815	-2087
1035.879	-2370
1035.943	-1995
1036.007	-2889
1036.071	-1580
1036.135	-2100
1036.198	-1435
1036.262	-2764
1036.326	-3066
1036.390	-1943
1036.454	-2145
1036.517	-1558
1036.581	-1644
1036.645	-2077
1036.709	-1872
1036.772	-1827
1036.836	-2457
1036.900	-1752
1036.963	-2519
1037.026	-2909
1037.090	-2626
1037.154	-1946
1037.217	-2865
1037.280	-2928
1037.344	-2158
1037.407	-2658
1037.471	-2836
1037.534	-2829
1037.597	-1826
1037.661	-2708
1037.724	-1672
1037.787	-2072
1037.850	-2389
1037.913	-2708
1037.977	-1575
1038.040	-2764
1038.103	-1936
1038.166	-3557
1038.229	-1896
1038.292	-2568
1038.355	-2320
1038.418	-3316
1038.481	-2576
1038.544	-2939
1038.607	-1696
1038.670	-2534
1038.732	-2382
1038.795	-2593
1038.858	-2236
1038.921	-2499
1038.984	-1984
1039.046	-2610
1039.109	-2565
1039.172	-2466
1039.234	-2309
1039.297	-2542
1039.360	-1975
1039.422	-2001
1039.485	-2498
1039.547	-3378
1039.610	-2492
1039.672	-2676
1039.734	-2165
1039.797	-2608
1039.859	-2194
1039.922	-2761
1039.984	-2184
1040.046	-2220
1040.109	-2451
1040.171	-2527
1040.233	-2394
1040.295	-3047
1040.358	-2401
1040.420	-2354
1040.482	-2334
1040.544	-2276
1040.606	-1563
1040.668	-3127
1040.730	-2771
1040.792	-2776
1040.854	-1936
1040.916	-2101
1040.978	-3083
1041.040	-1370
1041.102	-2811
1041.164	-3114
1041.225	-2442
1041.287	-2616
1041.349	-2124
1041.411	-2850
1041.472	-2936
1041.534	-2279
1041.596	-2752
1041.657	-2538
1041.719	-2168
1041.781	-3212
1041.842	-2505
1041.904	-3129
1041.965	-1849
1042.027	-3843
1042.088	-1959
1042.150	-3455
1042.211	-2123
1042.272	-3218
1042.334	-2781
1042.395	-2636
1042.456	-2540
1042.518	-2449
1042.579	-2036
1042.640	-2917
1042.701	-3350
1042.763	-2316
1042.824	-2416
1042.885	-3019
1042.946	-2638
1043.007	-2152
1043.068	-2273
1043.129	-1970
1043.190	-3225
1043.251	-2009
1043.312	-2127
1043.373	-2550
1043.434	-1790
1043.495	-3060
1043.556	-1952
1043.616	-2805
1043.677	-2074
1043.738	-2085
1043.799	-2014
1043.859	-2568
1043.920	-2122
1043.981	-1571
1044.041	-1809
1044.102	-2568
1044.162	-2285
1044.223	-2537
1044.284	-2712
1044.344	-2060
1044.405	-2432
1044.465	-2000
1044.525	-2225
1044.586	-1938
1044.646	-2233
1044.707	-2347
1044.767	-2437
1044.827	-2591
1044.887	-2246
1044.948	-2653
1045.008	-2358
1045.068	-2445
1045.128	-1687
1045.188	-3046
1045.249	-1619
1045.309	-1737
1045.369	-2107
1045.429	-2346
1045.489	-2482
1045.549	-1846
1045.609	-2204
1045.669	-2125
1045.729	-2759
1045.789	-2436
1045.848	-1903
1045.908	-1834
1045.968	-1737
1046.028	-2604
1046.088	-1083
1046.147	-1382
1046.207	-1663
1046.267	-2372
1046.326	-1171
1046.386	-2673
1046.446	-1944
1046.505	-2392
1046.565	-1346
1046.624	-1276
1046.684	-1567
1046.743	-1719
1046.803	-751
1046.862	-1347
1046.922	0
