'Start Wavelength	183.907
'End Wavelength	1046.922
'Gate Delay	5.000
'Gate Width (ms)	1.050
'Laser Output Level	0.000
'X Position	0.000
'Y Position	0.000
'Z Position	0.000
'Grid Point Number	1.000
'Shot Number	100.000
183.907	330.000
183.977	339.000
184.047	479
184.116	458
184.186	-9
184.256	524
184.325	829
184.395	-159
184.465	781
184.534	459
184.604	104
184.674	419
184.743	42
184.813	150
184.883	76
184.952	303
185.022	-131
185.092	785
185.161	-97
185.231	208
185.301	371
185.370	1069
185.440	-443
185.509	-40
185.579	-91
185.649	1164
185.718	1069
185.788	833
185.857	-46
185.927	6
185.996	382
186.066	4
186.136	430
186.205	350
186.275	656
186.344	886
186.414	368
186.483	-193
186.553	1092
186.622	1685
186.692	401
186.761	65
186.831	99
186.900	142
186.970	-212
187.039	123
187.109	1065
187.178	1027
187.248	710
187.317	780
187.387	-99
187.456	89
187.526	516
187.595	670
187.664	201
187.734	-18
187.803	311
187.873	750
187.942	513
188.012	389
188.081	1143
188.150	769
188.220	1375
188.289	1267
188.358	195
188.428	813
188.497	-70
188.567	1090
188.636	34
188.705	701
188.775	412
188.844	305
188.913	597
188.983	651
189.052	193
189.121	535
189.191	193
189.260	808
189.329	210
189.399	663
189.468	1126
189.537	6
189.606	500
189.676	804
189.745	859
189.814	938
189.883	401
189.953	896
190.022	612
190.091	1059
190.161	1918
190.230	1131
190.299	47
190.368	739
190.437	527
190.507	283
190.576	915
190.645	68
190.714	551
190.783	1137
190.853	564
190.922	266
190.991	823
191.060	1086
191.129	-350
191.198	1108
191.268	636
191.337	-74
191.406	1184
191.475	1
191.544	637
191.613	1392
191.682	59
191.752	529
191.821	649
191.890	517
191.959	535
192.028	1088
192.097	333
192.166	469
192.235	-113
192.304	1188
192.373	-337
192.442	875
192.511	47
192.580	268
192.650	21
192.719	739
192.788	999
192.857	1180
192.926	217
192.995	745
193.064	458
193.133	914
193.202	1465
193.271	1258
193.340	560
193.409	1374
193.478	1317
193.547	1403
193.615	2087
193.684	1784
193.753	440
193.822	1047
193.891	1435
193.960	1050
194.029	1176
194.098	595
194.167	447
194.236	668
194.305	426
194.374	359
194.443	-133
194.512	1088
194.580	269
194.649	2125
194.718	1161
194.787	560
194.856	245
194.925	1047
194.994	814
195.062	1133
195.131	1208
195.200	1089
195.269	1360
195.338	580
195.407	504
195.475	776
195.544	1706
195.613	922
195.682	776
195.751	1452
195.819	646
195.888	1232
195.957	1204
196.026	1044
196.094	1131
196.163	1390
196.232	892
196.301	1037
196.369	1457
196.438	1460
196.507	1039
196.576	190
196.644	-78
196.713	797
196.782	1710
196.850	892
196.919	468
196.988	522
197.056	219
197.125	1172
197.194	825
197.262	338
197.331	637
197.400	1114
197.468	379
197.537	46
197.606	700
197.674	1484
197.743	1765
197.812	1104
197.880	1236
197.949	1102
198.017	1447
198.086	979
198.155	641
198.223	1412
198.292	1691
198.360	476
198.429	926
198.497	708
198.566	1148
198.635	1588
198.703	736
198.772	745
198.840	1652
198.909	2463
198.977	222
199.046	981
199.114	867
199.183	951
199.251	916
199.320	754
199.388	337
199.457	595
199.525	786
199.594	1023
199.662	228
199.731	431
199.799	743
199.867	1505
199.936	991
200.004	1337
200.073	925
200.141	72
200.210	501
200.278	1887
200.346	857
200.415	1425
200.483	1468
200.552	1841
200.620	411
200.688	973
200.757	634
200.825	761
200.893	47
200.962	1417
201.030	557
201.098	252
201.167	812
201.235	1067
201.303	391
201.372	789
201.440	1209
201.508	1256
201.577	901
201.645	565
201.713	573
201.781	840
201.850	1294
201.918	930
201.986	406
202.055	1380
202.123	809
202.191	693
202.259	594
202.327	1288
202.396	429
202.464	1171
202.532	1231
202.600	3549
202.669	2664
202.737	1146
202.805	680
202.873	453
202.941	823
203.009	687
203.078	267
203.146	306
203.214	1328
203.282	381
203.350	1382
203.418	611
203.487	1377
203.555	830
203.623	504
203.691	1003
203.759	-247
203.827	615
203.895	1475
203.963	1107
204.031	142
204.099	1322
204.168	1096
204.236	1251
204.304	976
204.372	961
204.440	1260
204.508	1425
204.576	173
204.644	645
204.712	1114
204.780	688
204.848	909
204.916	1245
204.984	1373
205.052	1078
205.120	1266
205.188	1552
205.256	958
205.324	1145
205.392	1163
205.460	1892
205.528	592
205.596	957
205.664	890
205.732	921
205.799	2995
205.867	2737
205.935	1056
206.003	1383
206.071	565
206.139	1511
206.207	1106
206.275	659
206.343	613
206.411	997
206.478	1020
206.546	895
206.614	456
206.682	1351
206.750	959
206.818	2021
206.885	1560
206.953	-350
207.021	1564
207.089	1400
207.157	-281
207.225	1223
207.292	467
207.360	861
207.428	1100
207.496	740
207.563	293
207.631	1281
207.699	414
207.767	1010
207.834	1503
207.902	823
207.970	1050
208.038	1260
208.105	914
208.173	1309
208.241	677
208.309	1677
208.376	1508
208.444	2253
208.512	952
208.579	896
208.647	1158
208.715	2185
208.782	686
208.850	-42
208.918	782
208.985	1089
209.053	1779
209.120	1205
209.188	1119
209.256	803
209.323	845
209.391	1971
209.459	1471
209.526	843
209.594	1126
209.661	1233
209.729	1116
209.796	1855
209.864	2486
209.932	728
209.999	2134
210.067	1870
210.134	1216
210.202	1475
210.269	1653
210.337	2052
210.404	1506
210.472	1091
210.539	1516
210.607	1437
210.674	1625
210.742	1470
210.809	2033
210.877	1810
210.944	1967
211.012	738
211.079	1908
211.146	1696
211.214	990
211.281	1867
211.349	2094
211.416	1604
211.484	2110
211.551	1490
211.618	1059
211.686	2155
211.753	302
211.821	1086
211.888	1026
211.955	1504
212.023	1551
212.090	1415
212.157	1865
212.225	1732
212.292	2687
212.359	4339
212.427	8724
212.494	3783
212.561	1857
212.629	2591
212.696	1043
212.763	2409
212.831	1131
212.898	1510
212.965	970
213.032	1882
213.100	1606
213.167	1565
213.234	2199
213.301	1853
213.369	2088
213.436	1630
213.503	1878
213.570	1779
213.638	1892
213.705	1201
213.772	859
213.839	1684
213.906	2269
213.973	2464
214.041	1123
214.108	1491
214.175	1611
214.242	2088
214.309	1217
214.376	1855
214.444	1962
214.511	2167
214.578	1565
214.645	2237
214.712	2130
214.779	2251
214.846	1470
214.913	2635
214.980	2338
215.048	2561
215.115	2891
215.182	2735
215.249	1959
215.316	2724
215.383	1479
215.450	1545
215.517	1050
215.584	1552
215.651	2108
215.718	1061
215.785	2309
215.852	1876
215.919	2359
215.986	3030
216.053	1833
216.120	1143
216.187	2078
216.254	2066
216.321	1582
216.388	1525
216.455	1298
216.522	1213
216.589	2459
216.656	4081
216.722	3379
216.789	2999
216.856	3979
216.923	1730
216.990	1515
217.057	2275
217.124	2874
217.191	1739
217.258	3102
217.324	3658
217.391	3867
217.458	3545
217.525	2158
217.592	2304
217.659	1261
217.725	2111
217.792	2828
217.859	3383
217.926	1539
217.993	1209
218.059	1443
218.126	1397
218.193	1473
218.260	968
218.327	533
218.393	1101
218.460	1291
218.527	1352
218.594	1533
218.660	3562
218.727	2654
218.794	826
218.860	1457
218.927	939
218.994	1095
219.061	1169
219.127	1207
219.194	2521
219.261	829
219.327	1144
219.394	1259
219.461	893
219.527	1175
219.594	2178
219.661	1709
219.727	769
219.794	1213
219.860	730
219.927	1936
219.994	2523
220.060	4815
220.127	3345
220.193	1707
220.260	1347
220.326	2580
220.393	4433
220.460	6114
220.526	3788
220.593	2491
220.659	2952
220.726	2505
220.792	5861
220.859	4473
220.925	7556
220.992	10486
221.058	8555
221.125	7245
221.191	5568
221.258	2620
221.324	2707
221.391	1594
221.457	1842
221.524	1152
221.590	2327
221.657	6277
221.723	3872
221.789	4446
221.856	3452
221.922	1668
221.989	2844
222.055	1421
222.121	496
222.188	3578
222.254	2006
222.321	846
222.387	1033
222.453	1128
222.520	2232
222.586	546
222.652	1546
222.719	1056
222.785	1852
222.851	953
222.918	908
222.984	1084
223.050	1993
223.116	644
223.183	2268
223.249	92
223.315	773
223.382	1247
223.448	1080
223.514	164
223.580	1408
223.647	903
223.713	393
223.779	383
223.845	1617
223.911	1463
223.978	710
224.044	1004
224.110	1132
224.176	869
224.242	874
224.309	984
224.375	550
224.441	1617
224.507	1204
224.573	795
224.639	1024
224.705	124
224.772	869
224.838	680
224.904	2208
224.970	396
225.036	1679
225.102	1254
225.168	1935
225.234	1194
225.300	1066
225.366	1039
225.432	1515
225.499	654
225.565	1377
225.631	1056
225.697	1776
225.763	1665
225.829	2151
225.895	2352
225.961	3604
226.027	2784
226.093	1979
226.159	2673
226.225	3710
226.291	9159
226.357	15144
226.423	7660
226.489	5485
226.554	2949
226.620	2467
226.686	4204
226.752	6270
226.818	8203
226.884	19247
226.950	15023
227.016	6434
227.082	4522
227.148	3326
227.214	4203
227.279	3495
227.345	2729
227.411	2669
227.477	2926
227.543	6371
227.609	5800
227.674	4438
227.740	2683
227.806	2469
227.872	1533
227.938	1830
228.003	3498
228.069	2155
228.135	890
228.201	1245
228.267	2329
228.332	2285
228.398	2500
228.464	1941
228.530	1322
228.595	1093
228.661	1380
228.727	3503
228.792	2954
228.858	1382
228.924	1052
228.990	3066
229.055	2138
229.121	2676
229.187	1249
229.252	1627
229.318	1294
229.384	2355
229.449	2856
229.515	482
229.581	103
229.646	2739
229.712	1239
229.777	3919
229.843	3320
229.909	2736
229.974	4154
230.040	3349
230.105	2018
230.171	1841
230.236	3756
230.302	5738
230.368	3660
230.433	1796
230.499	3277
230.564	3402
230.630	788
230.695	1717
230.761	1421
230.826	1316
230.892	4116
230.957	1596
231.023	1009
231.088	1995
231.154	1262
231.219	2030
231.284	2442
231.350	3519
231.415	1510
231.481	1919
231.546	1197
231.612	1695
231.677	1522
231.742	510
231.808	1688
231.873	1164
231.939	38
232.004	2846
232.069	3011
232.135	1532
232.200	1032
232.265	2228
232.331	702
232.396	937
232.461	158
232.527	819
232.592	697
232.657	1491
232.723	2348
232.788	2479
232.853	837
232.918	1419
232.984	973
233.049	923
233.114	2582
233.179	1867
233.245	3282
233.310	4126
233.375	963
233.440	1402
233.506	1956
233.571	870
233.636	1021
233.701	1275
233.766	2993
233.832	3137
233.897	1807
233.962	1889
234.027	2595
234.092	2255
234.157	1030
234.222	2474
234.288	2489
234.353	8295
234.418	8789
234.483	5164
234.548	2890
234.613	2500
234.678	2036
234.743	3394
234.808	8691
234.873	3632
234.938	2645
235.004	1875
235.069	2280
235.134	2505
235.199	2504
235.264	2322
235.329	1107
235.394	1664
235.459	2737
235.524	2214
235.589	1782
235.654	1455
235.719	555
235.784	2059
235.849	1818
235.913	5225
235.978	5086
236.043	5611
236.108	2195
236.173	1920
236.238	3054
236.303	1846
236.368	1810
236.433	3242
236.498	5275
236.563	4172
236.627	6096
236.692	24396
236.757	16547
236.822	6746
236.887	5914
236.952	4321
237.017	3833
237.081	4406
237.146	4674
237.211	10149
237.276	23740
237.341	37728
237.405	15728
237.470	8199
237.535	5621
237.600	4460
237.664	3210
237.729	2691
237.794	3631
237.859	8034
237.923	4098
237.988	3638
238.053	4825
238.118	4717
238.182	11096
238.247	8370
238.312	5131
238.376	4376
238.441	2414
238.506	3938
238.570	1226
238.635	2508
238.700	1515
238.764	1460
238.829	5092
238.893	5659
238.958	3962
239.023	3768
239.087	1260
239.152	2896
239.216	1516
239.281	1558
239.346	1130
239.410	1643
239.475	1558
239.539	11033
239.604	7199
239.668	3453
239.733	1391
239.797	3790
239.862	9661
239.926	10047
239.991	3607
240.055	2472
240.120	1882
240.184	3096
240.249	1837
240.313	1746
240.378	2837
240.442	6174
240.507	9982
240.571	3526
240.635	4957
240.700	5878
240.764	2615
240.829	2369
240.893	913
240.957	2595
241.022	6581
241.086	10387
241.151	5371
241.215	1849
241.279	4193
241.344	5382
241.408	2814
241.472	2693
241.537	3678
241.601	3003
241.665	1016
241.730	1578
241.794	2748
241.858	2887
241.922	2367
241.987	2359
242.051	1714
242.115	2026
242.179	2794
242.244	1576
242.308	3004
242.372	2750
242.436	3391
242.501	2650
242.565	2267
242.629	2436
242.693	3095
242.757	1715
242.822	1970
242.886	3152
242.950	2807
243.014	2019
243.078	3414
243.142	2940
243.206	2252
243.271	2749
243.335	2492
243.399	3939
243.463	12142
243.527	28505
243.591	8932
243.655	5350
243.719	2067
243.783	4372
243.847	5702
243.911	7278
243.975	9964
244.040	6433
244.104	4922
244.168	3392
244.232	6679
244.296	6517
244.360	7019
244.424	3875
244.488	2821
244.552	2635
244.615	1484
244.679	2719
244.743	3223
244.807	3713
244.871	2630
244.935	2711
244.999	1058
245.063	2940
245.127	3951
245.191	5338
245.255	4317
245.319	4733
245.383	3581
245.446	3529
245.510	1701
245.574	4004
245.638	4079
245.702	3051
245.766	8674
245.829	4632
245.893	2863
245.957	2160
246.021	3502
246.085	3242
246.149	4179
246.212	11203
246.276	13488
246.340	6872
246.404	4832
246.467	5286
246.531	7573
246.595	6168
246.659	4614
246.722	4170
246.786	6912
246.850	5872
246.913	7383
246.977	3105
247.041	4167
247.104	4064
247.168	4567
247.232	10717
247.295	19085
247.359	9314
247.423	5157
247.486	9405
247.550	6434
247.614	5351
247.677	7433
247.741	5211
247.804	3846
247.868	4708
247.932	8996
247.995	18466
248.059	7185
248.122	3801
248.186	5979
248.249	9336
248.313	30534
248.376	29981
248.440	18546
248.503	8049
248.567	7357
248.630	10486
248.694	14014
248.757	17731
248.821	31359
248.884	19306
248.948	18693
249.011	25218
249.075	36923
249.138	30275
249.202	12984
249.265	8415
249.328	8614
249.392	6526
249.455	6958
249.519	4977
249.582	6340
249.645	11317
249.709	7038
249.772	4994
249.835	4805
249.899	5263
249.962	5341
250.025	4612
250.089	13470
250.152	17010
250.215	8744
250.279	5934
250.342	6575
250.405	6159
250.468	4918
250.532	7018
250.595	10223
250.658	32642
250.721	43152
250.785	17668
250.848	10668
250.911	6363
250.974	6991
251.038	10381
251.101	18136
251.164	8608
251.227	11669
251.290	8875
251.354	12156
251.417	42659
251.480	35540
251.543	27717
251.606	73681
251.669	50272
251.732	21982
251.795	24877
251.859	23293
251.922	48757
251.985	26125
252.048	14408
252.111	9323
252.174	9757
252.237	20073
252.300	37321
252.363	37886
252.426	62433
252.489	26736
252.552	17251
252.615	11263
252.678	12471
252.741	27645
252.804	33246
252.867	61368
252.930	39575
252.993	24677
253.056	15634
253.119	12962
253.182	9334
253.245	14068
253.308	11989
253.371	12461
253.434	11399
253.497	11913
253.559	19552
253.622	13626
253.685	19774
253.748	19766
253.811	8860
253.874	12008
253.937	9625
254.000	8311
254.062	14465
254.125	18977
254.188	22293
254.251	17000
254.314	7962
254.376	15722
254.439	17498
254.502	15374
254.565	14675
254.628	23457
254.690	17149
254.753	10252
254.816	7949
254.878	8105
254.941	15017
255.004	12946
255.067	6955
255.129	8309
255.192	4806
255.255	4159
255.317	6361
255.380	3194
255.443	3399
255.505	4055
255.568	3320
255.631	4236
255.693	5517
255.756	3082
255.819	4030
255.881	2669
255.944	2945
256.006	2686
256.069	2949
256.132	2476
256.194	5640
256.257	10639
256.319	7799
256.382	6400
256.444	4694
256.507	3123
256.569	3798
256.632	2733
256.694	5934
256.757	14765
256.819	34990
256.882	11331
256.944	6624
257.007	6986
257.069	7454
257.132	5077
257.194	4110
257.257	4471
257.319	3929
257.381	3863
257.444	10290
257.506	45374
257.569	46482
257.631	28165
257.693	14277
257.756	7067
257.818	6591
257.880	4625
257.943	4456
258.005	3662
258.067	3687
258.130	3530
258.192	6133
258.254	11294
258.317	5711
258.379	4215
258.441	12225
258.503	10606
258.566	12200
258.628	15746
258.690	4532
258.753	5946
258.815	11077
258.877	5118
258.939	3561
259.001	3656
259.064	3231
259.126	4114
259.188	5980
259.250	4617
259.312	5899
259.375	17938
259.437	9692
259.499	3893
259.561	4367
259.623	5380
259.685	4803
259.747	4585
259.809	12869
259.872	19504
259.934	32947
259.996	31094
260.058	10192
260.120	4435
260.182	3899
260.244	3615
260.306	2787
260.368	3762
260.430	3367
260.492	10880
260.554	20740
260.616	12289
260.678	20583
260.740	22243
260.802	6515
260.864	6735
260.926	3977
260.988	4825
261.050	5096
261.112	15749
261.174	30603
261.236	16654
261.298	7428
261.359	11874
261.421	15412
261.483	5193
261.545	4727
261.607	2828
261.669	3548
261.731	8008
261.793	17982
261.854	7862
261.916	5796
261.978	6059
262.040	6005
262.102	3456
262.164	7060
262.225	5349
262.287	3930
262.349	10749
262.411	8005
262.472	4689
262.534	7830
262.596	14151
262.658	4977
262.719	3368
262.781	5876
262.843	13402
262.904	6233
262.966	4783
263.028	5037
263.090	26140
263.151	54100
263.213	21487
263.275	14364
263.336	6332
263.398	4853
263.459	4051
263.521	4307
263.583	11111
263.644	7790
263.706	3550
263.767	1690
263.829	2996
263.891	2091
263.952	1605
264.014	2344
264.075	7337
264.137	16973
264.198	7178
264.260	3119
264.321	2962
264.383	11441
264.444	25976
264.506	7521
264.567	4777
264.629	10884
264.690	20623
264.752	8068
264.813	4810
264.875	3551
264.936	5171
264.998	2841
265.059	2406
265.120	2763
265.182	4387
265.243	21207
265.305	17628
265.366	5436
265.427	3759
265.489	3570
265.550	2081
265.611	4614
265.673	4006
265.734	3487
265.795	2458
265.857	1385
265.918	2205
265.979	6498
266.040	33357
266.102	21601
266.163	8239
266.224	8980
266.286	4806
266.347	2437
266.408	3364
266.469	4118
266.530	2033
266.592	2147
266.653	7626
266.714	11459
266.775	4803
266.836	3018
266.898	3252
266.959	7095
267.020	3867
267.081	3566
267.142	2129
267.203	2385
267.264	2617
267.326	3564
267.387	2017
267.448	1726
267.509	2336
267.570	3679
267.631	2500
267.692	888
267.753	2349
267.814	1736
267.875	7327
267.936	14619
267.997	8787
268.058	7120
268.119	2649
268.180	4310
268.241	2740
268.302	2718
268.363	2660
268.424	2862
268.485	3459
268.546	1978
268.607	1962
268.668	2209
268.729	1731
268.790	2613
268.851	3379
268.912	11382
268.972	10545
269.033	6080
269.094	2031
269.155	3116
269.216	2214
269.277	3082
269.338	2200
269.398	2043
269.459	3087
269.520	5035
269.581	8315
269.642	8665
269.702	4669
269.763	3110
269.824	2428
269.885	5016
269.945	8015
270.006	4012
270.067	1728
270.128	2065
270.188	1781
270.249	2557
270.310	1117
270.370	2341
270.431	2072
270.492	2047
270.553	3447
270.613	8325
270.674	14991
270.734	5575
270.795	4220
270.856	6125
270.916	3833
270.977	4476
271.038	4557
271.098	4791
271.159	7872
271.219	6669
271.280	3266
271.340	2990
271.401	3943
271.462	8784
271.522	5976
271.583	3645
271.643	4307
271.704	3450
271.764	4318
271.825	11950
271.885	34603
271.946	38663
272.006	13033
272.066	19474
272.127	29294
272.187	10072
272.248	6515
272.308	7478
272.369	20661
272.429	11526
272.489	11881
272.550	12256
272.610	13078
272.671	9030
272.731	8215
272.791	12908
272.852	7107
272.912	6340
272.972	4264
273.033	4056
273.093	6516
273.153	7487
273.214	5386
273.274	6127
273.334	22742
273.394	33137
273.455	15054
273.515	16131
273.575	31622
273.635	13538
273.696	17910
273.756	28761
273.816	12922
273.876	7943
273.936	16323
273.997	25619
274.057	6806
274.117	6502
274.177	10778
274.237	44341
274.297	32125
274.358	23471
274.418	25551
274.478	19785
274.538	8739
274.598	6847
274.658	21176
274.718	25099
274.778	10384
274.838	6673
274.898	14690
274.958	34322
275.018	30038
275.078	19567
275.138	9337
275.198	5421
275.258	4363
275.318	6671
275.378	12106
275.438	12927
275.498	7784
275.558	17737
275.618	33064
275.678	21487
275.738	17299
275.798	13042
275.858	8085
275.918	4706
275.978	5874
276.038	5362
276.098	3924
276.157	11205
276.217	27720
276.277	11580
276.337	9220
276.397	4841
276.457	7894
276.517	4911
276.576	3527
276.636	3898
276.696	8172
276.756	17380
276.815	10952
276.875	7053
276.935	6342
276.995	5557
277.055	4243
277.114	4738
277.174	7111
277.234	21569
277.293	8635
277.353	5527
277.413	3579
277.472	5343
277.532	4541
277.592	6018
277.651	19846
277.711	31065
277.771	11793
277.830	41355
277.890	29807
277.950	21918
278.009	54388
278.069	19353
278.128	24901
278.188	32353
278.248	15195
278.307	35999
278.367	19557
278.426	7208
278.486	5603
278.545	4358
278.605	3532
278.664	4050
278.724	4403
278.783	14496
278.843	29997
278.902	8759
278.962	6750
279.021	7302
279.081	7200
279.140	6305
279.199	7243
279.259	6181
279.318	6518
279.378	8416
279.437	15860
279.496	56319
279.556	136461
279.615	94204
279.675	26907
279.734	17089
279.793	29427
279.853	40483
279.912	15761
279.971	10377
280.031	8956
280.090	19110
280.149	28716
280.208	24024
280.268	101149
280.327	86731
280.386	24170
280.445	21563
280.505	19852
280.564	10769
280.623	9556
280.682	14561
280.742	19514
280.801	6739
280.860	5430
280.919	5636
280.978	5135
281.037	4536
281.097	4136
281.156	4160
281.215	3431
281.274	6624
281.333	23580
281.392	15303
281.451	4732
281.510	3784
281.569	4092
281.628	3681
281.688	3281
281.747	5040
281.806	5672
281.865	4181
281.924	3124
281.983	4019
282.042	3072
282.101	2785
282.160	3306
282.219	3410
282.278	5171
282.337	16938
282.396	10227
282.454	3913
282.513	6412
282.572	24718
282.631	12941
282.690	5254
282.749	4015
282.808	5842
282.867	5638
282.926	5077
282.985	3088
283.043	2966
283.102	3740
283.161	4952
283.220	13121
283.279	24869
283.338	7106
283.396	4987
283.455	4758
283.514	5382
283.573	8767
283.631	6726
283.690	4320
283.749	4870
283.808	11497
283.866	12541
283.925	4827
283.984	4960
284.043	7088
284.101	6959
284.160	5495
284.219	8172
284.277	6905
284.336	10394
284.395	32286
284.453	24470
284.512	9286
284.570	14523
284.629	12061
284.688	10484
284.746	11904
284.805	13310
284.863	17169
284.922	20898
284.981	23281
285.039	32241
285.098	57818
285.156	126351
285.215	171840
285.273	172945
285.332	122850
285.390	69602
285.449	43602
285.507	29694
285.566	22373
285.624	17603
285.683	12939
285.741	11349
285.799	9975
285.858	9195
285.916	8606
285.975	6528
286.033	6232
286.091	5079
286.150	5212
286.208	4792
286.267	6638
286.325	7848
286.383	11065
286.442	9578
286.500	4818
286.558	4767
286.616	4310
286.675	7268
286.733	5722
286.791	5988
286.850	6754
286.908	9511
286.966	14888
287.024	5942
287.083	4073
287.141	3640
287.199	4712
287.257	7905
287.315	4632
287.374	5483
287.432	15083
287.490	9496
287.548	5160
287.606	4366
287.664	4394
287.723	6668
287.781	11233
287.839	5454
287.897	4931
287.955	5480
288.013	7840
288.071	19456
288.129	70705
288.187	170881
288.245	69007
288.303	22728
288.361	15223
288.419	13582
288.477	9589
288.535	6812
288.593	5731
288.651	5251
288.709	4025
288.767	4322
288.825	3250
288.883	4023
288.941	4017
288.999	4204
289.057	3770
289.115	4198
289.173	4408
289.231	5091
289.289	4361
289.346	3651
289.404	5526
289.462	9475
289.520	9978
289.578	5629
289.636	3041
289.694	3313
289.751	2584
289.809	3047
289.867	3644
289.925	4524
289.983	5656
290.040	3775
290.098	3516
290.156	4980
290.214	5672
290.271	3842
290.329	3106
290.387	2627
290.444	2169
290.502	2001
290.560	3812
290.617	3819
290.675	3622
290.733	3596
290.790	4318
290.848	3073
290.906	4267
290.963	4313
291.021	4366
291.078	3684
291.136	4854
291.194	19096
291.251	35022
291.309	11681
291.366	4191
291.424	4988
291.481	4930
291.539	5110
291.596	4247
291.654	3197
291.711	3240
291.769	4543
291.826	10702
291.884	7302
291.941	4236
291.999	4636
292.056	4608
292.114	5615
292.171	4154
292.228	4383
292.286	6458
292.343	12083
292.401	14310
292.458	8836
292.515	5313
292.573	7965
292.630	7200
292.687	7004
292.745	5266
292.802	9617
292.859	24330
292.917	32959
292.974	19291
293.031	7072
293.089	6024
293.146	4968
293.203	4568
293.260	4686
293.318	6599
293.375	11985
293.432	6873
293.489	4595
293.546	4238
293.604	6925
293.661	18426
293.718	41710
293.775	26363
293.832	13697
293.889	9861
293.947	10977
294.004	7756
294.061	10447
294.118	17647
294.175	36253
294.232	47197
294.289	19540
294.346	7908
294.403	8245
294.460	6655
294.517	5826
294.574	5278
294.631	5647
294.688	6766
294.745	16822
294.802	52906
294.859	63980
294.916	27470
294.973	15862
295.030	13015
295.087	11539
295.144	7918
295.201	6862
295.258	6334
295.315	7854
295.372	20977
295.429	33331
295.486	16975
295.542	12459
295.599	32928
295.656	53222
295.713	36892
295.770	35950
295.827	15552
295.883	9986
295.940	9465
295.997	16132
296.054	14322
296.111	8876
296.167	6343
296.224	5296
296.281	4618
296.338	5545
296.394	5983
296.451	7525
296.508	19716
296.564	34278
296.621	27196
296.678	42813
296.734	58050
296.791	26056
296.848	14794
296.904	16715
296.961	31514
297.018	43226
297.074	32139
297.131	14594
297.187	9830
297.244	13820
297.301	38563
297.357	59149
297.414	24328
297.470	11046
297.527	9055
297.583	7434
297.640	7428
297.696	7559
297.753	5120
297.809	5103
297.866	4102
297.922	5249
297.979	5407
298.035	6828
298.092	9982
298.148	24699
298.204	22955
298.261	13042
298.317	23169
298.374	49560
298.430	29285
298.486	14825
298.543	10668
298.599	9975
298.656	10655
298.712	19059
298.768	36783
298.824	22880
298.881	9609
298.937	6124
298.993	7187
299.050	10577
299.106	9376
299.162	7555
299.218	7691
299.275	6090
299.331	7446
299.387	14154
299.443	41578
299.500	44940
299.556	20937
299.612	10805
299.668	9872
299.724	13038
299.780	13837
299.837	9562
299.893	13159
299.949	40609
300.005	47289
300.061	41905
300.117	62745
300.173	32197
300.229	16660
300.285	19826
300.341	23041
300.397	12660
300.453	8055
300.510	6920
300.566	8762
300.622	11881
300.678	27607
300.734	47118
300.790	41008
300.845	41839
300.901	31625
300.957	45115
301.013	33185
301.069	15452
301.125	11646
301.181	12674
301.237	9740
301.293	7138
301.349	7003
301.405	5998
301.461	6314
301.516	6937
301.572	8757
301.628	16062
301.684	16112
301.740	20619
301.796	28479
301.851	22202
301.907	34050
301.963	33662
302.019	48350
302.074	110816
302.130	108376
302.186	52725
302.242	23435
302.297	16369
302.353	16948
302.409	29881
302.464	24707
302.520	23516
302.576	48262
302.631	52606
302.687	33977
302.743	16680
302.798	10458
302.854	8678
302.910	9410
302.965	12358
303.021	20272
303.076	19744
303.132	24826
303.187	27577
303.243	15951
303.299	8880
303.354	7505
303.410	7475
303.465	6634
303.521	6997
303.576	7248
303.632	8926
303.687	16049
303.743	37016
303.798	31178
303.853	16339
303.909	8508
303.964	10248
304.020	15131
304.075	21951
304.130	21589
304.186	36098
304.241	37077
304.297	29278
304.352	17251
304.358	16595
304.407	11276
304.449	11493
304.463	11578
304.518	11821
304.539	11159
304.573	10098
304.629	10455
304.630	10550
304.684	15154
304.720	25888
304.739	31361
304.794	42475
304.811	37202
304.850	24590
304.902	13601
304.905	12891
304.960	9077
304.992	9093
305.015	9137
305.071	9631
305.083	9235
305.126	7753
305.173	6143
305.181	5893
305.236	5926
305.264	6898
305.292	7833
305.347	8848
305.354	8893
305.402	9248
305.445	9720
305.457	9844
305.512	11579
305.535	11706
305.567	11899
305.622	12463
305.626	12779
305.678	18788
305.716	33601
305.733	39518
305.788	45178
305.807	40565
305.843	31783
305.897	36155
305.898	36198
305.953	36226
305.988	26782
306.008	21339
306.063	15022
306.078	14049
306.118	11725
306.168	8332
306.173	8025
306.228	6896
306.259	6278
306.283	5892
306.338	5779
306.349	5924
306.393	6426
306.440	6842
306.448	6920
306.503	7890
306.530	9481
306.558	12348
306.613	28808
306.620	30662
306.668	41024
306.711	45254
306.723	45540
306.778	33687
306.801	26938
306.833	18751
306.888	11566
306.892	11226
306.943	7665
306.982	7170
306.997	7138
307.052	7341
307.072	7574
307.107	8247
307.162	11342
307.163	11431
307.217	19339
307.253	23263
307.272	24640
307.327	26589
307.343	24327
307.381	18375
307.434	14168
307.436	14244
307.491	26204
307.524	38271
307.546	43184
307.600	40585
307.614	36080
307.655	21587
307.704	12101
307.710	11506
307.765	12227
307.795	15543
307.819	19483
307.874	35617
307.885	35305
307.929	26858
307.975	16523
307.984	15393
308.038	14266
308.065	16756
308.093	23500
308.148	47533
308.156	54981
308.202	99587
308.246	120111
308.257	119066
308.312	68816
308.336	52955
308.366	41739
308.421	29479
308.426	28404
308.475	18101
308.517	13296
308.530	12259
308.585	10075
308.607	9704
308.639	9925
308.694	11361
308.697	11665
308.748	21512
308.787	34222
308.803	36129
308.857	28746
308.877	24420
308.912	17955
308.967	13616
308.967	13625
309.021	15894
309.058	19375
309.076	22610
309.130	38518
309.148	45381
309.185	71485
309.238	121646
309.239	122074
309.293	154664
309.328	145037
309.348	126270
309.402	63194
309.418	48891
309.457	32641
309.508	21080
309.511	20615
309.566	19742
309.598	21279
309.620	24291
309.674	36110
309.688	39195
309.729	40552
309.778	32956
309.783	31963
309.837	21255
309.868	17321
309.892	18822
309.946	27377
309.959	31148
310.001	44501
310.049	53826
310.055	52495
310.109	33560
310.139	22445
310.163	17135
310.218	10339
310.229	9417
310.272	8018
310.319	7164
310.326	6952
310.381	5999
310.409	5685
310.435	5838
310.489	6044
310.499	6164
310.543	6366
310.589	6607
310.598	6546
310.652	6626
310.679	6396
310.706	5768
310.760	4499
310.769	4312
310.814	3879
310.859	3871
310.868	3806
310.923	3437
310.948	3430
310.977	3971
311.031	5079
311.038	5260
311.085	5317
311.128	5111
311.139	5080
311.193	5157
311.218	5136
311.247	4529
311.301	3577
311.308	3478
311.356	3948
311.398	4539
311.410	4309
311.464	3145
311.488	2650
311.518	2974
311.572	3640
311.578	3756
311.626	4769
311.668	5752
311.680	5839
311.734	6135
311.758	6330
311.788	6469
311.842	6744
311.847	6811
311.896	8345
311.937	9920
311.950	9814
312.004	9437
312.027	9271
312.058	7482
312.112	4443
312.117	4179
312.165	3848
312.207	3647
312.297	6650
312.386	6429
312.476	3920
312.566	8417
312.656	5028
312.745	3546
312.835	4726
312.925	4315
313.015	4946
313.104	5065
313.194	3408
313.284	3171
313.374	4788
313.463	3785
313.553	3066
313.643	2730
313.732	3580
313.822	2377
313.912	4436
314.001	4485
314.091	5407
314.180	7862
314.270	6127
314.360	6556
314.449	5732
314.539	3621
314.628	3986
314.718	4456
314.808	6884
314.897	3677
314.987	3863
315.076	4179
315.166	7092
315.255	6349
315.345	5616
315.434	6081
315.524	5358
315.613	5536
315.703	6538
315.792	7937
315.881	17161
315.971	8807
316.060	10875
316.150	19772
316.239	21205
316.328	8755
316.418	3337
316.507	3592
316.597	4977
316.686	4642
316.775	8458
316.865	22647
316.954	5710
317.043	3461
317.133	3498
317.222	2228
317.311	3278
317.400	2493
317.490	4272
317.579	5238
317.668	4442
317.757	5611
317.847	11246
317.936	29905
318.025	16667
318.114	9899
318.203	7099
318.293	9288
318.382	19386
318.471	14201
318.560	19997
318.649	42139
318.738	11487
318.828	6428
318.917	7559
319.006	7899
319.095	22716
319.184	49386
319.273	29530
319.362	14119
319.451	5337
319.540	4342
319.629	8862
319.718	17607
319.807	9139
319.896	15221
319.985	57955
320.074	24481
320.163	7759
320.252	12541
320.341	11714
320.430	10112
320.519	9532
320.608	6691
320.697	6027
320.786	5039
320.875	6979
320.964	8204
321.053	11457
321.142	15733
321.230	17706
321.319	13811
321.408	33404
321.497	17358
321.586	13286
321.675	18292
321.764	20220
321.852	11561
321.941	17405
322.030	13422
322.119	13633
322.207	32276
322.296	32330
322.385	15349
322.474	13950
322.562	35211
322.651	23936
322.740	14617
322.829	23541
322.917	29443
323.006	14859
323.095	11704
323.183	9211
323.272	12780
323.361	21590
323.449	63816
323.538	26508
323.626	46732
323.715	35313
323.804	13661
323.892	45364
323.981	28964
324.069	9429
324.158	25213
324.246	29799
324.335	7912
324.424	12805
324.512	5551
324.601	7376
324.689	13889
324.778	30645
324.866	22257
324.954	7191
325.043	5605
325.131	12061
325.220	24581
325.308	28657
325.397	18801
325.485	14583
325.574	4642
325.662	4148
325.750	3869
325.839	4343
325.927	3407
326.015	5607
326.104	8293
326.192	13790
326.280	3865
326.369	4907
326.457	5466
326.545	8681
326.634	4412
326.722	2707
326.810	3279
326.898	4055
326.987	4760
327.075	8543
327.163	11310
327.251	6881
327.340	9782
327.428	16671
327.516	4233
327.604	3420
327.692	4378
327.781	4958
327.869	10611
327.957	7007
328.045	4390
328.133	3494
328.221	5070
328.309	3795
328.397	3630
328.485	4245
328.574	5761
328.662	17454
328.750	12144
328.838	6332
328.926	3439
329.014	3261
329.102	4769
329.190	14598
329.278	9903
329.366	2960
329.454	3396
329.542	3259
329.630	2995
329.718	3436
329.806	3463
329.893	4588
329.981	4150
330.069	2960
330.157	4941
330.245	14432
330.333	8136
330.421	3486
330.509	4840
330.597	20565
330.684	15805
330.772	7642
330.860	11253
330.948	16378
331.036	6305
331.123	3316
331.211	3472
331.299	5348
331.387	11218
331.475	23763
331.562	7455
331.650	3503
331.738	4528
331.825	8424
331.913	3094
332.001	3154
332.089	4655
332.176	12423
332.264	27448
332.352	24574
332.439	6716
332.527	5590
332.614	3791
332.702	6849
332.790	4228
332.877	11472
332.965	28281
333.052	6808
333.140	5318
333.228	12454
333.315	4330
333.403	5722
333.490	16577
333.578	15038
333.665	12475
333.753	7038
333.840	3563
333.928	5481
334.015	16913
334.103	22272
334.190	63148
334.278	21466
334.365	8625
334.452	7311
334.540	4893
334.627	6226
334.715	8196
334.802	14744
334.889	74604
334.977	85969
335.064	13422
335.151	6612
335.239	6252
335.326	8155
335.413	27823
335.501	47091
335.588	6845
335.675	4410
335.762	6553
335.850	13837
335.937	7065
336.024	17454
336.111	84493
336.199	46552
336.286	8781
336.373	5074
336.460	2735
336.547	4014
336.635	5517
336.722	4432
336.809	4598
336.896	6382
336.983	18934
337.070	50281
337.157	68183
337.245	51964
337.332	44435
337.419	6614
337.506	4400
337.593	5514
337.680	15746
337.767	57045
337.854	17005
337.941	19416
338.028	23958
338.115	8938
338.202	8733
338.289	15636
338.376	55949
338.463	21812
338.550	29669
338.637	37172
338.724	12708
338.811	23394
338.898	5188
338.984	4076
339.071	5377
339.158	5089
339.245	11946
339.332	10022
339.419	13836
339.506	16164
339.593	2794
339.679	3448
339.766	2207
339.853	4899
339.940	8447
340.027	4558
340.113	3091
340.200	5441
340.287	3785
340.374	4654
340.460	7459
340.547	3652
340.634	4860
340.720	20410
340.807	14024
340.894	3051
340.980	2621
341.067	3312
341.154	3276
341.240	4474
341.327	11403
341.414	4605
341.500	3808
341.587	3711
341.674	2523
341.760	6970
341.847	8659
341.933	3858
342.020	588
342.106	1535
342.193	2785
342.279	6480
342.366	3510
342.452	8284
342.539	4306
342.625	9364
342.712	22054
342.798	9498
342.885	4333
342.971	2437
343.058	2397
343.144	2446
343.230	2191
343.317	2926
343.403	2428
343.490	2399
343.576	1740
343.662	2089
343.749	2112
343.835	3508
343.921	6642
344.008	28941
344.094	76991
344.180	20323
344.267	7471
344.353	24398
344.439	33242
344.525	13317
344.612	3996
344.698	3627
344.784	3095
344.870	2420
344.957	1943
345.043	4438
345.129	3070
345.215	7706
345.301	3822
345.387	2563
345.474	1056
345.560	2228
345.646	3045
345.732	3467
345.818	2825
345.904	2650
345.990	3327
346.076	4130
346.162	9894
346.249	4908
346.335	2829
346.421	2209
346.507	8532
346.593	33792
346.679	10196
346.765	3685
346.851	2514
346.937	2782
347.023	2710
347.108	3428
347.194	2452
347.280	2374
347.366	2958
347.452	9249
347.538	37864
347.624	32304
347.710	30461
347.796	6490
347.882	2828
347.967	3100
348.053	5158
348.139	3384
348.225	2895
348.311	2702
348.397	2384
348.482	2626
348.568	4477
348.654	2184
348.740	2714
348.825	2827
348.911	5057
348.997	15543
349.083	39452
349.168	8767
349.254	1962
349.340	3102
349.425	2042
349.511	3653
349.597	4290
349.682	7507
349.768	25196
349.854	14586
349.939	3292
350.025	1733
350.110	2341
350.196	2163
350.282	1452
350.367	2708
350.453	5333
350.538	6595
350.624	3756
350.709	4117
350.795	1685
350.880	3016
350.966	2495
351.051	5005
351.137	4515
351.222	2605
351.308	6927
351.393	22684
351.479	5404
351.564	1682
351.649	1827
351.735	2693
351.820	1869
351.906	2464
351.991	3531
352.076	13510
352.162	22291
352.247	4992
352.332	2468
352.418	5524
352.503	7462
352.588	30745
352.673	27980
352.759	5923
352.844	3226
352.929	3663
353.014	4239
353.100	4399
353.185	6710
353.270	8530
353.355	8903
353.441	2898
353.526	3285
353.611	6598
353.696	8785
353.781	5098
353.866	2814
353.952	2912
354.037	6177
354.122	16734
354.207	14946
354.292	5958
354.377	1936
354.462	2394
354.547	3710
354.632	4524
354.717	6093
354.802	8496
354.887	2950
354.972	2260
355.057	1523
355.142	1498
355.227	2766
355.312	4433
355.397	9447
355.482	25280
355.567	13861
355.652	9654
355.737	9740
355.822	27142
355.907	26135
355.991	4803
356.076	1592
356.161	2582
356.246	1542
356.331	3151
356.416	4812
356.501	37917
356.585	48221
356.670	7541
356.755	5006
356.840	6038
356.924	25775
357.009	101045
357.094	43680
357.179	9457
357.263	6981
357.348	6723
357.433	6960
357.517	5992
357.602	4150
357.687	3910
357.771	4751
357.856	5818
357.941	4746
358.025	17610
358.110	86519
358.195	48272
358.279	7644
358.364	5542
358.448	17168
358.533	53060
358.617	41249
358.702	39900
358.787	16272
358.871	8098
358.956	7046
359.040	1809
359.125	1380
359.209	2714
359.294	2395
359.378	3626
359.462	5667
359.547	5105
359.631	4373
359.716	2373
359.800	2704
359.885	6056
359.969	3295
360.053	2193
360.138	2214
360.222	3476
360.306	7548
360.391	6797
360.475	6319
360.559	15723
360.644	17902
360.728	16142
360.812	20570
360.896	63774
360.981	31354
361.065	20029
361.149	4338
361.233	4575
361.318	4159
361.402	4123
361.486	4489
361.570	2543
361.654	3819
361.739	9022
361.823	36466
361.907	64594
361.991	13140
362.075	6152
362.159	14883
362.243	11604
362.327	10181
362.411	15500
362.495	8609
362.580	4194
362.664	2433
362.748	2545
362.832	2930
362.916	4164
363.000	17954
363.084	56542
363.168	79100
363.252	20592
363.336	7108
363.420	11033
363.503	39990
363.587	57056
363.671	9079
363.755	6294
363.839	8662
363.923	3417
364.007	7669
364.091	10241
364.175	13749
364.258	66802
364.342	45643
364.426	49266
364.510	30329
364.594	13759
364.677	12532
364.761	51318
364.845	42811
364.929	13709
365.013	11618
365.096	9641
365.180	12240
365.264	14852
365.347	68114
365.431	35533
365.515	10316
365.598	4093
365.682	3868
365.766	8853
365.849	13315
365.933	4866
366.017	7738
366.100	7818
366.184	2186
366.267	3992
366.351	2371
366.435	1835
366.518	2066
366.602	1758
366.685	3260
366.769	3268
366.852	6978
366.936	14203
367.019	6077
367.103	5505
367.186	14835
367.270	4682
367.353	1098
367.436	3000
367.520	2271
367.603	3784
367.687	4248
367.770	9417
367.853	5749
367.937	15082
368.020	30764
368.104	8423
368.187	6703
368.270	10862
368.353	9176
368.437	14024
368.520	42261
368.603	24477
368.687	18414
368.770	42512
368.853	11779
368.936	10732
369.020	13756
369.103	4080
369.186	2481
369.269	3210
369.352	5483
369.436	11147
369.519	6956
369.602	2567
369.685	4533
369.768	3933
369.851	2953
369.934	1999
370.018	2693
370.101	7859
370.184	7447
370.267	5312
370.350	7823
370.433	13706
370.516	27880
370.599	40780
370.682	10960
370.765	22543
370.848	25146
370.931	49654
371.014	22827
371.097	5117
371.180	3415
371.263	2471
371.346	1374
371.429	2617
371.511	2500
371.594	5438
371.677	10360
371.760	15335
371.843	7814
371.926	28223
372.009	74506
372.091	27894
372.174	17188
372.257	43874
372.340	19466
372.423	16434
372.505	23262
372.588	9456
372.671	13442
372.754	46349
372.836	26054
372.919	20944
373.002	48973
373.085	15221
373.167	7555
373.250	18027
373.332	41967
373.415	47803
373.498	103629
373.580	43566
373.663	43986
373.746	70372
373.828	17045
373.911	8989
373.993	9291
374.076	40387
374.159	45924
374.241	15237
374.324	38750
374.406	30217
374.489	26218
374.571	87350
374.654	42220
374.736	16723
374.819	52826
374.901	72828
374.983	81255
375.066	16797
375.148	6342
375.231	28797
375.313	69182
375.395	29806
375.478	5673
375.560	4130
375.643	4861
375.725	14226
375.807	67075
375.890	69237
375.972	41519
376.054	18133
376.136	35771
376.219	16384
376.301	17477
376.383	60545
376.465	26013
376.548	14444
376.630	16364
376.712	52517
376.794	27708
376.877	3856
376.959	1560
377.041	2913
377.123	10333
377.205	15855
377.287	2074
377.369	2549
377.452	1981
377.534	2846
377.616	1607
377.698	2395
377.780	1681
377.862	2835
377.944	2102
378.026	1310
378.108	1768
378.190	1769
378.272	1861
378.354	1946
378.436	1509
378.518	4847
378.600	21180
378.682	17085
378.764	25579
378.846	25474
378.928	6957
379.010	9710
379.091	5433
379.173	2755
379.255	2284
379.337	3411
379.419	11198
379.501	39729
379.583	19489
379.664	4425
379.746	8787
379.828	27392
379.910	37403
379.991	36612
380.073	6137
380.155	4019
380.237	2820
380.318	2399
380.400	1826
380.482	5657
380.564	10386
380.645	9729
380.727	9994
380.809	5712
380.890	3773
380.972	2849
381.053	2068
381.135	4037
381.217	7583
381.298	30062
381.380	15858
381.461	11122
381.543	44958
381.624	66378
381.706	13728
381.787	7220
381.869	7079
381.951	16953
382.032	76194
382.113	57989
382.195	12775
382.276	8880
382.358	15257
382.439	45566
382.521	48425
382.602	78981
382.684	35430
382.765	63210
382.846	66886
382.928	83597
383.009	49560
383.090	24991
383.172	97333
383.253	183320
383.334	67174
383.416	72413
383.497	40054
383.578	13895
383.659	22289
383.741	76758
383.822	245992
383.903	141765
383.984	46352
384.066	89631
384.147	60916
384.228	12586
384.309	8395
384.390	7315
384.471	4582
384.553	6006
384.634	7489
384.715	8222
384.796	4218
384.877	4980
384.958	22452
385.039	33933
385.120	12111
385.201	5385
385.282	8568
385.363	8940
385.444	5872
385.525	9501
385.606	34221
385.687	34165
385.768	9150
385.849	10756
385.930	31999
386.011	64757
386.092	19212
386.173	5010
386.254	5154
386.335	5886
386.416	5282
386.496	15883
386.577	31166
386.658	14262
386.739	7660
386.820	8456
386.901	7291
386.981	6014
387.062	3451
387.143	6336
387.224	25423
387.304	30190
387.385	10611
387.466	7570
387.547	10963
387.627	7040
387.708	9504
387.789	44602
387.869	61614
387.950	18230
388.031	2725
388.111	3015
388.192	14148
388.273	24118
388.353	12428
388.434	5231
388.514	7215
388.595	37585
388.676	55845
388.756	29911
388.837	24917
388.917	17904
388.998	3727
389.078	3960
389.159	2777
389.239	1506
389.320	5489
389.400	3068
389.480	10452
389.561	32736
389.641	17670
389.722	5585
389.802	8371
389.883	12110
389.963	34328
390.043	27252
390.124	11565
390.204	9684
390.284	30791
390.365	22038
390.445	25272
390.525	47697
390.605	33848
390.686	16152
390.766	5746
390.846	3884
390.927	1969
391.007	2466
391.087	4003
391.167	4054
391.247	2432
391.328	7908
391.408	12738
391.488	10156
391.568	1955
391.648	3773
391.728	6277
391.808	6348
391.888	5775
391.969	14353
392.049	27755
392.129	15354
392.209	12258
392.289	33157
392.369	21352
392.449	23629
392.529	14435
392.609	8301
392.689	10013
392.769	30735
392.849	29959
392.929	20938
393.009	52372
393.089	38888
393.169	25706
393.248	71985
393.328	280931
393.408	348770
393.488	103459
393.568	27774
393.648	13282
393.728	9037
393.807	5795
393.887	5576
393.967	4855
394.047	5761
394.127	5072
394.206	8202
394.286	22748
394.366	118800
394.446	146740
394.525	31953
394.605	7632
394.685	9098
394.764	27099
394.844	50728
394.924	37130
395.003	8900
395.083	4641
395.163	5591
395.242	3664
395.322	5466
395.402	2054
395.481	5355
395.561	14465
395.640	55065
395.720	39326
395.799	53229
395.879	45882
395.958	12600
396.038	32049
396.117	155205
396.197	195452
396.276	59184
396.356	22606
396.435	21933
396.515	12776
396.594	12423
396.673	21614
396.753	76766
396.832	267379
396.912	233842
396.991	60226
397.070	14920
397.150	7461
397.229	6566
397.308	8227
397.388	15364
397.467	7837
397.546	3159
397.625	943
397.705	5071
397.784	4946
397.863	3038
397.942	1460
398.022	2976
398.101	13413
398.180	52634
398.259	32532
398.338	7388
398.417	3371
398.497	3251
398.576	3562
398.655	1653
398.734	1328
398.813	1956
398.892	11787
398.971	53815
399.050	29941
399.129	2850
399.208	1163
399.287	2015
399.366	515
399.445	1615
399.524	1557
399.603	1014
399.682	3813
399.761	12761
399.840	52389
399.919	48353
399.998	6242
400.077	1208
400.156	395
400.235	4286
400.313	1824
400.392	2587
400.471	13869
400.550	25671
400.629	7080
400.708	3246
400.786	3053
400.865	13448
400.944	16194
401.023	7303
401.102	965
401.180	1171
401.259	1146
401.338	2554
401.416	3580
401.495	3135
401.574	3379
401.652	2137
401.731	3203
401.810	3180
401.888	1080
401.967	37
402.046	742
402.124	2999
402.203	4377
402.281	2958
402.360	3977
402.438	16878
402.517	13350
402.596	3973
402.674	3798
402.753	2441
402.831	813
402.910	2038
402.988	9553
403.066	43432
403.145	27463
403.223	11406
403.302	33687
403.380	27784
403.459	26692
403.537	11178
403.615	4823
403.694	-179
403.772	868
403.850	802
403.929	350
404.007	579
404.085	3904
404.164	5146
404.242	1698
404.320	2083
404.398	3044
404.477	9964
404.555	58750
404.633	61461
404.711	7614
404.789	1724
404.868	1581
404.946	1344
405.024	-17
405.102	410
405.180	-654
405.258	-982
405.336	1373
405.415	596
405.493	5472
405.571	5222
405.649	283
405.727	278
405.805	2826
405.883	2867
405.961	3685
406.039	4780
406.117	1310
406.195	2579
406.273	11499
406.351	56398
406.429	40142
406.507	7969
406.585	2666
406.663	1599
406.740	2631
406.818	1800
406.896	1162
406.974	1376
407.052	2479
407.130	29331
407.208	51206
407.285	11854
407.363	541
407.441	1417
407.519	446
407.596	1815
407.674	4471
407.752	13045
407.830	20053
407.907	11091
407.985	2509
408.063	875
408.141	571
408.218	3847
408.296	4132
408.373	1788
408.451	1450
408.529	1711
408.606	145
408.684	242
408.762	-543
408.839	-276
408.917	-276
408.994	588
409.072	-72
409.149	1088
409.227	2288
409.304	2353
409.382	2340
409.459	2410
409.537	3512
409.614	3633
409.692	1050
409.769	1237
409.846	4500
409.924	7119
410.001	2993
410.079	1772
410.156	865
410.233	1182
410.311	47
410.388	181
410.465	1044
410.543	1596
410.620	512
410.697	584
410.775	1586
410.852	-439
410.929	1704
411.006	3076
411.083	366
411.161	4859
411.238	6977
411.315	4218
411.392	152
411.469	3250
411.547	2205
411.624	510
411.701	420
411.778	771
411.855	3878
411.932	2890
412.009	377
412.086	841
412.163	2114
412.240	2418
412.317	2761
412.394	3157
412.471	1252
412.548	30
412.625	758
412.702	1313
412.779	4371
412.856	2632
412.933	-377
413.010	443
413.087	955
413.164	11918
413.241	22477
413.318	5167
413.395	2566
413.471	3857
413.548	2148
413.625	243
413.702	942
413.779	1666
413.855	304
413.932	-254
414.009	-214
414.086	782
414.162	16
414.239	2460
414.316	11661
414.393	31974
414.469	11979
414.546	985
414.623	6
414.699	167
414.776	739
414.853	660
414.929	958
415.006	871
415.082	1594
415.159	1609
415.236	625
415.312	1026
415.389	1831
415.465	4551
415.542	1739
415.618	595
415.695	2356
415.771	1347
415.848	824
415.924	2131
416.000	2197
416.077	971
416.153	-1361
416.230	-819
416.306	-202
416.383	233
416.459	218
416.535	107
416.612	111
416.688	239
416.764	-620
416.841	832
416.917	52
416.993	591
417.069	1068
417.146	1935
417.222	1289
417.298	1507
417.374	863
417.451	1117
417.527	629
417.603	1340
417.679	1094
417.755	1422
417.831	-1040
417.908	851
417.984	275
418.060	-329
418.136	2513
418.212	5302
418.288	1336
418.364	1716
418.440	179
418.516	2730
418.592	4263
418.668	7888
418.744	9710
418.820	8518
418.896	1120
418.972	260
419.048	250
419.124	3737
419.200	2850
419.276	794
419.352	-757
419.428	56
419.504	132
419.579	1262
419.655	1107
419.731	842
419.807	4882
419.883	10598
419.959	7995
420.034	2304
420.110	3701
420.186	18011
420.262	17931
420.337	3678
420.413	1218
420.489	1170
420.565	1294
420.640	531
420.716	712
420.792	-216
420.867	1112
420.943	-39
421.019	2644
421.094	1949
421.170	1386
421.245	272
421.321	865
421.397	327
421.472	2274
421.548	6686
421.623	6117
421.699	3059
421.774	2839
421.850	1547
421.925	4375
422.001	3972
422.076	3435
422.152	3306
422.227	6308
422.302	7816
422.378	9942
422.453	17503
422.529	44175
422.604	127406
422.679	212456
422.755	155974
422.830	59123
422.905	22249
422.981	10848
423.056	7600
423.131	5582
423.207	3834
423.282	3850
423.357	7508
423.432	4471
423.508	5603
423.583	10038
423.658	9676
423.733	3146
423.808	3842
423.883	3706
423.959	3448
424.034	2002
424.109	2372
424.184	-211
424.259	379
424.334	415
424.409	-140
424.484	69
424.559	1584
424.634	896
424.709	1746
424.784	2453
424.859	1787
424.934	2584
425.009	12581
425.084	24289
425.159	11470
425.234	1466
425.309	450
425.384	125
425.459	421
425.534	404
425.609	1147
425.683	772
425.758	759
425.833	1221
425.908	2672
425.983	6217
426.058	24814
426.132	13712
426.207	2978
426.282	5616
426.357	5934
426.431	773
426.506	1658
426.581	1754
426.655	1153
426.730	924
426.805	773
426.879	1595
426.954	1876
427.029	3549
427.103	19786
427.178	55610
427.253	31399
427.327	4439
427.402	3742
427.476	8078
427.551	3869
427.625	2532
427.700	2584
427.774	488
427.849	2728
427.923	954
427.998	1375
428.072	1393
428.147	5433
428.221	15760
428.296	51735
428.370	31046
428.444	4458
428.519	7038
428.593	15867
428.667	15202
428.742	15898
428.816	15702
428.890	34909
428.965	58325
429.039	22133
429.113	20731
429.188	9445
429.262	1992
429.336	3621
429.410	11961
429.485	11439
429.559	12908
429.633	13652
429.707	2963
429.781	6472
429.855	42195
429.930	73981
430.004	45291
430.078	68373
430.152	61265
430.226	60060
430.300	67918
430.374	13047
430.448	4739
430.522	15406
430.596	57729
430.670	40614
430.744	51162
430.818	92377
430.892	25375
430.966	3547
431.040	2098
431.114	134
431.188	735
431.262	1470
431.336	1642
431.410	6043
431.484	19967
431.557	16281
431.631	2473
431.705	1117
431.779	6302
431.853	39586
431.927	36287
432.000	5237
432.074	1471
432.148	3085
432.222	3506
432.295	1508
432.369	788
432.443	2145
432.516	18383
432.590	60520
432.664	30725
432.737	4212
432.811	744
432.885	1
432.958	-240
433.032	-83
433.106	-419
433.179	260
433.253	-1190
433.326	111
433.400	-647
433.473	430
433.547	-508
433.620	562
433.694	1703
433.767	4049
433.841	1237
433.914	824
433.988	-365
434.061	-136
434.134	361
434.208	367
434.281	-820
434.355	280
434.428	772
434.501	-167
434.575	-386
434.648	650
434.721	-434
434.795	-31
434.868	-149
434.941	-559
435.014	-785
435.088	-851
435.161	777
435.234	2278
435.307	3845
435.381	2062
435.454	1433
435.527	2758
435.600	2028
435.673	1158
435.746	837
435.819	-323
435.892	634
435.966	-580
436.039	-355
436.112	1450
436.185	-568
436.258	-969
436.331	-863
436.404	-16
436.477	-287
436.550	-48
436.623	36
436.696	577
436.769	-392
436.842	296
436.915	746
436.987	2138
437.060	1393
437.133	616
437.206	-550
437.279	804
437.352	-591
437.425	306
437.498	64
437.570	3204
437.643	4640
437.716	1633
437.789	-298
437.861	2243
437.934	10013
438.007	7305
438.080	784
438.152	642
438.225	2350
438.298	22099
438.370	84920
438.443	51221
438.516	13383
438.588	3361
438.661	305
438.734	869
438.806	748
438.879	2698
438.951	2557
439.024	5637
439.096	3606
439.169	336
439.241	526
439.314	-474
439.386	2166
439.459	6136
439.531	9748
439.604	6214
439.676	5
439.749	56
439.821	-119
439.893	880
439.966	508
440.038	1430
440.110	1900
440.183	894
440.255	-38
440.327	2077
440.400	9913
440.472	55910
440.544	55424
440.617	9970
440.689	3760
440.761	5204
440.833	9427
440.905	8331
440.978	1482
441.050	801
441.122	186
441.194	11
441.266	-283
441.338	313
441.411	1079
441.483	14854
441.555	34580
441.627	13102
441.699	4782
441.771	7703
441.843	3510
441.915	836
441.987	379
442.059	1
442.131	1233
442.203	5812
442.275	5666
442.347	6311
442.419	3925
442.491	17010
442.563	57284
442.635	39147
442.706	24227
442.778	28096
442.850	6358
442.922	1568
442.994	2060
443.066	5782
443.137	4709
443.209	2436
443.281	2840
443.353	6864
443.425	25732
443.496	95815
443.568	116578
443.640	52748
443.711	11851
443.783	3906
443.855	2285
443.926	1865
443.998	1143
444.070	4547
444.141	3681
444.213	4429
444.285	6361
444.356	6769
444.428	7415
444.499	3586
444.571	520
444.642	1175
444.714	629
444.785	3933
444.857	6142
444.928	18990
445.000	18846
445.071	12142
445.143	19684
445.214	11201
445.285	9496
445.357	33123
445.428	71801
445.500	162407
445.571	138585
445.642	75139
445.714	31988
445.785	39431
445.856	18738
445.928	6999
445.999	6760
446.070	5948
446.141	3873
446.213	7187
446.284	5613
446.355	5142
446.426	4261
446.497	3076
446.569	5011
446.640	11813
446.711	8210
446.782	3194
446.853	4936
446.924	6758
446.995	3202
447.066	3236
447.138	7180
447.209	8115
447.280	905
447.351	277
447.422	107
447.493	2468
447.564	4255
447.635	5015
447.706	4030
447.777	722
447.847	229
447.918	-96
447.989	3066
448.060	5788
448.131	12127
448.202	18533
448.273	9036
448.344	6448
448.414	1261
448.485	1725
448.556	1228
448.627	697
448.698	1060
448.768	-162
448.839	381
448.910	6396
448.981	9806
449.051	3852
449.122	1288
449.193	963
449.263	6
449.334	546
449.405	1498
449.475	6295
449.546	8176
449.616	7760
449.687	11459
449.758	3374
449.828	1134
449.899	356
449.969	-408
450.040	590
450.110	1552
450.181	4823
450.251	2813
450.322	1213
450.392	1456
450.463	1353
450.533	918
450.604	1090
450.674	934
450.744	2164
450.815	522
450.885	2203
450.955	905
451.026	822
451.096	286
451.166	3327
451.237	6432
451.307	26263
451.377	22198
451.447	2932
451.518	1332
451.588	1909
451.658	1680
451.728	3650
451.799	19325
451.869	41314
451.939	16271
452.009	2915
452.079	1285
452.149	1257
452.219	4389
452.289	24349
452.360	38138
452.430	9894
452.500	2359
452.570	3971
452.640	5883
452.710	16267
452.780	35932
452.850	27104
452.920	17717
452.990	10929
453.060	3459
453.129	4222
453.199	7646
453.269	18825
453.339	73463
453.409	128153
453.479	90811
453.549	150065
453.619	183479
453.688	124795
453.758	22600
453.828	6319
453.898	3255
453.968	3106
454.037	2734
454.087	2222
454.107	1957
454.168	1724
454.177	1631
454.247	1440
454.249	1494
454.316	1702
454.330	2440
454.386	4966
454.411	9010
454.456	13206
454.492	22900
454.525	31255
454.574	21332
454.595	17353
454.655	5814
454.665	4094
454.734	5498
454.736	5915
454.804	14089
454.817	18419
454.873	28669
454.898	36817
454.943	49302
454.979	36156
455.013	25936
455.060	15667
455.082	12602
455.141	13889
455.152	13497
455.221	27100
455.222	27986
455.291	46797
455.303	44832
455.360	38740
455.384	33409
455.430	25213
455.465	28779
455.499	30251
455.546	36309
455.569	35367
455.627	32771
455.638	33381
455.707	9505
455.708	9536
455.777	4718
455.789	4832
455.846	4886
455.869	4982
455.916	5414
455.950	5309
455.985	4687
456.031	5254
456.054	5408
456.112	4825
456.124	4880
456.193	4971
456.193	4902
456.262	7011
456.274	7602
456.332	9092
456.355	10054
456.401	10093
456.436	9077
456.470	8308
456.516	5213
456.540	4087
456.597	4130
456.609	4024
456.678	3943
456.678	3902
456.747	3980
456.759	3848
456.817	3115
456.840	3385
456.886	3885
456.920	3981
456.955	4225
457.001	5229
457.024	6259
457.082	8281
457.093	8537
457.162	12749
457.163	12859
457.232	15088
457.243	14901
457.301	11496
457.324	8691
457.370	6000
457.405	6134
457.439	6225
457.485	6301
457.508	6317
457.566	7471
457.577	7781
457.646	9068
457.647	9147
457.715	15517
457.727	16760
457.784	25822
457.808	30502
457.853	33957
457.889	37944
457.922	33742
457.969	23699
457.991	27125
458.050	37021
458.060	39046
458.129	60061
458.130	60804
458.198	46161
458.211	41821
458.267	25851
458.292	17541
458.336	14031
458.372	14251
458.405	20234
458.453	29503
458.474	38602
458.533	67674
458.543	69542
458.611	92558
458.614	93581
458.680	50440
458.694	38447
458.749	22754
458.775	16543
458.818	12161
458.855	10806
458.887	10305
458.936	10540
458.955	10542
459.016	10472
459.024	10428
459.093	11219
459.097	11243
459.162	12508
459.177	13124
459.230	14665
459.257	15217
459.299	15074
459.338	15178
459.368	16146
459.418	17738
459.437	16379
459.499	12680
459.505	12726
459.574	10782
459.579	10827
459.643	10748
459.659	10591
459.711	11064
459.740	11320
459.780	12121
459.820	13392
459.849	13993
459.900	15077
459.917	14732
459.981	14018
459.986	13912
460.054	12300
460.061	12061
460.123	12363
460.141	12747
460.191	15840
460.222	17699
460.260	18875
460.302	20930
460.328	19217
460.382	15358
460.397	15399
460.462	13784
460.465	13885
460.534	17761
460.543	18372
460.602	42839
460.623	51543
460.671	80665
460.703	102392
460.739	86949
460.783	67757
460.808	55223
460.864	18450
460.876	17540
460.944	14826
460.945	14761
461.013	14548
461.024	14306
461.081	14542
461.104	15167
461.150	14889
461.184	14341
461.218	14153
461.264	13544
461.286	13936
461.345	14987
461.355	14918
461.423	15043
461.425	15049
461.491	17489
461.505	18045
461.559	35706
461.585	43981
461.628	76803
461.665	106783
461.696	116873
461.745	138849
461.764	116454
461.825	39078
461.832	39129
461.901	21826
461.905	21496
461.969	18448
461.985	18095
462.037	16995
462.065	15998
462.105	19578
462.145	23653
462.173	36465
462.225	60555
462.241	68569
462.305	102676
462.310	99176
462.378	47372
462.385	40576
462.446	25186
462.465	19863
462.514	17348
462.545	17802
462.582	17655
462.625	17864
462.650	17781
462.705	17039
462.718	17928
462.785	23113
462.786	23370
462.854	38134
462.865	40563
462.922	50674
462.945	55254
462.990	38265
463.025	23848
463.058	22102
463.104	17877
463.126	17226
463.184	17472
463.194	17719
463.262	19759
463.264	19807
463.330	20395
463.344	20579
463.398	23114
463.424	24266
463.466	25531
463.504	26814
463.533	26528
463.583	25875
463.601	26975
463.663	30171
463.669	31084
463.737	42077
463.743	43032
463.805	67124
463.823	74257
463.873	120319
463.903	148417
463.940	157592
463.982	170038
464.008	132571
464.062	50573
464.076	47410
464.142	22764
464.144	22558
464.211	19841
464.221	19727
464.279	21772
464.301	22631
464.347	25430
464.381	27592
464.414	32571
464.461	39082
464.482	40230
464.540	43820
464.550	41587
464.617	25093
464.620	24454
464.685	26669
464.699	27247
464.753	29762
464.779	31117
464.820	32777
464.859	34155
464.888	36622
464.938	40790
464.956	41576
465.018	44286
465.023	43195
465.091	28291
465.098	26625
465.158	26256
465.177	26187
465.226	26859
465.257	27257
465.293	29701
465.336	32621
465.361	35540
465.416	41922
465.428	46210
465.495	68999
465.496	69512
465.563	131823
465.575	142440
465.631	176472
465.654	191289
465.698	111913
465.734	45035
465.765	38609
465.813	26246
465.833	25505
465.893	25920
465.900	25783
465.968	24465
465.972	24331
466.035	24358
466.052	24270
466.102	25160
466.131	25680
466.170	25594
466.210	25356
466.237	25909
466.290	26887
466.304	27232
466.369	28416
466.372	28572
466.439	31605
466.449	31965
466.506	36850
466.528	38645
466.573	57920
466.607	72213
466.641	118924
466.687	183662
466.708	205521
466.766	265041
466.775	242923
466.842	73332
466.845	65114
466.909	42003
466.925	36452
466.977	33740
467.004	32525
467.044	33693
467.083	34758
467.111	37064
467.163	41188
467.178	42096
467.242	45430
467.245	45450
467.312	43813
467.321	43501
467.379	46336
467.400	47217
467.446	54709
467.480	59930
467.559	49764
467.638	39458
467.717	41528
467.796	45835
467.875	52265
467.955	52548
468.034	84093
468.113	214919
468.192	331562
468.271	78589
468.350	44391
468.429	50859
468.508	51536
468.588	44807
468.667	44625
468.746	48038
468.825	46154
468.904	39045
468.983	48772
469.062	90109
469.141	114277
469.220	40255
469.299	37634
469.378	42397
469.456	40840
469.535	38779
469.614	40321
469.693	47052
469.772	64558
469.851	101898
469.930	64478
470.009	36680
470.088	36204
470.166	40525
470.245	53033
470.324	61886
470.403	44462
470.482	37346
470.560	34195
470.639	39408
470.718	45218
470.797	39181
470.875	49248
470.954	80193
471.033	88621
471.111	32924
471.190	29459
471.269	30449
471.347	31874
471.426	36076
471.505	42479
471.583	40309
471.662	35892
471.740	33604
471.819	32280
471.898	32375
471.976	31711
472.055	33160
472.133	41221
472.212	62321
472.290	69743
472.369	39996
472.447	32340
472.526	30194
472.604	31664
472.683	34893
472.761	37368
472.839	33906
472.918	32156
472.996	36890
473.075	45300
473.153	42121
473.231	34254
473.310	43367
473.388	43080
473.466	37861
473.545	38035
473.623	49737
473.701	50851
473.780	33644
473.858	35032
473.936	38922
474.014	33831
474.093	40669
474.171	67701
474.249	109219
474.327	65194
474.405	31027
474.484	29764
474.562	31386
474.640	31859
474.718	35300
474.796	33840
474.874	28107
474.952	26540
475.030	27617
475.108	28517
475.187	30059
475.265	34104
475.343	54077
475.421	63516
475.499	33681
475.577	35623
475.655	52677
475.733	121887
475.811	229909
475.889	209029
475.966	132612
476.044	38515
476.122	49816
476.200	63587
476.278	51450
476.356	36044
476.434	41018
476.512	48274
476.590	64300
476.667	54914
476.745	35527
476.823	37520
476.901	38777
476.979	42055
477.056	38214
477.134	40093
477.212	38963
477.290	37420
477.367	32651
477.445	33756
477.523	35972
477.601	35162
477.678	35069
477.756	48086
477.834	56931
477.911	35729
477.989	35139
478.066	35856
478.144	45631
478.222	47150
478.299	73208
478.377	67152
478.454	33281
478.532	31856
478.609	35203
478.687	36742
478.764	30768
478.842	33200
478.919	38000
478.997	35528
479.074	33562
479.152	44675
479.229	61038
479.307	38651
479.384	29055
479.461	29264
479.539	34857
479.616	45126
479.694	36083
479.771	41045
479.848	44440
479.926	67347
480.003	68166
480.080	31855
480.157	31323
480.235	31162
480.312	32975
480.389	40455
480.467	75706
480.544	97459
480.621	46018
480.698	42374
480.775	50152
480.853	51601
480.930	39368
481.007	40843
481.084	49170
481.161	50946
481.238	48674
481.315	35469
481.392	35381
481.470	36776
481.547	38904
481.624	36704
481.701	36435
481.778	39893
481.855	46054
481.932	71008
482.009	133146
482.086	87820
482.163	39840
482.240	53610
482.317	93917
482.393	71208
482.470	39935
482.547	40245
482.624	36428
482.701	39735
482.778	37977
482.855	30092
482.932	30289
483.009	31335
483.085	36581
483.162	44674
483.239	42491
483.316	34469
483.393	33755
483.469	33987
483.546	41566
483.623	47215
483.699	35965
483.776	38012
483.853	43878
483.930	64520
484.006	173013
484.083	313676
484.160	102687
484.236	97622
484.313	81358
484.389	67820
484.466	59492
484.543	57550
484.619	62978
484.696	67060
484.772	76659
484.849	87363
484.925	59460
485.002	57458
485.078	64339
485.155	67280
485.231	57953
485.308	56156
485.384	62132
485.461	81320
485.537	164999
485.614	206471
485.690	64875
485.766	53470
485.843	57949
485.919	81543
485.995	84816
486.072	50061
486.148	48774
486.224	49890
486.301	55056
486.377	71280
486.453	72679
486.530	58457
486.606	67550
486.682	80059
486.758	128118
486.835	166624
486.911	114979
486.987	210297
487.063	184764
487.139	198039
487.215	136911
487.292	65117
487.368	55781
487.444	66807
487.520	86464
487.596	80414
487.672	106588
487.748	268246
487.824	415729
487.900	135714
487.976	68591
488.052	72994
488.128	90749
488.204	73833
488.280	60086
488.356	76662
488.432	189139
488.508	321588
488.584	87476
488.660	52371
488.736	50908
488.812	53782
488.888	67094
488.964	86259
489.039	183406
489.115	288840
489.191	168435
489.267	56285
489.343	55729
489.418	44928
489.494	42185
489.570	42958
489.646	45977
489.722	47429
489.797	51211
489.873	90284
489.949	236846
490.024	194933
490.100	49282
490.176	44946
490.251	54816
490.327	71636
490.403	45540
490.478	39460
490.554	35599
490.629	37117
490.705	35948
490.781	40528
490.856	44438
490.932	50161
491.007	46607
491.083	46425
491.158	46100
491.234	66329
491.309	177435
491.385	188436
491.460	50615
491.536	50855
491.611	42103
491.686	47594
491.762	61506
491.837	123178
491.913	216689
491.988	294650
492.063	356422
492.139	127954
492.214	80767
492.289	35309
492.365	35088
492.440	44491
492.515	52463
492.590	48805
492.666	38485
492.741	59311
492.816	105573
492.891	51626
492.967	32294
493.042	28856
493.117	31630
493.192	30444
493.267	39433
493.342	77653
493.418	94869
493.493	35389
493.568	28779
493.643	32550
493.718	47734
493.793	81317
493.868	78829
493.943	45207
494.018	34390
494.093	35018
494.168	35916
494.243	28225
494.318	27378
494.393	28956
494.468	28524
494.543	27913
494.618	34417
494.693	30459
494.768	32440
494.842	33620
494.917	25743
494.992	28435
495.067	25765
495.142	24772
495.217	29282
495.292	29667
495.366	37981
495.441	51426
495.516	66291
495.591	85147
495.665	241603
495.740	595057
495.815	231731
495.890	59123
495.964	48744
496.039	48566
496.114	45585
496.188	48389
496.263	47881
496.338	46203
496.412	56043
496.487	63223
496.561	58664
496.636	61247
496.710	48913
496.785	56399
496.860	67639
496.934	49578
497.009	45475
497.083	44394
497.158	45934
497.232	55904
497.307	73931
497.381	54282
497.455	68838
497.530	102318
497.604	57815
497.679	60135
497.753	103108
497.827	134107
497.902	94567
497.976	109272
498.050	241956
498.125	958466
498.199	997243
498.273	144576
498.348	90296
498.422	72861
498.496	72366
498.570	68641
498.645	55460
498.719	60147
498.793	80126
498.867	139845
498.941	181883
499.016	395030
499.090	1157440
499.164	394809
499.238	58811
499.312	49667
499.386	62616
499.460	60712
499.534	56806
499.609	72150
499.683	125119
499.757	112087
499.831	194303
499.905	784074
499.979	769232
500.053	155458
500.127	146084
500.201	85805
500.275	58687
500.349	59173
500.422	68983
500.496	94781
500.570	184778
500.644	438914
500.718	902861
500.792	197170
500.866	63787
500.940	91421
501.013	72137
501.087	68387
501.161	113315
501.235	157858
501.309	335923
501.382	874261
501.456	746761
501.530	177067
501.603	351629
501.677	124739
501.751	56194
501.825	64865
501.898	125139
501.972	404141
502.046	246970
502.119	74404
502.193	160901
502.266	442133
502.340	207280
502.413	186620
502.487	401675
502.561	236606
502.634	64563
502.708	47262
502.781	43996
502.855	37833
502.928	35248
503.002	35418
503.075	36097
503.149	41014
503.222	41920
503.295	50798
503.369	63275
503.442	88088
503.516	270868
503.589	763741
503.662	485969
503.736	144017
503.809	353476
503.882	278109
503.956	384454
504.029	352117
504.102	185972
504.175	235106
504.249	87265
504.322	65417
504.395	59034
504.468	40146
504.542	45060
504.615	32768
504.688	30206
504.761	31236
504.834	40920
504.907	43933
504.980	71581
505.053	41586
505.127	48770
505.200	57988
505.273	72247
505.346	41435
505.419	33877
505.492	29956
505.565	24403
505.638	24481
505.711	27569
505.784	27880
505.857	25966
505.930	29369
506.003	29344
506.076	32981
506.149	49375
506.221	69014
506.294	54148
506.367	135836
506.440	494924
506.513	252445
506.586	68501
506.659	39726
506.731	30883
506.804	37533
506.877	54843
506.950	41527
507.022	28183
507.095	46253
507.168	56772
507.241	28892
507.313	24963
507.386	28741
507.459	37497
507.531	26930
507.604	24000
507.677	25195
507.749	22206
507.822	28434
507.894	50551
507.967	53787
508.040	32188
508.112	28901
508.185	30347
508.257	29386
508.330	45806
508.402	31556
508.475	32579
508.547	35286
508.620	35436
508.692	68792
508.765	36001
508.837	24529
508.909	24968
508.982	25129
509.054	28433
509.127	25139
509.199	24435
509.271	23262
509.344	21444
509.416	21924
509.488	24054
509.560	24743
509.633	25006
509.705	29854
509.777	29136
509.849	41908
509.922	29657
509.994	24037
510.066	23983
510.138	24488
510.210	37788
510.283	37747
510.355	33429
510.427	28717
510.499	28360
510.571	29950
510.643	28604
510.715	47757
510.787	42816
510.859	30707
510.931	40569
511.003	50115
511.076	43834
511.148	28453
511.219	29692
511.291	58412
511.363	75741
511.435	26952
511.507	23253
511.579	23997
511.651	25523
511.723	23905
511.795	24537
511.867	27110
511.939	36551
512.010	98895
512.082	72249
512.154	29555
512.226	28017
512.298	33503
512.369	51208
512.441	38351
512.513	40392
512.585	31705
512.656	32671
512.728	40244
512.800	28291
512.871	26442
512.943	27486
513.015	22368
513.086	26683
513.158	30354
513.230	31691
513.301	46060
513.373	51376
513.444	29503
513.516	24110
513.588	25024
513.659	28411
513.731	37372
513.802	33308
513.874	62090
513.945	121581
514.016	39796
514.088	27297
514.159	31157
514.231	39840
514.302	50022
514.374	35724
514.445	40883
514.516	103090
514.588	75141
514.659	42455
514.730	98752
514.802	58657
514.873	30847
514.944	29908
515.016	30682
515.087	40058
515.158	61032
515.229	93890
515.301	30934
515.372	30438
515.443	25109
515.514	23537
515.585	22268
515.656	24175
515.728	23230
515.799	23646
515.870	25513
515.941	26209
516.012	27731
516.083	32556
516.154	36801
516.225	51492
516.296	44854
516.367	39708
516.438	47534
516.509	60804
516.580	85581
516.651	218393
516.722	819870
516.793	363140
516.864	90462
516.935	91352
517.006	98711
517.077	130937
517.148	265824
517.219	734294
517.289	1220155
517.360	571838
517.431	193268
517.502	57677
517.573	50689
517.643	47971
517.714	50278
517.785	51261
517.856	53332
517.926	61213
517.997	68438
518.068	83918
518.138	106061
518.209	152143
518.280	441656
518.350	1632003
518.421	632709
518.492	100604
518.562	71191
518.633	76957
518.703	70990
518.774	105163
518.845	242856
518.915	246940
518.986	94756
519.056	78276
519.127	119751
519.197	187359
519.268	483921
519.338	321568
519.408	82829
519.479	79051
519.549	60657
519.620	42066
519.690	33996
519.760	37269
519.831	37018
519.901	39122
519.971	32424
520.042	38842
520.112	50224
520.182	45554
520.253	50150
520.323	35614
520.393	37691
520.463	43120
520.534	39365
520.604	62768
520.674	45727
520.744	52601
520.814	71985
520.885	77129
520.955	141774
521.025	567032
521.095	216863
521.165	44661
521.235	42435
521.305	36776
521.375	31502
521.445	34596
521.515	44083
521.585	49356
521.655	52154
521.725	41004
521.795	40844
521.865	32768
521.935	58553
522.005	55990
522.075	32569
522.145	35815
522.215	45647
522.285	67618
522.355	91537
522.424	189012
522.494	157987
522.564	63451
522.634	94982
522.704	273129
522.774	105189
522.843	37795
522.913	33901
522.983	43139
523.053	36315
523.122	35896
523.192	46898
523.262	143283
523.331	141452
523.401	35720
523.471	26787
523.540	29666
523.610	23735
523.680	26496
523.749	27719
523.819	39157
523.888	42798
523.958	27233
524.027	31077
524.097	34934
524.166	30228
524.236	31600
524.305	32802
524.375	29113
524.444	26760
524.514	31192
524.583	33490
524.653	45991
524.722	49153
524.791	32546
524.861	30776
524.930	28272
524.999	30862
525.069	41996
525.138	39509
525.207	54547
525.277	33061
525.346	32704
525.415	30854
525.484	31628
525.554	42718
525.623	39794
525.692	32217
525.761	37237
525.830	36300
525.900	43023
525.969	64548
526.038	92854
526.107	148275
526.176	431125
526.245	364165
526.314	134052
526.383	233989
526.452	311895
526.522	476600
526.591	538020
526.660	180203
526.729	94419
526.797	99957
526.867	179409
526.935	688043
527.004	1104787
527.073	607928
527.142	75072
527.211	43677
527.280	41267
527.349	42356
527.418	26670
527.487	27585
527.555	25772
527.624	23238
527.693	24111
527.762	25051
527.831	23507
527.899	24708
527.968	27088
528.037	26020
528.106	29731
528.174	55104
528.243	50187
528.312	70815
528.380	89376
528.449	32710
528.518	24386
528.586	19609
528.655	21951
528.723	20798
528.792	21847
528.861	26742
528.929	23859
528.998	21790
529.066	19936
529.135	20170
529.203	21318
529.272	20653
529.340	22199
529.409	24399
529.477	23183
529.545	35511
529.614	38243
529.682	39550
529.751	50333
529.819	41766
529.887	32610
529.956	23093
530.024	24977
530.092	20817
530.161	26015
530.229	39044
530.297	25298
530.365	21539
530.434	19809
530.502	19509
530.570	19502
530.638	19663
530.707	22148
530.775	26137
530.843	21117
530.911	21101
530.979	21146
531.047	20546
531.115	23182
531.183	22303
531.252	22298
531.320	23979
531.388	22878
531.456	22136
531.524	20839
531.592	22495
531.660	24736
531.728	20535
531.796	22123
531.864	20230
531.932	23669
532.000	21909
532.067	23971
532.135	25554
532.203	28605
532.271	30119
532.339	42986
532.407	115349
532.475	68729
532.542	38063
532.610	41325
532.678	55389
532.746	171334
532.814	474289
532.881	119495
532.949	31278
533.017	26880
533.084	24759
533.152	23296
533.220	24284
533.287	26836
533.355	23370
533.423	23050
533.490	22236
533.558	23305
533.625	23543
533.693	25166
533.761	25598
533.828	27246
533.896	24908
533.963	43298
534.031	51061
534.098	76996
534.166	39656
534.233	24499
534.300	24178
534.368	25858
534.435	25356
534.503	25817
534.570	25610
534.637	27438
534.705	30826
534.772	36019
534.840	51848
534.907	181112
534.974	253246
535.041	42257
535.109	41899
535.176	26976
535.243	23231
535.310	25099
535.378	23276
535.445	21060
535.512	21097
535.579	22396
535.646	22608
535.714	22888
535.781	26388
535.848	25360
535.915	27515
535.982	25685
536.049	24952
536.116	26330
536.183	24945
536.250	26009
536.317	26952
536.384	29966
536.451	40913
536.518	42463
536.585	32367
536.652	40728
536.719	51502
536.786	46436
536.853	37436
536.920	51151
536.987	82008
537.053	72842
537.120	233630
537.187	211399
537.254	33550
537.321	27978
537.388	28635
537.454	25555
537.521	23782
537.588	24179
537.654	27244
537.721	29511
537.788	29212
537.855	26153
537.921	26440
537.988	27013
538.055	26783
538.121	25441
538.188	28571
538.254	38187
538.321	72178
538.388	47523
538.454	28968
538.521	26498
538.587	24415
538.654	25329
538.720	24580
538.787	23710
538.853	27964
538.920	36595
538.986	39030
539.053	31508
539.119	30481
539.185	30055
539.252	32811
539.318	47423
539.385	37299
539.451	34925
539.517	34618
539.583	39071
539.650	76960
539.716	204934
539.782	57689
539.849	28874
539.915	28525
539.981	29736
540.047	35302
540.114	32735
540.180	31786
540.246	31317
540.312	40209
540.378	73225
540.444	75048
540.510	73598
540.576	215774
540.643	72145
540.709	28401
540.775	28214
540.841	28644
540.907	38478
540.973	54645
541.039	41982
541.105	45581
541.171	30358
541.237	28916
541.303	30358
541.369	32431
541.435	38447
541.500	62016
541.566	42662
541.632	25750
541.698	24751
541.764	26164
541.830	25403
541.896	25391
541.961	26929
542.027	28227
542.093	26987
542.159	28205
542.224	30212
542.290	38765
542.356	60545
542.421	71677
542.487	35730
542.553	30847
542.618	36591
542.684	31950
542.750	31117
542.815	37711
542.881	59659
542.947	182086
543.012	135495
543.078	30231
543.143	27779
543.209	30254
543.274	30203
543.340	35958
543.405	70277
543.471	115606
543.536	33192
543.602	28624
543.667	27793
543.732	26640
543.798	25486
543.863	27181
543.928	24935
543.994	24174
544.059	25214
544.124	24782
544.190	24948
544.255	26138
544.320	26393
544.386	28989
544.451	37608
544.516	42986
544.581	44763
544.646	113043
544.712	180692
544.777	42963
544.842	39285
544.907	43837
544.972	36482
545.037	35287
545.102	38907
545.168	39016
545.233	40986
545.298	42586
545.363	49409
545.428	49970
545.493	71395
545.558	155595
545.623	71196
545.688	41370
545.753	38523
545.818	37637
545.883	38336
545.947	39097
546.012	43150
546.077	47243
546.142	40908
546.207	40392
546.272	48828
546.337	51719
546.401	43075
546.466	41294
546.531	41008
546.596	44472
546.661	43915
546.725	42987
546.790	40701
546.855	43884
546.919	44337
546.984	48126
547.049	52730
547.113	64273
547.178	58688
547.243	63797
547.307	71594
547.372	81392
547.436	91541
547.501	72281
547.565	75529
547.630	77424
547.695	78445
547.759	91699
547.823	82821
547.888	69662
547.952	70141
548.017	73579
548.081	84299
548.146	103253
548.210	92449
548.274	76921
548.339	74724
548.403	69399
548.468	65764
548.532	66162
548.596	67440
548.660	69589
548.725	74381
548.789	89928
548.853	90210
548.917	78291
548.982	98915
549.046	96831
549.110	66318
549.174	63340
549.238	69633
549.303	70743
549.367	74750
549.431	73812
549.495	68537
549.559	69460
549.623	77516
549.687	87844
549.751	103825
549.815	99094
549.879	97089
549.943	91234
550.007	97263
550.071	97547
550.135	100375
550.199	90680
550.263	85541
550.327	87024
550.391	110113
550.455	93031
550.519	92467
550.582	97047
550.646	117890
550.710	122187
550.774	105502
550.838	105287
550.901	110304
550.965	117556
551.029	123742
551.093	135185
551.156	159943
551.220	243556
551.284	284681
551.347	169933
551.411	245921
551.475	266182
551.538	118539
551.602	105205
551.666	99720
551.729	91637
551.793	91967
551.856	91318
551.920	86287
551.983	89182
552.047	87155
552.110	85884
552.174	86629
552.237	88659
552.301	82735
552.364	80382
552.428	79075
552.491	82143
552.554	84867
552.618	84052
552.681	87472
552.745	87586
552.808	105021
552.871	123301
552.934	95494
552.998	86052
553.061	88152
553.124	80850
553.187	78660
553.251	82554
553.314	84302
553.377	81221
553.440	89157
553.503	107069
553.567	125205
553.630	87354
553.693	83261
553.756	83811
553.819	79788
553.882	78730
553.945	78179
554.008	77049
554.071	78831
554.134	79815
554.197	75067
554.260	70603
554.323	76562
554.386	76297
554.449	78473
554.512	77562
554.575	74790
554.638	77536
554.701	74280
554.764	72485
554.827	72123
554.889	69163
554.952	63244
555.015	63259
555.078	65170
555.141	67704
555.203	64576
555.266	64717
555.329	67634
555.391	62559
555.454	64223
555.517	63746
555.580	59494
555.642	58266
555.705	57023
555.768	57808
555.830	57922
555.893	54000
555.955	53505
556.018	53521
556.080	54780
556.143	54071
556.206	54241
556.268	56861
556.330	57079
556.393	54078
556.455	56199
556.518	73990
556.580	76555
556.643	49349
556.705	48932
556.767	48831
556.830	51672
556.892	51792
556.955	67623
557.017	55323
557.079	48979
557.142	46988
557.204	51208
557.266	78689
557.328	69409
557.391	43983
557.453	43194
557.515	42486
557.577	49194
557.639	50277
557.701	43100
557.764	43109
557.826	44448
557.888	50289
557.950	49223
558.012	52608
558.074	61630
558.136	112424
558.198	275173
558.260	109418
558.322	53826
558.384	53267
558.446	59479
558.508	67719
558.570	83779
558.632	115424
558.694	164145
558.756	167317
558.818	412239
558.880	1056239
558.942	354319
559.003	282893
559.065	149468
559.127	68285
559.189	70159
559.251	80757
559.312	105112
559.374	207750
559.436	706573
559.498	370195
559.559	76391
559.621	70856
559.683	84108
559.744	130302
559.806	350293
559.868	540555
559.929	121110
559.991	81081
560.052	105426
560.114	263488
560.176	182323
560.237	151700
560.299	256050
560.360	72836
560.422	45329
560.483	42208
560.545	41734
560.606	40719
560.667	39755
560.729	39107
560.790	37244
560.852	37681
560.913	37841
560.974	37037
561.036	36541
561.097	37439
561.158	37401
561.220	38541
561.281	38162
561.342	39514
561.403	43887
561.465	50316
561.526	90180
561.587	116846
561.648	46456
561.709	36809
561.771	36035
561.832	36536
561.893	36194
561.954	35298
562.015	34119
562.076	34329
562.137	34709
562.198	35522
562.259	35040
562.320	36409
562.381	38444
562.442	47700
562.503	42142
562.564	33852
562.625	33509
562.686	34179
562.747	37972
562.808	37184
562.869	36604
562.930	46159
562.991	44906
563.051	39507
563.112	37507
563.173	36826
563.234	35553
563.294	34979
563.355	34739
563.416	35667
563.477	34557
563.537	37175
563.598	38789
563.659	37190
563.720	37010
563.780	36370
563.841	37159
563.901	36960
563.962	35891
564.023	35553
564.083	36924
564.144	37585
564.204	39517
564.265	39449
564.325	46178
564.386	85253
564.446	78904
564.507	36026
564.567	35394
564.628	33536
564.688	34911
564.749	35536
564.809	41456
564.869	49418
564.930	37412
564.990	33559
565.050	31247
565.111	33113
565.171	31313
565.231	31852
565.292	32177
565.352	30950
565.412	32768
565.472	33002
565.532	34010
565.593	32595
565.653	31097
565.713	31778
565.773	34843
565.833	38176
565.893	45335
565.953	35276
566.013	33171
566.074	36982
566.134	48266
566.194	75841
566.254	75088
566.314	47523
566.374	34039
566.434	33535
566.494	33604
566.554	32709
566.614	33376
566.673	33699
566.733	34362
566.793	36553
566.853	36222
566.913	34667
566.973	35423
567.033	37090
567.092	37046
567.152	35501
567.212	37117
567.272	37217
567.331	39299
567.391	37205
567.451	39860
567.511	54508
567.570	56750
567.630	35675
567.690	33750
567.749	32255
567.809	33291
567.868	34746
567.928	36535
567.988	41527
568.047	38871
568.107	37343
568.166	42425
568.226	51373
568.285	63352
568.345	53476
568.404	45303
568.464	41194
568.523	40997
568.582	41641
568.642	45538
568.701	49516
568.761	62467
568.820	89455
568.879	85661
568.939	77019
568.998	56118
569.057	42051
569.116	38180
569.176	34860
569.235	32570
569.294	31720
569.353	31179
569.413	32130
569.472	33838
569.531	29704
569.590	31121
569.649	29075
569.708	29278
569.767	30764
569.827	38515
569.886	33844
569.945	29374
570.004	30107
570.063	30940
570.122	31975
570.181	35457
570.240	40038
570.299	40681
570.358	38618
570.417	32149
570.475	29768
570.534	29467
570.593	31376
570.652	32903
570.711	34210
570.770	31276
570.829	35317
570.887	32417
570.946	32901
571.005	30238
571.064	29655
571.122	32488
571.181	38112
571.240	30566
571.299	29224
571.357	32150
571.416	33669
571.475	38180
571.533	41130
571.592	32020
571.650	34165
571.709	29321
571.768	28653
571.826	28407
571.885	27559
571.943	27559
572.002	28867
572.060	31048
572.119	26864
572.177	26263
572.236	25169
572.294	25497
572.352	25454
572.411	26775
572.469	25968
572.528	25353
572.586	25704
572.644	29284
572.703	36641
572.761	30126
572.819	27098
572.877	25717
572.936	24423
572.994	24335
573.052	25391
573.110	26526
573.169	25624
573.227	23662
573.285	24830
573.343	25389
573.401	25063
573.459	25674
573.517	24337
573.576	25623
573.634	24353
573.692	26078
573.750	25519
573.808	25059
573.866	27273
573.924	36774
573.982	36326
574.040	27296
574.098	24882
574.155	23580
574.213	22829
574.271	23503
574.329	23940
574.387	23653
574.445	23237
574.503	21943
574.560	22332
574.618	21351
574.676	20849
574.734	21016
574.792	22334
574.849	21648
574.907	21277
574.965	21125
575.022	20958
575.080	20552
575.138	20761
575.195	22487
575.253	22905
575.311	23677
575.368	21684
575.426	21296
575.483	21943
575.541	21521
575.598	20996
575.656	22578
575.713	22768
575.771	21273
575.828	23001
575.886	22392
575.943	24170
576.001	24274
576.058	24559
576.115	25239
576.173	30847
576.230	35749
576.287	34378
576.345	29711
576.402	25544
576.459	26899
576.517	26629
576.574	29260
576.631	31179
576.688	27343
576.746	24516
576.803	23989
576.860	24146
576.917	23305
576.974	23703
577.031	24101
577.089	23605
577.146	24360
577.203	24709
577.260	25741
577.317	27877
577.374	32613
577.431	30051
577.488	25874
577.545	23183
577.602	23050
577.659	22543
577.716	21959
577.773	22038
577.830	21986
577.886	22010
577.943	21544
578.000	22014
578.057	24030
578.114	23513
578.171	21983
578.227	22272
578.284	23219
578.341	23606
578.398	23179
578.454	23956
578.511	29110
578.568	34241
578.625	29026
578.681	23554
578.738	21335
578.794	21404
578.851	21911
578.908	21799
578.964	22896
579.021	22830
579.077	22849
579.134	20711
579.190	20274
579.247	21156
579.303	21550
579.360	19461
579.416	19699
579.473	20978
579.529	20002
579.586	19943
579.642	21911
579.698	21475
579.755	22446
579.811	21364
579.867	21004
579.924	20478
579.980	20688
580.036	21424
580.093	20087
580.149	21446
580.205	21842
580.261	22959
580.317	23364
580.374	26271
580.430	30420
580.486	28787
580.542	24549
580.598	22279
580.619	22514
580.654	22954
580.692	21933
580.710	21469
580.765	21522
580.767	21553
580.823	22362
580.838	22197
580.879	21865
580.911	21539
580.935	21347
580.984	22256
580.991	22418
581.047	22780
581.057	22778
581.103	22902
581.130	23072
581.159	23294
581.203	22880
581.215	22811
581.270	23232
581.276	23195
581.326	23072
581.349	23383
581.382	23887
581.422	22523
581.438	21994
581.494	23815
581.494	23797
581.550	24401
581.567	24349
581.606	24292
581.640	23865
581.661	23647
581.713	22936
581.717	22903
581.773	22005
581.786	22138
581.829	22629
581.859	22998
581.885	23352
581.932	22773
581.940	22688
581.996	23002
582.004	22950
582.052	22679
582.077	22381
582.107	22112
582.150	22437
582.163	22567
582.219	23553
582.223	23458
582.274	22458
582.296	22855
582.330	23524
582.368	24364
582.386	24748
582.441	22717
582.441	22725
582.497	21405
582.514	21388
582.552	21549
582.587	21142
582.608	20841
582.659	20818
582.663	20825
582.719	21275
582.732	21154
582.774	20964
582.805	21462
582.830	21814
582.877	21254
582.885	21151
582.941	21252
582.950	21193
582.996	21038
583.023	21124
583.052	21295
583.095	20969
583.107	20854
583.162	21696
583.168	21702
583.218	21553
583.240	21038
583.273	20426
583.313	20440
583.328	20471
583.384	20639
583.385	20643
583.439	20565
583.458	20370
583.494	20230
583.531	19970
583.549	19744
583.603	20323
583.605	20335
583.660	19322
583.676	19232
583.715	19218
583.748	19946
583.770	20456
583.820	21694
583.825	21774
583.881	20163
583.893	20139
583.936	20276
583.965	20083
583.991	19799
584.038	19773
584.046	19784
584.101	20136
584.110	20123
584.156	19749
584.183	19291
584.211	19029
584.255	18964
584.266	18871
584.321	18331
584.328	18407
584.376	19292
584.400	19385
584.431	19241
584.472	18583
584.486	18397
584.541	18427
584.545	18400
584.596	17659
584.617	18174
584.651	19313
584.689	20183
584.706	20452
584.761	19824
584.762	19836
584.816	19740
584.834	19763
584.871	20047
584.906	20305
584.926	20293
584.978	20291
584.980	20283
585.035	20933
585.051	21270
585.090	22104
585.123	22848
585.145	23478
585.195	24528
585.200	24575
585.254	26049
585.267	26431
585.309	27619
585.340	29363
585.364	30620
585.412	32353
585.419	32646
585.473	35597
585.484	37069
585.528	43401
585.556	48836
585.583	56242
585.628	79270
585.637	86259
585.692	167488
585.700	185712
585.747	273394
585.772	219850
585.801	136228
585.845	56059
585.856	41754
585.910	28893
585.917	27938
585.965	25559
585.989	24930
586.019	24255
586.061	23910
586.074	23791
586.128	23800
586.133	23871
586.183	24975
586.205	25545
586.237	26053
586.277	26610
586.292	26601
586.346	26070
586.349	26116
586.401	26665
586.421	26981
586.455	28136
586.493	30652
586.509	32631
586.564	42449
586.565	43071
586.618	74584
586.637	76356
586.672	65026
586.709	42458
586.727	33395
586.781	28037
586.781	27991
586.835	24748
586.853	24115
586.889	23348
586.925	23098
586.944	23009
586.996	22862
586.998	22824
587.052	23406
587.068	23558
587.106	23555
587.140	22970
587.161	22736
587.212	23917
587.215	23942
587.269	24280
587.284	24404
587.323	24209
587.356	24231
587.377	24415
587.427	24955
587.431	24897
587.485	24552
587.499	24549
587.539	25077
587.571	25558
587.593	25647
587.643	26577
587.648	26628
587.702	26712
587.715	27006
587.755	27953
587.786	28576
587.810	28278
587.858	27130
587.864	27149
587.917	28679
587.930	29300
587.971	30910
588.001	32137
588.025	32711
588.073	32496
588.079	32426
588.133	32989
588.145	33412
588.187	34453
588.217	35715
588.241	37175
588.288	40513
588.295	40981
588.348	46120
588.360	47669
588.402	52062
588.431	55406
588.456	58473
588.503	66805
588.510	67796
588.564	78775
588.575	81862
588.617	93688
588.646	103727
588.671	113255
588.718	138685
588.725	143443
588.778	194686
588.789	210236
588.832	304088
588.861	388685
588.886	499059
588.932	742194
588.939	764809
588.993	835654
589.004	839719
589.047	645935
589.075	472854
589.100	352214
589.147	192172
589.154	180127
589.207	132878
589.218	126993
589.261	119346
589.290	118875
589.314	121625
589.361	135070
589.368	139047
589.421	188174
589.433	204213
589.475	318659
589.504	423168
589.528	528425
589.576	710522
589.582	700076
589.635	504508
589.647	452416
589.689	248330
589.718	142205
589.742	111136
589.790	74897
589.795	72914
589.849	64171
589.861	63930
589.902	68533
589.932	69428
589.955	60977
590.004	40622
590.009	39501
590.062	34446
590.075	33383
590.115	31315
590.146	30213
590.168	29615
590.218	28763
590.222	28680
590.275	29047
590.289	29308
590.328	29371
590.360	29135
590.381	28213
590.431	26636
590.435	26542
590.488	26615
590.503	26731
590.541	25849
590.574	25381
590.594	25572
590.645	26128
590.647	26002
590.700	24601
590.716	24325
590.753	24045
590.787	24027
590.806	23912
590.859	23853
590.859	23770
590.912	23413
590.930	23333
590.965	23153
591.001	23397
591.018	23415
591.071	23400
591.072	23480
591.124	22742
591.143	22584
591.177	22659
591.214	22967
591.230	23319
591.283	24848
591.285	24982
591.336	24895
591.356	25107
591.389	25370
591.427	25467
591.442	24806
591.495	22757
591.498	22699
591.547	22490
591.569	22546
591.600	22291
591.640	22029
591.653	21975
591.706	22431
591.711	22539
591.759	24228
591.782	25479
591.811	27335
591.853	30081
591.864	29164
591.917	24415
591.924	23852
591.969	23160
591.995	23043
592.022	22955
592.066	22966
592.075	23506
592.127	27546
592.137	28448
592.180	33289
592.208	36384
592.233	32534
592.279	25180
592.285	24722
592.338	22022
592.350	21507
592.390	21902
592.421	22415
592.443	22146
592.491	21813
592.495	21703
592.548	21508
592.562	21561
592.600	22265
592.633	23037
592.653	22383
592.704	20827
592.705	20957
592.775	21659
592.846	21645
592.916	22622
592.987	23437
593.058	24268
593.128	21953
593.199	21876
593.270	21748
593.341	20863
593.411	21064
593.482	21284
593.553	21879
593.623	21060
593.694	21741
593.764	24815
593.835	22116
593.906	22585
593.976	21525
594.047	23440
594.117	28742
594.188	31592
594.258	21934
594.329	21571
594.399	22358
594.470	22365
594.540	22128
594.611	22479
594.681	21881
594.751	22949
594.822	24172
594.892	24828
594.963	24960
595.033	24506
595.103	25734
595.174	29398
595.244	41539
595.314	57144
595.384	30766
595.455	26046
595.525	27196
595.595	28082
595.665	28879
595.736	28075
595.806	26752
595.876	26707
595.946	27392
596.016	27581
596.087	28385
596.157	27877
596.227	27660
596.297	29247
596.367	30099
596.437	34171
596.507	43445
596.577	58742
596.647	36088
596.717	31820
596.787	32025
596.857	30892
596.927	31970
596.997	31855
597.067	31496
597.137	32958
597.207	33739
597.277	32745
597.347	32768
597.417	31716
597.487	32325
597.557	33499
597.626	33576
597.696	35427
597.766	41747
597.836	55416
597.906	37982
597.975	29899
598.045	30896
598.115	29853
598.185	31397
598.254	34799
598.324	37271
598.394	37926
598.464	37378
598.533	35466
598.603	32242
598.672	33308
598.742	33700
598.812	33001
598.881	33666
598.951	33755
599.020	33142
599.090	33729
599.159	35214
599.229	33448
599.299	31742
599.368	33060
599.437	33207
599.507	31284
599.576	31736
599.646	30925
599.715	30956
599.785	31425
599.854	32268
599.924	35817
599.993	33541
600.062	30823
600.132	30414
600.201	31708
600.270	37150
600.340	36607
600.409	34274
600.478	34999
600.547	35071
600.617	34399
600.686	30569
600.755	28576
600.824	28735
600.894	26632
600.963	25549
601.032	26024
601.101	25894
601.170	24680
601.239	25136
601.308	26801
601.378	27261
601.447	25095
601.516	24200
601.585	25431
601.654	28297
601.723	25915
601.792	25157
601.861	26205
601.930	27124
601.999	28291
602.068	26446
602.137	29637
602.206	29332
602.275	25183
602.343	29588
602.412	30097
602.481	26605
602.550	26693
602.619	26548
602.688	27453
602.756	27194
602.825	26105
602.894	26669
602.963	27431
603.032	28501
603.100	26998
603.169	28036
603.238	27875
603.307	28028
603.375	26894
603.444	27779
603.513	28752
603.581	28163
603.650	28819
603.719	28385
603.787	28653
603.856	29993
603.924	29869
603.993	31426
604.061	31281
604.130	32669
604.198	33052
604.267	33403
604.335	33749
604.404	34134
604.472	34501
604.541	33582
604.609	34805
604.678	33711
604.746	35360
604.815	34148
604.883	35968
604.951	35736
605.020	35686
605.088	36905
605.156	38120
605.225	38355
605.293	37426
605.361	37964
605.429	38464
605.498	38763
605.566	40102
605.634	41692
605.702	43858
605.771	43348
605.839	44364
605.907	42300
605.975	41924
606.043	40109
606.111	42043
606.180	40258
606.248	41760
606.316	41671
606.384	42135
606.452	47696
606.520	48152
606.588	45117
606.656	41652
606.724	41671
606.792	39107
606.860	36512
606.928	33429
606.996	31631
607.064	31416
607.132	32340
607.200	33345
607.267	35486
607.335	34450
607.403	35336
607.471	35102
607.539	33653
607.607	34533
607.674	31000
607.742	31883
607.810	33390
607.878	32395
607.946	31054
608.013	31963
608.081	32458
608.149	32726
608.216	33369
608.284	35802
608.352	34928
608.419	36260
608.487	45896
608.555	40390
608.622	33881
608.690	35900
608.757	37948
608.825	40690
608.893	40237
608.960	41432
609.028	43679
609.095	50515
609.163	40164
609.230	35492
609.298	32133
609.365	31231
609.432	33269
609.500	35437
609.567	39601
609.635	45160
609.702	47960
609.769	47260
609.837	41848
609.904	35669
609.971	32788
610.039	36838
610.106	46207
610.173	88374
610.241	203884
610.308	139853
610.375	51167
610.442	36772
610.509	32883
610.577	32628
610.644	33224
610.711	33547
610.778	35720
610.845	35233
610.912	37731
610.980	39380
611.047	40020
611.114	39179
611.181	37121
611.248	37753
611.315	40244
611.382	40161
611.449	40914
611.516	41506
611.583	40792
611.650	42032
611.717	42512
611.784	42940
611.851	45433
611.918	49840
611.984	58436
612.051	82049
612.118	165904
612.185	421914
612.252	316612
612.319	71791
612.386	53934
612.452	49706
612.519	50803
612.586	59784
612.653	54105
612.719	48833
612.786	46295
612.853	42562
612.919	42373
612.986	43080
613.053	40795
613.120	37746
613.186	36536
613.253	38890
613.319	36781
613.386	38074
613.453	38598
613.519	40856
613.586	42536
613.652	53184
613.719	47605
613.785	46013
613.852	39492
613.918	37444
613.985	39240
614.051	40464
614.118	46063
614.184	45904
614.250	38249
614.317	38371
614.383	36886
614.449	38757
614.516	38513
614.582	40295
614.648	37994
614.715	37573
614.781	37227
614.847	37668
614.914	40144
614.980	38607
615.046	37294
615.112	36828
615.179	37647
615.245	37681
615.311	37074
615.377	39239
615.443	41043
615.509	39134
615.575	40485
615.642	40096
615.708	42895
615.774	44582
615.840	48522
615.906	54346
615.972	64780
616.038	97479
616.104	205289
616.170	505822
616.236	517484
616.302	109306
616.368	74265
616.434	56288
616.500	51878
616.565	55198
616.631	68272
616.697	56631
616.763	56760
616.829	80072
616.895	144080
616.961	146634
617.026	64112
617.092	43947
617.158	43035
617.224	43375
617.289	40368
617.355	38293
617.421	39750
617.487	39705
617.552	36081
617.618	34644
617.684	34991
617.749	36335
617.815	34723
617.880	33588
617.946	34738
618.012	33823
618.077	34344
618.143	33635
618.208	34040
618.274	35658
618.339	38685
618.405	32956
618.470	33066
618.536	33219
618.601	36019
618.667	34363
618.732	32253
618.798	32124
618.863	29999
618.928	31029
618.994	31616
619.059	33772
619.124	40528
619.190	35590
619.255	30179
619.320	30759
619.386	30735
619.451	29138
619.516	29520
619.581	30051
619.647	29941
619.712	30080
619.777	29144
619.842	30206
619.907	30002
619.972	31758
620.038	31105
620.103	29829
620.168	28960
620.233	29871
620.298	29586
620.363	29378
620.428	29598
620.493	31023
620.558	30373
620.623	31300
620.688	30741
620.753	29367
620.818	30587
620.883	30989
620.948	30815
621.013	30672
621.078	30897
621.143	30870
621.207	34315
621.272	32793
621.337	33950
621.402	36378
621.467	43121
621.532	47761
621.596	38014
621.661	35272
621.726	32215
621.791	32862
621.855	33645
621.920	36053
621.985	37863
622.049	43626
622.114	39738
622.179	36268
622.243	37889
622.308	36826
622.373	39214
622.437	37347
622.502	36220
622.566	34577
622.631	33891
622.695	36288
622.760	36056
622.824	35157
622.889	35856
622.953	37035
623.018	44918
623.082	48197
623.147	36232
623.211	35330
623.276	35821
623.340	33786
623.404	32703
623.469	32915
623.533	31883
623.597	32845
623.662	32163
623.726	31464
623.790	29854
623.854	29184
623.919	31694
623.983	30477
624.047	31534
624.111	29368
624.176	31297
624.240	31974
624.304	34722
624.368	31529
624.432	31457
624.496	30857
624.560	33043
624.625	36062
624.689	32332
624.753	32136
624.817	31187
624.881	30050
624.945	29577
625.009	28212
625.073	28954
625.137	31091
625.201	35807
625.265	36213
625.329	30598
625.393	31681
625.456	30210
625.520	32154
625.584	34908
625.648	42594
625.712	58700
625.776	126522
625.839	156065
625.903	71609
625.967	33678
626.031	51653
626.095	89517
626.158	41163
626.222	25069
626.286	23440
626.349	22145
626.413	21249
626.477	24370
626.540	21496
626.604	22561
626.668	22139
626.731	21835
626.795	23868
626.858	23701
626.922	22410
626.986	22167
627.049	20368
627.113	21692
627.176	21274
627.240	20273
627.303	19825
627.366	20614
627.430	21252
627.493	21528
627.557	21559
627.620	22020
627.684	21313
627.747	21486
627.810	20868
627.874	20236
627.937	17927
628.000	21046
628.064	20175
628.127	17153
628.190	18071
628.253	18872
628.317	17285
628.380	17547
628.443	17075
628.506	17470
628.569	16599
628.632	15691
628.696	16755
628.759	16402
628.822	15543
628.885	15233
628.948	15435
629.011	15316
629.074	15629
629.137	15081
629.200	14858
629.263	16827
629.326	13621
629.389	15244
629.452	15549
629.515	15204
629.578	15277
629.641	15949
629.704	15034
629.767	15514
629.830	13743
629.892	14187
629.955	13038
630.018	15512
630.081	14567
630.144	17867
630.207	15048
630.269	16712
630.332	17735
630.395	16187
630.458	13080
630.520	12612
630.583	13318
630.646	12762
630.708	12634
630.771	13562
630.834	13428
630.896	12249
630.959	12187
631.021	12400
631.084	13038
631.146	14767
631.209	17456
631.272	12903
631.334	11766
631.397	12125
631.459	12718
631.522	13409
631.584	12970
631.646	13627
631.709	14250
631.771	17671
631.834	14764
631.896	12181
631.958	11157
632.021	13390
632.083	12046
632.145	12762
632.208	12036
632.270	12621
632.332	10957
632.395	10430
632.457	12325
632.519	11494
632.581	12118
632.643	9711
632.706	11981
632.768	10217
632.830	11763
632.892	12017
632.954	11231
633.016	12277
633.078	10371
633.141	10533
633.203	11425
633.265	12015
633.327	11332
633.389	9980
633.451	11459
633.513	14071
633.575	16270
633.637	14199
633.698	13389
633.760	12222
633.822	11002
633.884	11915
633.946	11532
634.008	11042
634.070	10561
634.132	11821
634.193	12214
634.255	12764
634.317	13516
634.379	13070
634.441	12580
634.502	11808
634.564	10462
634.626	10646
634.687	9325
634.749	10305
634.811	10458
634.873	8829
634.934	9536
634.996	10316
635.057	9964
635.119	9518
635.181	10479
635.242	10916
635.304	8174
635.365	11474
635.427	9808
635.488	10159
635.550	9998
635.611	9513
635.673	8033
635.734	11676
635.796	10156
635.857	12422
635.918	11106
635.980	12396
636.041	12443
636.102	13883
636.164	13930
636.225	12984
636.286	12011
636.348	11564
636.409	10831
636.470	8590
636.531	10243
636.593	12110
636.654	11230
636.715	8153
636.776	7840
636.838	8667
636.899	9270
636.960	8813
637.021	8612
637.082	8486
637.143	7921
637.204	7907
637.265	7456
637.326	8036
637.387	8495
637.448	7395
637.509	7884
637.570	8183
637.631	8372
637.692	7238
637.753	6285
637.814	7739
637.875	6417
637.936	8287
637.997	8296
638.058	8046
638.119	9328
638.179	7771
638.240	6941
638.301	7623
638.362	6059
638.423	7350
638.483	8156
638.544	6689
638.605	7084
638.666	6631
638.726	7862
638.787	7007
638.848	6864
638.908	6704
638.969	6951
639.030	7322
639.090	6186
639.151	7285
639.211	7655
639.272	9606
639.332	15099
639.393	10117
639.453	7279
639.514	8263
639.574	6779
639.635	5657
639.695	7354
639.756	6455
639.816	7849
639.877	7702
639.937	13020
639.997	18469
640.058	7951
640.118	6645
640.178	6537
640.239	6014
640.299	6458
640.359	6274
640.420	6678
640.480	6626
640.540	7539
640.600	7988
640.661	6782
640.721	6904
640.781	9521
640.841	6946
640.901	7000
640.961	6696
641.021	7357
641.082	7412
641.142	10766
641.202	8316
641.262	4213
641.322	7054
641.382	5765
641.442	6899
641.502	5872
641.562	7305
641.622	6545
641.682	6277
641.742	6186
641.802	6512
641.861	6817
641.921	6720
641.981	8712
642.041	8009
642.101	8543
642.161	7102
642.221	4840
642.280	4985
642.340	5039
642.400	5054
642.460	5946
642.519	6317
642.579	5623
642.639	6352
642.698	3791
642.758	7060
642.818	5594
642.877	5804
642.937	5992
642.997	6917
643.056	10479
643.116	6401
643.175	7110
643.235	6160
643.294	6300
643.354	5580
643.414	5841
643.473	8082
643.532	8871
643.592	11468
643.651	17507
643.711	30286
643.770	59877
643.830	135358
643.889	351651
643.948	110318
644.008	16016
644.067	9339
644.126	6778
644.186	7279
644.245	6654
644.304	4655
644.363	6665
644.423	5707
644.482	5883
644.541	5605
644.600	4343
644.659	7108
644.719	6961
644.778	10304
644.837	17093
644.896	30763
644.955	79717
645.014	36247
645.073	8159
645.132	6355
645.191	6665
645.250	5265
645.309	6592
645.368	6810
645.427	7966
645.486	9373
645.545	17471
645.604	7179
645.663	5770
645.722	5821
645.781	6994
645.840	6612
645.898	7340
645.957	11973
646.016	14862
646.075	28015
646.134	55123
646.192	135154
646.251	262691
646.310	47298
646.369	10698
646.427	7978
646.486	6550
646.545	5016
646.603	5851
646.662	5603
646.721	5767
646.779	4221
646.838	3807
646.896	6615
646.955	7249
647.014	9702
647.072	17487
647.131	46852
647.189	31237
647.248	5771
647.306	5076
647.365	5293
647.423	3116
647.481	5070
647.540	2822
647.598	4623
647.657	3986
647.715	5153
647.773	3552
647.832	4930
647.890	2587
647.948	4145
648.007	4513
648.065	3586
648.123	2800
648.181	5466
648.240	4040
648.298	4017
648.356	4426
648.414	3637
648.472	4831
648.531	5836
648.589	3438
648.647	3324
648.705	4075
648.763	3596
648.821	3597
648.879	4263
648.937	4626
648.995	5967
649.053	6337
649.111	8604
649.169	13954
649.227	22351
649.285	42773
649.343	131539
649.401	90185
649.459	21513
649.516	16014
649.574	6051
649.632	9834
649.690	10217
649.748	9232
649.806	8354
649.863	13513
649.921	32049
649.979	28449
650.037	7106
650.094	2873
650.152	4860
650.210	3814
650.268	3864
650.325	3046
650.383	3950
650.440	2669
650.498	3852
650.556	3065
650.613	3161
650.671	2688
650.728	3982
650.786	4135
650.843	3978
650.901	2467
650.958	3615
651.016	2963
651.073	3592
651.131	3248
651.188	2773
651.246	3661
651.303	2857
651.360	3534
651.418	3727
651.475	3582
651.532	2275
651.590	2952
651.647	2114
651.704	3021
651.762	2798
651.819	3243
651.876	1734
651.933	3318
651.990	2489
652.048	2386
652.105	2684
652.162	3221
652.219	1678
652.276	2563
652.333	3399
652.390	1477
652.448	2204
652.505	2593
652.562	2729
652.619	2105
652.676	3246
652.733	3049
652.790	2653
652.847	997
652.904	2872
652.961	1974
653.017	2094
653.074	3655
653.131	2427
653.188	1960
653.245	2166
653.302	2474
653.359	2170
653.415	2342
653.472	2682
653.529	2553
653.586	868
653.642	3387
653.699	2305
653.756	1370
653.813	2202
653.869	2713
653.926	1487
653.983	1226
654.039	1424
654.096	1703
654.152	2929
654.209	2075
654.266	2795
654.322	1863
654.379	3403
654.435	3378
654.492	3885
654.548	5965
654.605	10268
654.661	6628
654.717	3552
654.774	3129
654.830	2958
654.887	2815
654.943	2316
655.000	3264
655.056	2739
655.112	2906
655.168	2037
655.225	2958
655.281	3867
655.337	5056
655.394	11857
655.450	7639
655.506	6614
655.562	10504
655.618	10304
655.675	2669
655.731	2218
655.787	2638
655.843	3156
655.899	1767
655.955	3491
656.011	3413
656.067	1498
656.123	2107
656.179	2861
656.235	3494
656.291	2040
656.347	4176
656.403	3029
656.459	3305
656.515	4463
656.571	4693
656.627	2775
656.683	2512
656.739	3898
656.795	2061
656.850	2479
656.906	2781
656.962	3998
657.018	2122
657.074	3023
657.129	3203
657.185	3993
657.241	6287
657.297	4225
657.352	2912
657.408	1754
657.464	3362
657.519	2705
657.575	1583
657.630	2545
657.686	1929
657.742	1643
657.797	2672
657.853	1666
657.908	3891
657.964	1553
658.019	2968
658.075	2609
658.130	3399
658.186	1787
658.241	2151
658.297	984
658.352	1395
658.407	2761
658.463	1974
658.518	2844
658.573	2917
658.629	1911
658.684	1709
658.739	2443
658.795	1903
658.850	1657
658.905	2180
658.960	2358
659.016	1187
659.071	1709
659.126	2298
659.181	1551
659.236	5276
659.291	5522
659.346	3584
659.401	2115
659.457	2888
659.512	2255
659.567	3130
659.622	1948
659.677	2110
659.732	2249
659.787	2814
659.842	2945
659.897	5469
659.952	3386
660.007	2222
660.061	2724
660.116	1839
660.171	1123
660.226	1962
660.281	3183
660.336	1552
660.391	2564
660.445	2443
660.500	1970
660.555	1813
660.610	1823
660.664	2370
660.719	1247
660.774	1975
660.828	2280
660.883	1799
660.938	2239
660.992	2014
661.047	2417
661.101	1652
661.156	1946
661.211	1215
661.265	1827
661.320	2381
661.374	2477
661.429	2174
661.483	2526
661.538	2121
661.592	1422
661.647	1802
661.701	1516
661.755	1999
661.810	2646
661.864	1740
661.919	1798
661.973	3250
662.027	2024
662.081	1056
662.136	1948
662.190	3230
662.244	3018
662.299	2205
662.353	2078
662.407	2016
662.461	2973
662.515	3375
662.569	1724
662.624	3701
662.678	1753
662.732	2522
662.786	2482
662.840	3434
662.894	3089
662.948	1919
663.002	1830
663.056	2084
663.110	1633
663.164	2444
663.218	2862
663.272	2628
663.326	3100
663.380	2910
663.434	2974
663.488	2799
663.542	2752
663.595	3186
663.649	2604
663.703	2753
663.757	2850
663.811	2016
663.864	1934
663.918	3406
663.972	2197
664.026	2331
664.079	1583
664.133	3133
664.187	2638
664.240	2171
664.294	2768
664.348	3070
664.401	2456
664.455	2405
664.508	1218
664.562	2876
664.615	2676
664.669	2061
664.722	2272
664.776	1792
664.829	2599
664.883	2071
664.936	2396
664.990	2842
665.043	2793
665.097	3222
665.150	4247
665.203	2951
665.257	2955
665.310	2528
665.363	3779
665.417	3052
665.470	3251
665.523	2130
665.576	2733
665.630	2729
665.683	3726
665.736	2478
665.789	3487
665.842	2411
665.895	3630
665.949	2408
666.002	3334
666.055	3661
666.108	3136
666.161	2529
666.214	3786
666.267	3658
666.320	4139
666.373	3966
666.426	2859
666.479	3057
666.532	4272
666.585	4953
666.638	5333
666.691	4501
666.744	5291
666.796	4362
666.849	3962
666.902	2971
666.955	3398
667.008	2911
667.060	2444
667.113	2595
667.166	2203
667.219	2747
667.271	3324
667.324	3141
667.377	2841
667.430	2678
667.482	2956
667.535	3356
667.587	3099
667.640	3256
667.693	3994
667.745	6732
667.798	7526
667.850	4405
667.903	3202
667.955	3143
668.008	3261
668.060	4524
668.113	5060
668.165	4225
668.218	4009
668.270	3837
668.322	3766
668.375	3525
668.427	4303
668.479	3768
668.532	4026
668.584	2786
668.636	3523
668.689	4273
668.741	4125
668.793	3896
668.845	3304
668.898	4197
668.950	3124
669.002	3687
669.054	2914
669.106	3843
669.158	4016
669.211	3644
669.263	3319
669.315	4056
669.367	3955
669.419	3619
669.471	4015
669.523	3080
669.575	4312
669.627	3770
669.679	3363
669.731	3439
669.783	3517
669.835	3119
669.886	3839
669.938	3571
669.990	2929
670.042	3214
670.094	2540
670.146	3141
670.197	3685
670.249	4739
670.301	4419
670.353	4530
670.404	5708
670.456	6324
670.508	9673
670.560	14248
670.611	23257
670.663	39055
670.715	90059
670.766	193365
670.818	81311
670.869	11963
670.921	6421
670.972	5560
671.024	4896
671.075	4506
671.127	4002
671.178	3771
671.230	3239
671.281	3646
671.333	4275
671.384	4587
671.436	5222
671.487	5829
671.538	6355
671.590	7695
671.641	10361
671.692	16170
671.744	29733
671.795	25186
671.846	8715
671.897	5054
671.949	6048
672.000	4704
672.051	4064
672.102	4887
672.153	3183
672.204	4115
672.256	3970
672.307	3987
672.358	3631
672.409	4616
672.460	3380
672.511	3754
672.562	4000
672.613	4406
672.664	3818
672.715	4339
672.766	3078
672.817	4177
672.868	4064
672.919	3785
672.970	3701
673.021	3639
673.071	3480
673.122	3045
673.173	3254
673.224	3339
673.275	3805
673.326	3137
673.376	3727
673.427	2796
673.478	3920
673.528	4144
673.579	2927
673.630	3165
673.680	4002
673.731	3540
673.782	3096
673.832	4357
673.883	3666
673.934	3361
673.984	3129
674.035	3263
674.085	3464
674.136	4379
674.186	4103
674.237	4840
674.287	8483
674.338	6093
674.388	3214
674.438	3201
674.489	3996
674.539	3639
674.589	4727
674.640	4337
674.690	3895
674.740	4535
674.791	4378
674.841	3643
674.891	3973
674.942	3461
674.992	3080
675.042	3389
675.092	2474
675.142	3937
675.193	3147
675.243	2556
675.293	3722
675.343	4186
675.393	3660
675.443	4358
675.493	2952
675.543	3244
675.593	3833
675.643	2993
675.693	3226
675.743	3243
675.793	2600
675.843	2582
675.893	3001
675.943	3230
675.993	2834
676.043	2601
676.093	3567
676.142	2426
676.192	4037
676.242	3367
676.292	2542
676.341	2816
676.391	4059
676.441	3171
676.491	2106
676.540	2668
676.590	3536
676.640	3314
676.689	3951
676.739	2801
676.789	2106
676.838	2828
676.888	2443
676.937	2224
676.987	2462
677.037	2162
677.086	1744
677.136	2134
677.185	2785
677.235	2752
677.284	2214
677.333	2416
677.383	2370
677.432	2777
677.482	2186
677.531	2169
677.580	1778
677.630	2645
677.679	2515
677.728	3040
677.778	2515
677.827	2473
677.876	2798
677.925	2089
677.975	1838
678.024	2318
678.073	2180
678.122	3171
678.171	2982
678.220	3134
678.269	4109
678.319	3854
678.368	3526
678.417	3735
678.466	3218
678.515	4185
678.564	4472
678.613	2941
678.662	2693
678.711	2887
678.760	3544
678.809	3012
678.857	2240
678.906	3748
678.955	2712
679.004	3264
679.053	3245
679.102	3142
679.151	2889
679.199	3137
679.248	2390
679.297	2936
679.346	3172
679.394	3056
679.443	3878
679.492	2602
679.540	2460
679.589	3291
679.638	3279
679.686	2909
679.735	2702
679.784	2965
679.832	3095
679.881	3251
679.929	2131
679.978	2012
680.026	2998
680.075	3530
680.123	1779
680.172	2122
680.220	1573
680.268	2116
680.317	2022
680.365	2347
680.414	1895
680.462	2596
680.510	2224
680.559	2078
680.607	2610
680.655	2403
680.703	2071
680.752	2639
680.800	1473
680.848	1946
680.896	2064
680.945	2065
680.993	1916
681.041	1585
681.089	2283
681.137	1603
681.185	1693
681.233	2034
681.258	1856
681.281	1650
681.329	1874
681.377	2381
681.380	2452
681.425	3017
681.473	2674
681.502	3194
681.521	3484
681.569	3176
681.617	3348
681.624	3369
681.665	3192
681.713	2521
681.745	2858
681.761	2962
681.809	3129
681.857	3279
681.867	3330
681.904	3345
681.952	3624
681.989	3184
682.000	3008
682.048	4164
682.096	3299
682.111	3436
682.143	3587
682.191	3090
682.233	3883
682.239	3964
682.286	3524
682.334	2944
682.354	3187
682.382	3437
682.430	3705
682.476	4634
682.477	4621
682.525	4083
682.572	4105
682.598	3833
682.620	3523
682.667	4282
682.715	4254
682.720	4336
682.763	4878
682.810	5001
682.841	4610
682.857	4310
682.905	5081
682.952	4529
682.963	4632
683.000	4890
683.047	4908
683.085	5264
683.095	5310
683.142	4817
683.190	4568
683.206	4823
683.237	5281
683.284	5131
683.328	5132
683.332	5095
683.379	5046
683.426	5235
683.449	5136
683.473	4997
683.521	4914
683.568	5366
683.571	5393
683.615	5341
683.662	4920
683.693	5423
683.709	5687
683.757	6016
683.804	5876
683.814	5847
683.851	5628
683.898	6010
683.936	5608
683.945	5469
683.992	5598
684.039	5742
684.057	6084
684.086	6668
684.133	6103
684.179	6995
684.180	6995
684.227	6904
684.274	6904
684.300	6856
684.321	6754
684.368	6803
684.415	6618
684.422	6751
684.462	7336
684.509	6379
684.543	6305
684.556	6289
684.603	6656
684.649	6470
684.665	6630
684.696	6949
684.743	6491
684.786	7140
684.790	7194
684.837	7153
684.883	8407
684.908	8587
684.930	8639
684.977	9397
685.023	9121
685.029	9106
685.070	8428
685.117	7596
685.150	7810
685.164	8046
685.210	8782
685.257	9621
685.272	9506
685.303	8948
685.350	9180
685.393	9315
685.396	9334
685.443	9205
685.490	10173
685.514	10369
685.536	10357
685.583	10452
685.629	9595
685.636	9562
685.675	9257
685.722	9503
685.757	9495
685.768	9518
685.815	9177
685.861	9733
685.878	9858
685.908	10153
685.954	10446
686.000	10878
686.000	10885
686.047	12295
686.093	14157
686.121	14318
686.139	13811
686.185	12844
686.232	12206
686.242	11967
686.278	10901
686.324	10798
686.363	9454
686.370	9311
686.416	9458
686.463	9908
686.484	9676
686.509	9531
686.555	9558
686.601	9909
686.606	9901
686.647	9696
686.693	9855
686.727	9578
686.739	9487
686.785	10111
686.831	9908
686.848	9942
686.877	9940
686.923	9755
686.969	9998
686.969	9997
687.015	9968
687.061	10076
687.090	10209
687.107	10336
687.153	10579
687.199	10468
687.211	10429
687.245	10342
687.291	10924
687.332	11400
687.336	11473
687.382	11955
687.428	12017
687.453	12062
687.474	11557
687.520	10763
687.565	10290
687.574	10184
687.611	10489
687.657	10371
687.695	10172
687.702	10129
687.748	10872
687.794	10824
687.816	10917
687.839	10904
687.885	10687
687.931	10454
687.937	10381
687.976	10302
688.022	10512
688.058	10800
688.067	10841
688.113	10876
688.158	11051
688.179	10856
688.204	10684
688.249	11001
688.295	11047
688.300	11092
688.340	11716
688.386	12365
688.421	12177
688.431	12036
688.477	11902
688.522	11970
688.542	11798
688.567	11667
688.613	12255
688.658	11834
688.663	11822
688.703	11733
688.749	12189
688.784	12182
688.794	12225
688.839	11649
688.884	12236
688.905	12113
688.930	11747
688.975	11520
689.020	10938
689.026	10893
689.065	11344
689.110	12144
689.146	12021
689.155	11842
689.201	12033
689.246	11082
689.267	11042
689.291	11321
689.336	11566
689.381	11550
689.388	11541
689.426	11507
689.471	11507
689.509	11563
689.516	11579
689.561	12055
689.606	11731
689.630	11852
689.651	11985
689.696	11828
689.741	11782
689.750	11849
689.785	12228
689.830	12035
689.871	11977
689.875	11955
689.920	11604
689.965	11665
689.992	11192
690.010	11119
690.054	11631
690.099	12217
690.112	12304
690.144	12220
690.189	11868
690.233	11175
690.233	11188
690.278	11318
690.323	11757
690.354	11431
690.367	11446
690.412	11576
690.457	12156
690.474	12428
690.501	12536
690.546	12021
690.590	11582
690.595	11540
690.635	11442
690.680	11667
690.716	11414
690.724	11436
690.769	11710
690.813	12342
690.836	12244
690.857	12066
690.902	12205
690.946	12106
690.957	11991
690.991	12109
691.035	12866
691.077	13024
691.080	13045
691.124	13195
691.168	14016
691.198	14016
691.213	14172
691.257	14833
691.301	15575
691.318	15767
691.346	15101
691.390	13787
691.434	12615
691.439	12484
691.478	12737
691.522	13015
691.559	13250
691.567	13344
691.611	13676
691.655	13931
691.680	13968
691.699	13796
691.743	13871
691.787	13403
691.800	13316
691.831	13670
691.875	14247
691.919	14647
691.921	14633
691.964	15219
692.008	15836
692.041	16215
692.052	16196
692.096	15862
692.139	16074
692.162	15954
692.183	15814
692.227	15341
692.271	15161
692.282	15039
692.315	14980
692.359	14987
692.402	14871
692.403	14897
692.447	14484
692.490	14271
692.523	14057
692.534	14276
692.578	15182
692.622	15560
692.643	15650
692.666	15194
692.709	14996
692.753	14227
692.763	14122
692.797	14306
692.840	13851
692.884	13766
692.884	13797
692.928	13940
692.971	14101
693.004	14155
693.015	14258
693.059	14528
693.102	14752
693.124	14846
693.146	14916
693.189	14880
693.233	15119
693.245	15152
693.276	15565
693.320	16023
693.363	16070
693.365	16047
693.407	15996
693.450	16085
693.485	15969
693.493	16030
693.537	16395
693.580	16177
693.605	16405
693.624	16346
693.667	15685
693.710	15147
693.725	14945
693.753	15232
693.797	15684
693.840	15909
693.845	15913
693.883	15918
693.926	16108
693.966	15959
693.970	15897
694.013	14977
694.056	14062
694.086	13361
694.099	13544
694.142	14168
694.185	14803
694.206	14972
694.229	15362
694.272	16419
694.315	17244
694.326	17331
694.358	17168
694.401	17283
694.444	17234
694.446	17202
694.487	17062
694.530	16802
694.566	16449
694.573	16362
694.616	15436
694.659	14521
694.686	14076
694.702	13978
694.745	13569
694.787	13077
694.806	12900
694.830	13405
694.873	14098
694.916	14686
694.926	14814
694.959	14639
695.002	14227
695.044	14032
695.046	13993
695.087	14455
695.130	14708
695.166	14673
695.172	14691
695.215	14980
695.258	15273
695.286	15243
695.301	15269
695.343	15258
695.386	15570
695.406	15536
695.428	15127
695.471	14337
695.514	13642
695.526	13388
695.556	13625
695.599	13821
695.641	14068
695.646	14085
695.684	14495
695.726	14624
695.766	14668
695.769	14703
695.811	14789
695.854	14844
695.886	14934
695.896	14914
695.938	14620
695.981	14078
696.005	13871
696.023	14007
696.065	14179
696.108	14499
696.125	14542
696.150	14869
696.192	15332
696.235	15841
696.245	15894
696.277	15327
696.319	14560
696.361	13936
696.365	13835
696.404	13899
696.446	14032
696.485	14086
696.488	14158
696.530	14528
696.572	14992
696.604	15277
696.614	15211
696.656	14783
696.698	14326
696.724	13905
696.740	13840
696.783	13765
696.825	13750
696.844	13639
696.867	13834
696.909	14202
696.951	14462
696.964	14548
696.992	14522
697.034	14330
697.076	14217
697.083	14138
697.118	14341
697.160	14640
697.202	14930
697.203	14898
697.244	14784
697.286	14508
697.323	14258
697.327	14293
697.369	14296
697.411	14168
697.442	14165
697.453	14379
697.494	14945
697.536	15645
697.562	15973
697.578	15933
697.620	15731
697.661	15570
697.682	15426
697.703	15570
697.744	15756
697.786	16067
697.801	16088
697.828	16445
697.869	17005
697.911	17475
697.921	17548
697.952	16918
697.994	16082
698.035	15211
698.040	15067
698.077	14671
698.118	14114
698.160	13588
698.160	13546
698.201	13983
698.243	14389
698.279	14714
698.284	14784
698.325	15034
698.367	15324
698.399	15490
698.408	15409
698.449	14809
698.491	14271
698.518	13842
698.532	13859
698.573	13804
698.614	13763
698.638	13690
698.656	13730
698.697	13717
698.738	13757
698.757	13725
698.779	14018
698.820	14489
698.862	14978
698.877	15121
698.903	15662
698.944	16440
698.985	17233
698.996	17406
699.026	17383
699.067	17287
699.116	17125
699.235	14760
699.354	14271
699.474	15833
699.593	17298
699.713	19177
699.832	14593
699.951	17261
700.070	15016
700.190	14619
700.309	15007
700.428	17708
700.547	15533
700.667	14881
700.786	17820
700.905	14576
701.024	15840
701.143	17016
701.262	11964
701.381	13321
701.500	13207
701.619	15743
701.738	13826
701.857	13487
701.976	12679
702.095	11634
702.214	13907
702.333	15298
702.452	12795
702.571	13089
702.690	12124
702.809	13018
702.928	11899
703.047	12772
703.165	11889
703.284	11550
703.403	12145
703.522	14119
703.640	15818
703.759	16854
703.878	29911
703.997	16599
704.115	11754
704.234	11591
704.353	11220
704.471	11866
704.590	10935
704.708	11426
704.827	10391
704.946	11451
705.064	13328
705.183	12014
705.301	13723
705.420	23719
705.538	21891
705.656	17430
705.775	15180
705.893	17327
706.012	20574
706.130	18482
706.249	17791
706.367	18661
706.485	19931
706.604	19817
706.722	19105
706.840	24010
706.958	23120
707.077	17710
707.195	15679
707.313	15948
707.431	15708
707.549	15144
707.668	16265
707.786	17075
707.904	14855
708.022	16119
708.140	14648
708.258	13963
708.376	15198
708.494	14618
708.612	16399
708.730	24684
708.848	25847
708.966	21749
709.084	21680
709.202	20150
709.320	20685
709.438	20545
709.556	21074
709.674	20769
709.791	21752
709.909	20566
710.027	19839
710.145	19563
710.263	20488
710.380	20299
710.498	19942
710.616	19296
710.733	19100
710.851	21512
710.969	22588
711.086	19812
711.204	18643
711.322	20260
711.439	20154
711.557	22370
711.674	18807
711.792	19921
711.909	17519
712.027	17707
712.144	18111
712.262	17458
712.379	21286
712.497	29332
712.614	32783
712.732	26473
712.849	22753
712.966	26070
713.084	32758
713.201	26174
713.318	25590
713.436	23508
713.553	23993
713.670	24512
713.787	27660
713.905	30708
714.022	23509
714.139	23247
714.256	25112
714.373	26013
714.490	32690
714.608	47436
714.725	160369
714.842	270089
714.959	36138
715.076	22333
715.193	21290
715.310	20999
715.427	19678
715.544	19093
715.661	19170
715.778	19071
715.895	22487
716.011	22616
716.128	20034
716.245	19674
716.362	22519
716.479	24375
716.596	19612
716.713	19215
716.829	17575
716.946	19556
717.063	17050
717.180	18338
717.296	17465
717.413	17593
717.530	16593
717.646	18348
717.763	16156
717.880	16117
717.996	16008
718.113	17747
718.229	15564
718.346	15975
718.462	15675
718.579	18608
718.695	31324
718.812	29213
718.928	28268
719.045	22313
719.161	15531
719.277	15062
719.394	15031
719.510	15418
719.626	15596
719.743	19413
719.859	18870
719.975	22371
720.092	47358
720.208	131707
720.324	35760
720.440	17160
720.557	18075
720.673	26017
720.789	39976
720.905	95987
721.021	49379
721.137	16154
721.253	16014
721.369	16556
721.486	19311
721.602	30731
721.718	17299
721.834	12494
721.950	14049
722.066	12943
722.181	12653
722.297	13932
722.413	13077
722.529	11389
722.645	12526
722.761	12797
722.877	12222
722.993	11058
723.108	13357
723.224	12251
723.340	12685
723.456	11380
723.571	11501
723.687	11464
723.803	10882
723.918	10881
724.034	11424
724.150	12785
724.265	13040
724.381	30307
724.497	57625
724.612	13918
724.728	11148
724.843	11515
724.959	13121
725.074	27846
725.190	50517
725.305	13892
725.421	12804
725.536	10388
725.651	9935
725.767	10437
725.882	9360
725.997	10531
726.113	9655
726.228	9353
726.343	9645
726.459	9190
726.574	11037
726.689	10159
726.804	9710
726.920	10299
727.035	9403
727.150	9866
727.265	9248
727.380	10220
727.495	9330
727.610	7640
727.725	8989
727.841	9165
727.956	10015
728.071	12209
728.186	9320
728.301	7561
728.416	7689
728.531	8226
728.645	7351
728.760	8015
728.875	8849
728.990	9039
729.105	8523
729.220	9334
729.335	8953
729.449	7226
729.564	7225
729.679	6782
729.794	6508
729.908	9191
730.023	8863
730.138	5450
730.253	6880
730.367	6467
730.482	6724
730.596	7428
730.711	7056
730.826	7906
730.940	6393
731.055	7966
731.169	7629
731.284	5900
731.398	6552
731.513	9864
731.627	8215
731.742	9467
731.856	12725
731.970	7247
732.085	7154
732.199	7693
732.313	9315
732.428	17698
732.542	51988
732.656	53794
732.771	9890
732.885	7256
732.999	6877
733.113	9126
733.227	7612
733.342	6744
733.456	5618
733.570	5994
733.684	5536
733.798	6627
733.912	6091
734.026	5507
734.140	5252
734.254	7763
734.368	13800
734.482	29590
734.596	6106
734.710	6170
734.824	5411
734.938	5264
735.052	5624
735.166	7993
735.280	7495
735.393	6512
735.507	5974
735.621	8826
735.735	22693
735.849	12715
735.962	5477
736.076	6586
736.190	7471
736.303	10133
736.417	19552
736.531	7079
736.644	6052
736.758	4846
736.872	4072
736.985	5254
737.099	4704
737.212	3982
737.326	4960
737.439	5216
737.553	5087
737.666	3560
737.780	3930
737.893	4334
738.007	4248
738.120	4521
738.233	4324
738.347	4811
738.460	4662
738.573	5953
738.687	5065
738.800	5218
738.913	6637
739.026	5392
739.140	3998
739.253	3294
739.366	3616
739.479	3998
739.592	3387
739.705	3986
739.818	4615
739.932	4184
740.045	3104
740.158	3762
740.271	4321
740.384	3445
740.497	3281
740.610	4661
740.723	3805
740.836	5169
740.949	4002
741.062	6197
741.174	6497
741.287	5246
741.400	3335
741.513	3695
741.626	4771
741.739	4345
741.851	4245
741.964	3504
742.077	3642
742.189	4028
742.302	5018
742.415	4081
742.527	3255
742.640	3349
742.753	2768
742.865	3049
742.978	3446
743.090	4456
743.203	3433
743.316	3942
743.428	2786
743.541	2950
743.653	2679
743.766	2756
743.878	4407
743.990	5976
744.103	7650
744.215	4214
744.327	3873
744.440	5147
744.552	8900
744.664	4263
744.777	2733
744.889	3651
745.001	2830
745.113	3049
745.226	2816
745.338	2582
745.450	3062
745.562	3952
745.674	2493
745.786	3078
745.898	2715
746.010	3027
746.122	2550
746.234	2270
746.347	2362
746.459	2903
746.570	2465
746.682	2913
746.794	2980
746.906	3055
747.018	2505
747.130	2912
747.242	2697
747.354	2599
747.466	3684
747.577	3318
747.689	2828
747.801	3026
747.913	1546
748.024	2504
748.136	2646
748.248	2406
748.359	1868
748.471	2670
748.583	1421
748.694	2661
748.806	2632
748.918	5583
749.029	4372
749.141	3783
749.252	3872
749.364	3674
749.475	9347
749.587	9248
749.698	3601
749.809	2768
749.921	2229
750.032	3045
750.144	2648
750.255	2744
750.366	1523
750.478	2886
750.589	3407
750.700	3144
750.811	3423
750.923	4962
751.034	9524
751.145	13681
751.256	2821
751.367	1840
751.479	1936
751.590	2011
751.701	2948
751.812	2142
751.923	2179
752.034	1912
752.145	1760
752.256	1833
752.367	1676
752.478	1654
752.589	1831
752.700	1745
752.811	2265
752.922	1654
753.032	1950
753.143	3399
753.254	1332
753.365	2353
753.476	2135
753.586	2264
753.697	1802
753.808	1968
753.919	1954
754.029	1856
754.140	1921
754.251	1518
754.361	1575
754.472	2530
754.582	2295
754.693	2516
754.804	2395
754.914	2088
755.025	2075
755.135	1323
755.246	1418
755.356	1431
755.466	1994
755.577	2578
755.687	1931
755.798	2415
755.908	2075
756.018	1922
756.129	996
756.239	2019
756.349	1627
756.460	1794
756.570	1728
756.680	1750
756.790	2112
756.900	3005
757.011	1590
757.121	2149
757.231	1362
757.341	2147
757.451	2610
757.561	1622
757.671	1103
757.781	1432
757.891	2094
758.001	2012
758.111	1545
758.221	2533
758.331	2720
758.441	2607
758.551	4102
758.661	4304
758.771	2062
758.880	2672
758.990	2442
759.100	1943
759.210	2501
759.320	3103
759.429	2785
759.539	1855
759.649	2128
759.758	2865
759.868	2266
759.978	2356
760.087	2639
760.197	2838
760.307	2421
760.416	2133
760.526	2034
760.635	3241
760.745	3049
760.854	2920
760.964	2434
761.073	3364
761.182	2782
761.292	2916
761.401	2679
761.511	2871
761.620	1788
761.729	2989
761.839	3551
761.948	2830
762.057	2952
762.166	2558
762.276	1606
762.385	2790
762.494	1853
762.603	1712
762.712	2278
762.822	2618
762.931	1889
763.040	2360
763.149	1955
763.258	2354
763.367	2656
763.476	2803
763.585	1825
763.694	2312
763.803	2362
763.912	3803
764.021	1697
764.130	2656
764.238	2003
764.347	2022
764.456	2104
764.565	1961
764.674	2163
764.783	2120
764.891	1756
765.000	3550
765.109	2611
765.217	3231
765.326	3122
765.435	5040
765.543	3478
765.652	2829
765.761	2483
765.869	3582
765.978	5954
766.086	9190
766.195	15358
766.303	39270
766.412	130554
766.520	165420
766.629	38543
766.737	11761
766.846	6613
766.954	4804
767.062	4472
767.171	5384
767.279	4520
767.387	3867
767.496	3130
767.604	2967
767.712	3015
767.820	2425
767.928	3456
768.037	3531
768.145	2990
768.253	3400
768.361	2208
768.469	2895
768.577	2457
768.685	3504
768.793	2693
768.901	3492
769.009	3080
769.117	2919
769.225	3478
769.333	3891
769.441	4598
769.549	7699
769.657	14185
769.765	45093
769.873	135829
769.981	64057
770.088	10451
770.196	4803
770.304	4244
770.412	3708
770.519	4678
770.627	3262
770.735	3776
770.842	2979
770.950	3388
771.058	3104
771.165	2223
771.273	2679
771.380	3223
771.488	2930
771.595	3235
771.703	2715
771.810	3268
771.918	3501
772.025	3009
772.133	1821
772.240	3201
772.348	3642
772.455	3185
772.562	2746
772.670	2750
772.777	2549
772.884	1988
772.991	3008
773.099	2715
773.206	2979
773.313	2429
773.420	3066
773.528	2285
773.635	2653
773.742	3382
773.849	2163
773.956	2123
774.063	2894
774.170	2283
774.277	3032
774.384	2727
774.491	3005
774.598	2805
774.705	3069
774.812	4371
774.919	4185
775.026	2965
775.133	2784
775.239	2885
775.346	3314
775.453	2187
775.560	3541
775.667	2188
775.773	1899
775.880	2767
775.987	3344
776.093	2855
776.200	2186
776.307	2223
776.413	2942
776.520	1873
776.627	3043
776.733	2616
776.840	2344
776.946	3862
777.053	2934
777.159	3705
777.266	2518
777.372	4271
777.478	3317
777.585	2713
777.691	2915
777.798	2716
777.904	3722
778.010	4471
778.117	4858
778.223	2619
778.329	2924
778.435	2771
778.542	2135
778.648	1970
778.754	2025
778.860	3122
778.966	2864
779.072	2883
779.178	3087
779.284	2692
779.391	2222
779.497	1672
779.603	3122
779.708	1530
779.815	2302
779.920	2588
780.026	2742
780.132	2420
780.238	2355
780.344	2107
780.450	2798
780.556	2224
780.661	1677
780.767	2816
780.873	1908
780.979	1875
781.085	1626
781.190	2106
781.296	1636
781.402	1239
781.507	1375
781.613	2341
781.719	1487
781.824	2216
781.930	3218
782.035	2375
782.141	2050
782.246	1439
782.352	2110
782.457	1729
782.563	2085
782.668	1974
782.773	2468
782.879	1502
782.984	3182
783.090	3055
783.195	4464
783.300	4317
783.405	2410
783.511	2213
783.616	3099
783.721	2246
783.826	1617
783.932	2034
784.037	1712
784.142	2694
784.247	2323
784.352	1981
784.457	1362
784.562	1940
784.667	1753
784.772	1394
784.877	968
784.982	2025
785.087	2185
785.192	2228
785.297	2874
785.402	1282
785.507	1766
785.611	2044
785.716	2403
785.821	1704
785.926	1222
786.031	803
786.135	1632
786.240	1200
786.345	648
786.450	1226
786.554	1449
786.659	684
786.763	960
786.868	1672
786.973	2634
787.077	1355
787.182	1770
787.286	631
787.391	1043
787.495	931
787.600	1213
787.704	1656
787.809	1696
787.913	1161
788.017	1833
788.122	1071
788.226	1522
788.330	561
788.435	1050
788.539	801
788.643	495
788.747	623
788.852	1329
788.956	815
789.060	1530
789.164	1500
789.268	624
789.372	1294
789.476	1288
789.580	334
789.684	966
789.788	814
789.892	630
789.996	1624
790.100	1301
790.204	1387
790.308	1807
790.412	704
790.516	833
790.620	1207
790.724	1663
790.828	1002
790.931	1510
791.035	1258
791.139	618
791.242	463
791.346	1817
791.450	72
791.554	1227
791.657	373
791.761	1356
791.864	1499
791.968	756
792.072	1569
792.175	1056
792.279	1141
792.382	891
792.486	2026
792.589	1395
792.693	2236
792.796	552
792.899	1851
793.003	1147
793.106	234
793.209	1073
793.313	1598
793.416	1362
793.519	1058
793.623	2363
793.726	5037
793.829	2360
793.932	1381
794.035	324
794.138	1493
794.242	1759
794.345	1974
794.448	2745
794.551	3554
794.654	4768
794.757	2621
794.860	3334
794.963	2762
795.066	748
795.169	847
795.272	1245
795.375	547
795.477	190
795.580	1034
795.683	-394
795.786	180
795.889	283
795.991	1462
796.094	1856
796.197	1601
796.300	1463
796.402	594
796.505	252
796.608	635
796.710	456
796.813	436
796.915	1058
797.018	805
797.120	162
797.223	385
797.326	1999
797.428	364
797.530	551
797.633	892
797.735	2043
797.838	3636
797.940	6415
798.042	1211
798.145	557
798.247	1277
798.349	390
798.452	1017
798.554	169
798.656	159
798.758	927
798.860	1047
798.962	-20
799.065	617
799.167	-261
799.269	1200
799.371	1248
799.473	1604
799.575	1340
799.677	4107
799.779	2946
799.881	3516
799.983	2157
800.085	1066
800.187	289
800.289	413
800.390	1097
800.492	767
800.594	1269
800.696	201
800.798	372
800.899	330
801.001	426
801.103	171
801.205	407
801.306	363
801.408	-688
801.509	159
801.611	629
801.713	-184
801.814	-710
801.916	58
802.017	56
802.119	-191
802.220	894
802.322	-295
802.423	3131
802.525	2411
802.626	1011
802.727	557
802.829	568
802.930	-1923
803.031	1593
803.133	-558
803.234	403
803.335	176
803.436	123
803.538	-26
803.639	-197
803.740	599
803.841	672
803.942	71
804.043	283
804.144	22
804.245	164
804.346	38
804.447	466
804.548	1044
804.649	3086
804.750	-342
804.851	-304
804.952	-383
805.053	81
805.154	-747
805.255	266
805.355	-571
805.456	-682
805.557	-818
805.658	-199
805.758	692
805.859	-227
805.960	-273
806.061	-40
806.161	-115
806.262	248
806.362	-103
806.463	163
806.564	936
806.664	490
806.765	1219
806.865	1914
806.966	-103
807.066	-138
807.166	284
807.267	433
807.367	58
807.468	473
807.568	-755
807.668	443
807.769	207
807.869	-462
807.969	353
808.069	357
808.170	-457
808.270	236
808.370	1059
808.470	1233
808.570	900
808.670	32
808.770	297
808.870	99
808.970	-311
809.070	-704
809.170	-1144
809.271	503
809.370	-639
809.470	446
809.570	-335
809.670	-813
809.770	-353
809.870	181
809.970	167
810.070	-401
810.169	-225
810.269	-1548
810.369	-142
810.469	-597
810.568	-327
810.668	-60
810.768	-7
810.867	-461
810.967	-1423
811.066	-337
811.166	-444
811.265	-455
811.365	-616
811.464	-330
811.564	-138
811.663	276
811.763	-1281
811.862	-4
811.962	-172
812.061	-522
812.160	-477
812.260	-636
812.359	-87
812.458	-451
812.557	232
812.657	980
812.756	-290
812.855	-102
812.954	-307
813.053	394
813.153	450
813.252	-1242
813.351	-696
813.450	-376
813.549	-684
813.648	-452
813.747	-1394
813.846	174
813.945	-616
814.044	22
814.143	-287
814.242	-405
814.341	-990
814.439	58
814.538	38
814.637	-762
814.736	-795
814.835	11
814.933	-1350
815.032	-164
815.131	-638
815.229	-472
815.328	-93
815.427	-749
815.525	113
815.624	446
815.722	-487
815.821	78
815.919	-49
816.018	606
816.116	569
816.215	298
816.313	-284
816.412	185
816.510	633
816.609	803
816.707	680
816.805	200
816.904	-546
817.002	595
817.100	-63
817.198	405
817.296	150
817.395	330
817.493	702
817.591	-287
817.689	282
817.787	1047
817.885	1359
817.983	3735
818.081	8084
818.179	20821
818.277	61386
818.375	73735
818.473	16233
818.571	4388
818.669	2566
818.767	2301
818.865	1378
818.963	2309
819.061	3380
819.158	7623
819.256	17604
819.354	44857
819.452	123148
819.549	105521
819.647	20404
819.745	5589
819.842	3059
819.940	2615
820.038	1299
820.135	949
820.233	1214
820.330	62
820.428	44
820.525	841
820.623	3
820.720	32
820.818	280
820.915	152
821.012	611
821.110	-345
821.207	488
821.304	113
821.402	-464
821.499	1329
821.596	1072
821.693	-191
821.791	896
821.888	1157
821.985	4839
822.082	4697
822.179	1095
822.276	270
822.373	378
822.470	79
822.567	-558
822.664	-681
822.761	-136
822.858	-1294
822.955	-556
823.052	-71
823.149	-176
823.246	481
823.343	-355
823.440	158
823.536	-1188
823.633	-839
823.730	-734
823.827	-623
823.923	-710
824.020	753
824.117	-311
824.213	-679
824.310	-733
824.407	-885
824.503	38
824.600	-668
824.696	-471
824.793	143
824.889	-1126
824.986	-276
825.082	-384
825.179	277
825.275	-727
825.371	-1091
825.468	185
825.564	-1504
825.660	-410
825.757	324
825.853	-857
825.949	-653
826.045	-858
826.142	-345
826.238	-861
826.334	461
826.430	-1101
826.526	-64
826.622	-750
826.718	-1083
826.814	-107
826.910	71
827.006	-789
827.102	-919
827.198	76
827.294	-475
827.390	-768
827.486	-437
827.582	-1909
827.678	-1325
827.774	-336
827.869	-1223
827.965	442
828.061	-1615
828.157	-507
828.252	-242
828.348	-1151
828.444	47
828.539	-1057
828.635	243
828.731	-404
828.826	-832
828.922	-384
829.017	-921
829.113	-495
829.208	-854
829.304	-530
829.399	96
829.495	-552
829.590	-591
829.685	-575
829.781	-75
829.876	-478
829.971	-860
830.066	-1078
830.162	-209
830.257	-1049
830.352	-108
830.447	225
830.543	-460
830.638	-580
830.733	914
830.828	-242
830.923	-599
831.018	-652
831.113	399
831.208	-626
831.303	-456
831.398	-624
831.493	-45
831.588	-115
831.683	-1479
831.778	-250
831.873	-991
831.967	-416
832.062	-1299
832.157	-1800
832.252	543
832.346	-908
832.441	596
832.536	545
832.631	3909
832.725	3993
832.820	309
832.914	-1127
833.009	-537
833.104	-435
833.198	677
833.293	-604
833.387	-202
833.482	-580
833.576	-149
833.670	-768
833.765	-195
833.859	-652
833.954	266
834.048	-814
834.142	-593
834.237	-1142
834.331	-1409
834.425	-540
834.519	-906
834.613	-357
834.708	-775
834.802	-396
834.896	-686
834.990	-895
835.084	-338
835.178	-775
835.272	-1162
835.366	-1072
835.460	513
835.554	-842
835.648	-227
835.742	-1615
835.836	-507
835.930	-1814
836.024	464
836.117	-652
836.211	613
836.305	703
836.399	3147
836.493	-292
836.586	200
836.680	-463
836.774	-993
836.867	-1
836.961	-699
837.055	-1331
837.148	-1134
837.242	-360
837.335	-419
837.429	-269
837.522	44
837.616	-39
837.709	2455
837.803	3241
837.896	681
837.989	-504
838.083	1187
838.176	3902
838.269	6721
838.363	1816
838.456	-719
838.549	978
838.642	1427
838.735	4909
838.829	2807
838.922	-680
839.015	-266
839.108	-777
839.201	673
839.294	-306
839.387	124
839.480	-268
839.573	-348
839.666	2341
839.759	562
839.852	-774
839.945	-488
840.038	-896
840.131	-432
840.223	-820
840.316	-211
840.409	-1088
840.502	-1615
840.594	172
840.687	-959
840.780	-1129
840.873	-459
840.965	50
841.058	1021
841.150	3591
841.243	4531
841.336	871
841.428	-843
841.521	-824
841.613	176
841.706	406
841.798	-634
841.890	-913
841.983	-791
842.075	469
842.167	-702
842.260	69
842.352	327
842.444	2219
842.537	4681
842.629	11216
842.721	2925
842.813	-651
842.905	-1651
842.997	380
843.090	352
843.182	1093
843.274	4575
843.366	12597
843.458	29650
843.550	26316
843.642	3477
843.734	-166
843.826	1000
843.918	1098
844.009	365
844.101	-1144
844.193	-887
844.285	-951
844.377	-330
844.469	-544
844.560	-566
844.652	-1186
844.744	-76
844.835	-651
844.927	-675
845.019	902
845.110	413
845.202	39
845.293	-373
845.385	-900
845.476	-1299
845.568	-350
845.659	-974
845.751	341
845.842	-854
845.934	-1902
846.025	-643
846.116	-1139
846.208	-889
846.299	-639
846.390	-872
846.482	224
846.573	41
846.664	1007
846.755	1876
846.846	2474
846.937	-1725
847.029	-1735
847.120	-1356
847.211	-1273
847.302	-449
847.393	-1894
847.484	-92
847.575	-1124
847.666	-1370
847.757	-1775
847.847	-520
847.938	-1075
848.029	-780
848.120	-1696
848.211	-633
848.302	-517
848.392	-1465
848.483	-1664
848.574	-1098
848.664	-1684
848.755	-862
848.846	-852
848.936	-1336
849.027	-1140
849.118	-200
849.208	-1233
849.299	-100
849.389	-49
849.480	1755
849.570	5078
849.661	10092
849.751	21556
849.841	11308
849.932	386
850.022	-655
850.112	-939
850.203	-1450
850.293	-2000
850.383	-857
850.474	-1308
850.564	-1517
850.654	-1446
850.744	-1140
850.834	-1287
850.924	-1114
851.014	-1051
851.104	-230
851.194	-1234
851.284	-346
851.374	128
851.464	-300
851.554	-557
851.644	-73
851.734	1852
851.824	948
851.914	-1459
852.004	-729
852.094	-1016
852.183	-906
852.273	-584
852.363	-326
852.452	-1115
852.542	-1119
852.632	-1300
852.721	-544
852.811	-1689
852.901	-842
852.990	-514
853.080	-421
853.169	-815
853.259	-599
853.348	-317
853.438	-284
853.527	634
853.617	145
853.706	2471
853.795	6509
853.885	16649
853.974	36261
854.063	61999
854.152	127589
854.242	70160
854.331	8844
854.420	1498
854.509	1417
854.598	949
854.687	1299
854.777	1139
854.866	116
854.955	-999
855.044	-524
855.133	-514
855.222	-659
855.311	-1343
855.400	-583
855.488	-1410
855.577	-872
855.666	-840
855.755	-135
855.844	-597
855.933	-1140
856.021	-557
856.110	-618
856.199	-1270
856.288	-1209
856.376	-1650
856.465	-605
856.554	-838
856.642	-2179
856.731	-931
856.819	-169
856.908	-1187
856.996	-133
857.085	-1897
857.173	-1072
857.262	-1252
857.350	-1013
857.438	-1254
857.527	-813
857.615	-1242
857.703	-1601
857.792	-1556
857.880	-1006
857.968	-485
858.056	-1015
858.145	-1527
858.233	-564
858.321	-1721
858.409	-1209
858.497	-1258
858.585	-2047
858.673	-669
858.761	-1029
858.849	-1747
858.937	-1284
859.025	-1151
859.113	-643
859.201	-1474
859.289	-786
859.377	-1241
859.465	-989
859.552	-1112
859.640	-1051
859.728	-612
859.816	-822
859.903	-529
859.991	-1513
860.079	-1400
860.166	-1203
860.254	-1647
860.342	-638
860.429	-1395
860.517	-1600
860.604	-1317
860.692	-1059
860.779	-1579
860.867	-595
860.954	-1423
861.042	-1212
861.129	-723
861.216	-927
861.304	-1109
861.391	-1965
861.478	-1265
861.565	-664
861.653	-266
861.740	-628
861.827	-1285
861.914	-931
862.001	-987
862.089	-836
862.176	-681
862.263	-1706
862.350	-1217
862.437	-865
862.524	-1150
862.611	-1810
862.698	-1242
862.785	-786
862.871	-1149
862.958	-1539
863.045	-1061
863.132	-836
863.219	-1620
863.306	-1484
863.392	-441
863.479	-1665
863.566	-1136
863.652	-785
863.739	-1610
863.826	-563
863.912	-1728
863.999	-1373
864.086	-1429
864.172	-709
864.259	-962
864.345	-960
864.432	-1037
864.518	-961
864.604	-1656
864.691	-1488
864.777	-1328
864.863	-197
864.950	-960
865.036	-1805
865.122	-634
865.209	-103
865.295	-718
865.381	-151
865.467	135
865.553	-276
865.639	226
865.726	2377
865.812	7432
865.898	18545
865.984	29277
866.070	49207
866.156	78772
866.242	27287
866.328	2825
866.414	351
866.499	457
866.585	-317
866.671	-180
866.757	-229
866.843	-713
866.928	-283
867.014	-954
867.100	395
867.186	-524
867.271	-277
867.357	1555
867.442	2118
867.528	1526
867.614	106
867.699	-745
867.785	-439
867.870	-1361
867.956	637
868.041	42
868.127	42
868.212	293
868.297	171
868.383	577
868.468	842
868.553	1992
868.639	2484
868.724	4721
868.809	7559
868.894	734
868.979	-870
869.065	-592
869.150	-349
869.235	-919
869.320	-1386
869.405	-1200
869.490	-1007
869.575	-424
869.660	-1549
869.745	-506
869.830	-1366
869.915	-484
870.000	-1093
870.085	-1333
870.169	-1295
870.254	-1072
870.339	-879
870.424	-1510
870.509	-119
870.593	-1650
870.678	-573
870.763	-1653
870.847	-663
870.932	-1374
871.016	-441
871.101	-1324
871.186	-1366
871.270	-1172
871.355	-1558
871.439	-1243
871.523	-1281
871.608	-1460
871.692	-564
871.777	-718
871.861	-551
871.945	-1724
872.030	-961
872.114	-740
872.198	-1582
872.282	-1644
872.367	-1021
872.451	-968
872.535	-1265
872.619	-1207
872.703	-1037
872.787	-1050
872.871	-1472
872.955	-1008
873.039	-634
873.123	-2046
873.207	-512
873.291	-1204
873.375	-897
873.459	-1035
873.543	-1067
873.627	-1618
873.711	-1781
873.794	-915
873.878	-1427
873.962	-1476
874.045	94
874.129	-1114
874.137	-1105
874.213	-1018
874.245	-1036
874.296	-1072
874.352	-1355
874.380	-1488
874.460	-1926
874.464	-1944
874.547	-1393
874.568	-1288
874.631	-985
874.676	-1103
874.714	-1190
874.784	-572
874.798	-460
874.881	-245
874.892	-359
874.965	-1084
874.999	-867
875.048	-602
875.107	-1084
875.131	-1272
875.215	-254
875.215	-254
875.298	-1567
875.323	-1324
875.381	-723
875.430	-677
875.465	-660
875.538	-528
875.548	-512
875.631	-1290
875.646	-1237
875.714	-942
875.753	-1066
875.798	-1219
875.861	-788
875.881	-667
875.964	-1377
875.968	-1365
876.047	-1089
876.076	-951
876.130	-664
876.183	-480
876.213	-403
876.291	-486
876.296	-494
876.379	-128
876.398	-217
876.462	-402
876.506	-597
876.545	-859
876.613	-730
876.628	-691
876.711	-705
876.721	-736
876.794	-890
876.828	-723
876.877	-527
876.935	-448
876.960	-373
877.043	-150
877.043	-152
877.125	-477
877.150	-407
877.208	-211
877.258	-377
877.291	-458
877.365	-198
877.374	-165
877.456	-773
877.472	-675
877.539	-225
877.579	-507
877.622	-887
877.687	-775
877.704	-696
877.787	99
877.794	44
877.869	-710
877.901	-722
877.952	-670
878.008	-369
878.034	-277
878.115	-793
878.117	-797
878.199	-1115
878.222	-947
878.282	-628
878.329	-538
878.364	-465
878.437	-344
878.447	-343
878.529	-1566
878.544	-1458
878.611	-618
878.651	-501
878.694	-514
878.758	-499
878.776	-446
878.858	-446
878.865	-437
878.941	-498
878.972	-499
879.023	-481
879.078	-491
879.105	-439
879.185	-112
879.187	-103
879.269	142
879.292	168
879.351	65
879.399	-287
879.433	-390
879.506	-81
879.516	-79
879.598	-126
879.613	-195
879.680	-259
879.720	-112
879.762	13
879.827	12
879.844	31
879.926	-185
879.933	-173
880.007	-317
880.040	-468
880.089	-363
880.147	442
880.171	749
880.253	1080
880.254	1084
880.335	2440
880.360	2588
880.417	3538
880.467	5484
880.499	7550
880.574	12373
880.580	12295
880.662	5689
880.680	4492
880.744	1236
880.787	-0
880.825	-261
880.893	-439
880.907	-461
880.989	-588
881.000	-570
881.070	-79
881.106	-29
881.152	-143
881.213	-76
881.233	-41
881.315	-202
881.319	-209
881.396	262
881.426	592
881.478	705
881.532	41
881.559	-140
881.639	87
881.641	83
881.722	-171
881.745	-270
881.803	185
881.852	131
881.885	-48
881.958	341
881.966	386
882.047	754
882.064	722
882.129	502
882.171	374
882.210	686
882.277	2223
882.291	2474
882.372	2058
882.383	2066
882.454	1389
882.489	847
882.535	362
882.596	212
882.616	284
882.697	255
882.702	257
882.778	213
882.808	327
882.859	548
882.914	445
882.940	367
883.020	208
883.021	215
883.102	248
883.127	309
883.183	366
883.233	402
883.264	385
883.339	13
883.345	-22
883.426	-170
883.445	-232
883.507	248
883.551	264
883.587	-50
883.657	226
883.668	417
883.749	1208
883.763	1324
883.830	671
883.869	327
883.910	515
883.975	767
883.991	669
884.072	149
884.081	84
884.152	500
884.187	613
884.233	485
884.292	631
884.314	621
884.394	176
884.398	140
884.475	-38
884.504	120
884.555	198
884.610	-108
884.636	-9
884.716	737
884.716	747
884.797	708
884.821	768
884.877	807
884.927	612
884.958	595
885.033	980
885.038	986
885.118	245
885.139	170
885.199	-46
885.244	-28
885.279	360
885.350	935
885.359	957
885.439	681
885.456	705
885.520	792
885.561	663
885.600	423
885.667	233
885.680	319
885.760	792
885.773	818
885.840	515
885.878	420
885.920	510
885.984	596
886.000	695
886.080	1149
886.089	1187
886.160	736
886.195	512
886.240	640
886.300	979
886.320	1002
886.400	559
886.406	549
886.480	738
886.511	745
886.560	1186
886.616	1695
886.640	1718
886.720	1624
886.722	1610
886.800	1086
886.827	996
886.879	1056
886.932	876
886.959	998
887.038	1585
887.039	1598
887.119	1555
887.143	1571
887.198	1448
887.248	1275
887.278	1213
887.354	897
887.358	937
887.437	1775
887.459	1930
887.517	1641
887.564	1504
887.596	1257
887.669	486
887.676	535
887.755	1173
887.774	1279
887.835	1416
887.880	1643
887.914	1594
887.985	1288
887.994	1268
888.073	1021
888.090	968
888.153	1635
888.195	2042
888.232	1645
888.300	890
888.311	899
888.391	935
888.405	924
888.470	769
888.510	677
888.549	906
888.615	1242
888.628	1298
888.708	1578
888.720	1615
888.787	1673
888.825	1676
888.866	1515
888.930	1246
888.945	1133
889.024	540
889.035	448
889.103	974
889.140	1243
889.182	1102
889.245	868
889.261	950
889.340	1349
889.349	1387
889.419	1711
889.454	1835
889.498	1765
889.559	1688
889.577	1625
889.656	1302
889.664	1263
889.735	1216
889.768	1190
889.814	1306
889.873	1444
889.978	1332
890.083	2187
890.187	974
890.292	2102
890.397	995
890.501	2121
890.606	1161
890.710	2001
890.815	1864
890.919	2165
891.024	1218
891.128	2162
891.233	1792
891.337	1996
891.442	1068
891.546	1497
891.650	1047
891.755	1253
891.859	2814
891.963	1736
892.068	1902
892.172	1266
892.276	1020
892.380	1121
892.484	1427
892.589	1805
892.693	1781
892.797	1358
892.901	1786
893.005	877
893.109	2154
893.213	1823
893.317	1920
893.421	1127
893.525	1200
893.629	1169
893.733	2179
893.837	1122
893.941	538
894.045	1092
894.148	1838
894.252	1350
894.356	1760
894.460	2763
894.564	1687
894.667	1634
894.771	838
894.875	1168
894.978	965
895.082	1570
895.186	2162
895.289	1705
895.393	1407
895.496	1440
895.600	1878
895.703	1206
895.807	672
895.910	842
896.014	1745
896.117	1913
896.221	1764
896.324	1282
896.427	575
896.531	1215
896.634	2089
896.737	1370
896.840	1920
896.944	1687
897.047	1000
897.150	1200
897.253	738
897.356	1373
897.460	1097
897.563	1689
897.666	1212
897.769	1567
897.872	874
897.975	812
898.078	815
898.181	1631
898.284	1412
898.387	1332
898.490	2003
898.593	1250
898.695	1311
898.798	808
898.901	2324
899.004	1910
899.107	1410
899.209	1491
899.312	2075
899.415	1777
899.518	740
899.620	1570
899.723	1252
899.826	2660
899.928	3438
900.031	2233
900.133	1226
900.236	1549
900.338	1445
900.441	1030
900.543	1213
900.646	1454
900.748	1495
900.851	1695
900.953	1412
901.055	1720
901.158	1529
901.260	1430
901.362	1423
901.465	562
901.567	1438
901.669	1800
901.771	1586
901.873	1310
901.976	754
902.078	1273
902.180	1029
902.282	484
902.384	1399
902.486	2410
902.588	2257
902.690	2365
902.792	1683
902.894	1960
902.996	1578
903.098	1595
903.200	1141
903.302	1938
903.404	1145
903.505	545
903.607	468
903.709	2164
903.811	1541
903.913	808
904.014	671
904.116	1507
904.218	683
904.319	1234
904.421	1896
904.523	1961
904.624	373
904.726	1518
904.827	1354
904.929	959
905.030	1444
905.132	1098
905.233	1506
905.335	1211
905.436	1102
905.537	1429
905.639	803
905.740	1867
905.841	1217
905.943	1372
906.044	563
906.145	2095
906.247	988
906.348	1543
906.449	1836
906.550	1704
906.651	1242
906.752	2037
906.854	1652
906.955	1355
907.056	970
907.157	1749
907.258	1047
907.359	1343
907.460	1302
907.561	1008
907.662	1245
907.762	1116
907.863	1259
907.964	1642
908.065	985
908.166	1990
908.267	1165
908.367	669
908.468	1405
908.569	1813
908.670	1784
908.770	2629
908.871	1884
908.971	2444
909.072	2667
909.173	1636
909.273	814
909.374	412
909.474	1285
909.575	608
909.675	1688
909.776	1092
909.876	1621
909.977	1547
910.077	1628
910.177	1454
910.278	1174
910.378	1770
910.478	844
910.579	1575
910.679	1606
910.779	2491
910.879	1196
910.980	2043
911.080	1170
911.180	1129
911.280	349
911.380	659
911.480	1297
911.580	1036
911.680	1258
911.780	1877
911.880	2077
911.980	1786
912.080	1372
912.180	1980
912.280	1161
912.380	1828
912.480	776
912.580	1611
912.679	1373
912.779	1834
912.879	1159
912.979	1076
913.078	660
913.178	1394
913.278	1106
913.377	988
913.477	1257
913.577	284
913.676	1785
913.776	1014
913.875	1022
913.975	1347
914.074	1562
914.174	1881
914.273	1330
914.373	1632
914.472	1570
914.572	995
914.671	1919
914.770	947
914.870	1350
914.969	1135
915.068	1461
915.167	942
915.267	841
915.366	820
915.465	1271
915.564	1487
915.663	1470
915.763	1111
915.862	1096
915.961	1900
916.060	1251
916.159	945
916.258	139
916.357	1184
916.456	712
916.555	667
916.654	936
916.752	1138
916.851	1964
916.950	1384
917.049	358
917.148	677
917.247	1303
917.345	1555
917.444	549
917.543	1452
917.642	618
917.740	1623
917.839	1867
917.937	1493
918.036	1094
918.135	2087
918.233	973
918.332	1352
918.430	482
918.529	910
918.627	1234
918.726	1905
918.824	817
918.923	1211
919.021	1214
919.119	1261
919.218	827
919.316	526
919.414	948
919.512	1480
919.611	1581
919.709	928
919.807	1222
919.905	1803
920.003	1974
920.102	1280
920.200	1430
920.298	955
920.396	815
920.494	1915
920.592	398
920.690	1170
920.788	1797
920.886	1228
920.984	1856
921.082	1592
921.180	1626
921.277	1301
921.375	245
921.473	2385
921.571	2062
921.669	1770
921.766	1816
921.864	1991
921.962	2349
922.060	1673
922.157	1579
922.255	2263
922.352	1628
922.450	3034
922.548	2124
922.645	1686
922.743	2028
922.840	4112
922.938	4527
923.035	5085
923.133	3701
923.230	4206
923.327	4181
923.425	4666
923.522	3588
923.619	4054
923.717	3942
923.814	4326
923.911	2910
924.008	5050
924.106	4480
924.203	3560
924.300	3145
924.397	3495
924.494	4040
924.591	4144
924.688	3846
924.786	4101
924.883	3271
924.979	3653
925.077	4080
925.173	4366
925.270	3560
925.367	3420
925.464	4503
925.561	4046
925.658	5039
925.755	4236
925.852	4529
925.948	4755
926.045	3567
926.142	4051
926.239	3669
926.335	4177
926.432	3154
926.529	3048
926.625	3845
926.722	3558
926.818	2946
926.915	4112
927.011	3702
927.108	3556
927.204	3314
927.301	3794
927.397	2500
927.494	4265
927.590	2838
927.687	2569
927.783	3420
927.879	4316
927.976	3448
928.072	3337
928.168	3306
928.264	4657
928.361	2791
928.457	4501
928.553	3614
928.649	3320
928.745	3295
928.841	4009
928.937	2511
929.033	2966
929.129	3037
929.225	3261
929.321	3671
929.417	2461
929.513	3803
929.609	3212
929.705	2829
929.801	3244
929.897	2420
929.993	3161
930.089	3062
930.184	2942
930.280	2877
930.376	4514
930.471	3205
930.567	2246
930.663	2648
930.758	2702
930.854	2627
930.950	2914
931.045	2880
931.141	3182
931.236	3005
931.332	3109
931.427	2808
931.523	3227
931.618	3051
931.714	2378
931.809	2415
931.905	3630
932.000	1799
932.095	2493
932.191	3469
932.286	3339
932.381	2521
932.476	3085
932.572	2308
932.667	3198
932.762	3429
932.857	3374
932.952	2566
933.047	3241
933.142	2249
933.237	2548
933.332	3270
933.427	3648
933.522	3195
933.617	2883
933.712	2379
933.807	2265
933.902	2635
933.997	3694
934.092	1856
934.187	3287
934.282	3194
934.376	1937
934.471	3205
934.566	2367
934.661	2510
934.755	2508
934.850	2423
934.945	2085
935.039	2277
935.134	2303
935.228	2354
935.323	4135
935.417	2616
935.512	2140
935.606	1540
935.701	2060
935.795	2768
935.890	3545
935.984	2253
936.079	2178
936.173	2264
936.267	2721
936.362	2721
936.456	2490
936.550	3081
936.644	2014
936.738	1524
936.833	2186
936.927	2359
937.021	1876
937.115	2536
937.209	2789
937.303	2380
937.397	2255
937.491	2552
937.585	1909
937.679	2774
937.773	2117
937.867	2179
937.961	1656
938.055	2156
938.149	3123
938.243	2136
938.337	2129
938.430	1828
938.524	3075
938.618	2289
938.712	2632
938.805	1529
938.899	1818
938.993	2154
939.086	2055
939.180	1689
939.274	1519
939.367	1717
939.461	3282
939.554	1314
939.648	1822
939.741	2164
939.835	2540
939.928	3091
940.022	1853
940.115	2084
940.208	2221
940.302	2293
940.395	2626
940.488	1394
940.582	2652
940.675	1387
940.768	1495
940.861	1861
940.954	2948
941.048	1631
941.141	1877
941.234	1686
941.327	1982
941.420	3237
941.513	2566
941.606	1544
941.699	2200
941.792	1993
941.885	2285
941.978	2824
942.071	1752
942.164	1517
942.257	1341
942.349	1719
942.442	1917
942.535	978
942.628	1800
942.721	1822
942.813	1816
942.906	2182
942.999	2028
943.091	1553
943.184	1723
943.277	2021
943.369	1826
943.462	1563
943.554	1573
943.647	1593
943.739	2454
943.832	1858
943.924	616
944.017	1909
944.109	1692
944.201	517
944.294	2154
944.386	1974
944.478	1019
944.571	1750
944.663	970
944.755	1464
944.847	1859
944.940	1459
945.032	1033
945.124	1332
945.216	1824
945.308	2238
945.400	1826
945.492	1387
945.584	1707
945.676	1622
945.768	1318
945.860	2322
945.952	1628
946.044	1702
946.136	1555
946.228	2458
946.320	1514
946.412	1799
946.503	2597
946.595	2575
946.687	1515
946.779	1390
946.870	928
946.962	1592
947.054	1528
947.145	2088
947.237	1940
947.329	1142
947.420	1009
947.512	1248
947.603	1532
947.695	1431
947.786	1546
947.878	1284
947.969	1173
948.061	1445
948.152	1462
948.243	719
948.335	631
948.426	1253
948.517	1778
948.609	1776
948.700	1625
948.791	788
948.882	1592
948.973	796
949.065	741
949.156	951
949.247	849
949.338	1083
949.429	888
949.520	1349
949.611	1395
949.702	1937
949.793	1055
949.884	1117
949.975	1507
950.066	604
950.157	1453
950.247	1007
950.338	859
950.429	1338
950.520	2110
950.611	2130
950.701	1477
950.792	2567
950.883	2487
950.973	1120
951.064	1852
951.155	2268
951.245	2362
951.336	851
951.427	1016
951.517	1913
951.608	819
951.698	1608
951.788	1257
951.879	1287
951.969	183
952.060	818
952.150	1795
952.240	1399
952.331	1124
952.421	2022
952.511	1094
952.602	1180
952.692	1472
952.782	1354
952.872	1284
952.962	1944
953.052	1070
953.143	1008
953.233	1613
953.323	1464
953.413	1599
953.503	1958
953.593	1141
953.683	1049
953.773	1047
953.863	785
953.953	1394
954.042	1302
954.132	699
954.222	1529
954.312	763
954.402	1196
954.492	3104
954.581	4163
954.671	3875
954.761	961
954.850	1805
954.940	351
955.030	671
955.119	1663
955.209	554
955.298	2047
955.388	1950
955.477	1550
955.567	1108
955.656	1025
955.746	1552
955.835	879
955.925	690
956.014	822
956.103	1417
956.193	1344
956.282	1232
956.371	996
956.461	578
956.550	641
956.639	738
956.728	442
956.817	1267
956.906	279
956.995	1681
957.085	1055
957.174	1492
957.263	485
957.352	526
957.441	1185
957.530	1290
957.619	616
957.708	923
957.796	582
957.885	574
957.974	1241
958.063	883
958.152	751
958.241	809
958.329	894
958.418	677
958.507	892
958.596	1755
958.684	1349
958.773	1495
958.861	334
958.950	282
959.039	175
959.127	610
959.216	1283
959.304	630
959.393	1024
959.481	1276
959.570	325
959.658	307
959.746	917
959.835	2015
959.923	4619
960.011	3816
960.100	1196
960.188	1039
960.276	598
960.365	689
960.453	104
960.541	86
960.629	769
960.717	694
960.805	-68
960.893	1138
960.981	485
961.069	1041
961.158	1592
961.245	974
961.333	1477
961.421	1124
961.509	254
961.597	1804
961.685	158
961.773	555
961.861	641
961.949	960
962.036	642
962.124	915
962.212	607
962.299	404
962.387	-12
962.475	1285
962.562	147
962.650	1087
962.738	643
962.825	316
962.913	-44
963.000	1362
963.088	5
963.175	840
963.263	599
963.350	335
963.438	1851
963.525	1808
963.612	3237
963.700	7532
963.787	22712
963.874	19097
963.962	2280
964.049	1093
964.136	710
964.223	825
964.310	428
964.398	909
964.485	698
964.572	1234
964.659	2493
964.746	5354
964.833	1600
964.920	1004
965.007	1158
965.094	659
965.181	376
965.268	1283
965.355	1026
965.441	302
965.528	-117
965.615	1048
965.702	315
965.789	761
965.875	1217
965.962	568
966.049	108
966.136	1580
966.222	580
966.309	702
966.395	946
966.482	1629
966.569	565
966.655	557
966.742	237
966.828	484
966.915	91
967.001	1158
967.087	903
967.174	652
967.260	1404
967.347	2941
967.433	5107
967.519	16663
967.605	10456
967.692	1061
967.778	1438
967.864	252
967.950	534
968.036	-700
968.123	1391
968.209	969
968.295	-135
968.381	1606
968.467	974
968.553	-66
968.639	1155
968.725	1732
968.811	3485
968.897	3930
968.983	-438
969.069	562
969.154	451
969.240	1241
969.326	1062
969.412	68
969.497	586
969.583	213
969.669	-258
969.755	605
969.840	368
969.926	1515
970.012	832
970.097	2650
970.183	2196
970.268	2316
970.354	2004
970.439	3402
970.525	10528
970.610	6353
970.696	1356
970.781	702
970.866	161
970.952	566
971.037	-42
971.122	554
971.208	1053
971.293	922
971.378	368
971.463	214
971.549	761
971.634	342
971.719	774
971.804	1560
971.889	2606
971.974	543
972.059	208
972.144	973
972.229	689
972.314	57
972.399	553
972.484	854
972.569	1027
972.654	859
972.739	3413
972.824	7107
972.908	2891
972.993	384
973.078	80
973.163	703
973.247	-49
973.332	84
973.417	1810
973.501	-99
973.586	731
973.671	512
973.755	-27
973.840	2206
973.924	1175
974.009	2072
974.093	1325
974.178	3226
974.262	3131
974.346	5146
974.431	1967
974.515	903
974.600	384
974.684	1533
974.768	311
974.852	848
974.937	-80
975.021	1255
975.105	762
975.189	813
975.273	402
975.358	445
975.442	-422
975.526	881
975.610	-905
975.694	76
975.778	850
975.862	1436
975.946	-658
976.030	1036
976.114	-308
976.198	374
976.281	678
976.365	657
976.449	227
976.533	209
976.617	-19
976.700	547
976.784	978
976.868	1285
976.951	2277
977.035	2778
977.119	452
977.202	1076
977.286	1022
977.369	-80
977.453	493
977.536	895
977.620	422
977.703	1396
977.787	113
977.870	1629
977.953	935
978.037	1053
978.120	1031
978.203	1846
978.287	5558
978.370	5068
978.453	869
978.536	1025
978.620	2090
978.703	2411
978.786	2851
978.869	-379
978.952	-526
979.035	1272
979.118	779
979.201	657
979.284	930
979.367	460
979.450	951
979.533	208
979.616	831
979.699	594
979.782	740
979.865	-87
979.948	247
980.030	726
980.113	926
980.196	-124
980.279	390
980.361	710
980.444	751
980.526	-229
980.609	781
980.692	832
980.774	1224
980.857	10
980.939	945
981.022	446
981.104	585
981.187	832
981.269	421
981.352	737
981.434	8
981.516	476
981.599	953
981.681	709
981.763	402
981.846	251
981.928	658
982.010	270
982.092	-319
982.174	321
982.256	1546
982.339	372
982.421	144
982.503	810
982.585	108
982.667	836
982.749	36
982.831	715
982.913	-144
982.995	700
983.077	464
983.158	2485
983.240	513
983.322	1240
983.404	847
983.486	78
983.568	1513
983.649	527
983.731	1132
983.813	247
983.894	697
983.976	356
984.058	1085
984.139	1298
984.221	-520
984.302	1185
984.384	541
984.465	787
984.547	927
984.628	-170
984.710	1021
984.791	-21
984.872	-12
984.954	652
985.035	1044
985.116	95
985.198	771
985.279	402
985.360	294
985.441	-43
985.522	243
985.604	461
985.685	-1157
985.766	1987
985.847	987
985.928	208
986.009	117
986.090	149
986.171	612
986.252	666
986.333	249
986.414	900
986.495	1331
986.576	161
986.656	831
986.737	1756
986.818	348
986.899	466
986.980	492
987.060	1287
987.141	156
987.222	1013
987.302	1026
987.383	1654
987.464	1151
987.544	1915
987.625	1121
987.705	818
987.786	1537
987.866	603
987.947	767
988.027	1004
988.108	635
988.188	973
988.268	830
988.349	1145
988.429	570
988.509	70
988.589	618
988.670	-468
988.750	1057
988.830	1070
988.910	705
988.990	678
989.070	860
989.151	1447
989.231	-211
989.311	1342
989.391	180
989.471	798
989.551	377
989.631	483
989.711	278
989.791	1222
989.870	963
989.950	225
990.030	401
990.110	175
990.190	280
990.269	1193
990.349	288
990.429	703
990.509	122
990.588	7
990.668	540
990.747	400
990.827	-509
990.907	165
990.986	162
991.066	665
991.145	264
991.225	554
991.304	562
991.383	386
991.463	703
991.542	532
991.622	-361
991.701	900
991.780	400
991.859	699
991.939	-280
992.018	-311
992.097	942
992.176	58
992.256	-68
992.335	590
992.414	1136
992.493	129
992.572	-235
992.651	1776
992.730	719
992.809	881
992.888	490
992.967	607
993.046	182
993.125	795
993.203	-462
993.282	637
993.361	122
993.440	518
993.519	-493
993.597	95
993.676	-253
993.755	840
993.834	30
993.912	-685
993.991	74
994.069	-413
994.148	293
994.226	184
994.305	-400
994.384	-283
994.462	261
994.540	-377
994.619	-141
994.697	391
994.776	-300
994.854	972
994.932	-590
995.011	118
995.089	-536
995.167	245
995.245	301
995.324	32
995.402	102
995.480	-812
995.558	-210
995.636	-277
995.714	227
995.792	204
995.870	11
995.948	-261
996.026	-194
996.104	225
996.182	842
996.260	-508
996.338	549
996.416	-897
996.494	204
996.572	766
996.649	-656
996.727	-19
996.805	-771
996.883	52
996.960	70
997.038	45
997.116	-646
997.193	-406
997.271	-153
997.348	-608
997.426	-786
997.504	-677
997.581	75
997.658	31
997.736	-375
997.813	-393
997.891	-226
997.968	259
998.046	-569
998.123	212
998.200	-77
998.277	-540
998.355	240
998.432	-828
998.509	-364
998.586	-105
998.663	644
998.741	565
998.818	-651
998.895	-421
998.972	437
999.049	-299
999.126	-509
999.203	213
999.280	-160
999.357	-502
999.434	-749
999.511	83
999.587	-2
999.664	-629
999.741	45
999.818	233
999.895	3
999.971	-630
1000.048	-687
1000.125	346
1000.202	-753
1000.278	-294
1000.355	-7
1000.431	-962
1000.508	-949
1000.584	-860
1000.661	-593
1000.738	-801
1000.814	-1281
1000.890	-157
1000.967	-1526
1001.043	-522
1001.120	-855
1001.196	-114
1001.272	-831
1001.349	145
1001.425	-267
1001.501	-280
1001.577	-1429
1001.654	-238
1001.730	-879
1001.806	-126
1001.882	-1378
1001.958	-218
1002.034	-132
1002.110	42
1002.186	-1166
1002.262	-930
1002.338	-646
1002.414	-437
1002.490	118
1002.566	-783
1002.642	-792
1002.718	-36
1002.794	143
1002.870	-741
1002.945	-396
1003.021	-1657
1003.097	-904
1003.173	370
1003.248	-357
1003.324	-776
1003.400	72
1003.475	-398
1003.551	-1341
1003.626	-1290
1003.702	-999
1003.777	-223
1003.853	-563
1003.928	-895
1004.004	-195
1004.079	-830
1004.155	-1117
1004.230	-914
1004.305	-134
1004.381	-707
1004.456	-1091
1004.531	-790
1004.607	-617
1004.682	-1205
1004.757	-1550
1004.832	-877
1004.907	-489
1004.982	-137
1005.057	-173
1005.133	-1184
1005.208	-1016
1005.283	-833
1005.358	-1180
1005.433	-1935
1005.508	-418
1005.583	-1199
1005.657	-1051
1005.732	-10
1005.807	-1269
1005.882	-1274
1005.957	-957
1006.032	-879
1006.106	-688
1006.181	-1337
1006.256	-749
1006.331	-1341
1006.405	-1471
1006.480	-483
1006.554	-1257
1006.629	-606
1006.704	-1257
1006.778	-874
1006.853	-776
1006.927	-699
1007.002	-1005
1007.076	-1628
1007.150	-530
1007.225	-298
1007.299	-1089
1007.373	-1643
1007.448	-337
1007.522	-772
1007.596	-804
1007.671	-1209
1007.745	-1007
1007.819	-1425
1007.893	-937
1007.967	-196
1008.041	-2365
1008.115	175
1008.190	-1737
1008.264	-784
1008.338	-2137
1008.412	-588
1008.486	-1199
1008.560	-1337
1008.633	-548
1008.707	-935
1008.781	-438
1008.855	-592
1008.929	-1012
1009.003	-1204
1009.076	-1352
1009.150	-1298
1009.224	-884
1009.298	-759
1009.371	-1034
1009.445	-304
1009.519	-1479
1009.592	-1474
1009.666	-1501
1009.739	-851
1009.813	-2502
1009.886	-682
1009.960	-2105
1010.033	-554
1010.107	-870
1010.180	-1567
1010.253	-789
1010.327	-1255
1010.400	-1324
1010.473	-1331
1010.547	-470
1010.620	-833
1010.693	-1385
1010.766	-2153
1010.840	-1029
1010.913	-998
1010.986	-1053
1011.059	-1047
1011.132	-1925
1011.205	-1607
1011.278	-1214
1011.351	-1683
1011.424	-1877
1011.497	-1682
1011.570	-1701
1011.643	-487
1011.716	-1755
1011.789	-1381
1011.862	-606
1011.934	-540
1012.007	-1338
1012.080	-393
1012.153	-1376
1012.225	-592
1012.298	-1475
1012.371	-1528
1012.443	-1345
1012.516	-610
1012.588	-1653
1012.661	-1115
1012.733	-1992
1012.806	-641
1012.879	-1738
1012.951	-1327
1013.023	-1257
1013.096	-1317
1013.168	-1195
1013.241	-249
1013.313	-1438
1013.385	-1935
1013.458	-1154
1013.530	-538
1013.602	-2174
1013.674	-642
1013.746	-1355
1013.819	-931
1013.891	-1475
1013.963	-1431
1014.035	-1254
1014.107	-1176
1014.179	-1306
1014.251	-1799
1014.323	-549
1014.395	-1673
1014.467	-1058
1014.539	-640
1014.611	-2249
1014.683	-624
1014.754	-1567
1014.826	-1549
1014.898	-1930
1014.970	-1851
1015.042	-1224
1015.113	-1151
1015.185	-1934
1015.257	-1441
1015.328	-1830
1015.400	-1678
1015.471	-2036
1015.543	-1665
1015.615	-756
1015.686	-1752
1015.757	-1278
1015.829	-1436
1015.901	-1770
1015.972	-878
1016.043	-1602
1016.115	-692
1016.186	-1249
1016.257	-1767
1016.328	-1544
1016.400	-991
1016.471	-1475
1016.542	-1469
1016.613	-1626
1016.685	-1102
1016.756	-2390
1016.827	-714
1016.898	-2180
1016.969	-763
1017.040	-1204
1017.111	-1390
1017.182	-1717
1017.253	-1517
1017.324	-2054
1017.395	-1043
1017.466	-1571
1017.537	-1233
1017.608	-1907
1017.678	-1481
1017.749	-1980
1017.820	-1206
1017.891	-1785
1017.961	-1213
1018.032	-1251
1018.103	-1120
1018.173	-1450
1018.244	-1906
1018.315	-1846
1018.385	-953
1018.456	-1855
1018.526	-1400
1018.597	-1397
1018.667	-823
1018.738	-1875
1018.808	-2238
1018.878	-961
1018.949	-1549
1019.019	-2007
1019.089	-1172
1019.160	-1879
1019.230	-2101
1019.300	-1390
1019.371	-1736
1019.441	-1313
1019.511	-1082
1019.581	-1548
1019.651	-1418
1019.721	-1142
1019.791	-784
1019.861	-1225
1019.931	-726
1020.001	-1350
1020.071	-1447
1020.141	-2353
1020.211	-1313
1020.281	-1406
1020.351	-1418
1020.421	-997
1020.491	-1551
1020.560	-1994
1020.630	-988
1020.700	-719
1020.770	-1029
1020.839	-1581
1020.909	-1500
1020.979	-1373
1021.048	-2127
1021.118	-1891
1021.187	-1698
1021.257	-985
1021.326	-1281
1021.396	-1858
1021.465	-1179
1021.535	-2059
1021.604	-2275
1021.674	-1416
1021.743	-522
1021.812	-1378
1021.882	-1624
1021.951	-1697
1022.020	-902
1022.089	-1025
1022.159	-2040
1022.228	-1949
1022.297	-2322
1022.366	-1792
1022.435	-1324
1022.504	-1605
1022.573	-1599
1022.642	-1132
1022.711	-1318
1022.781	-951
1022.849	-283
1022.918	-1345
1022.987	-1675
1023.056	-1825
1023.125	-1566
1023.194	-1244
1023.263	-1186
1023.331	-2198
1023.400	-1869
1023.469	-1496
1023.538	-1991
1023.606	-2398
1023.675	-1908
1023.744	-1866
1023.812	-1454
1023.881	-1933
1023.949	-1876
1024.018	-1486
1024.086	-1856
1024.155	-1205
1024.223	-1968
1024.292	-1667
1024.360	-1298
1024.429	-1950
1024.497	-1567
1024.565	-1905
1024.634	-1954
1024.702	-1962
1024.770	-1392
1024.838	-1759
1024.907	-942
1024.975	-2247
1025.043	-1172
1025.111	-2168
1025.179	-991
1025.247	-1624
1025.315	-1727
1025.383	-1576
1025.451	-2221
1025.519	-1797
1025.587	-2042
1025.655	-2006
1025.723	-2003
1025.791	-1938
1025.859	-836
1025.927	-1535
1025.995	-1643
1026.062	-2460
1026.130	-2145
1026.198	-1086
1026.266	-1274
1026.333	-1240
1026.401	-351
1026.469	-1988
1026.536	-1728
1026.604	-1731
1026.671	-1575
1026.739	-1717
1026.806	-1584
1026.874	-2162
1026.941	-1764
1027.009	-2073
1027.076	-2521
1027.144	-1302
1027.211	-1895
1027.278	-2071
1027.345	-1545
1027.413	-895
1027.480	-1864
1027.547	-2353
1027.614	-2983
1027.682	-1600
1027.749	-1267
1027.816	-1036
1027.883	-1496
1027.950	-1137
1028.017	-1519
1028.084	-1011
1028.151	-1762
1028.218	-1516
1028.285	-1722
1028.352	-1664
1028.419	-1510
1028.486	-2080
1028.553	-1020
1028.619	-1079
1028.686	-2293
1028.753	-2105
1028.820	-1554
1028.886	-1871
1028.953	-774
1029.020	-1761
1029.086	-1883
1029.153	-2069
1029.220	-1549
1029.286	-1908
1029.353	-1511
1029.419	-1559
1029.486	-1620
1029.552	-1446
1029.619	-1816
1029.685	-2296
1029.751	-1674
1029.818	-1739
1029.884	-2153
1029.951	-1105
1030.017	-1751
1030.083	-1398
1030.149	-2006
1030.216	-1600
1030.282	-1768
1030.348	-1701
1030.414	-2112
1030.480	-1932
1030.546	-2429
1030.612	-2224
1030.678	-2103
1030.744	-1688
1030.810	-1969
1030.876	-1819
1030.942	-1835
1031.008	-2362
1031.074	-2196
1031.140	-1953
1031.206	-1703
1031.272	-1786
1031.337	-1458
1031.403	-1374
1031.469	-2267
1031.534	-2220
1031.600	-1164
1031.666	-2062
1031.731	-1831
1031.797	-1742
1031.863	-1443
1031.928	-2049
1031.994	-2135
1032.059	-2777
1032.125	-2190
1032.190	-1902
1032.256	-2068
1032.321	-1811
1032.386	-1946
1032.452	-2706
1032.517	-1568
1032.582	-2731
1032.647	-1938
1032.713	-1819
1032.778	-1590
1032.843	-2614
1032.908	-2308
1032.974	-1293
1033.039	-1995
1033.104	-2030
1033.169	-2328
1033.234	-2213
1033.299	-1396
1033.364	-1517
1033.429	-1366
1033.494	-1723
1033.559	-1660
1033.624	-2550
1033.688	-1722
1033.753	-2046
1033.818	-1667
1033.883	-2023
1033.948	-1996
1034.013	-1570
1034.077	-1229
1034.142	-1296
1034.207	-1008
1034.271	-1007
1034.336	772
1034.400	46
1034.465	-370
1034.530	-141
1034.594	-868
1034.658	-1671
1034.723	-1777
1034.787	-1510
1034.852	-2376
1034.916	-2764
1034.981	-2376
1035.045	-1505
1035.109	-1904
1035.173	-1441
1035.238	-2626
1035.302	-1846
1035.366	-2743
1035.430	-2150
1035.495	-2245
1035.559	-2263
1035.623	-1689
1035.687	-2767
1035.751	-1613
1035.815	-2171
1035.879	-2270
1035.943	-2570
1036.007	-2015
1036.071	-1438
1036.135	-1783
1036.198	-2357
1036.262	-1396
1036.326	-2040
1036.390	-991
1036.454	-2488
1036.517	-1479
1036.581	-1920
1036.645	-1458
1036.709	-23
1036.772	-877
1036.836	-2069
1036.900	-1858
1036.963	-1921
1037.026	-2206
1037.090	-2613
1037.154	-1975
1037.217	-2635
1037.280	-1884
1037.344	-2850
1037.407	-2245
1037.471	-2649
1037.534	-1778
1037.597	-2131
1037.661	-2191
1037.724	-1170
1037.787	-2123
1037.850	-2115
1037.913	-2120
1037.977	-2220
1038.040	-2001
1038.103	-2301
1038.166	-1846
1038.229	-1710
1038.292	-1854
1038.355	-2039
1038.418	-1934
1038.481	-1686
1038.544	-1875
1038.607	-1802
1038.670	-1634
1038.732	-2316
1038.795	-2331
1038.858	-2302
1038.921	-1373
1038.984	-1693
1039.046	-2017
1039.109	-2629
1039.172	-2449
1039.234	-2227
1039.297	-1991
1039.360	-2324
1039.422	-1959
1039.485	-2114
1039.547	-2167
1039.610	-1858
1039.672	-1784
1039.734	-1470
1039.797	-2081
1039.859	-2007
1039.922	-2191
1039.984	-1653
1040.046	-1631
1040.109	-1508
1040.171	-2544
1040.233	-2927
1040.295	-2012
1040.358	-2077
1040.420	-1858
1040.482	-1929
1040.544	-2423
1040.606	-2139
1040.668	-2071
1040.730	-2032
1040.792	-1959
1040.854	-2190
1040.916	-1902
1040.978	-2862
1041.040	-1339
1041.102	-2890
1041.164	-2244
1041.225	-2766
1041.287	-2364
1041.349	-2155
1041.411	-1731
1041.472	-2320
1041.534	-3050
1041.596	-3139
1041.657	-1407
1041.719	-2158
1041.781	-2576
1041.842	-2394
1041.904	-1661
1041.965	-1968
1042.027	-1299
1042.088	-1640
1042.150	-2039
1042.211	-2514
1042.272	-1625
1042.334	-2328
1042.395	-2070
1042.456	-1967
1042.518	-2059
1042.579	-1992
1042.640	-1577
1042.701	-1234
1042.763	-1648
1042.824	-1475
1042.885	-2778
1042.946	-2229
1043.007	-1524
1043.068	-2205
1043.129	-2066
1043.190	-2410
1043.251	-1736
1043.312	-2291
1043.373	-2130
1043.434	-2486
1043.495	-1738
1043.556	-1878
1043.616	-2128
1043.677	-2076
1043.738	-2029
1043.799	-2447
1043.859	-2726
1043.920	-2511
1043.981	-2601
1044.041	-2300
1044.102	-2523
1044.162	-2091
1044.223	-2091
1044.284	-2274
1044.344	-2402
1044.405	-1756
1044.465	-1794
1044.525	-1917
1044.586	-1244
1044.646	-2656
1044.707	-1393
1044.767	-2209
1044.827	-2076
1044.887	-2587
1044.948	-1239
1045.008	-1641
1045.068	-1922
1045.128	-1586
1045.188	-1883
1045.249	-1327
1045.309	-2149
1045.369	-1637
1045.429	-1563
1045.489	-2527
1045.549	-1538
1045.609	-2602
1045.669	-1862
1045.729	-1500
1045.789	-2489
1045.848	-1414
1045.908	-1631
1045.968	-1449
1046.028	-721
1046.088	-642
1046.147	-1409
1046.207	-2015
1046.267	-1605
1046.326	-1720
1046.386	-1594
1046.446	-1476
1046.505	-1519
1046.565	-1378
1046.624	-310
1046.684	-143
1046.743	-945
1046.803	-1319
1046.862	-936
1046.922	0
