'Start Wavelength	183.907
'End Wavelength	1046.922
'Gate Delay	5.000
'Gate Width (ms)	1.050
'Laser Output Level	0.000
'X Position	0.000
'Y Position	0.000
'Z Position	0.000
'Grid Point Number	1.000
'Shot Number	100.000
183.907	15.000
183.977	249.000
184.047	-474
184.116	273
184.186	-85
184.256	341
184.325	-177
184.395	-392
184.465	23
184.534	561
184.604	638
184.674	899
184.743	-236
184.813	364
184.883	-611
184.952	342
185.022	386
185.092	729
185.161	-4
185.231	496
185.301	-566
185.370	196
185.440	-744
185.509	-268
185.579	-108
185.649	767
185.718	-100
185.788	614
185.857	-542
185.927	96
185.996	324
186.066	173
186.136	-58
186.205	-145
186.275	-457
186.344	147
186.414	-212
186.483	187
186.553	744
186.622	453
186.692	-354
186.761	269
186.831	-447
186.900	347
186.970	358
187.039	203
187.109	-104
187.178	410
187.248	506
187.317	493
187.387	-707
187.456	199
187.526	542
187.595	286
187.664	-372
187.734	356
187.803	16
187.873	198
187.942	5
188.012	255
188.081	-601
188.150	-386
188.220	-157
188.289	310
188.358	136
188.428	270
188.497	-197
188.567	239
188.636	-593
188.705	279
188.775	17
188.844	186
188.913	55
188.983	376
189.052	19
189.121	430
189.191	-291
189.260	973
189.329	-104
189.399	371
189.468	31
189.537	106
189.606	191
189.676	458
189.745	470
189.814	948
189.883	132
189.953	556
190.022	-451
190.091	346
190.161	-247
190.230	853
190.299	-80
190.368	66
190.437	-68
190.507	246
190.576	-635
190.645	118
190.714	-195
190.783	801
190.853	672
190.922	575
190.991	450
191.060	-17
191.129	394
191.198	-364
191.268	38
191.337	1244
191.406	-30
191.475	235
191.544	79
191.613	407
191.682	-5
191.752	223
191.821	146
191.890	384
191.959	535
192.028	417
192.097	53
192.166	295
192.235	-677
192.304	789
192.373	526
192.442	173
192.511	-693
192.580	94
192.650	-195
192.719	13
192.788	-501
192.857	901
192.926	496
192.995	80
193.064	-511
193.133	-420
193.202	-146
193.271	671
193.340	-95
193.409	1072
193.478	-140
193.547	360
193.615	-241
193.684	189
193.753	206
193.822	483
193.891	-103
193.960	181
194.029	-158
194.098	19
194.167	-32
194.236	-273
194.305	191
194.374	689
194.443	-337
194.512	-82
194.580	-34
194.649	369
194.718	442
194.787	679
194.856	-221
194.925	737
194.994	-327
195.062	572
195.131	129
195.200	800
195.269	-636
195.338	497
195.407	586
195.475	408
195.544	453
195.613	299
195.682	151
195.751	-42
195.819	210
195.888	-124
195.957	434
196.026	6
196.094	415
196.163	621
196.232	-264
196.301	674
196.369	178
196.438	1152
196.507	540
196.576	112
196.644	-728
196.713	130
196.782	-470
196.850	479
196.919	238
196.988	269
197.056	-270
197.125	-80
197.194	-207
197.262	330
197.331	-177
197.400	-246
197.468	-664
197.537	-451
197.606	-281
197.674	252
197.743	-374
197.812	430
197.880	433
197.949	61
198.017	212
198.086	375
198.155	130
198.223	1075
198.292	176
198.360	26
198.429	-60
198.497	402
198.566	641
198.635	665
198.703	376
198.772	-61
198.840	-189
198.909	212
198.977	-106
199.046	135
199.114	331
199.183	239
199.251	199
199.320	374
199.388	253
199.457	-304
199.525	-190
199.594	-197
199.662	-255
199.731	562
199.799	-393
199.867	39
199.936	-277
200.004	385
200.073	239
200.141	716
200.210	-352
200.278	537
200.346	-310
200.415	435
200.483	219
200.552	407
200.620	-277
200.688	344
200.757	-194
200.825	242
200.893	172
200.962	808
201.030	-366
201.098	9
201.167	145
201.235	175
201.303	-428
201.372	-13
201.440	-587
201.508	463
201.577	368
201.645	84
201.713	211
201.781	-247
201.850	0
201.918	752
201.986	80
202.055	940
202.123	-46
202.191	420
202.259	777
202.327	456
202.396	116
202.464	957
202.532	-504
202.600	538
202.669	-489
202.737	-234
202.805	-39
202.873	193
202.941	-702
203.009	-92
203.078	-567
203.146	184
203.214	-354
203.282	308
203.350	-134
203.418	-644
203.487	195
203.555	485
203.623	-614
203.691	-523
203.759	47
203.827	329
203.895	-62
203.963	177
204.031	-212
204.099	-567
204.168	450
204.236	-3
204.304	-115
204.372	419
204.440	992
204.508	-48
204.576	588
204.644	537
204.712	-360
204.780	780
204.848	-32
204.916	-49
204.984	779
205.052	-126
205.120	-944
205.188	1195
205.256	212
205.324	1160
205.392	-267
205.460	585
205.528	-281
205.596	-224
205.664	-263
205.732	342
205.799	638
205.867	120
205.935	-63
206.003	122
206.071	-715
206.139	-88
206.207	-384
206.275	519
206.343	11
206.411	438
206.478	-123
206.546	673
206.614	173
206.682	-655
206.750	-180
206.818	619
206.885	424
206.953	-350
207.021	841
207.089	-312
207.157	-144
207.225	614
207.292	-56
207.360	304
207.428	-755
207.496	-165
207.563	1
207.631	96
207.699	-204
207.767	-127
207.834	173
207.902	215
207.970	-242
208.038	343
208.105	-321
208.173	377
208.241	63
208.309	603
208.376	45
208.444	479
208.512	-322
208.579	-393
208.647	394
208.715	344
208.782	132
208.850	-71
208.918	-379
208.985	756
209.053	-435
209.120	332
209.188	29
209.256	-263
209.323	43
209.391	-70
209.459	-105
209.526	797
209.594	-12
209.661	1212
209.729	80
209.796	415
209.864	48
209.932	-817
209.999	263
210.067	595
210.134	-447
210.202	219
210.269	-155
210.337	646
210.404	-581
210.472	329
210.539	256
210.607	58
210.674	-359
210.742	437
210.809	-623
210.877	188
210.944	670
211.012	391
211.079	1514
211.146	-364
211.214	-405
211.281	556
211.349	-96
211.416	298
211.484	-290
211.551	92
211.618	-144
211.686	331
211.753	-272
211.821	82
211.888	-170
211.955	-201
212.023	-318
212.090	12
212.157	-282
212.225	580
212.292	199
212.359	552
212.427	821
212.494	401
212.561	94
212.629	-427
212.696	-546
212.763	45
212.831	44
212.898	494
212.965	-46
213.032	153
213.100	-56
213.167	122
213.234	390
213.301	675
213.369	203
213.436	728
213.503	-702
213.570	355
213.638	521
213.705	-173
213.772	-653
213.839	709
213.906	407
213.973	257
214.041	70
214.108	1181
214.175	127
214.242	-338
214.309	-555
214.376	747
214.444	-415
214.511	-766
214.578	-130
214.645	91
214.712	129
214.779	684
214.846	-225
214.913	279
214.980	-253
215.048	393
215.115	471
215.182	664
215.249	-12
215.316	121
215.383	82
215.450	1299
215.517	-303
215.584	491
215.651	-588
215.718	365
215.785	14
215.852	-505
215.919	333
215.986	220
216.053	-93
216.120	-659
216.187	5
216.254	277
216.321	252
216.388	37
216.455	-269
216.522	685
216.589	-6
216.656	394
216.722	-603
216.789	871
216.856	814
216.923	542
216.990	-178
217.057	876
217.124	-23
217.191	-95
217.258	95
217.324	588
217.391	670
217.458	417
217.525	218
217.592	111
217.659	-105
217.725	177
217.792	-497
217.859	789
217.926	-842
217.993	134
218.059	29
218.126	782
218.193	-458
218.260	802
218.327	92
218.393	16
218.460	-493
218.527	-769
218.594	53
218.660	-864
218.727	221
218.794	-378
218.860	469
218.927	-311
218.994	-126
219.061	-52
219.127	-270
219.194	340
219.261	606
219.327	1063
219.394	891
219.461	86
219.527	750
219.594	305
219.661	-894
219.727	-376
219.794	-236
219.860	239
219.927	-367
219.994	404
220.060	-653
220.127	826
220.193	632
220.260	516
220.326	567
220.393	1095
220.460	1302
220.526	798
220.593	127
220.659	1185
220.726	164
220.792	1646
220.859	881
220.925	1239
220.992	1571
221.058	1345
221.125	954
221.191	393
221.258	-549
221.324	372
221.391	9
221.457	701
221.524	332
221.590	492
221.657	1276
221.723	196
221.789	-175
221.856	1092
221.922	-1090
221.989	448
222.055	-394
222.121	392
222.188	694
222.254	628
222.321	564
222.387	70
222.453	-655
222.520	57
222.586	161
222.652	401
222.719	-704
222.785	875
222.851	-458
222.918	205
222.984	-342
223.050	122
223.116	-897
223.183	31
223.249	-339
223.315	-135
223.382	446
223.448	236
223.514	-32
223.580	231
223.647	220
223.713	365
223.779	10
223.845	345
223.911	-885
223.978	350
224.044	-727
224.110	137
224.176	203
224.242	-171
224.309	-585
224.375	-4
224.441	-287
224.507	-389
224.573	-734
224.639	-10
224.705	-641
224.772	159
224.838	-855
224.904	672
224.970	-469
225.036	-238
225.102	-666
225.168	314
225.234	-373
225.300	-286
225.366	-642
225.432	663
225.499	-86
225.565	-345
225.631	73
225.697	-399
225.763	-4
225.829	578
225.895	154
225.961	467
226.027	120
226.093	-272
226.159	334
226.225	1294
226.291	1419
226.357	2248
226.423	1082
226.489	504
226.554	368
226.620	468
226.686	163
226.752	1077
226.818	722
226.884	3649
226.950	2342
227.016	1264
227.082	880
227.148	568
227.214	789
227.279	-552
227.345	-241
227.411	220
227.477	138
227.543	845
227.609	919
227.674	395
227.740	225
227.806	99
227.872	80
227.938	-224
228.003	-10
228.069	85
228.135	-311
228.201	600
228.267	174
228.332	-155
228.398	-441
228.464	691
228.530	-607
228.595	31
228.661	-1035
228.727	-249
228.792	-119
228.858	8
228.924	-1304
228.990	1351
229.055	-1263
229.121	692
229.187	-96
229.252	-365
229.318	-337
229.384	-118
229.449	-561
229.515	-1270
229.581	-589
229.646	1405
229.712	255
229.777	-503
229.843	-1179
229.909	486
229.974	58
230.040	419
230.105	40
230.171	585
230.236	796
230.302	-56
230.368	-633
230.433	-141
230.499	-471
230.564	445
230.630	-765
230.695	343
230.761	391
230.826	-505
230.892	1164
230.957	-554
231.023	-521
231.088	-97
231.154	-141
231.219	609
231.284	-386
231.350	-118
231.415	-137
231.481	509
231.546	-398
231.612	298
231.677	-693
231.742	-347
231.808	446
231.873	208
231.939	-1765
232.004	889
232.069	402
232.135	287
232.200	-356
232.265	-151
232.331	-1101
232.396	-294
232.461	-484
232.527	-912
232.592	-353
232.657	725
232.723	451
232.788	368
232.853	362
232.918	84
232.984	-366
233.049	-130
233.114	-1008
233.179	-456
233.245	668
233.310	-2
233.375	-710
233.440	-16
233.506	-602
233.571	-271
233.636	-807
233.701	28
233.766	-406
233.832	-337
233.897	-281
233.962	46
234.027	111
234.092	808
234.157	-467
234.222	-222
234.288	-215
234.353	442
234.418	172
234.483	1373
234.548	250
234.613	-413
234.678	-368
234.743	469
234.808	1108
234.873	-179
234.938	-42
235.004	458
235.069	-77
235.134	195
235.199	65
235.264	435
235.329	-861
235.394	73
235.459	-66
235.524	-156
235.589	83
235.654	382
235.719	-751
235.784	-108
235.849	-280
235.913	461
235.978	-542
236.043	108
236.108	285
236.173	-584
236.238	521
236.303	-298
236.368	-271
236.433	407
236.498	418
236.563	642
236.627	1049
236.692	3703
236.757	3550
236.822	771
236.887	519
236.952	1358
237.017	-576
237.081	1091
237.146	165
237.211	2386
237.276	3574
237.341	5263
237.405	2490
237.470	1515
237.535	280
237.600	1447
237.664	829
237.729	60
237.794	519
237.859	2303
237.923	692
237.988	70
238.053	602
238.118	114
238.182	-88
238.247	1733
238.312	-516
238.376	761
238.441	-1173
238.506	559
238.570	-1113
238.635	947
238.700	5
238.764	83
238.829	-196
238.893	-656
238.958	643
239.023	-52
239.087	276
239.152	467
239.216	-74
239.281	125
239.346	-10
239.410	284
239.475	-477
239.539	939
239.604	-660
239.668	708
239.733	-202
239.797	756
239.862	2122
239.926	1530
239.991	762
240.055	255
240.120	-238
240.184	597
240.249	-665
240.313	148
240.378	-902
240.442	59
240.507	1212
240.571	75
240.635	-872
240.700	600
240.764	225
240.829	313
240.893	-766
240.957	530
241.022	466
241.086	960
241.151	-1265
241.215	-815
241.279	-104
241.344	-97
241.408	230
241.472	-458
241.537	108
241.601	-98
241.665	-1676
241.730	553
241.794	109
241.858	-483
241.922	-308
241.987	424
242.051	205
242.115	167
242.179	250
242.244	-652
242.308	678
242.372	136
242.436	-333
242.501	459
242.565	-291
242.629	-558
242.693	140
242.757	-785
242.822	565
242.886	573
242.950	-247
243.014	-361
243.078	184
243.142	62
243.206	-325
243.271	714
243.335	-445
243.399	1508
243.463	1564
243.527	3902
243.591	720
243.655	702
243.719	-275
243.783	1007
243.847	403
243.911	992
243.975	-99
244.040	-470
244.104	1277
244.168	567
244.232	-621
244.296	838
244.360	178
244.424	-693
244.488	-3
244.552	128
244.615	-828
244.679	401
244.743	-425
244.807	-228
244.871	188
244.935	302
244.999	-1176
245.063	-375
245.127	379
245.191	730
245.255	-291
245.319	606
245.383	-1006
245.446	1206
245.510	-187
245.574	83
245.638	513
245.702	-1012
245.766	535
245.829	753
245.893	-497
245.957	-177
246.021	605
246.085	-635
246.149	15
246.212	1285
246.276	441
246.340	-118
246.404	342
246.467	664
246.531	-1471
246.595	-63
246.659	1066
246.722	-232
246.786	324
246.850	198
246.913	261
246.977	-1094
247.041	-255
247.104	172
247.168	-572
247.232	1459
247.295	1241
247.359	189
247.423	288
247.486	709
247.550	-118
247.614	167
247.677	386
247.741	-12
247.804	221
247.868	606
247.932	-59
247.995	2026
248.059	-38
248.122	-1068
248.186	823
248.249	35
248.313	2285
248.376	2873
248.440	2013
248.503	-752
248.567	1206
248.630	147
248.694	1073
248.757	2752
248.821	2849
248.884	2403
248.948	1783
249.011	1804
249.075	3085
249.138	3831
249.202	1216
249.265	735
249.328	1237
249.392	228
249.455	428
249.519	1080
249.582	1015
249.645	1726
249.709	301
249.772	-259
249.835	546
249.899	988
249.962	877
250.025	57
250.089	1529
250.152	2199
250.215	1080
250.279	285
250.342	713
250.405	774
250.468	-336
250.532	275
250.595	1630
250.658	3367
250.721	6658
250.785	1677
250.848	1423
250.911	816
250.974	1745
251.038	205
251.101	2717
251.164	551
251.227	932
251.290	1206
251.354	1220
251.417	6360
251.480	5163
251.543	4671
251.606	10971
251.669	7355
251.732	3072
251.795	2555
251.859	2869
251.922	7265
251.985	4308
252.048	2872
252.111	49
252.174	932
252.237	1560
252.300	4177
252.363	4156
252.426	8991
252.489	2121
252.552	1597
252.615	-287
252.678	1512
252.741	2181
252.804	3799
252.867	9215
252.930	4668
252.993	2163
253.056	1911
253.119	261
253.182	-141
253.245	1732
253.308	1362
253.371	-531
253.434	452
253.497	1110
253.559	3079
253.622	782
253.685	1337
253.748	476
253.811	248
253.874	606
253.937	264
254.000	162
254.062	816
254.125	802
254.188	2547
254.251	593
254.314	340
254.376	704
254.439	1327
254.502	1221
254.565	415
254.628	1813
254.690	952
254.753	-466
254.816	-49
254.878	-94
254.941	1127
255.004	884
255.067	670
255.129	-599
255.192	151
255.255	-1389
255.317	-21
255.380	-140
255.443	-429
255.505	-836
255.568	-1236
255.631	-591
255.693	-395
255.756	-1417
255.819	461
255.881	-495
255.944	-36
256.006	-282
256.069	-444
256.132	-43
256.194	-205
256.257	1064
256.319	754
256.382	-679
256.444	423
256.507	122
256.569	-104
256.632	219
256.694	635
256.757	3163
256.819	7555
256.882	1755
256.944	531
257.007	1436
257.069	324
257.132	3
257.194	1535
257.257	-280
257.319	-770
257.381	439
257.444	3642
257.506	8547
257.569	8742
257.631	3050
257.693	1666
257.756	446
257.818	-320
257.880	780
257.943	240
258.005	-334
258.067	210
258.130	1
258.192	351
258.254	-26
258.317	-165
258.379	843
258.441	98
258.503	1260
258.566	570
258.628	1756
258.690	118
258.753	156
258.815	713
258.877	-41
258.939	258
259.001	324
259.064	918
259.126	-952
259.188	745
259.250	444
259.312	341
259.375	-354
259.437	445
259.499	-193
259.561	270
259.623	120
259.685	-151
259.747	-488
259.809	477
259.872	983
259.934	2454
259.996	2266
260.058	513
260.120	-418
260.182	330
260.244	-233
260.306	-295
260.368	583
260.430	-322
260.492	568
260.554	960
260.616	444
260.678	992
260.740	1505
260.802	-374
260.864	-364
260.926	-465
260.988	743
261.050	477
261.112	262
261.174	2544
261.236	442
261.298	-23
261.359	-143
261.421	1661
261.483	-454
261.545	1105
261.607	-786
261.669	560
261.731	-277
261.793	768
261.854	-675
261.916	1174
261.978	276
262.040	457
262.102	813
262.164	-715
262.225	500
262.287	247
262.349	123
262.411	518
262.472	-181
262.534	-224
262.596	295
262.658	1040
262.719	-633
262.781	736
262.843	-357
262.904	253
262.966	337
263.028	729
263.090	2152
263.151	4823
263.213	1877
263.275	726
263.336	-52
263.398	407
263.459	-389
263.521	946
263.583	341
263.644	299
263.706	-972
263.767	-533
263.829	562
263.891	-338
263.952	-797
264.014	-308
264.075	-349
264.137	554
264.198	493
264.260	-875
264.321	-857
264.383	413
264.444	455
264.506	-411
264.567	-574
264.629	1219
264.690	-409
264.752	709
264.813	213
264.875	-123
264.936	156
264.998	489
265.059	-526
265.120	-73
265.182	-149
265.243	5307
265.305	3410
265.366	1251
265.427	171
265.489	484
265.550	-1395
265.611	-81
265.673	125
265.734	-433
265.795	-964
265.857	-343
265.918	-763
265.979	1749
266.040	7054
266.102	5184
266.163	1454
266.224	1
266.286	49
266.347	-509
266.408	-557
266.469	306
266.530	-302
266.592	-62
266.653	139
266.714	755
266.775	-684
266.836	-47
266.898	-456
266.959	-239
267.020	-365
267.081	977
267.142	15
267.203	-169
267.264	-568
267.326	624
267.387	-71
267.448	136
267.509	-551
267.570	58
267.631	-571
267.692	-1024
267.753	516
267.814	-570
267.875	469
267.936	796
267.997	-607
268.058	-588
268.119	-436
268.180	-1071
268.241	-581
268.302	46
268.363	-560
268.424	256
268.485	94
268.546	-485
268.607	-955
268.668	-228
268.729	-720
268.790	-269
268.851	255
268.912	580
268.972	1053
269.033	-746
269.094	-1036
269.155	-150
269.216	119
269.277	-225
269.338	-297
269.398	74
269.459	-648
269.520	267
269.581	-695
269.642	-473
269.702	359
269.763	424
269.824	-280
269.885	-224
269.945	317
270.006	-503
270.067	-1189
270.128	-1109
270.188	-209
270.249	-363
270.310	-18
270.370	-384
270.431	-956
270.492	-224
270.553	77
270.613	-192
270.674	1469
270.734	-492
270.795	-219
270.856	1163
270.916	-785
270.977	148
271.038	380
271.098	736
271.159	-115
271.219	134
271.280	-585
271.340	-34
271.401	-221
271.462	459
271.522	-184
271.583	-445
271.643	-131
271.704	-1168
271.764	-111
271.825	1287
271.885	3259
271.946	4217
272.006	1117
272.066	2108
272.127	3805
272.187	2091
272.248	295
272.308	350
272.369	1211
272.429	1052
272.489	279
272.550	387
272.610	627
272.671	2
272.731	-231
272.791	855
272.852	-990
272.912	593
272.972	-990
273.033	-89
273.093	-386
273.153	383
273.214	-725
273.274	-37
273.334	1042
273.394	2792
273.455	324
273.515	1753
273.575	1987
273.635	314
273.696	1088
273.756	2288
273.816	625
273.876	499
273.936	407
273.997	816
274.057	-600
274.117	-563
274.177	520
274.237	4139
274.297	2925
274.358	1396
274.418	1697
274.478	2442
274.538	-544
274.598	-1114
274.658	839
274.718	1494
274.778	91
274.838	84
274.898	-237
274.958	1959
275.018	2813
275.078	2006
275.138	-439
275.198	-334
275.258	-609
275.318	-90
275.378	787
275.438	443
275.498	294
275.558	1144
275.618	2548
275.678	1805
275.738	474
275.798	290
275.858	74
275.918	86
275.978	-571
276.038	517
276.098	-211
276.157	-348
276.217	2105
276.277	365
276.337	-167
276.397	-156
276.457	502
276.517	-826
276.576	-181
276.636	-322
276.696	-429
276.756	1259
276.815	-116
276.875	376
276.935	-353
276.995	906
277.055	-184
277.114	-67
277.174	323
277.234	1741
277.293	-451
277.353	-428
277.413	29
277.472	-316
277.532	-484
277.592	309
277.651	1793
277.711	2760
277.771	865
277.830	4792
277.890	2813
277.950	1579
278.009	6141
278.069	2009
278.128	2672
278.188	3274
278.248	714
278.307	3367
278.367	1478
278.426	431
278.486	-113
278.545	-202
278.605	-514
278.664	432
278.724	-336
278.783	908
278.843	3014
278.902	1113
278.962	765
279.021	67
279.081	804
279.140	470
279.199	-1
279.259	311
279.318	585
279.378	1167
279.437	1147
279.496	6000
279.556	16657
279.615	11272
279.675	2484
279.734	1998
279.793	2196
279.853	3525
279.912	745
279.971	912
280.031	228
280.090	2151
280.149	2486
280.208	2080
280.268	11435
280.327	10292
280.386	1833
280.445	1646
280.505	272
280.564	1020
280.623	341
280.682	615
280.742	1310
280.801	-32
280.860	-238
280.919	-28
280.978	-632
281.037	-78
281.097	-918
281.156	-86
281.215	-907
281.274	9
281.333	1941
281.392	1033
281.451	-924
281.510	1279
281.569	-140
281.628	-481
281.688	501
281.747	256
281.806	-602
281.865	-678
281.924	-1203
281.983	-352
282.042	72
282.101	-508
282.160	-237
282.219	513
282.278	-312
282.337	1519
282.396	488
282.454	-583
282.513	-455
282.572	2126
282.631	823
282.690	61
282.749	-329
282.808	145
282.867	-639
282.926	-322
282.985	-64
283.043	-975
283.102	-1183
283.161	-4
283.220	827
283.279	1665
283.338	-506
283.396	472
283.455	57
283.514	366
283.573	482
283.631	367
283.690	-353
283.749	422
283.808	444
283.866	555
283.925	-368
283.984	1203
284.043	-657
284.101	57
284.160	-440
284.219	324
284.277	-31
284.336	369
284.395	2809
284.453	2339
284.512	688
284.570	1545
284.629	394
284.688	452
284.746	526
284.805	629
284.863	1616
284.922	2777
284.981	2103
285.039	3043
285.098	7063
285.156	15663
285.215	21822
285.273	22980
285.332	15444
285.390	9118
285.449	5621
285.507	3840
285.566	1846
285.624	2420
285.683	1501
285.741	1449
285.799	831
285.858	1439
285.916	519
285.975	693
286.033	393
286.091	604
286.150	-536
286.208	570
286.267	96
286.325	162
286.383	764
286.442	161
286.500	-409
286.558	840
286.616	-561
286.675	657
286.733	87
286.791	541
286.850	814
286.908	438
286.966	1555
287.024	382
287.083	-271
287.141	-227
287.199	120
287.257	915
287.315	48
287.374	-54
287.432	1199
287.490	1052
287.548	248
287.606	693
287.664	288
287.723	504
287.781	761
287.839	409
287.897	-402
287.955	417
288.013	1037
288.071	2495
288.129	12417
288.187	32650
288.245	13036
288.303	4061
288.361	1279
288.419	1653
288.477	358
288.535	893
288.593	-181
288.651	747
288.709	28
288.767	91
288.825	-298
288.883	379
288.941	56
288.999	-17
289.057	-168
289.115	318
289.173	-130
289.231	521
289.289	-376
289.346	140
289.404	54
289.462	888
289.520	-239
289.578	505
289.636	-323
289.694	96
289.751	-173
289.809	637
289.867	38
289.925	694
289.983	-609
290.040	165
290.098	-997
290.156	88
290.214	561
290.271	238
290.329	-357
290.387	-307
290.444	97
290.502	-358
290.560	356
290.617	5
290.675	-663
290.733	-151
290.790	181
290.848	212
290.906	-551
290.963	222
291.021	84
291.078	-521
291.136	-810
291.194	612
291.251	1952
291.309	-166
291.366	-307
291.424	22
291.481	-220
291.539	498
291.596	-295
291.654	-753
291.711	141
291.769	-364
291.826	123
291.884	629
291.941	-235
291.999	348
292.056	-178
292.114	-576
292.171	-876
292.228	982
292.286	380
292.343	667
292.401	1428
292.458	625
292.515	95
292.573	425
292.630	151
292.687	-235
292.745	-432
292.802	62
292.859	287
292.917	2974
292.974	1065
293.031	-606
293.089	-42
293.146	-283
293.203	-95
293.260	-18
293.318	-381
293.375	54
293.432	286
293.489	137
293.546	-548
293.604	-478
293.661	580
293.718	4658
293.775	1300
293.832	1046
293.889	-116
293.947	87
294.004	-635
294.061	750
294.118	1092
294.175	2327
294.232	2551
294.289	734
294.346	150
294.403	953
294.460	-309
294.517	723
294.574	-296
294.631	1172
294.688	30
294.745	1405
294.802	4268
294.859	4729
294.916	1447
294.973	679
295.030	-506
295.087	791
295.144	-362
295.201	378
295.258	609
295.315	-43
295.372	1313
295.429	3513
295.486	475
295.542	603
295.599	2073
295.656	3745
295.713	1559
295.770	3772
295.827	1185
295.883	736
295.940	349
295.997	704
296.054	342
296.111	-28
296.167	406
296.224	-128
296.281	-471
296.338	127
296.394	103
296.451	431
296.508	1906
296.564	3248
296.621	2149
296.678	4707
296.734	6226
296.791	1551
296.848	874
296.904	1053
296.961	3280
297.018	4980
297.074	3014
297.131	1394
297.187	647
297.244	1482
297.301	4122
297.357	7432
297.414	2188
297.470	1079
297.527	177
297.583	1088
297.640	-761
297.696	241
297.753	-259
297.809	126
297.866	-892
297.922	-326
297.979	-554
298.035	-255
298.092	481
298.148	2520
298.204	2025
298.261	1071
298.317	1817
298.374	5113
298.430	2437
298.486	1175
298.543	-68
298.599	774
298.656	276
298.712	1286
298.768	4011
298.824	2513
298.881	654
298.937	-451
298.993	243
299.050	-254
299.106	75
299.162	442
299.218	-96
299.275	-366
299.331	-29
299.387	1717
299.443	5406
299.500	8009
299.556	4371
299.612	1591
299.668	1146
299.724	3207
299.780	4383
299.837	1112
299.893	839
299.949	5591
300.005	7909
300.061	5914
300.117	8926
300.173	4307
300.229	1776
300.285	1355
300.341	1266
300.397	764
300.453	44
300.510	636
300.566	713
300.622	988
300.678	6408
300.734	9877
300.790	6148
300.845	6388
300.901	4807
300.957	6773
301.013	4320
301.069	1353
301.125	1574
301.181	635
301.237	511
301.293	-424
301.349	725
301.405	91
301.461	-132
301.516	348
301.572	3
301.628	103
301.684	603
301.740	1633
301.796	2811
301.851	1525
301.907	2412
301.963	3875
302.019	4826
302.074	14283
302.130	14406
302.186	6176
302.242	2816
302.297	1423
302.353	993
302.409	3000
302.464	2066
302.520	2751
302.576	4884
302.631	6989
302.687	3258
302.743	1482
302.798	546
302.854	432
302.910	441
302.965	1293
303.021	1966
303.076	1551
303.132	1735
303.187	2781
303.243	1065
303.299	-264
303.354	-101
303.410	513
303.465	447
303.521	524
303.576	787
303.632	997
303.687	1549
303.743	4445
303.798	4208
303.853	1760
303.909	563
303.964	885
304.020	1467
304.075	1881
304.130	1573
304.186	3450
304.241	3978
304.297	2455
304.352	1170
304.358	1167
304.407	1141
304.449	1030
304.463	992
304.518	750
304.539	738
304.573	715
304.629	717
304.630	724
304.684	1074
304.720	2548
304.739	3289
304.794	4954
304.811	4436
304.850	3156
304.902	852
304.905	701
304.960	728
304.992	321
305.015	19
305.071	1086
305.083	833
305.126	-72
305.173	268
305.181	333
305.236	-13
305.264	6
305.292	19
305.347	848
305.354	888
305.402	1165
305.445	583
305.457	401
305.512	1210
305.535	974
305.567	627
305.622	926
305.626	989
305.678	2274
305.716	4275
305.733	5046
305.788	5572
305.807	5192
305.843	4492
305.897	4673
305.898	4674
305.953	5262
305.988	3618
306.008	2602
306.063	2107
306.078	1710
306.118	843
306.168	916
306.173	916
306.228	513
306.259	407
306.283	382
306.338	194
306.349	287
306.393	638
306.440	814
306.448	849
306.503	1338
306.530	893
306.558	569
306.613	2189
306.620	2347
306.668	3472
306.711	5068
306.723	5312
306.778	4068
306.801	3171
306.833	2155
306.888	1008
306.892	1046
306.943	1657
306.982	920
306.997	620
307.052	612
307.072	429
307.107	167
307.162	689
307.163	692
307.217	1416
307.253	1322
307.272	1153
307.327	1058
307.343	1186
307.381	1344
307.434	1066
307.436	1095
307.491	2021
307.524	3141
307.546	3578
307.600	4211
307.614	3863
307.655	2345
307.704	960
307.710	920
307.765	1083
307.795	1651
307.819	1953
307.874	1950
307.885	2028
307.929	2578
307.975	2858
307.984	2976
308.038	4597
308.065	5822
308.093	9346
308.148	19347
308.156	21691
308.202	35515
308.246	43610
308.257	42687
308.312	25983
308.336	19034
308.366	14027
308.421	7826
308.426	7376
308.475	5079
308.517	3825
308.530	3487
308.585	2849
308.607	2405
308.639	2158
308.694	2592
308.697	2601
308.748	2907
308.787	3344
308.803	3373
308.857	2988
308.877	2905
308.912	3032
308.967	3130
308.967	3140
309.021	5074
309.058	6340
309.076	7704
309.130	13436
309.148	15904
309.185	26571
309.238	44944
309.239	45134
309.293	53062
309.328	51493
309.348	45584
309.402	24125
309.418	19000
309.457	13390
309.508	7947
309.511	7780
309.566	6881
309.598	6272
309.620	6794
309.674	9170
309.688	9769
309.729	9162
309.778	7149
309.783	6950
309.837	4862
309.868	3902
309.892	4433
309.946	6053
309.959	6623
310.001	8742
310.049	10628
310.055	10357
310.109	6978
310.139	4885
310.163	3955
310.218	2794
310.229	2511
310.272	2215
310.319	2231
310.326	2099
310.381	1050
310.409	538
310.435	852
310.489	1445
310.499	1568
310.543	1534
310.589	1404
310.598	1420
310.652	1529
310.679	1562
310.706	1378
310.760	1073
310.769	988
310.814	1148
310.859	1556
310.868	1480
310.923	833
310.948	540
310.977	911
311.031	1647
311.038	1749
311.085	1225
311.128	555
311.139	686
311.193	1574
311.218	1901
311.247	1804
311.301	1775
311.308	1741
311.356	1650
311.398	1710
311.410	1761
311.464	1798
311.488	1854
311.518	1728
311.572	1453
311.578	1424
311.626	1929
311.668	2292
311.680	2283
311.734	2270
311.758	2237
311.788	2147
311.842	1996
311.847	1975
311.896	2018
311.937	2050
311.950	1963
312.004	1562
312.027	1393
312.058	1708
312.112	2256
312.117	2306
312.165	2595
312.207	2831
312.297	2427
312.386	2332
312.476	2074
312.566	3030
312.656	2600
312.745	1814
312.835	1354
312.925	1287
313.015	2426
313.104	2602
313.194	2042
313.284	2510
313.374	2737
313.463	3138
313.553	2251
313.643	1808
313.732	2003
313.822	1694
313.912	1932
314.001	3172
314.091	2504
314.180	2831
314.270	3455
314.360	2312
314.449	2449
314.539	1815
314.628	2006
314.718	1576
314.808	3010
314.897	1887
314.987	3006
315.076	2722
315.166	3233
315.255	2634
315.345	2817
315.434	2212
315.524	2845
315.613	2713
315.703	3303
315.792	4341
315.881	11216
315.971	4805
316.060	4020
316.150	3375
316.239	3377
316.328	1920
316.418	2358
316.507	1948
316.597	2052
316.686	2029
316.775	2939
316.865	3383
316.954	2694
317.043	2512
317.133	1884
317.222	1452
317.311	1949
317.400	1231
317.490	2825
317.579	2222
317.668	2255
317.757	3094
317.847	6119
317.936	16812
318.025	8189
318.114	5199
318.203	3282
318.293	3716
318.382	7429
318.471	5577
318.560	6894
318.649	7865
318.738	3099
318.828	2453
318.917	2347
319.006	2495
319.095	3431
319.184	7584
319.273	6247
319.362	4031
319.451	2017
319.540	1627
319.629	2902
319.718	4471
319.807	2975
319.896	4083
319.985	10303
320.074	5454
320.163	2660
320.252	2505
320.341	1914
320.430	1843
320.519	2422
320.608	2542
320.697	2488
320.786	2211
320.875	2862
320.964	3610
321.053	4346
321.142	5117
321.230	5782
321.319	4962
321.408	8775
321.497	6290
321.586	4829
321.675	3296
321.764	4212
321.852	2737
321.941	4750
322.030	4147
322.119	3613
322.207	8536
322.296	5542
322.385	4223
322.474	6665
322.562	11270
322.651	8089
322.740	5547
322.829	6018
322.917	4174
323.006	3449
323.095	3129
323.183	2442
323.272	3192
323.361	4264
323.449	8100
323.538	4191
323.626	5779
323.715	4578
323.804	2090
323.892	4526
323.981	4197
324.069	2290
324.158	3134
324.246	3463
324.335	2140
324.424	3711
324.512	2158
324.601	2790
324.689	3932
324.778	5728
324.866	2907
324.954	3186
325.043	1975
325.131	2044
325.220	2765
325.308	3529
325.397	2652
325.485	2335
325.574	1213
325.662	2242
325.750	1973
325.839	2025
325.927	1779
326.015	1874
326.104	1616
326.192	2312
326.280	2026
326.369	1177
326.457	2423
326.545	3256
326.634	2025
326.722	1758
326.810	2031
326.898	1818
326.987	2693
327.075	2917
327.163	3609
327.251	1498
327.340	3034
327.428	5076
327.516	2388
327.604	1912
327.692	1768
327.781	1818
327.869	1923
327.957	2349
328.045	1561
328.133	1735
328.221	1050
328.309	2657
328.397	1657
328.485	2348
328.574	2936
328.662	6071
328.750	4419
328.838	1801
328.926	1989
329.014	1710
329.102	2071
329.190	2313
329.278	2811
329.366	2105
329.454	1964
329.542	1998
329.630	998
329.718	2066
329.806	2287
329.893	2277
329.981	1965
330.069	2624
330.157	3707
330.245	10576
330.333	7476
330.421	1976
330.509	2567
330.597	6710
330.684	3469
330.772	2463
330.860	1420
330.948	2833
331.036	2084
331.123	1620
331.211	1357
331.299	1562
331.387	1749
331.475	2975
331.562	2033
331.650	1970
331.738	1747
331.825	1653
331.913	1743
332.001	1365
332.089	1632
332.176	2247
332.264	2162
332.352	2541
332.439	1907
332.527	698
332.614	859
332.702	1964
332.790	1460
332.877	2422
332.965	3391
333.052	2358
333.140	1498
333.228	3644
333.315	1647
333.403	2746
333.490	2509
333.578	2467
333.665	4950
333.753	2716
333.840	1913
333.928	2994
334.015	3151
334.103	4080
334.190	10241
334.278	5261
334.365	5376
334.452	6326
334.540	3306
334.627	2663
334.715	3848
334.802	4745
334.889	12101
334.977	17812
335.064	10392
335.151	4429
335.239	3197
335.326	2774
335.413	5265
335.501	9330
335.588	3216
335.675	3593
335.762	3638
335.850	4936
335.937	4891
336.024	8463
336.111	19951
336.199	21206
336.286	8412
336.373	3775
336.460	3185
336.547	2509
336.635	2502
336.722	2737
336.809	1528
336.896	2390
336.983	3885
337.070	7520
337.157	11749
337.245	6068
337.332	4284
337.419	2267
337.506	2052
337.593	2102
337.680	3386
337.767	8490
337.854	3628
337.941	3389
338.028	2911
338.115	1865
338.202	1917
338.289	2956
338.376	4963
338.463	3303
338.550	3437
338.637	5764
338.724	1931
338.811	3166
338.898	2196
338.984	1940
339.071	1193
339.158	2463
339.245	3712
339.332	3358
339.419	1858
339.506	2406
339.593	837
339.679	1868
339.766	952
339.853	2119
339.940	2553
340.027	2531
340.113	2186
340.200	2081
340.287	1810
340.374	2498
340.460	3801
340.547	2019
340.634	1792
340.720	6431
340.807	3702
340.894	2117
340.980	2011
341.067	1815
341.154	2720
341.240	2389
341.327	4097
341.414	3188
341.500	2293
341.587	2160
341.674	1672
341.760	2266
341.847	3393
341.933	2673
342.020	1661
342.106	1850
342.193	1423
342.279	2838
342.366	2430
342.452	3221
342.539	1510
342.625	3378
342.712	6199
342.798	3663
342.885	2496
342.971	1361
343.058	1587
343.144	1268
343.230	1894
343.317	1628
343.403	1000
343.490	1785
343.576	1094
343.662	1537
343.749	1227
343.835	2103
343.921	3467
344.008	9185
344.094	24996
344.180	7989
344.267	2950
344.353	6698
344.439	7366
344.525	4816
344.612	2938
344.698	1651
344.784	2138
344.870	2408
344.957	1368
345.043	2614
345.129	2091
345.215	2843
345.301	2496
345.387	2009
345.474	2126
345.560	1585
345.646	1388
345.732	1761
345.818	2030
345.904	2612
345.990	1147
346.076	1536
346.162	2085
346.249	2972
346.335	1607
346.421	2506
346.507	2708
346.593	11165
346.679	3332
346.765	2186
346.851	3161
346.937	2136
347.023	1817
347.108	1979
347.194	2344
347.280	1906
347.366	2097
347.452	5147
347.538	13479
347.624	11431
347.710	7759
347.796	2416
347.882	1690
347.967	1748
348.053	2055
348.139	1723
348.225	2021
348.311	1845
348.397	2056
348.482	3150
348.568	2790
348.654	1838
348.740	4838
348.825	4962
348.911	3569
348.997	5670
349.083	12132
349.168	3337
349.254	1946
349.340	2997
349.425	1257
349.511	1658
349.597	2462
349.682	3611
349.768	8855
349.854	5399
349.939	1589
350.025	2117
350.110	2113
350.196	1646
350.282	1201
350.367	2209
350.453	1991
350.538	2000
350.624	1480
350.709	2950
350.795	775
350.880	2072
350.966	2394
351.051	3356
351.137	1996
351.222	2217
351.308	3876
351.393	8584
351.479	3631
351.564	2382
351.649	2249
351.735	2349
351.820	1684
351.906	1682
351.991	2446
352.076	4137
352.162	7880
352.247	3054
352.332	2043
352.418	3127
352.503	3785
352.588	10813
352.673	9295
352.759	3008
352.844	2722
352.929	1907
353.014	2656
353.100	2783
353.185	2320
353.270	3148
353.355	3312
353.441	2648
353.526	1539
353.611	2750
353.696	3476
353.781	3485
353.866	1441
353.952	2349
354.037	2508
354.122	5672
354.207	4512
354.292	2761
354.377	1513
354.462	2390
354.547	2162
354.632	2151
354.717	2379
354.802	2934
354.887	2004
354.972	2517
355.057	2333
355.142	1724
355.227	2451
355.312	2314
355.397	3711
355.482	8118
355.567	4576
355.652	3750
355.737	3713
355.822	8759
355.907	8311
355.991	3185
356.076	1887
356.161	2405
356.246	2205
356.331	2778
356.416	3371
356.501	11968
356.585	14111
356.670	4018
356.755	3859
356.840	2902
356.924	7617
357.009	28494
357.094	13734
357.179	3655
357.263	3157
357.348	3845
357.433	2782
357.517	3487
357.602	2823
357.687	2581
357.771	2861
357.856	5442
357.941	4726
358.025	6528
358.110	28312
358.195	17051
358.279	3772
358.364	3083
358.448	6003
358.533	16927
358.617	13281
358.702	12711
358.787	5515
358.871	4235
358.956	3332
359.040	2894
359.125	2347
359.209	2407
359.294	2819
359.378	5668
359.462	3644
359.547	3127
359.631	1842
359.716	1431
359.800	2465
359.885	3121
359.969	1710
360.053	3167
360.138	2136
360.222	2229
360.306	2898
360.391	3805
360.475	4134
360.559	7102
360.644	6792
360.728	5466
360.812	7885
360.896	19551
360.981	8604
361.065	4601
361.149	3027
361.233	2575
361.318	2061
361.402	2628
361.486	2940
361.570	2039
361.654	2820
361.739	4185
361.823	11007
361.907	20818
361.991	5897
362.075	3137
362.159	5399
362.243	6901
362.327	10221
362.411	21554
362.495	9751
362.580	3804
362.664	3845
362.748	3679
362.832	4014
362.916	7582
363.000	24354
363.084	55269
363.168	36346
363.252	10653
363.336	4875
363.420	5114
363.503	8810
363.587	11423
363.671	3342
363.755	2914
363.839	4808
363.923	2614
364.007	4687
364.091	5854
364.175	5346
364.258	18729
364.342	28510
364.426	66791
364.510	42293
364.594	12368
364.677	7332
364.761	16221
364.845	15071
364.929	6409
365.013	5436
365.096	4283
365.180	4134
365.264	5036
365.347	13593
365.431	6770
365.515	2268
365.598	2156
365.682	3215
365.766	2534
365.849	2837
365.933	2622
366.017	3736
366.100	3040
366.184	1462
366.267	3101
366.351	3036
366.435	2142
366.518	2501
366.602	3636
366.685	2451
366.769	2743
366.852	3261
366.936	3740
367.019	3163
367.103	2122
367.186	3760
367.270	2598
367.353	2624
367.436	3181
367.520	2103
367.603	3262
367.687	3137
367.770	4079
367.853	3262
367.937	6433
368.020	10060
368.104	3701
368.187	2900
368.270	4370
368.353	5058
368.437	3794
368.520	4043
368.603	4430
368.687	6089
368.770	13739
368.853	3876
368.936	3539
369.020	4238
369.103	2527
369.186	2374
369.269	2103
369.352	3523
369.436	3326
369.519	2830
369.602	1338
369.685	3564
369.768	2318
369.851	2881
369.934	1819
370.018	2387
370.101	2386
370.184	4983
370.267	3602
370.350	4185
370.433	5354
370.516	9659
370.599	15166
370.682	4842
370.765	9902
370.848	9853
370.931	14731
371.014	7411
371.097	2609
371.180	2516
371.263	2816
371.346	1657
371.429	2835
371.511	2090
371.594	2884
371.677	4533
371.760	5095
371.843	4333
371.926	12083
372.009	29856
372.091	15115
372.174	7647
372.257	14735
372.340	8023
372.423	5653
372.505	6092
372.588	4303
372.671	5849
372.754	15059
372.836	8803
372.919	5150
373.002	8897
373.085	4775
373.167	4644
373.250	7615
373.332	14380
373.415	16639
373.498	34170
373.580	15093
373.663	18419
373.746	28772
373.828	7457
373.911	4514
373.993	3014
374.076	7673
374.159	7376
374.241	4976
374.324	12529
374.406	10538
374.489	9630
374.571	29421
374.654	14970
374.736	6613
374.819	17964
374.901	24424
374.983	26624
375.066	7570
375.148	3821
375.231	6103
375.313	13087
375.395	6269
375.478	3252
375.560	3632
375.643	3298
375.725	5773
375.807	19952
375.890	17592
375.972	4212
376.054	4244
376.136	4346
376.219	2998
376.301	6104
376.383	18630
376.465	8888
376.548	5413
376.630	5685
376.712	16064
376.794	8799
376.877	2492
376.959	1817
377.041	2929
377.123	2991
377.205	2324
377.287	1997
377.369	2349
377.452	2069
377.534	1979
377.616	2452
377.698	1974
377.780	2041
377.862	2470
377.944	2334
378.026	1496
378.108	2348
378.190	2334
378.272	1970
378.354	2327
378.436	1387
378.518	2076
378.600	4502
378.682	4167
378.764	9319
378.846	8428
378.928	2365
379.010	4433
379.091	3560
379.173	2908
379.255	1421
379.337	2168
379.419	3947
379.501	13711
379.583	6574
379.664	2638
379.746	2458
379.828	9485
379.910	12522
379.991	12838
380.073	2996
380.155	2301
380.237	2135
380.318	1866
380.400	2329
380.482	2316
380.564	4041
380.645	3042
380.727	3336
380.809	2432
380.890	1732
380.972	2049
381.053	1642
381.135	2190
381.217	3175
381.298	10026
381.380	6418
381.461	4725
381.543	13005
381.624	20749
381.706	5700
381.787	2928
381.869	3049
381.951	6883
382.032	24715
382.113	20860
382.195	4036
382.276	4881
382.358	5201
382.439	14507
382.521	16892
382.602	25149
382.684	12498
382.765	19005
382.846	20408
382.928	31708
383.009	19978
383.090	10726
383.172	35532
383.253	65426
383.334	23341
383.416	22357
383.497	13575
383.578	6261
383.659	8412
383.741	26561
383.822	82081
383.903	48239
383.984	16137
384.066	28662
384.147	20367
384.228	5947
384.309	3471
384.390	3830
384.471	3853
384.553	3519
384.634	3307
384.715	4114
384.796	2943
384.877	2478
384.958	7756
385.039	11574
385.120	5271
385.201	3723
385.282	3109
385.363	3240
385.444	2275
385.525	5180
385.606	13062
385.687	12793
385.768	4120
385.849	4153
385.930	13098
386.011	26346
386.092	9021
386.173	3757
386.254	3230
386.335	2610
386.416	3379
386.496	6205
386.577	11588
386.658	4187
386.739	2868
386.820	2525
386.901	2395
386.981	3319
387.062	3123
387.143	4123
387.224	10212
387.304	12653
387.385	5958
387.466	4212
387.547	5580
387.627	5301
387.708	6383
387.789	16996
387.869	21610
387.950	8575
388.031	2752
388.111	1131
388.192	3536
388.273	4291
388.353	3316
388.434	2848
388.514	3851
388.595	13683
388.676	20198
388.756	11767
388.837	10044
388.917	7422
388.998	1653
389.078	2792
389.159	2221
389.239	1182
389.320	4013
389.400	1969
389.480	3981
389.561	10590
389.641	8101
389.722	2988
389.802	3494
389.883	4413
389.963	12529
390.043	8159
390.124	1475
390.204	5212
390.284	10350
390.365	8253
390.445	6242
390.525	12844
390.605	15183
390.686	7744
390.766	3938
390.846	3214
390.927	1947
391.007	931
391.087	3551
391.167	2056
391.247	1883
391.328	3097
391.408	3354
391.488	2651
391.568	320
391.648	2370
391.728	3971
391.808	4657
391.888	3740
391.969	6727
392.049	10701
392.129	6446
392.209	4962
392.289	13354
392.369	8416
392.449	5706
392.529	4290
392.609	5963
392.689	5821
392.769	12955
392.849	13529
392.929	10459
393.009	17728
393.089	20096
393.169	22534
393.248	54978
393.328	164041
393.408	191636
393.488	78848
393.568	26915
393.648	13790
393.728	8796
393.807	6648
393.887	6708
393.967	5013
394.047	5279
394.127	5778
394.206	8482
394.286	20620
394.366	79331
394.446	99761
394.525	30823
394.605	8960
394.685	6344
394.764	7903
394.844	10997
394.924	11463
395.003	5890
395.083	4001
395.163	4368
395.242	3884
395.322	4546
395.402	2210
395.481	4288
395.561	5003
395.640	13842
395.720	21523
395.799	16869
395.879	12422
395.958	10971
396.038	27871
396.117	103217
396.197	128971
396.276	45757
396.356	15425
396.435	10283
396.515	9344
396.594	10469
396.673	18869
396.753	53671
396.832	152368
396.912	133619
396.991	40484
397.070	15049
397.150	7832
397.229	8072
397.308	12089
397.388	25146
397.467	13867
397.546	5510
397.625	1700
397.705	5036
397.784	3388
397.863	2809
397.942	1758
398.022	2442
398.101	3512
398.180	8484
398.259	5719
398.338	3344
398.417	2620
398.497	1851
398.576	3267
398.655	1552
398.734	2619
398.813	1801
398.892	2809
398.971	9174
399.050	5290
399.129	2062
399.208	2097
399.287	2875
399.366	2056
399.445	2405
399.524	1652
399.603	1207
399.682	2328
399.761	3864
399.840	9615
399.919	9328
399.998	2339
400.077	1720
400.156	1034
400.235	3602
400.313	1699
400.392	890
400.471	5570
400.550	9294
400.629	2883
400.708	2583
400.786	1757
400.865	2297
400.944	2501
401.023	3717
401.102	1286
401.180	1396
401.259	1453
401.338	1173
401.416	2141
401.495	1856
401.574	1816
401.652	1222
401.731	2159
401.810	837
401.888	964
401.967	945
402.046	1405
402.124	2178
402.203	1222
402.281	2063
402.360	1131
402.438	3107
402.517	1361
402.596	1984
402.674	1134
402.753	1928
402.831	2163
402.910	1911
402.988	3202
403.066	11749
403.145	8675
403.223	4371
403.302	10929
403.380	9637
403.459	9197
403.537	4429
403.615	1908
403.694	850
403.772	2160
403.850	1148
403.929	591
404.007	1326
404.085	2693
404.164	1147
404.242	1236
404.320	2515
404.398	2249
404.477	3447
404.555	18007
404.633	18181
404.711	4166
404.789	2412
404.868	1512
404.946	803
405.024	1252
405.102	1814
405.180	484
405.258	214
405.336	1567
405.415	689
405.493	1645
405.571	2200
405.649	1237
405.727	170
405.805	2223
405.883	1848
405.961	1506
406.039	1060
406.117	68
406.195	1315
406.273	2622
406.351	16898
406.429	12407
406.507	2469
406.585	891
406.663	1623
406.740	1840
406.818	1266
406.896	1055
406.974	2124
407.052	833
407.130	9655
407.208	15669
407.285	4099
407.363	1110
407.441	1865
407.519	707
407.596	833
407.674	1218
407.752	3027
407.830	3076
407.907	1215
407.985	564
408.063	1088
408.141	-160
408.218	1999
408.296	785
408.373	1600
408.451	1769
408.529	1733
408.606	560
408.684	1566
408.762	1635
408.839	1354
408.917	1639
408.994	1632
409.072	1495
409.149	1140
409.227	4132
409.304	5353
409.382	5077
409.459	5558
409.537	8547
409.614	6557
409.692	3525
409.769	4496
409.846	7585
409.924	9225
410.001	4675
410.079	4314
410.156	2848
410.233	2542
410.311	1482
410.388	1939
410.465	2346
410.543	2120
410.620	2493
410.697	2685
410.775	2125
410.852	1259
410.929	3154
411.006	4094
411.083	2403
411.161	3306
411.238	3796
411.315	2810
411.392	1857
411.469	3107
411.547	2516
411.624	552
411.701	1341
411.778	1595
411.855	2171
411.932	811
412.009	1276
412.086	1373
412.163	1396
412.240	1216
412.317	1434
412.394	1713
412.471	1227
412.548	1510
412.625	529
412.702	2175
412.779	2780
412.856	2214
412.933	1112
413.010	1815
413.087	2051
413.164	4151
413.241	9078
413.318	1907
413.395	1948
413.471	2151
413.548	1809
413.625	2084
413.702	697
413.779	1278
413.855	1009
413.932	888
414.009	237
414.086	991
414.162	2061
414.239	1996
414.316	3622
414.393	10738
414.469	4624
414.546	1059
414.623	761
414.699	1157
414.776	1481
414.853	1079
414.929	1069
415.006	660
415.082	1167
415.159	503
415.236	1202
415.312	1844
415.389	1646
415.465	1213
415.542	1777
415.618	1005
415.695	1615
415.771	1252
415.848	907
415.924	925
416.000	1235
416.077	1615
416.153	-262
416.230	231
416.306	649
416.383	1083
416.459	1234
416.535	366
416.612	-370
416.688	447
416.764	936
416.841	-162
416.917	578
416.993	1479
417.069	1541
417.146	1431
417.222	2539
417.298	1153
417.374	366
417.451	847
417.527	570
417.603	200
417.679	987
417.755	382
417.831	-145
417.908	1386
417.984	586
418.060	373
418.136	1617
418.212	1657
418.288	929
418.364	1189
418.440	92
418.516	1202
418.592	1307
418.668	1855
418.744	2497
418.820	3103
418.896	450
418.972	436
419.048	689
419.124	1338
419.200	863
419.276	1348
419.352	-8
419.428	798
419.504	577
419.579	969
419.655	1004
419.731	1590
419.807	2051
419.883	3047
419.959	2500
420.034	2736
420.110	1625
420.186	6199
420.262	6270
420.337	1701
420.413	1613
420.489	1086
420.565	2351
420.640	2117
420.716	1960
420.792	692
420.867	2561
420.943	1069
421.019	2536
421.094	2389
421.170	2683
421.245	1623
421.321	2422
421.397	2555
421.472	3726
421.548	3837
421.623	5258
421.699	5163
421.774	5122
421.850	4927
421.925	7002
422.001	7928
422.076	8832
422.152	10520
422.227	14268
422.302	20618
422.378	27950
422.453	46765
422.529	81896
422.604	129233
422.679	129720
422.755	133610
422.830	105264
422.905	62325
422.981	37721
423.056	25356
423.131	18395
423.207	13325
423.282	9829
423.357	10509
423.432	8051
423.508	7769
423.583	6723
423.658	6390
423.733	4763
423.808	4774
423.883	4372
423.959	4568
424.034	4708
424.109	4787
424.184	2780
424.259	2531
424.334	2701
424.409	2506
424.484	2241
424.559	2203
424.634	1489
424.709	710
424.784	2272
424.859	1806
424.934	1193
425.009	4392
425.084	8638
425.159	4018
425.234	2514
425.309	1083
425.384	2120
425.459	3021
425.534	1622
425.609	297
425.683	530
425.758	779
425.833	1420
425.908	1877
425.983	2012
426.058	7344
426.132	3936
426.207	1182
426.282	1875
426.357	517
426.431	959
426.506	1339
426.581	557
426.655	1026
426.730	1126
426.805	227
426.879	946
426.954	1057
427.029	1384
427.103	6003
427.178	16203
427.253	10015
427.327	1637
427.402	505
427.476	2331
427.551	1641
427.625	1001
427.700	1068
427.774	-15
427.849	932
427.923	59
427.998	603
428.072	757
428.147	2126
428.221	8836
428.296	35673
428.370	26113
428.444	3892
428.519	1070
428.593	1303
428.667	2035
428.742	1571
428.816	3350
428.890	18149
428.965	37756
429.039	11754
429.113	2176
429.188	1394
429.262	478
429.336	935
429.410	2990
429.485	3341
429.559	1765
429.633	1210
429.707	613
429.781	1983
429.855	17309
429.930	35164
430.004	11661
430.078	7844
430.152	11827
430.226	41710
430.300	54259
430.374	12127
430.448	2737
430.522	2290
430.596	6919
430.670	8172
430.744	26901
430.818	47228
430.892	10358
430.966	1341
431.040	1314
431.114	101
431.188	-76
431.262	310
431.336	674
431.410	1416
431.484	1345
431.557	2479
431.631	520
431.705	951
431.779	5403
431.853	31877
431.927	28697
432.000	4258
432.074	953
432.148	229
432.222	906
432.295	577
432.369	113
432.443	769
432.516	5198
432.590	16200
432.664	7944
432.737	355
432.811	-255
432.885	-368
432.958	207
433.032	-164
433.106	-491
433.179	433
433.253	-422
433.326	-76
433.400	-770
433.473	-49
433.547	-398
433.620	-9
433.694	-438
433.767	336
433.841	-474
433.914	606
433.988	-278
434.061	233
434.134	61
434.208	-357
434.281	-703
434.355	769
434.428	703
434.501	182
434.575	-614
434.648	-459
434.721	327
434.795	92
434.868	-646
434.941	-247
435.014	17
435.088	239
435.161	-324
435.234	1585
435.307	1341
435.381	1256
435.454	553
435.527	3278
435.600	3778
435.673	3407
435.746	1253
435.819	1175
435.892	718
435.966	1086
436.039	80
436.112	439
436.185	143
436.258	218
436.331	-461
436.404	-144
436.477	277
436.550	200
436.623	221
436.696	171
436.769	183
436.842	400
436.915	216
436.987	356
437.060	-150
437.133	43
437.206	-664
437.279	674
437.352	-441
437.425	-321
437.498	485
437.570	1317
437.643	1961
437.716	213
437.789	-263
437.861	1078
437.934	3506
438.007	1891
438.080	41
438.152	333
438.225	1217
438.298	6712
438.370	23891
438.443	13931
438.516	3533
438.588	1593
438.661	618
438.734	495
438.806	402
438.879	832
438.951	976
439.024	2011
439.096	591
439.169	326
439.241	-336
439.314	-296
439.386	-126
439.459	135
439.531	999
439.604	1516
439.676	451
439.749	843
439.821	-158
439.893	1173
439.966	642
440.038	496
440.110	1161
440.183	-168
440.255	-249
440.327	1374
440.400	2467
440.472	13630
440.544	12983
440.617	2433
440.689	1891
440.761	2460
440.833	2873
440.905	2309
440.978	760
441.050	371
441.122	475
441.194	378
441.266	-466
441.338	202
441.411	202
441.483	5360
441.555	9017
441.627	2606
441.699	1044
441.771	800
441.843	435
441.915	1077
441.987	617
442.059	1411
442.131	861
442.203	1560
442.275	723
442.347	2589
442.419	3430
442.491	18584
442.563	58210
442.635	30842
442.706	6562
442.778	5098
442.850	1263
442.922	1515
442.994	1432
443.066	1546
443.137	2195
443.209	2352
443.281	3050
443.353	6377
443.425	19979
443.496	78795
443.568	102107
443.640	47558
443.711	9556
443.783	3653
443.855	2134
443.926	1818
443.998	1366
444.070	1589
444.141	1027
444.213	1696
444.285	2636
444.356	1406
444.428	879
444.499	1755
444.571	1104
444.642	959
444.714	606
444.785	1478
444.857	816
444.928	1656
445.000	1943
445.071	2103
445.143	2494
445.214	3497
445.285	4555
445.357	11864
445.428	42952
445.500	111050
445.571	93403
445.642	61651
445.714	21551
445.785	8194
445.856	2553
445.928	3069
445.999	1553
446.070	1333
446.141	2148
446.213	2374
446.284	823
446.355	-12
446.426	973
446.497	340
446.569	621
446.640	1305
446.711	1744
446.782	674
446.853	-54
446.924	1006
446.995	-209
447.066	721
447.138	939
447.209	831
447.280	-833
447.351	595
447.422	166
447.493	746
447.564	421
447.635	1168
447.706	391
447.777	-1
447.847	-76
447.918	-164
447.989	-125
448.060	823
448.131	611
448.202	1252
448.273	1324
448.344	1261
448.414	847
448.485	-86
448.556	1383
448.627	-195
448.698	337
448.768	-134
448.839	42
448.910	840
448.981	541
449.051	513
449.122	678
449.193	218
449.263	-477
449.334	1186
449.405	632
449.475	2423
449.546	1862
449.616	1889
449.687	883
449.758	549
449.828	-259
449.899	674
449.969	-435
450.040	40
450.110	360
450.181	958
450.251	307
450.322	941
450.392	1265
450.463	-31
450.533	167
450.604	545
450.674	80
450.744	583
450.815	718
450.885	168
450.955	182
451.026	678
451.096	162
451.166	173
451.237	576
451.307	2287
451.377	1726
451.447	587
451.518	-420
451.588	-1
451.658	594
451.728	805
451.799	1719
451.869	2153
451.939	393
452.009	1142
452.079	978
452.149	978
452.219	515
452.289	2328
452.360	1333
452.430	274
452.500	967
452.570	1312
452.640	3336
452.710	8525
452.780	11296
452.850	6217
452.920	3521
452.990	2237
453.060	1153
453.129	273
453.199	363
453.269	2247
453.339	5324
453.409	8425
453.479	7278
453.549	9685
453.619	9997
453.688	4737
453.758	1463
453.828	706
453.898	917
453.968	771
454.037	797
454.087	888
454.107	916
454.168	195
454.177	80
454.247	730
454.249	712
454.316	-57
454.330	74
454.386	579
454.411	657
454.456	684
454.492	1391
454.525	2003
454.574	1352
454.595	1079
454.655	947
454.665	922
454.734	687
454.736	711
454.804	1179
454.817	1354
454.873	1956
454.898	2213
454.943	2645
454.979	1868
455.013	1183
455.060	1072
455.082	1002
455.141	975
455.152	959
455.221	1701
455.222	1730
455.291	2614
455.303	2374
455.360	1285
455.384	932
455.430	318
455.465	827
455.499	1279
455.546	1752
455.569	1883
455.627	1808
455.638	1807
455.707	874
455.708	885
455.777	1130
455.789	1161
455.846	1136
455.869	1237
455.916	1445
455.950	925
455.985	415
456.031	648
456.054	783
456.112	755
456.124	712
456.193	1643
456.193	1637
456.262	738
456.274	908
456.332	1599
456.355	1328
456.401	805
456.436	858
456.470	886
456.516	630
456.540	454
456.597	588
456.609	610
456.678	1126
456.678	1118
456.747	539
456.759	643
456.817	1448
456.840	1497
456.886	1193
456.920	1249
456.955	1501
457.001	1000
457.024	720
457.082	959
457.093	966
457.162	1789
457.163	1795
457.232	953
457.243	1002
457.301	1304
457.324	1264
457.370	1092
457.405	1225
457.439	1477
457.485	1792
457.508	1826
457.566	2309
457.577	2480
457.646	2457
457.647	2483
457.715	5360
457.727	5885
457.784	10328
457.808	13368
457.853	16618
457.889	20563
457.922	20881
457.969	12968
457.991	12735
458.050	15279
458.060	15937
458.129	28226
458.130	28641
458.198	29424
458.211	26492
458.267	14842
458.292	9747
458.336	5192
458.372	4978
458.405	7581
458.453	11684
458.474	15123
458.533	27913
458.543	28887
458.611	46105
458.614	46486
458.680	30340
458.694	23620
458.749	10274
458.775	7047
458.818	3521
458.855	2831
458.887	2417
458.936	1929
458.955	1822
459.016	1892
459.024	1884
459.093	1890
459.097	1883
459.162	1939
459.177	2120
459.230	2421
459.257	2409
459.299	2698
459.338	2793
459.368	2791
459.418	3043
459.437	2962
459.499	2486
459.505	2476
459.574	2909
459.579	2870
459.643	1992
459.659	1889
459.711	1696
459.740	1952
459.780	2325
459.820	1954
459.849	1819
459.900	2196
459.917	2246
459.981	2528
459.986	2528
460.054	2346
460.061	2338
460.123	2622
460.141	2686
460.191	2784
460.222	2705
460.260	2539
460.302	2790
460.328	2693
460.382	2060
460.397	2120
460.462	2419
460.465	2406
460.534	2676
460.543	2687
460.602	4551
460.623	5222
460.671	7779
460.703	10236
460.739	9690
460.783	8414
460.808	7467
460.864	3135
460.876	2835
460.944	2338
460.945	2329
461.013	3301
461.024	3255
461.081	2645
461.104	2707
461.150	2741
461.184	2474
461.218	2616
461.264	3221
461.286	3159
461.345	2398
461.355	2323
461.423	2288
461.425	2281
461.491	2150
461.505	2250
461.559	2905
461.585	3039
461.628	3442
461.665	4055
461.696	4593
461.745	5293
461.764	4863
461.825	3196
461.832	3197
461.901	2732
461.905	2728
461.969	2333
461.985	2310
462.037	2504
462.065	2688
462.105	2953
462.145	3121
462.173	3402
462.225	3529
462.241	3447
462.305	3826
462.310	3822
462.378	3416
462.385	3346
462.446	2677
462.465	2574
462.514	2974
462.545	2975
462.582	2469
462.625	2155
462.650	2348
462.705	2660
462.718	2680
462.785	2749
462.786	2749
462.854	2591
462.865	2642
462.922	3434
462.945	3619
462.990	3285
463.025	3016
463.058	2770
463.104	2252
463.126	2088
463.184	1974
463.194	2069
463.262	2389
463.264	2421
463.330	2688
463.344	2614
463.398	3048
463.424	3252
463.466	2616
463.504	2157
463.533	2362
463.583	2726
463.601	2740
463.663	2630
463.669	2693
463.737	3483
463.743	3557
463.805	3549
463.823	3498
463.873	4611
463.903	5391
463.940	5195
463.982	4931
464.008	4450
464.062	3299
464.076	3192
464.142	2710
464.144	2733
464.211	3370
464.221	3486
464.279	3582
464.301	3502
464.347	2860
464.381	2688
464.414	3257
464.461	3695
464.482	3604
464.540	3472
464.550	3439
464.617	3168
464.620	3158
464.685	4116
464.699	4288
464.753	5604
464.779	6250
464.820	7239
464.859	8442
464.888	7884
464.938	6566
464.956	6659
465.018	6818
465.023	6714
465.091	5136
465.098	4981
465.158	5559
465.177	5829
465.226	5886
465.257	5713
465.293	5704
465.336	5803
465.361	5843
465.416	5865
465.428	5930
465.495	6362
465.496	6377
465.563	7237
465.575	7383
465.631	8271
465.654	8641
465.698	6955
465.734	5520
465.765	5483
465.813	5311
465.833	5436
465.893	5877
465.900	5823
465.968	5244
465.972	5201
466.035	5459
466.052	5512
466.102	5515
466.131	5461
466.170	5599
466.210	5800
466.237	5644
466.290	5259
466.304	5279
466.369	5250
466.372	5259
466.439	5353
466.449	5353
466.506	5838
466.528	6000
466.573	6458
466.607	6773
466.641	7487
466.687	8517
466.708	8966
466.766	10092
466.775	9755
466.842	7160
466.845	7021
466.909	6838
466.925	6799
466.977	5755
467.004	5185
467.044	5968
467.083	6743
467.111	8150
467.163	10738
467.178	11074
467.242	12416
467.245	12303
467.312	9526
467.321	9143
467.379	8854
467.400	8728
467.446	9041
467.480	9242
467.559	8928
467.638	7619
467.717	8000
467.796	7780
467.875	7862
467.955	8914
468.034	9441
468.113	11889
468.192	15627
468.271	10163
468.350	10540
468.429	14350
468.508	15742
468.588	12109
468.667	8585
468.746	7952
468.825	7519
468.904	6549
468.983	7216
469.062	8297
469.141	8579
469.220	6873
469.299	7970
469.378	8140
469.456	10871
469.535	10087
469.614	8660
469.693	7859
469.772	8788
469.851	9536
469.930	9104
470.009	8121
470.088	7506
470.166	9190
470.245	9202
470.324	9834
470.403	8706
470.482	8055
470.560	7735
470.639	7557
470.718	8019
470.797	7159
470.875	7589
470.954	8170
471.033	8382
471.111	6428
471.190	6825
471.269	7142
471.347	6287
471.426	6935
471.505	8048
471.583	10065
471.662	9770
471.740	8268
471.819	8509
471.898	7715
471.976	7960
472.055	7431
472.133	7611
472.212	8356
472.290	8628
472.369	7184
472.447	8023
472.526	7399
472.604	7837
472.683	7264
472.761	7746
472.839	7154
472.918	7648
472.996	6425
473.075	6846
473.153	8279
473.231	6949
473.310	7133
473.388	7338
473.466	7121
473.545	8389
473.623	8910
473.701	8743
473.780	8613
473.858	6553
473.936	8587
474.014	7110
474.093	7742
474.171	8156
474.249	7902
474.327	6888
474.405	6562
474.484	6668
474.562	6846
474.640	6459
474.718	6750
474.796	6771
474.874	7594
474.952	6241
475.030	6602
475.108	6194
475.187	6259
475.265	6253
475.343	7193
475.421	8403
475.499	6149
475.577	6848
475.655	7063
475.733	7708
475.811	10144
475.889	8990
475.966	7855
476.044	5993
476.122	6773
476.200	7055
476.278	5945
476.356	5602
476.434	6313
476.512	6124
476.590	6756
476.667	6568
476.745	5252
476.823	6503
476.901	6589
476.979	6272
477.056	5992
477.134	6115
477.212	6423
477.290	5818
477.367	5299
477.445	5610
477.523	5097
477.601	5506
477.678	5272
477.756	4612
477.834	5822
477.911	5683
477.989	4451
478.066	5382
478.144	5145
478.222	5544
478.299	5435
478.377	5998
478.454	5999
478.532	4980
478.609	5762
478.687	6089
478.764	4950
478.842	5531
478.919	4346
478.997	4839
479.074	5459
479.152	5590
479.229	5738
479.307	5284
479.384	5127
479.461	4464
479.539	5349
479.616	5476
479.694	4678
479.771	5341
479.848	5435
479.926	4528
480.003	5728
480.080	4968
480.157	4984
480.235	5084
480.312	5277
480.389	4653
480.467	5271
480.544	6100
480.621	5296
480.698	4704
480.775	4693
480.853	5567
480.930	4914
481.007	5126
481.084	4876
481.161	4423
481.238	5344
481.315	4946
481.392	4029
481.470	4343
481.547	4780
481.624	4853
481.701	4000
481.778	4446
481.855	5345
481.932	5405
482.009	6740
482.086	5892
482.163	5170
482.240	6166
482.317	7776
482.393	6422
482.470	5968
482.547	5240
482.624	5161
482.701	5586
482.778	4484
482.855	4282
482.932	4919
483.009	3711
483.085	5511
483.162	5470
483.239	6201
483.316	5609
483.393	6430
483.469	5135
483.546	5535
483.623	5220
483.699	5083
483.776	4972
483.853	5728
483.930	5293
484.006	7635
484.083	13005
484.160	19157
484.236	36815
484.313	30054
484.389	20625
484.466	19127
484.543	18296
484.619	18248
484.696	20122
484.772	18346
484.849	17832
484.925	16211
485.002	15909
485.078	16133
485.155	16359
485.231	14323
485.308	14917
485.384	14881
485.461	14742
485.537	16241
485.614	17165
485.690	14408
485.766	13944
485.843	14151
485.919	15197
485.995	14984
486.072	13121
486.148	13143
486.224	12643
486.301	13482
486.377	13982
486.453	13749
486.530	15201
486.606	20744
486.682	22884
486.758	19870
486.835	18799
486.911	16871
486.987	18841
487.063	20561
487.139	22822
487.215	20523
487.292	16721
487.368	17115
487.444	18382
487.520	20987
487.596	24166
487.672	38211
487.748	104709
487.824	164199
487.900	51938
487.976	20142
488.052	16244
488.128	16983
488.204	15456
488.280	13779
488.356	14126
488.432	16264
488.508	18072
488.584	13284
488.660	11878
488.736	12691
488.812	12840
488.888	14737
488.964	16305
489.039	19210
489.115	24616
489.191	19027
489.267	12158
489.343	11598
489.418	12181
489.494	11508
489.570	10896
489.646	12304
489.722	11668
489.797	10838
489.873	11837
489.949	14068
490.024	13726
490.100	9585
490.176	10818
490.251	10885
490.327	12025
490.403	10638
490.478	10135
490.554	10070
490.629	9357
490.705	9855
490.781	10450
490.856	9217
490.932	10325
491.007	9545
491.083	9551
491.158	9473
491.234	9753
491.309	10800
491.385	11321
491.460	8963
491.536	8698
491.611	9105
491.686	8977
491.762	9625
491.837	11613
491.913	16920
491.988	19189
492.063	24705
492.139	10277
492.214	8696
492.289	8534
492.365	7589
492.440	9119
492.515	6919
492.590	7593
492.666	7008
492.741	7317
492.816	8417
492.891	6657
492.967	6942
493.042	5975
493.117	6905
493.192	8083
493.267	7213
493.342	8655
493.418	7460
493.493	7171
493.568	6444
493.643	6811
493.718	7599
493.793	6714
493.868	9742
493.943	7662
494.018	6995
494.093	6144
494.168	7158
494.243	6421
494.318	6938
494.393	6705
494.468	5993
494.543	6580
494.618	6130
494.693	6297
494.768	5887
494.842	6264
494.917	6181
494.992	7103
495.067	5108
495.142	6617
495.217	6508
495.292	5760
495.366	5781
495.441	6937
495.516	8298
495.591	7998
495.665	16754
495.740	35657
495.815	17125
495.890	6505
495.964	4827
496.039	7308
496.114	6283
496.188	5531
496.263	6296
496.338	6213
496.412	5596
496.487	7063
496.561	5669
496.636	6205
496.710	6439
496.785	5095
496.860	6512
496.934	5523
497.009	5295
497.083	5558
497.158	6061
497.232	5474
497.307	6138
497.381	6410
497.455	5740
497.530	7148
497.604	5959
497.679	5284
497.753	7505
497.827	7883
497.902	6861
497.976	8551
498.050	14932
498.125	45974
498.199	51437
498.273	10720
498.348	7851
498.422	7397
498.496	6346
498.570	7579
498.645	5155
498.719	5219
498.793	6193
498.867	6564
498.941	8503
499.016	18658
499.090	50903
499.164	21505
499.238	5860
499.312	5225
499.386	7042
499.460	6999
499.534	5140
499.609	6337
499.683	8064
499.757	7302
499.831	9331
499.905	31515
499.979	31700
500.053	8297
500.127	6689
500.201	6853
500.275	6029
500.349	5964
500.422	6165
500.496	7430
500.570	11367
500.644	19908
500.718	33676
500.792	11231
500.866	4873
500.940	6559
501.013	5600
501.087	5094
501.161	7994
501.235	8032
501.309	11784
501.382	25891
501.456	26465
501.530	7858
501.603	10477
501.677	6977
501.751	3741
501.825	5474
501.898	6191
501.972	12684
502.046	8327
502.119	4666
502.193	7400
502.266	12240
502.340	7329
502.413	7275
502.487	10928
502.561	7540
502.634	5220
502.708	5264
502.781	4418
502.855	4303
502.928	3445
503.002	4044
503.075	3522
503.149	3687
503.222	4163
503.295	3883
503.369	4624
503.442	5570
503.516	9067
503.589	19366
503.662	13908
503.736	7762
503.809	12509
503.882	12206
503.956	17952
504.029	24272
504.102	52551
504.175	86686
504.249	28726
504.322	10589
504.395	6711
504.468	6278
504.542	4764
504.615	4083
504.688	4664
504.761	3053
504.834	5422
504.907	4488
504.980	6072
505.053	4228
505.127	4063
505.200	7299
505.273	3501
505.346	4254
505.419	3308
505.492	4071
505.565	3589
505.638	2904
505.711	3164
505.784	2935
505.857	3063
505.930	5155
506.003	2940
506.076	4781
506.149	3672
506.221	3399
506.294	5059
506.367	5658
506.440	14636
506.513	10369
506.586	4288
506.659	4403
506.731	3156
506.804	3146
506.877	3748
506.950	3680
507.022	3700
507.095	2665
507.168	4164
507.241	3949
507.313	3310
507.386	3485
507.459	3806
507.531	4082
507.604	3258
507.677	4555
507.749	3200
507.822	5768
507.894	8383
507.967	15065
508.040	9406
508.112	8479
508.185	6987
508.257	5666
508.330	8542
508.402	6445
508.475	5980
508.547	7339
508.620	5545
508.692	7046
508.765	5917
508.837	6186
508.909	5424
508.982	5392
509.054	6166
509.127	5343
509.199	5780
509.271	5054
509.344	4731
509.416	5427
509.488	5917
509.560	5412
509.633	5627
509.705	5553
509.777	5335
509.849	6349
509.922	4994
509.994	5593
510.066	6365
510.138	5574
510.210	15023
510.283	13911
510.355	10643
510.427	9652
510.499	8851
510.571	8310
510.643	7589
510.715	10780
510.787	8559
510.859	8517
510.931	7795
511.003	9208
511.076	9810
511.148	7678
511.219	6473
511.291	7785
511.363	8656
511.435	7161
511.507	6710
511.579	6967
511.651	6907
511.723	6571
511.795	6395
511.867	6755
511.939	6480
512.010	7626
512.082	7643
512.154	5508
512.226	6574
512.298	10520
512.369	15082
512.441	12789
512.513	10428
512.585	8092
512.656	8762
512.728	7928
512.800	8136
512.871	8832
512.943	7679
513.015	7073
513.086	8088
513.158	7440
513.230	7099
513.301	7260
513.373	9571
513.444	7647
513.516	6788
513.588	7754
513.659	6907
513.731	7139
513.802	6327
513.874	9920
513.945	12237
514.016	7112
514.088	6471
514.159	7433
514.231	8668
514.302	12549
514.374	11813
514.445	7825
514.516	11780
514.588	9002
514.659	7767
514.730	9390
514.802	9261
514.873	6133
514.944	9430
515.016	7707
515.087	8349
515.158	7698
515.229	9071
515.301	6930
515.372	8254
515.443	6638
515.514	7153
515.585	6720
515.656	7630
515.728	6941
515.799	6057
515.870	7691
515.941	6817
516.012	6806
516.083	10534
516.154	9834
516.225	10757
516.296	9977
516.367	9066
516.438	8009
516.509	9129
516.580	11525
516.651	22569
516.722	69237
516.793	39059
516.864	12008
516.935	11983
517.006	12290
517.077	13888
517.148	24629
517.219	72869
517.289	124171
517.360	30078
517.431	13542
517.502	7415
517.573	8382
517.643	7810
517.714	8732
517.785	10306
517.856	9538
517.926	10301
517.997	10647
518.068	11527
518.138	14888
518.209	17927
518.280	49747
518.350	189147
518.421	80762
518.492	16191
518.562	13404
518.633	14779
518.703	16589
518.774	33042
518.845	95488
518.915	105536
518.986	26662
519.056	14321
519.127	14147
519.197	15851
519.268	21930
519.338	17109
519.408	8763
519.479	9324
519.549	7164
519.620	7642
519.690	6396
519.760	6775
519.831	6905
519.901	5658
519.971	5858
520.042	6201
520.112	6124
520.182	7400
520.253	7739
520.323	6125
520.393	6336
520.463	8846
520.534	4141
520.604	9088
520.674	6562
520.744	5514
520.814	7358
520.885	9385
520.955	8847
521.025	20945
521.095	11236
521.165	6198
521.235	5527
521.305	5176
521.375	6240
521.445	6065
521.515	5754
521.585	6583
521.655	5665
521.725	7279
521.795	7221
521.865	3644
521.935	8081
522.005	5964
522.075	5471
522.145	6193
522.215	4507
522.285	6324
522.355	6191
522.424	8666
522.494	7602
522.564	7366
522.634	8496
522.704	21074
522.774	10961
522.843	6599
522.913	5041
522.983	5961
523.053	5467
523.122	6002
523.192	5943
523.262	10496
523.331	11053
523.401	6040
523.471	5107
523.540	6044
523.610	3944
523.680	5743
523.749	5522
523.819	5420
523.888	4641
523.958	5104
524.027	5631
524.097	4974
524.166	5469
524.236	3609
524.305	6716
524.375	5878
524.444	4264
524.514	6677
524.583	5029
524.653	5128
524.722	5635
524.791	3864
524.861	5452
524.930	5308
524.999	4972
525.069	6000
525.138	5447
525.207	5251
525.277	5605
525.346	5679
525.415	6041
525.484	5937
525.554	6278
525.623	7432
525.692	7138
525.761	8371
525.830	11149
525.900	12772
525.969	18738
526.038	32264
526.107	59634
526.176	191087
526.245	166585
526.314	46472
526.383	89739
526.452	136288
526.522	186473
526.591	204491
526.660	34912
526.729	21186
526.797	24724
526.867	35023
526.935	113571
527.004	335895
527.073	227538
527.142	24978
527.211	10916
527.280	9250
527.349	7854
527.418	5285
527.487	7554
527.555	4588
527.624	4941
527.693	4894
527.762	6390
527.831	4679
527.899	5241
527.968	5756
528.037	3904
528.106	5819
528.174	6241
528.243	5910
528.312	5606
528.380	7392
528.449	4018
528.518	6050
528.586	4112
528.655	5380
528.723	4552
528.792	4747
528.861	4521
528.929	3158
528.998	5053
529.066	5003
529.135	5225
529.203	4941
529.272	3537
529.340	5999
529.409	6178
529.477	3351
529.545	4132
529.614	6725
529.682	4008
529.751	5393
529.819	7768
529.887	5702
529.956	5099
530.024	6133
530.092	4993
530.161	6159
530.229	6853
530.297	5278
530.365	6368
530.434	5419
530.502	4283
530.570	6097
530.638	4118
530.707	6353
530.775	5651
530.843	5035
530.911	5194
530.979	5101
531.047	5684
531.115	5486
531.183	5656
531.252	6096
531.320	5018
531.388	4603
531.456	6043
531.524	4176
531.592	6572
531.660	6531
531.728	5035
531.796	5370
531.864	4686
531.932	5027
532.000	4704
532.067	4862
532.135	6758
532.203	6691
532.271	5471
532.339	7620
532.407	11364
532.475	9635
532.542	7298
532.610	8061
532.678	7256
532.746	18609
532.814	48167
532.881	17334
532.949	7934
533.017	6843
533.084	6280
533.152	5721
533.220	5452
533.287	5749
533.355	6330
533.423	6387
533.490	5135
533.558	6273
533.625	7220
533.693	6982
533.761	6794
533.828	7525
533.896	6036
533.963	9139
534.031	8959
534.098	11536
534.166	8934
534.233	7470
534.300	8941
534.368	9679
534.435	8148
534.503	9635
534.570	9481
534.637	9660
534.705	11916
534.772	12700
534.840	20574
534.907	78844
534.974	119925
535.041	18680
535.109	8720
535.176	7956
535.243	8698
535.310	7636
535.378	7359
535.445	8372
535.512	9067
535.579	8403
535.646	8042
535.714	7872
535.781	10340
535.848	10050
535.915	9743
535.982	8527
536.049	8629
536.116	10247
536.183	7724
536.250	7638
536.317	8333
536.384	9279
536.451	10182
536.518	10037
536.585	8573
536.652	11468
536.719	10751
536.786	8975
536.853	10320
536.920	11001
536.987	11310
537.053	11683
537.120	26885
537.187	29112
537.254	10128
537.321	8921
537.388	10242
537.454	8044
537.521	9098
537.588	9167
537.654	11458
537.721	10914
537.788	11971
537.855	10100
537.921	10281
537.988	10365
538.055	10553
538.121	8805
538.188	9399
538.254	10359
538.321	11223
538.388	10777
538.454	10066
538.521	10322
538.587	10537
538.654	9979
538.720	10200
538.787	10231
538.853	10053
538.920	9957
538.986	9808
539.053	8818
539.119	10585
539.185	10329
539.252	11155
539.318	10911
539.385	11902
539.451	11803
539.517	12206
539.583	13053
539.650	13859
539.716	24539
539.782	14257
539.849	10597
539.915	10722
539.981	9690
540.047	10679
540.114	10882
540.180	11537
540.246	10551
540.312	11855
540.378	12852
540.444	14896
540.510	14856
540.576	25391
540.643	15334
540.709	9870
540.775	10779
540.841	11128
540.907	11875
540.973	12746
541.039	12160
541.105	13401
541.171	12060
541.237	10619
541.303	11987
541.369	13268
541.435	12438
541.500	12501
541.566	10507
541.632	9830
541.698	10155
541.764	11518
541.830	11198
541.896	9868
541.961	11466
542.027	10358
542.093	11735
542.159	12647
542.224	11175
542.290	12701
542.356	13148
542.421	14262
542.487	11997
542.553	10429
542.618	11763
542.684	11464
542.750	10955
542.815	12539
542.881	12456
542.947	22209
543.012	24482
543.078	11435
543.143	10267
543.209	11740
543.274	11175
543.340	11424
543.405	14371
543.471	18589
543.536	12560
543.602	11614
543.667	10010
543.732	12489
543.798	10792
543.863	11294
543.928	11269
543.994	10992
544.059	11370
544.124	12050
544.190	11949
544.255	12543
544.320	12665
544.386	11081
544.451	13224
544.516	13108
544.581	13165
544.646	18197
544.712	27403
544.777	14768
544.842	12200
544.907	12525
544.972	12083
545.037	12998
545.102	13656
545.168	12702
545.233	13059
545.298	14777
545.363	14133
545.428	15305
545.493	17571
545.558	23610
545.623	17616
545.688	14416
545.753	13664
545.818	15003
545.883	15412
545.947	15664
546.012	17315
546.077	16608
546.142	18196
546.207	17332
546.272	18856
546.337	17377
546.401	19574
546.466	19763
546.531	19222
546.596	21536
546.661	21606
546.725	22982
546.790	22636
546.855	25157
546.919	26139
546.984	29040
547.049	31108
547.113	35134
547.178	38255
547.243	42712
547.307	48489
547.372	54083
547.436	53895
547.501	56133
547.565	60951
547.630	57612
547.695	53799
547.759	54598
547.823	54785
547.888	55708
547.952	57346
548.017	60111
548.081	60688
548.146	60559
548.210	61455
548.274	66696
548.339	66292
548.403	61383
548.468	57090
548.532	56674
548.596	58622
548.660	57967
548.725	61866
548.789	68487
548.853	67286
548.917	64529
548.982	63777
549.046	57986
549.110	53091
549.174	53330
549.238	59606
549.303	65912
549.367	70791
549.431	67005
549.495	63011
549.559	62300
549.623	70801
549.687	77905
549.751	78800
549.815	89571
549.879	94329
549.943	88027
550.007	93084
550.071	92234
550.135	86539
550.199	81276
550.263	80906
550.327	77122
550.391	77137
550.455	83799
550.519	90499
550.582	93622
550.646	105979
550.710	109216
550.774	105814
550.838	107662
550.901	109888
550.965	116296
551.029	118111
551.093	125107
551.156	130375
551.220	138501
551.284	151679
551.347	130690
551.411	119146
551.475	115152
551.538	119475
551.602	116309
551.666	109713
551.729	104340
551.793	102180
551.856	100906
551.920	98602
551.983	99310
552.047	97401
552.110	98668
552.174	97987
552.237	103394
552.301	97263
552.364	93387
552.428	91174
552.491	93348
552.554	95020
552.618	95703
552.681	97231
552.745	93218
552.808	95708
552.871	101716
552.934	99630
552.998	96112
553.061	93792
553.124	91938
553.187	91394
553.251	93348
553.314	95965
553.377	95107
553.440	100966
553.503	103285
553.567	105044
553.630	105096
553.693	105766
553.756	107943
553.819	107639
553.882	106432
553.945	104904
554.008	106334
554.071	105922
554.134	108801
554.197	105748
554.260	102364
554.323	104071
554.386	104735
554.449	108191
554.512	108537
554.575	103093
554.638	101763
554.701	99800
554.764	103138
554.827	98577
554.889	96509
554.952	93126
555.015	89857
555.078	92474
555.141	90818
555.203	89786
555.266	87165
555.329	90134
555.391	87092
555.454	85741
555.517	82878
555.580	78221
555.642	76371
555.705	75407
555.768	74960
555.830	73986
555.893	71001
555.955	67597
556.018	65707
556.080	65944
556.143	66846
556.206	67211
556.268	65530
556.330	64637
556.393	62951
556.455	60820
556.518	60017
556.580	58824
556.643	55908
556.705	54465
556.767	54111
556.830	54243
556.892	52293
556.955	53052
557.017	50711
557.079	49298
557.142	47530
557.204	46304
557.266	47361
557.328	45306
557.391	42804
557.453	41438
557.515	40986
557.577	41575
557.639	40703
557.701	39072
557.764	38885
557.826	38491
557.888	40049
557.950	40482
558.012	41505
558.074	46209
558.136	70242
558.198	154390
558.260	77737
558.322	39288
558.384	38061
558.446	39072
558.508	42693
558.570	47256
558.632	53476
558.694	64451
558.756	84327
558.818	185566
558.880	458091
558.942	190442
559.003	156618
559.065	95285
559.127	44413
559.189	44347
559.251	46466
559.312	58402
559.374	102587
559.436	317733
559.498	195187
559.559	47520
559.621	43513
559.683	45089
559.744	60718
559.806	154650
559.868	262676
559.929	70126
559.991	43401
560.052	55307
560.114	137136
560.176	106635
560.237	78445
560.299	137140
560.360	44007
560.422	22737
560.483	21402
560.545	21230
560.606	19748
560.667	19610
560.729	19619
560.790	18506
560.852	18798
560.913	17720
560.974	18433
561.036	17851
561.097	18403
561.158	18606
561.220	18260
561.281	17933
561.342	17864
561.403	18396
561.465	17779
561.526	20933
561.587	23299
561.648	17691
561.709	16629
561.771	17037
561.832	16299
561.893	15760
561.954	15908
562.015	15105
562.076	15996
562.137	15357
562.198	14953
562.259	15862
562.320	15814
562.381	15776
562.442	17328
562.503	16198
562.564	15550
562.625	14249
562.686	15455
562.747	15229
562.808	14989
562.869	14548
562.930	15580
562.991	14623
563.051	15013
563.112	13963
563.173	14377
563.234	13522
563.294	14314
563.355	14683
563.416	13733
563.477	15238
563.537	14427
563.598	14275
563.659	14228
563.720	13026
563.780	13341
563.841	14879
563.901	13965
563.962	13938
564.023	14032
564.083	13938
564.144	14061
564.204	12372
564.265	13458
564.325	14303
564.386	14756
564.446	14296
564.507	13367
564.567	13698
564.628	13740
564.688	12997
564.749	12766
564.809	14237
564.869	14895
564.930	13439
564.990	14083
565.050	13346
565.111	13497
565.171	13234
565.231	13138
565.292	13898
565.352	12886
565.412	14060
565.472	13182
565.532	13831
565.593	12719
565.653	13749
565.713	13297
565.773	13689
565.833	13759
565.893	15215
565.953	13487
566.013	13231
566.074	14227
566.134	13104
566.194	13751
566.254	14712
566.314	13257
566.374	12902
566.434	12905
566.494	13746
566.554	13233
566.614	13998
566.673	13015
566.733	14065
566.793	13447
566.853	13956
566.913	14036
566.973	13044
567.033	14697
567.092	14109
567.152	13679
567.212	13623
567.272	13527
567.331	12927
567.391	13235
567.451	13480
567.511	15265
567.570	14036
567.630	14182
567.690	13064
567.749	13768
567.809	13358
567.868	13892
567.928	13552
567.988	12866
568.047	12803
568.107	13516
568.166	14730
568.226	15262
568.285	17508
568.345	15868
568.404	14688
568.464	14106
568.523	14201
568.582	13777
568.642	14011
568.701	15265
568.761	16848
568.820	20705
568.879	19202
568.939	15353
568.998	14158
569.057	13775
569.116	13461
569.176	13325
569.235	12157
569.294	13295
569.353	12354
569.413	12691
569.472	12973
569.531	12248
569.590	12403
569.649	13009
569.708	12579
569.767	13161
569.827	13220
569.886	12308
569.945	12018
570.004	12435
570.063	13146
570.122	12879
570.181	13538
570.240	12736
570.299	13034
570.358	13982
570.417	13615
570.475	12818
570.534	14109
570.593	12855
570.652	13828
570.711	13273
570.770	13391
570.829	12879
570.887	12503
570.946	12475
571.005	13194
571.064	12007
571.122	12916
571.181	12568
571.240	11736
571.299	11814
571.357	12251
571.416	12120
571.475	11534
571.533	13691
571.592	12420
571.650	12461
571.709	11872
571.768	13149
571.826	13744
571.885	13411
571.943	12755
572.002	11893
572.060	12841
572.119	12200
572.177	11835
572.236	11923
572.294	11820
572.352	13807
572.411	11990
572.469	12281
572.528	11854
572.586	11763
572.644	13032
572.703	14499
572.761	12601
572.819	11725
572.877	11561
572.936	10966
572.994	11660
573.052	11796
573.110	12546
573.169	12210
573.227	11041
573.285	11408
573.343	11573
573.401	11324
573.459	11767
573.517	12389
573.576	10689
573.634	11409
573.692	11040
573.750	11398
573.808	11104
573.866	10200
573.924	10944
573.982	11122
574.040	10895
574.098	10640
574.155	9847
574.213	10306
574.271	11142
574.329	10562
574.387	9643
574.445	9671
574.503	9196
574.560	10051
574.618	10442
574.676	10204
574.734	9938
574.792	10427
574.849	10124
574.907	8979
574.965	9446
575.022	8854
575.080	9058
575.138	9281
575.195	8545
575.253	9385
575.311	8878
575.368	9675
575.426	9644
575.483	10124
575.541	9055
575.598	8882
575.656	9350
575.713	8920
575.771	9011
575.828	8885
575.886	8804
575.943	8957
576.001	8950
576.058	9034
576.115	8919
576.173	8494
576.230	10220
576.287	10187
576.345	9316
576.402	8544
576.459	8284
576.517	8952
576.574	9024
576.631	8471
576.688	9026
576.746	8729
576.803	8323
576.860	8415
576.917	8537
576.974	8594
577.031	8852
577.089	8946
577.146	8877
577.203	8745
577.260	9000
577.317	8035
577.374	9465
577.431	8647
577.488	9169
577.545	9043
577.602	8483
577.659	9191
577.716	8204
577.773	9239
577.830	8389
577.886	9612
577.943	8415
578.000	7894
578.057	7511
578.114	9228
578.171	9405
578.227	8590
578.284	7858
578.341	8330
578.398	8234
578.454	9110
578.511	8369
578.568	9375
578.625	8707
578.681	8240
578.738	8629
578.794	9359
578.851	9171
578.908	8971
578.964	10308
579.021	10023
579.077	9321
579.134	8299
579.190	9101
579.247	8712
579.303	8556
579.360	8290
579.416	8576
579.473	8752
579.529	8047
579.586	9386
579.642	9041
579.698	8593
579.755	8616
579.811	8388
579.867	8880
579.924	8362
579.980	8421
580.036	8749
580.093	8858
580.149	7789
580.205	9166
580.261	8631
580.317	8847
580.374	9026
580.430	9205
580.486	9784
580.542	9354
580.598	9398
580.619	9567
580.654	9868
580.692	8908
580.710	8439
580.765	9273
580.767	9303
580.823	9266
580.838	9113
580.879	8718
580.911	9039
580.935	9281
580.984	9166
580.991	9155
581.047	9477
581.057	9401
581.103	9074
581.130	9283
581.159	9489
581.203	9235
581.215	9186
581.270	8357
581.276	8373
581.326	8480
581.349	8780
581.382	9249
581.422	9123
581.438	9054
581.494	8163
581.494	8175
581.550	9463
581.567	9358
581.606	9099
581.640	8799
581.661	8625
581.713	9531
581.717	9606
581.773	9039
581.786	9222
581.829	9786
581.859	9464
581.885	9251
581.932	10216
581.940	10369
581.996	10188
582.004	10112
582.052	9603
582.077	9358
582.107	9159
582.150	9683
582.163	9827
582.219	9648
582.223	9661
582.274	9751
582.296	9868
582.330	10063
582.368	10355
582.386	10509
582.441	9665
582.441	9662
582.497	9783
582.514	9778
582.552	9771
582.587	9788
582.608	9797
582.659	10131
582.663	10159
582.719	10767
582.732	10578
582.774	9981
582.805	10190
582.830	10353
582.877	10311
582.885	10284
582.941	10510
582.950	10528
582.996	10685
583.023	10866
583.052	11138
583.095	10663
583.107	10481
583.162	10159
583.168	10232
583.218	11130
583.240	10932
583.273	10541
583.313	11066
583.328	11249
583.384	10520
583.385	10496
583.439	9821
583.458	10108
583.494	10727
583.531	11175
583.549	11442
583.603	10890
583.605	10865
583.660	11157
583.676	11229
583.715	11545
583.748	11358
583.770	11234
583.820	11526
583.825	11558
583.881	12049
583.893	11914
583.936	11458
583.965	11587
583.991	11544
584.038	11272
584.046	11265
584.101	10995
584.110	11041
584.156	11538
584.183	11721
584.211	11751
584.255	12347
584.266	12550
584.321	12413
584.328	12419
584.376	12593
584.400	12506
584.431	12263
584.472	12564
584.486	12649
584.541	12706
584.545	12698
584.596	12825
584.617	12966
584.651	13291
584.689	13283
584.706	13294
584.761	13534
584.762	13525
584.816	13288
584.834	13564
584.871	14389
584.906	14220
584.926	14124
584.978	15426
584.980	15485
585.035	15783
585.051	15885
585.090	16498
585.123	17019
585.145	17323
585.195	18331
585.200	18462
585.254	20096
585.267	20678
585.309	22767
585.340	24093
585.364	25194
585.412	27469
585.419	27894
585.473	31674
585.484	32739
585.528	39324
585.556	44746
585.583	57041
585.628	85267
585.637	97939
585.692	198856
585.700	218414
585.747	298535
585.772	276220
585.801	183751
585.845	65924
585.856	53034
585.910	30571
585.917	28253
585.965	24551
585.989	23029
586.019	22551
586.061	22002
586.074	21798
586.128	21581
586.133	21506
586.183	21198
586.205	20879
586.237	20698
586.277	21064
586.292	21294
586.346	21707
586.349	21693
586.401	21788
586.421	21869
586.455	21989
586.493	21890
586.509	22306
586.564	23176
586.565	23179
586.618	25123
586.637	25774
586.672	26431
586.709	26800
586.727	27433
586.781	29707
586.781	29750
586.835	26727
586.853	25746
586.889	24495
586.925	23792
586.944	23792
586.996	24199
586.998	24274
587.052	25030
587.068	25193
587.106	25363
587.140	25284
587.161	25450
587.212	26549
587.215	26625
587.269	26501
587.284	26469
587.323	27199
587.356	27498
587.377	27747
587.427	28696
587.431	28787
587.485	29099
587.499	29114
587.539	30015
587.571	30500
587.593	30901
587.643	32028
587.648	32159
587.702	32381
587.715	32539
587.755	33870
587.786	34056
587.810	34009
587.858	34822
587.864	35043
587.917	35713
587.930	35929
587.971	37159
588.001	37754
588.025	38384
588.073	39327
588.079	39591
588.133	41453
588.145	41703
588.187	43602
588.217	45068
588.241	46520
588.288	49056
588.295	49648
588.348	54381
588.360	55255
588.402	60049
588.431	63154
588.456	65811
588.503	70811
588.510	72159
588.564	82795
588.575	85039
588.617	96155
588.646	103823
588.671	114668
588.718	135813
588.725	142004
588.778	192197
588.789	203356
588.832	299130
588.861	369746
588.886	462718
588.932	651333
588.939	664058
588.993	725287
589.004	725160
589.047	580077
589.075	474638
589.100	383431
589.147	229394
589.154	221167
589.207	164098
589.218	152957
589.261	143756
589.290	138080
589.314	142559
589.361	152656
589.368	159084
589.421	212818
589.433	225389
589.475	344766
589.504	434511
589.528	517600
589.576	677494
589.582	667394
589.635	508744
589.647	470058
589.689	297832
589.718	186894
589.742	157323
589.790	103746
589.795	101751
589.849	82707
589.861	78347
589.902	71415
589.932	65721
589.955	63033
590.004	57497
590.009	57356
590.062	54270
590.075	53337
590.115	51974
590.146	50693
590.168	50352
590.218	49474
590.222	49566
590.275	48572
590.289	48211
590.328	47867
590.360	47321
590.381	47353
590.431	46923
590.435	47039
590.488	46564
590.503	46338
590.541	47216
590.574	47744
590.594	48150
590.645	48657
590.647	48776
590.700	47792
590.716	47375
590.753	48800
590.787	49887
590.806	49958
590.859	49461
590.859	49623
590.912	50041
590.930	50151
590.965	50793
591.001	50894
591.018	51216
591.071	51851
591.072	51691
591.124	51306
591.143	50962
591.177	51330
591.214	51367
591.230	51773
591.283	52705
591.285	52564
591.336	52584
591.356	52402
591.389	52487
591.427	52112
591.442	52009
591.495	50985
591.498	50746
591.547	51858
591.569	52124
591.600	52377
591.640	52297
591.653	52540
591.706	52802
591.711	52661
591.759	53576
591.782	53753
591.811	55094
591.853	56671
591.864	56876
591.917	56848
591.924	56658
591.969	56425
591.995	55993
592.022	56443
592.066	56670
592.075	57061
592.127	58320
592.137	58346
592.180	59924
592.208	60655
592.233	60596
592.279	59861
592.285	60222
592.338	61558
592.350	61647
592.390	61688
592.421	61360
592.443	61681
592.491	61738
592.495	62017
592.548	62956
592.562	63005
592.600	62675
592.633	61988
592.653	62458
592.704	62784
592.705	63162
592.775	63943
592.846	66591
592.916	66478
592.987	67299
593.058	67625
593.128	66727
593.199	67360
593.270	66271
593.341	67298
593.411	68382
593.482	69873
593.553	72635
593.623	72162
593.694	75030
593.764	74580
593.835	75917
593.906	75437
593.976	77184
594.047	77628
594.117	82553
594.188	82662
594.258	83164
594.329	81857
594.399	83109
594.470	86406
594.540	87614
594.611	89485
594.681	89821
594.751	88444
594.822	91406
594.892	94492
594.963	96752
595.033	97947
595.103	101655
595.174	101403
595.244	106265
595.314	108164
595.384	107411
595.455	111158
595.525	114570
595.595	117134
595.665	118610
595.736	114001
595.806	116218
595.876	117467
595.946	118511
596.016	123401
596.087	126633
596.157	128049
596.227	128143
596.297	132867
596.367	140339
596.437	148062
596.507	148878
596.577	148204
596.647	149931
596.717	157296
596.787	161128
596.857	160288
596.927	162010
596.997	160566
597.067	162034
597.137	164144
597.207	167412
597.277	169564
597.347	162698
597.417	158316
597.487	158906
597.557	160788
597.626	164226
597.696	167523
597.766	166788
597.836	160113
597.906	151970
597.975	147038
598.045	150579
598.115	155674
598.185	165079
598.254	181109
598.324	198204
598.394	200938
598.464	196830
598.533	193419
598.603	179850
598.672	174597
598.742	177536
598.812	179143
598.881	184250
598.951	182723
599.020	181698
599.090	190439
599.159	193490
599.229	188728
599.299	183464
599.368	187718
599.437	187503
599.507	176933
599.576	168848
599.646	165485
599.715	164479
599.785	162051
599.854	159444
599.924	157144
599.993	155681
600.062	160706
600.132	164516
600.201	169940
600.270	193133
600.340	208230
600.409	202407
600.478	201622
600.547	204493
600.617	194858
600.686	157561
600.755	142901
600.824	138657
600.894	133989
600.963	135109
601.032	133226
601.101	129736
601.170	124089
601.239	123408
601.308	121846
601.378	122435
601.447	123840
601.516	123528
601.585	124665
601.654	127894
601.723	127000
601.792	129731
601.861	132141
601.930	137243
601.999	139840
602.068	136285
602.137	137762
602.206	140021
602.275	142703
602.343	144521
602.412	144607
602.481	145380
602.550	144964
602.619	149591
602.688	152399
602.756	151902
602.825	154485
602.894	157036
602.963	161077
603.032	163874
603.100	163649
603.169	162554
603.238	167141
603.307	164740
603.375	164458
603.444	167997
603.513	168492
603.581	168278
603.650	172698
603.719	169299
603.787	172201
603.856	178219
603.924	180953
603.993	186217
604.061	189444
604.130	200390
604.198	203406
604.267	206800
604.335	208773
604.404	210743
604.472	214326
604.541	216037
604.609	218250
604.678	219503
604.746	220032
604.815	225227
604.883	229277
604.951	228556
605.020	233323
605.088	234782
605.156	242016
605.225	245731
605.293	245442
605.361	243885
605.429	248135
605.498	250390
605.566	257148
605.634	268291
605.702	275984
605.771	286474
605.839	288352
605.907	281641
605.975	274385
606.043	266658
606.111	266586
606.180	266335
606.248	265806
606.316	261879
606.384	261809
606.452	263248
606.520	268289
606.588	279295
606.656	279411
606.724	278334
606.792	260571
606.860	239191
606.928	217379
606.996	210298
607.064	205006
607.132	209972
607.200	219895
607.267	229148
607.335	232502
607.403	239531
607.471	231488
607.539	223384
607.607	227176
607.674	202642
607.742	201559
607.810	199351
607.878	200489
607.946	205194
608.013	211105
608.081	217700
608.149	218308
608.216	225127
608.284	231809
608.352	231576
608.419	231296
608.487	226615
608.555	220168
608.622	229989
608.690	239488
608.757	261266
608.825	272267
608.893	267036
608.960	253987
609.028	241958
609.095	241732
609.163	241272
609.230	221012
609.298	200609
609.365	209366
609.432	223535
609.500	241275
609.567	270191
609.635	308757
609.702	326582
609.769	315940
609.837	253948
609.904	215488
609.971	217682
610.039	226371
610.106	258237
610.173	375852
610.241	720862
610.308	575707
610.375	315528
610.442	239230
610.509	224363
610.577	225707
610.644	226787
610.711	233581
610.778	241407
610.845	250045
610.912	263801
610.980	273591
611.047	274451
611.114	271443
611.181	262451
611.248	261674
611.315	272385
611.382	281001
611.449	290188
611.516	296126
611.583	289823
611.650	291375
611.717	293743
611.784	297015
611.851	302454
611.918	311411
611.984	333288
612.051	390408
612.118	571143
612.185	1078743
612.252	881746
612.319	400723
612.386	358742
612.452	339171
612.519	329662
612.586	320873
612.653	329992
612.719	340546
612.786	333286
612.853	311217
612.919	302978
612.986	312472
613.053	296412
613.120	281930
613.186	268203
613.253	271811
613.319	271031
613.386	272963
613.453	279019
613.519	278735
613.586	276638
613.652	283934
613.719	278150
613.785	279649
613.852	282775
613.918	280692
613.985	281995
614.051	293684
614.118	288733
614.184	279109
614.250	277695
614.317	287266
614.383	283432
614.449	290135
614.516	286787
614.582	289903
614.648	285275
614.715	284268
614.781	278289
614.847	275393
614.914	278432
614.980	269633
615.046	270733
615.112	279188
615.179	276115
615.245	282264
615.311	279563
615.377	284409
615.443	286920
615.509	284916
615.575	290593
615.642	289239
615.708	293037
615.774	301170
615.840	312607
615.906	316675
615.972	339155
616.038	414088
616.104	648908
616.170	1166090
616.236	1157050
616.302	487489
616.368	406074
616.434	336769
616.500	318348
616.565	329591
616.631	382382
616.697	343570
616.763	339531
616.829	414717
616.895	634138
616.961	636134
617.026	360906
617.092	296366
617.158	288773
617.224	292300
617.289	272988
617.355	264387
617.421	262805
617.487	264374
617.552	251531
617.618	251228
617.684	251746
617.749	254068
617.815	247426
617.880	241382
617.946	240815
618.012	245674
618.077	251405
618.143	244611
618.208	244496
618.274	257504
618.339	263970
618.405	229316
618.470	224189
618.536	227205
618.601	222787
618.667	213077
618.732	203028
618.798	202021
618.863	201909
618.928	200689
618.994	201162
619.059	198790
619.124	205018
619.190	203168
619.255	199570
619.320	198947
619.386	201011
619.451	201149
619.516	195149
619.581	200627
619.647	206950
619.712	205838
619.777	198043
619.842	200001
619.907	202825
619.972	204802
620.038	204497
620.103	197009
620.168	198649
620.233	203023
620.298	204226
620.363	204712
620.428	208547
620.493	211318
620.558	215135
620.623	216275
620.688	217460
620.753	216652
620.818	218091
620.883	219498
620.948	221762
621.013	218535
621.078	216105
621.143	216132
621.207	218328
621.272	216430
621.337	213815
621.402	211302
621.467	211268
621.532	210173
621.596	212049
621.661	206839
621.726	203727
621.791	206668
621.855	207366
621.920	206783
621.985	207431
622.049	210837
622.114	211092
622.179	212308
622.243	215622
622.308	221113
622.373	226950
622.437	225553
622.502	216069
622.566	212605
622.631	213469
622.695	214938
622.760	214259
622.824	213409
622.889	214268
622.953	215885
623.018	226595
623.082	231928
623.147	223304
623.211	218170
623.276	217751
623.340	212913
623.404	209827
623.469	207740
623.533	208975
623.597	204446
623.662	204327
623.726	195396
623.790	185448
623.854	181726
623.919	182718
623.983	182906
624.047	188850
624.111	188898
624.176	188818
624.240	191469
624.304	198796
624.368	190489
624.432	188788
624.496	191435
624.560	197603
624.625	200616
624.689	196415
624.753	203674
624.817	196665
624.881	192852
624.945	180606
625.009	172854
625.073	178275
625.137	180618
625.201	186986
625.265	188060
625.329	178570
625.393	180761
625.456	179980
625.520	183079
625.584	186244
625.648	189856
625.712	193876
625.776	196864
625.839	192797
625.903	164228
625.967	150454
626.031	156105
626.095	179954
626.158	172416
626.222	142171
626.286	133264
626.349	128788
626.413	122464
626.477	121871
626.540	122651
626.604	121402
626.668	119196
626.731	116770
626.795	115608
626.858	116618
626.922	114100
626.986	113777
627.049	113193
627.113	116565
627.176	112975
627.240	109935
627.303	109511
627.366	107642
627.430	108337
627.493	108164
627.557	105167
627.620	107104
627.684	110245
627.747	110988
627.810	103948
627.874	95355
627.937	90290
628.000	94140
628.064	93934
628.127	84721
628.190	83169
628.253	82932
628.317	78599
628.380	76469
628.443	75418
628.506	75461
628.569	72941
628.632	69796
628.696	67953
628.759	68727
628.822	67279
628.885	64801
628.948	64288
629.011	64437
629.074	62516
629.137	61493
629.200	60381
629.263	61036
629.326	57509
629.389	57992
629.452	56964
629.515	56797
629.578	55066
629.641	55108
629.704	56447
629.767	56366
629.830	54393
629.892	53998
629.955	51117
630.018	54674
630.081	52287
630.144	53888
630.207	51196
630.269	52092
630.332	50692
630.395	49410
630.458	48652
630.520	47109
630.583	48531
630.646	47756
630.708	48849
630.771	48233
630.834	50685
630.896	49358
630.959	48641
631.021	46772
631.084	46613
631.146	47982
631.209	48458
631.272	46577
631.334	47802
631.397	48159
631.459	47222
631.522	48105
631.584	48033
631.646	49835
631.709	51203
631.771	49758
631.834	49561
631.896	47855
631.958	46220
632.021	46904
632.083	44301
632.145	45488
632.208	45050
632.270	44815
632.332	44843
632.395	43613
632.457	44874
632.519	44467
632.581	44121
632.643	43588
632.706	44429
632.768	42301
632.830	44066
632.892	44447
632.954	45607
633.016	44887
633.078	43681
633.141	44687
633.203	43821
633.265	43978
633.327	43521
633.389	43257
633.451	44313
633.513	44756
633.575	44883
633.637	44050
633.698	43760
633.760	44877
633.822	45342
633.884	45728
633.946	47479
634.008	45166
634.070	45879
634.132	47542
634.193	47965
634.255	50388
634.317	51275
634.379	51705
634.441	47715
634.502	45864
634.564	43315
634.626	43221
634.687	41375
634.749	41048
634.811	42292
634.873	40599
634.934	40435
634.996	41359
635.057	40623
635.119	40640
635.181	41137
635.242	41650
635.304	40119
635.365	43396
635.427	41138
635.488	41499
635.550	40342
635.611	39831
635.673	39342
635.734	41462
635.796	41532
635.857	44191
635.918	43713
635.980	47736
636.041	47368
636.102	50121
636.164	50184
636.225	50194
636.286	45318
636.348	44563
636.409	41459
636.470	40629
636.531	39491
636.593	40493
636.654	38698
636.715	38717
636.776	38977
636.838	37976
636.899	39043
636.960	38521
637.021	37966
637.082	37362
637.143	36828
637.204	36377
637.265	35358
637.326	36660
637.387	37306
637.448	35896
637.509	37101
637.570	37382
637.631	36092
637.692	35879
637.753	34458
637.814	36153
637.875	36583
637.936	35654
637.997	36658
638.058	35438
638.119	36985
638.179	35362
638.240	34369
638.301	35806
638.362	34401
638.423	33059
638.483	35160
638.544	32637
638.605	34449
638.666	34232
638.726	34964
638.787	34426
638.848	34328
638.908	34932
638.969	33173
639.030	33038
639.090	31971
639.151	32691
639.211	33965
639.272	34492
639.332	36432
639.393	34435
639.453	33020
639.514	34018
639.574	32520
639.635	31361
639.695	32420
639.756	31852
639.816	31767
639.877	31460
639.937	33615
639.997	35668
640.058	29476
640.118	30713
640.178	31769
640.239	31026
640.299	30844
640.359	30142
640.420	31818
640.480	32164
640.540	34526
640.600	34373
640.661	31856
640.721	30864
640.781	33783
640.841	30392
640.901	30956
640.961	32177
641.021	32043
641.082	33154
641.142	32713
641.202	32004
641.262	28690
641.322	30095
641.382	29725
641.442	29340
641.502	28672
641.562	29914
641.622	30086
641.682	31347
641.742	30591
641.802	31056
641.861	29959
641.921	29605
641.981	29309
642.041	27656
642.101	29743
642.161	27832
642.221	26651
642.280	26710
642.340	26964
642.400	27320
642.460	28697
642.519	29145
642.579	29231
642.639	29352
642.698	26396
642.758	30548
642.818	29004
642.877	28369
642.937	28951
642.997	29231
643.056	30550
643.116	27248
643.175	29755
643.235	28034
643.294	29448
643.354	29853
643.414	29467
643.473	32421
643.532	33858
643.592	39309
643.651	50913
643.711	76477
643.770	131186
643.830	278517
643.889	624016
643.948	225649
644.008	54444
644.067	38181
644.126	32697
644.186	30639
644.245	30238
644.304	27315
644.363	28508
644.423	25117
644.482	26529
644.541	27818
644.600	26875
644.659	31662
644.719	33630
644.778	42569
644.837	59826
644.896	105086
644.955	247321
645.014	115429
645.073	35050
645.132	29654
645.191	29088
645.250	27993
645.309	28652
645.368	28025
645.427	33393
645.486	43083
645.545	74560
645.604	36044
645.663	27100
645.722	24831
645.781	26831
645.840	28466
645.898	30289
645.957	37569
646.016	46557
646.075	72756
646.134	124963
646.192	291814
646.251	509475
646.310	118359
646.369	41645
646.427	35627
646.486	30172
646.545	27519
646.603	25507
646.662	24427
646.721	23599
646.779	23315
646.838	22820
646.896	26139
646.955	30644
647.014	40763
647.072	65130
647.131	162930
647.189	107945
647.248	27250
647.306	23438
647.365	21537
647.423	19775
647.481	22055
647.540	19352
647.598	21444
647.657	20544
647.715	20508
647.773	18664
647.832	19810
647.890	17647
647.948	18151
648.007	18917
648.065	17220
648.123	16670
648.181	19412
648.240	18206
648.298	17149
648.356	16860
648.414	18104
648.472	17439
648.531	16984
648.589	16199
648.647	16584
648.705	17232
648.763	16003
648.821	17012
648.879	16649
648.937	17484
648.995	18908
649.053	21035
649.111	26912
649.169	37178
649.227	60275
649.285	110016
649.343	317777
649.401	205748
649.459	38459
649.516	25341
649.574	18721
649.632	19193
649.690	19564
649.748	22099
649.806	27126
649.863	44724
649.921	113227
649.979	101341
650.037	21688
650.094	14507
650.152	15629
650.210	13474
650.268	14870
650.325	13089
650.383	13376
650.440	12229
650.498	13258
650.556	13649
650.613	13055
650.671	12804
650.728	13087
650.786	12993
650.843	14717
650.901	12187
650.958	12345
651.016	12681
651.073	12253
651.131	11559
651.188	9956
651.246	10442
651.303	10232
651.360	11353
651.418	10516
651.475	11061
651.532	10265
651.590	11165
651.647	9608
651.704	10420
651.762	10193
651.819	10376
651.876	9878
651.933	10435
651.990	10814
652.048	8829
652.105	9695
652.162	10185
652.219	9870
652.276	10067
652.333	10188
652.390	8903
652.448	10227
652.505	9828
652.562	9215
652.619	8858
652.676	9982
652.733	10188
652.790	9054
652.847	7580
652.904	10009
652.961	8748
653.017	8566
653.074	9789
653.131	8754
653.188	7657
653.245	8444
653.302	8094
653.359	8382
653.415	8712
653.472	8521
653.529	8747
653.586	7761
653.642	8718
653.699	9470
653.756	7699
653.813	8498
653.869	8916
653.926	8370
653.983	7428
654.039	8440
654.096	8171
654.152	9537
654.209	7387
654.266	8776
654.322	7511
654.379	8756
654.435	9400
654.492	7967
654.548	8391
654.605	9661
654.661	8653
654.717	8509
654.774	8360
654.830	8275
654.887	8234
654.943	7973
655.000	8013
655.056	8036
655.112	8051
655.168	7281
655.225	8241
655.281	8602
655.337	8230
655.394	8125
655.450	7804
655.506	8411
655.562	8009
655.618	8761
655.675	6669
655.731	8226
655.787	6150
655.843	8393
655.899	6515
655.955	7914
656.011	7504
656.067	6728
656.123	7066
656.179	7155
656.235	8445
656.291	6746
656.347	8745
656.403	7310
656.459	6946
656.515	7421
656.571	7300
656.627	7252
656.683	7205
656.739	7887
656.795	7167
656.850	8013
656.906	8067
656.962	8775
657.018	7440
657.074	8282
657.129	10748
657.185	14054
657.241	26358
657.297	19733
657.352	8031
657.408	7485
657.464	8438
657.519	7002
657.575	6301
657.630	6297
657.686	7567
657.742	6130
657.797	7049
657.853	6372
657.908	9135
657.964	5795
658.019	7126
658.075	6542
658.130	7289
658.186	6082
658.241	6804
658.297	5693
658.352	5928
658.407	6892
658.463	6313
658.518	6849
658.573	7454
658.629	5531
658.684	6660
658.739	6569
658.795	6617
658.850	6841
658.905	5412
658.960	6409
659.016	5753
659.071	5861
659.126	6070
659.181	6468
659.236	8583
659.291	8563
659.346	6919
659.401	6428
659.457	7069
659.512	5878
659.567	7575
659.622	6616
659.677	5413
659.732	5595
659.787	5809
659.842	5620
659.897	6090
659.952	6261
660.007	7011
660.061	5477
660.116	5496
660.171	6352
660.226	6593
660.281	6299
660.336	4868
660.391	6297
660.445	5605
660.500	6435
660.555	6114
660.610	5891
660.664	7225
660.719	6321
660.774	6318
660.828	6257
660.883	6204
660.938	6462
660.992	4954
661.047	6237
661.101	4860
661.156	6752
661.211	5280
661.265	5139
661.320	5854
661.374	6021
661.429	5441
661.483	6705
661.538	4985
661.592	5112
661.647	5853
661.701	6103
661.755	6084
661.810	6132
661.864	5481
661.919	4849
661.973	6070
662.027	5134
662.081	5124
662.136	5400
662.190	5660
662.244	5913
662.299	5719
662.353	5850
662.407	4914
662.461	5765
662.515	6073
662.569	4701
662.624	6813
662.678	4877
662.732	5345
662.786	5081
662.840	5619
662.894	4946
662.948	4925
663.002	5687
663.056	5889
663.110	4633
663.164	5627
663.218	6207
663.272	6056
663.326	5100
663.380	5427
663.434	5731
663.488	5546
663.542	5604
663.595	4804
663.649	5554
663.703	5206
663.757	5487
663.811	5513
663.864	5306
663.918	6099
663.972	5994
664.026	4915
664.079	5267
664.133	5899
664.187	5418
664.240	5244
664.294	5882
664.348	5393
664.401	6056
664.455	5594
664.508	5155
664.562	5477
664.615	5633
664.669	4587
664.722	5771
664.776	4826
664.829	5138
664.883	4675
664.936	4707
664.990	6040
665.043	6104
665.097	5223
665.150	6675
665.203	5034
665.257	4438
665.310	6072
665.363	5649
665.417	4912
665.470	5707
665.523	5168
665.576	4788
665.630	5367
665.683	5516
665.736	5912
665.789	5759
665.842	5195
665.895	4986
665.949	5666
666.002	4677
666.055	5481
666.108	5811
666.161	5871
666.214	5623
666.267	5731
666.320	5545
666.373	6231
666.426	4539
666.479	5516
666.532	5367
666.585	5559
666.638	5673
666.691	4926
666.744	6188
666.796	5235
666.849	4730
666.902	4921
666.955	5260
667.008	4520
667.060	5190
667.113	5132
667.166	5078
667.219	5334
667.271	6053
667.324	5749
667.377	5874
667.430	5659
667.482	5544
667.535	5265
667.587	5520
667.640	6284
667.693	6014
667.745	6513
667.798	6773
667.850	5564
667.903	6143
667.955	5463
668.008	5886
668.060	6032
668.113	4943
668.165	6309
668.218	5637
668.270	5113
668.322	5854
668.375	4993
668.427	5095
668.479	4728
668.532	5394
668.584	4567
668.636	5611
668.689	5378
668.741	4831
668.793	5759
668.845	5477
668.898	5506
668.950	5183
669.002	5575
669.054	4800
669.106	5173
669.158	5762
669.211	5322
669.263	5164
669.315	5910
669.367	5513
669.419	5037
669.471	5835
669.523	6153
669.575	6890
669.627	5095
669.679	5525
669.731	4665
669.783	6113
669.835	5919
669.886	5544
669.938	5877
669.990	5461
670.042	5432
670.094	4940
670.146	5693
670.197	6690
670.249	7707
670.301	8767
670.353	10943
670.404	15081
670.456	18615
670.508	28377
670.560	44604
670.611	71887
670.663	121741
670.715	247871
670.766	393663
670.818	202272
670.869	46616
670.921	22324
670.972	14899
671.024	10841
671.075	9697
671.127	8572
671.178	7215
671.230	6481
671.281	7197
671.333	6660
671.384	6348
671.436	8224
671.487	9002
671.538	11258
671.590	15847
671.641	23458
671.692	41828
671.744	84600
671.795	61025
671.846	18571
671.897	10541
671.949	7017
672.000	6324
672.051	6463
672.102	5904
672.153	3917
672.204	4920
672.256	4505
672.307	4405
672.358	4704
672.409	4464
672.460	4665
672.511	4660
672.562	4413
672.613	4115
672.664	3916
672.715	4552
672.766	3562
672.817	3377
672.868	3495
672.919	4096
672.970	3605
673.021	4154
673.071	3778
673.122	4022
673.173	4294
673.224	3664
673.275	3843
673.326	3966
673.376	3647
673.427	3505
673.478	3612
673.528	3828
673.579	3900
673.630	4205
673.680	4483
673.731	3289
673.782	3224
673.832	4082
673.883	3735
673.934	3222
673.984	4007
674.035	3561
674.085	2584
674.136	3674
674.186	3412
674.237	3172
674.287	4234
674.338	4543
674.388	2725
674.438	3163
674.489	3077
674.539	3637
674.589	4102
674.640	3670
674.690	3173
674.740	3458
674.791	3559
674.841	3478
674.891	2871
674.942	2486
674.992	2864
675.042	2713
675.092	2559
675.142	2881
675.193	2950
675.243	3112
675.293	3599
675.343	2941
675.393	3496
675.443	3402
675.493	3135
675.543	3196
675.593	3150
675.643	2953
675.693	2731
675.743	3236
675.793	2756
675.843	2431
675.893	2599
675.943	3184
675.993	2273
676.043	2564
676.093	3018
676.142	2711
676.192	3399
676.242	2838
676.292	2451
676.341	2366
676.391	2194
676.441	2914
676.491	2288
676.540	1950
676.590	1700
676.640	2525
676.689	2878
676.739	1861
676.789	2489
676.838	2509
676.888	3129
676.937	2129
676.987	3081
677.037	3673
677.086	2586
677.136	2454
677.185	2656
677.235	2491
677.284	2233
677.333	2003
677.383	2478
677.432	1434
677.482	2356
677.531	2862
677.580	2032
677.630	2387
677.679	2380
677.728	2222
677.778	2560
677.827	2012
677.876	2708
677.925	2462
677.975	2450
678.024	2669
678.073	1948
678.122	2393
678.171	2513
678.220	2390
678.269	2587
678.319	2728
678.368	3111
678.417	2760
678.466	2705
678.515	2426
678.564	2629
678.613	1681
678.662	1250
678.711	2430
678.760	2172
678.809	2471
678.857	1929
678.906	2291
678.955	1436
679.004	2527
679.053	2440
679.102	2198
679.151	1990
679.199	1718
679.248	2924
679.297	1889
679.346	2368
679.394	1486
679.443	2181
679.492	1964
679.540	2245
679.589	2168
679.638	2321
679.686	2357
679.735	2378
679.784	2142
679.832	3289
679.881	2656
679.929	1705
679.978	1690
680.026	2263
680.075	2027
680.123	2177
680.172	2417
680.220	2407
680.268	2371
680.317	1994
680.365	1846
680.414	1660
680.462	2609
680.510	2078
680.559	2041
680.607	2371
680.655	2896
680.703	2501
680.752	1983
680.800	1572
680.848	1882
680.896	1874
680.945	1907
680.993	1703
681.041	2358
681.089	2177
681.137	2353
681.185	1255
681.233	2259
681.258	2144
681.281	2015
681.329	2458
681.377	1479
681.380	1517
681.425	1874
681.473	2126
681.502	2228
681.521	2254
681.569	2042
681.617	2204
681.624	2251
681.665	2411
681.713	2477
681.745	2511
681.761	2509
681.809	2134
681.857	2228
681.867	2388
681.904	2847
681.952	2405
681.989	2686
682.000	2745
682.048	2903
682.096	2225
682.111	2473
682.143	2963
682.191	2332
682.233	2911
682.239	2976
682.286	3172
682.334	2651
682.354	2524
682.382	2303
682.430	3309
682.476	2905
682.477	2878
682.525	2967
682.572	2475
682.598	2871
682.620	3205
682.667	2953
682.715	2844
682.720	2935
682.763	3573
682.810	2910
682.841	2986
682.857	2992
682.905	3282
682.952	2675
682.963	2932
683.000	3798
683.047	2911
683.085	3581
683.095	3734
683.142	2975
683.190	3171
683.206	3341
683.237	3621
683.284	3255
683.328	3567
683.332	3578
683.379	3024
683.426	3738
683.449	3628
683.473	3497
683.521	3334
683.568	3867
683.571	3880
683.615	3852
683.662	4120
683.693	3294
683.709	2772
683.757	3948
683.804	3865
683.814	3801
683.851	3601
683.898	3749
683.936	3609
683.945	3552
683.992	4001
684.039	3662
684.057	3767
684.086	3933
684.133	4169
684.179	3607
684.180	3575
684.227	4706
684.274	5081
684.300	5221
684.321	5286
684.368	4053
684.415	4377
684.422	4364
684.462	4201
684.509	3503
684.543	3650
684.556	3707
684.603	4752
684.649	4286
684.665	4566
684.696	5086
684.743	4733
684.786	4615
684.790	4592
684.837	3981
684.883	4315
684.908	4395
684.930	4517
684.977	4956
685.023	5226
685.029	5215
685.070	4956
685.117	5275
685.150	4989
685.164	4862
685.210	5653
685.257	5365
685.272	5453
685.303	5575
685.350	5661
685.393	5481
685.396	5462
685.443	5076
685.490	5204
685.514	5308
685.536	5363
685.583	5160
685.629	4480
685.636	4597
685.675	5292
685.722	5411
685.757	5120
685.768	5005
685.815	5802
685.861	5503
685.878	5564
685.908	5717
685.954	5632
686.000	5587
686.000	5582
686.047	5920
686.093	6064
686.121	6331
686.139	6471
686.185	6423
686.232	5932
686.242	6056
686.278	6328
686.324	6333
686.363	6057
686.370	6003
686.416	5869
686.463	5855
686.484	5540
686.509	5359
686.555	6074
686.601	5873
686.606	5963
686.647	6445
686.693	6538
686.727	6386
686.739	6384
686.785	6055
686.831	5931
686.848	6117
686.877	6388
686.923	6136
686.969	6470
686.969	6472
687.015	7025
687.061	6831
687.090	7432
687.107	7661
687.153	7130
687.199	6942
687.211	6785
687.245	6424
687.291	6572
687.332	6562
687.336	6583
687.382	7052
687.428	6892
687.453	6881
687.474	6733
687.520	6789
687.565	6580
687.574	6548
687.611	6537
687.657	6823
687.695	7304
687.702	7405
687.748	6857
687.794	7515
687.816	7262
687.839	7016
687.885	7067
687.931	7089
687.937	7114
687.976	7263
688.022	7555
688.058	7776
688.067	7788
688.113	7225
688.158	7250
688.179	7313
688.204	7563
688.249	7592
688.295	7893
688.300	7938
688.340	8243
688.386	7875
688.421	7601
688.431	7464
688.477	7883
688.522	8162
688.542	7863
688.567	7761
688.613	8110
688.658	8444
688.663	8437
688.703	8100
688.749	8192
688.784	7916
688.794	7878
688.839	7972
688.884	7679
688.905	7849
688.930	8068
688.975	8227
689.020	7820
689.026	7908
689.065	8526
689.110	7820
689.146	7871
689.155	7910
689.201	8280
689.246	8507
689.267	8205
689.291	7866
689.336	8307
689.381	7949
689.388	8039
689.426	8538
689.471	8129
689.509	8406
689.516	8479
689.561	8033
689.606	7954
689.630	8052
689.651	8149
689.696	8244
689.741	8572
689.750	8589
689.785	8725
689.830	8477
689.871	8390
689.875	8366
689.920	8084
689.965	8167
689.992	7989
690.010	8066
690.054	8739
690.099	8825
690.112	8931
690.144	8985
690.189	8759
690.233	8470
690.233	8480
690.278	8436
690.323	8397
690.354	8259
690.367	8247
690.412	8680
690.457	8318
690.474	8436
690.501	8528
690.546	8386
690.590	8296
690.595	8243
690.635	8209
690.680	8648
690.716	8543
690.724	8458
690.769	8553
690.813	8694
690.836	8416
690.857	8445
690.902	8811
690.946	9117
690.957	9168
690.991	9126
691.035	9401
691.077	9149
691.080	9156
691.124	9418
691.168	9694
691.198	9714
691.213	9643
691.257	9321
691.301	9206
691.318	9154
691.346	9247
691.390	9160
691.434	9166
691.439	9151
691.478	9042
691.522	9066
691.559	8890
691.567	8960
691.611	9810
691.655	10043
691.680	10206
691.699	10164
691.743	10151
691.787	10152
691.800	10027
691.831	9688
691.875	9542
691.919	9628
691.921	9595
691.964	9450
692.008	9919
692.041	9872
692.052	9854
692.096	10013
692.139	10045
692.162	9980
692.183	9744
692.227	9730
692.271	9080
692.282	8987
692.315	9280
692.359	9742
692.402	9954
692.403	9970
692.447	9523
692.490	9392
692.523	9297
692.534	9408
692.578	9360
692.622	9666
692.643	9647
692.666	9586
692.709	9588
692.753	9569
692.763	9620
692.797	9892
692.840	9843
692.884	9847
692.884	9866
692.928	9820
692.971	9567
693.004	9449
693.015	9444
693.059	9569
693.102	9514
693.124	9555
693.146	9678
693.189	9459
693.233	9950
693.245	9944
693.276	10014
693.320	10169
693.363	10217
693.365	10196
693.407	10024
693.450	9776
693.485	9863
693.493	9956
693.537	10121
693.580	9998
693.605	10089
693.624	10016
693.667	9608
693.710	9324
693.725	9198
693.753	9549
693.797	9964
693.840	10707
693.845	10738
693.883	10451
693.926	10254
693.966	10123
693.970	10149
694.013	9945
694.056	9835
694.086	9625
694.099	9660
694.142	9823
694.185	10148
694.206	10312
694.229	10480
694.272	10314
694.315	10448
694.326	10490
694.358	10741
694.401	10757
694.444	11188
694.446	11164
694.487	11102
694.530	10907
694.566	10827
694.573	10786
694.616	10672
694.659	10485
694.686	10186
694.702	10132
694.745	10039
694.787	9823
694.806	9839
694.830	10171
694.873	10518
694.916	10669
694.926	10768
694.959	10890
695.002	10710
695.044	10901
695.046	10872
695.087	10815
695.130	10607
695.166	10711
695.172	10787
695.215	10856
695.258	11024
695.286	11201
695.301	11292
695.343	11151
695.386	11207
695.406	11200
695.428	11470
695.471	11927
695.514	12485
695.526	12569
695.556	12874
695.599	13312
695.641	13812
695.646	13814
695.684	13368
695.726	12924
695.766	12545
695.769	12566
695.811	12413
695.854	12270
695.886	12153
695.896	12193
695.938	12135
695.981	12140
696.005	12065
696.023	12243
696.065	12653
696.108	13114
696.125	13250
696.150	13314
696.192	13562
696.235	13464
696.245	13455
696.277	13397
696.319	13267
696.361	13070
696.365	13014
696.404	13122
696.446	13384
696.485	13566
696.488	13613
696.530	13730
696.572	13971
696.604	14051
696.614	14032
696.656	13675
696.698	13415
696.724	13168
696.740	13202
696.783	13365
696.825	13492
696.844	13511
696.867	13632
696.909	13677
696.951	13774
696.964	13825
696.992	13965
697.034	13833
697.076	13951
697.083	13906
697.118	14014
697.160	14309
697.202	14361
697.203	14329
697.244	14218
697.286	14081
697.323	13916
697.327	13974
697.369	14133
697.411	14302
697.442	14399
697.453	14404
697.494	14298
697.536	14124
697.562	14054
697.578	14186
697.620	14347
697.661	14500
697.682	14548
697.703	14667
697.744	14855
697.786	15079
697.801	15103
697.828	15198
697.869	15260
697.911	15317
697.921	15313
697.952	15245
697.994	14998
698.035	14759
698.040	14699
698.077	14810
698.118	14834
698.160	14874
698.160	14835
698.201	14758
698.243	14641
698.279	14571
698.284	14645
698.325	14884
698.367	15191
698.399	15399
698.408	15463
698.449	15507
698.491	15624
698.518	15638
698.532	15810
698.573	16219
698.614	16623
698.638	16814
698.656	16692
698.697	16323
698.738	15919
698.757	15702
698.779	15918
698.820	16242
698.862	16557
698.877	16636
698.903	16590
698.944	16441
698.985	16291
698.996	16210
699.026	16192
699.067	16110
699.116	15973
699.235	16389
699.354	16164
699.474	15743
699.593	15556
699.713	15157
699.832	15571
699.951	15986
700.070	16725
700.190	16194
700.309	15208
700.428	15310
700.547	14657
700.667	14317
700.786	15457
700.905	14076
701.024	13965
701.143	14512
701.262	14491
701.381	14390
701.500	14681
701.619	15188
701.738	14814
701.857	13946
701.976	14217
702.095	13920
702.214	14812
702.333	14447
702.452	14677
702.571	14732
702.690	14691
702.809	13945
702.928	13557
703.047	13827
703.165	13556
703.284	13519
703.403	13098
703.522	13247
703.640	13875
703.759	13213
703.878	13566
703.997	13273
704.115	13246
704.234	12441
704.353	12931
704.471	11467
704.590	12588
704.708	12444
704.827	11943
704.946	12578
705.064	12070
705.183	12394
705.301	12335
705.420	13340
705.538	13136
705.656	12312
705.775	11796
705.893	12606
706.012	12392
706.130	12173
706.249	13587
706.367	12917
706.485	12904
706.604	12096
706.722	12430
706.840	12193
706.958	13501
707.077	12489
707.195	11144
707.313	11619
707.431	11849
707.549	11214
707.668	11973
707.786	12437
707.904	11558
708.022	11408
708.140	11693
708.258	10731
708.376	12635
708.494	10282
708.612	11595
708.730	13425
708.848	13048
708.966	11825
709.084	12972
709.202	12763
709.320	11962
709.438	11987
709.556	12530
709.674	11399
709.791	11470
709.909	11322
710.027	11633
710.145	10696
710.263	11591
710.380	11284
710.498	10533
710.616	10965
710.733	10629
710.851	10063
710.969	11020
711.086	10743
711.204	11361
711.322	10102
711.439	11833
711.557	9806
711.674	10058
711.792	10313
711.909	10558
712.027	9577
712.144	9216
712.262	10443
712.379	10898
712.497	11812
712.614	13003
712.732	10754
712.849	11742
712.966	11401
713.084	11880
713.201	10672
713.318	10884
713.436	10956
713.553	10448
713.670	12206
713.787	10969
713.905	11010
714.022	11509
714.139	10817
714.256	13355
714.373	15416
714.490	23595
714.608	47277
714.725	202394
714.842	321903
714.959	31458
715.076	12860
715.193	11675
715.310	11864
715.427	10675
715.544	10826
715.661	10757
715.778	10918
715.895	10864
716.011	10078
716.128	9569
716.245	10272
716.362	10766
716.479	9846
716.596	9362
716.713	9750
716.829	8980
716.946	9661
717.063	9193
717.180	9280
717.296	8931
717.413	9070
717.530	8830
717.646	8770
717.763	9989
717.880	8778
717.996	8908
718.113	8901
718.229	8596
718.346	8535
718.462	8331
718.579	8809
718.695	11262
718.812	9588
718.928	8793
719.045	8161
719.161	8643
719.277	8472
719.394	8585
719.510	8413
719.626	8650
719.743	10034
719.859	13189
719.975	19303
720.092	64099
720.208	196503
720.324	37336
720.440	10716
720.557	9333
720.673	10040
720.789	10669
720.905	11355
721.021	9789
721.137	8611
721.253	8514
721.369	8103
721.486	8641
721.602	7309
721.718	8014
721.834	7309
721.950	7883
722.066	7810
722.181	7989
722.297	7785
722.413	8175
722.529	7549
722.645	8424
722.761	7500
722.877	6798
722.993	7063
723.108	8319
723.224	7500
723.340	7776
723.456	7524
723.571	6918
723.687	7100
723.803	8136
723.918	5878
724.034	7929
724.150	7597
724.265	7346
724.381	7518
724.497	8197
724.612	6390
724.728	6995
724.843	6094
724.959	6880
725.074	7936
725.190	8694
725.305	6789
725.421	6590
725.536	7103
725.651	6776
725.767	5738
725.882	6394
725.997	5699
726.113	7323
726.228	6972
726.343	6483
726.459	6074
726.574	5680
726.689	6469
726.804	6333
726.920	6547
727.035	6361
727.150	5732
727.265	5820
727.380	5997
727.495	7567
727.610	5923
727.725	5425
727.841	6487
727.956	6401
728.071	7329
728.186	6366
728.301	5404
728.416	6528
728.531	5701
728.645	5874
728.760	6028
728.875	6101
728.990	5513
729.105	6701
729.220	5274
729.335	6040
729.449	5785
729.564	5809
729.679	5581
729.794	6776
729.908	5538
730.023	5438
730.138	5987
730.253	5969
730.367	5356
730.482	6781
730.596	5656
730.711	6114
730.826	6607
730.940	7016
731.055	5673
731.169	5419
731.284	6294
731.398	5769
731.513	6333
731.627	6236
731.742	7021
731.856	8260
731.970	7524
732.085	8514
732.199	10983
732.313	14074
732.428	29267
732.542	99698
732.656	93589
732.771	14926
732.885	10278
732.999	9415
733.113	10071
733.227	9757
733.342	9776
733.456	9119
733.570	8349
733.684	9095
733.798	7450
733.912	8281
734.026	7342
734.140	8929
734.254	8086
734.368	8682
734.482	9072
734.596	8230
734.710	7677
734.824	7853
734.938	7443
735.052	8638
735.166	8547
735.280	8278
735.393	7820
735.507	6843
735.621	7681
735.735	8578
735.849	7659
735.962	8021
736.076	7436
736.190	7652
736.303	7175
736.417	9163
736.531	7225
736.644	7574
736.758	7195
736.872	7005
736.985	7331
737.099	7523
737.212	5723
737.326	7356
737.439	7321
737.553	6608
737.666	6908
737.780	7010
737.893	7698
738.007	7383
738.120	6651
738.233	6873
738.347	6614
738.460	6507
738.573	6714
738.687	6884
738.800	6862
738.913	7396
739.026	6775
739.140	5924
739.253	6502
739.366	6189
739.479	5781
739.592	6795
739.705	6570
739.818	6822
739.932	6232
740.045	6580
740.158	6074
740.271	6346
740.384	6062
740.497	6388
740.610	6757
740.723	6152
740.836	5583
740.949	7103
741.062	6627
741.174	6829
741.287	5357
741.400	5307
741.513	5149
741.626	5385
741.739	5952
741.851	5195
741.964	5663
742.077	6172
742.189	5631
742.302	5866
742.415	5521
742.527	5935
742.640	5422
742.753	5403
742.865	5638
742.978	5269
743.090	5081
743.203	5631
743.316	4637
743.428	4559
743.541	6065
743.653	5317
743.766	5066
743.878	6173
743.990	4206
744.103	5761
744.215	4917
744.327	5007
744.440	6080
744.552	7781
744.664	4360
744.777	5940
744.889	5305
745.001	5325
745.113	5684
745.226	4631
745.338	5571
745.450	5170
745.562	4876
745.674	5346
745.786	5098
745.898	5895
746.010	4638
746.122	4975
746.234	5409
746.347	5173
746.459	4899
746.570	4552
746.682	4810
746.794	5384
746.906	4543
747.018	5067
747.130	5183
747.242	5159
747.354	4140
747.466	5146
747.577	4644
747.689	5899
747.801	4244
747.913	4695
748.024	4617
748.136	4426
748.248	4524
748.359	4592
748.471	4856
748.583	4368
748.694	4368
748.806	5202
748.918	4408
749.029	4596
749.141	4595
749.252	4512
749.364	3459
749.475	5538
749.587	5441
749.698	5009
749.809	4661
749.921	3840
750.032	3605
750.144	4214
750.255	3654
750.366	3362
750.478	4954
750.589	4741
750.700	4063
750.811	4454
750.923	4902
751.034	4825
751.145	6096
751.256	3579
751.367	4420
751.479	4175
751.590	3565
751.701	4701
751.812	4093
751.923	3694
752.034	3907
752.145	3385
752.256	3841
752.367	4184
752.478	4114
752.589	4368
752.700	4028
752.811	3366
752.922	3706
753.032	4500
753.143	4625
753.254	3523
753.365	4093
753.476	4311
753.586	3286
753.697	3838
753.808	4077
753.919	4140
754.029	4224
754.140	3382
754.251	3542
754.361	3602
754.472	3776
754.582	4553
754.693	3521
754.804	5058
754.914	2505
755.025	3090
755.135	2974
755.246	3345
755.356	3120
755.466	3733
755.577	3355
755.687	3264
755.798	3881
755.908	3333
756.018	3487
756.129	3690
756.239	4012
756.349	3695
756.460	2988
756.570	3828
756.680	3730
756.790	3803
756.900	3630
757.011	3360
757.121	4141
757.231	2829
757.341	3410
757.451	2964
757.561	3032
757.671	3159
757.781	2562
757.891	3580
758.001	3454
758.111	4387
758.221	3278
758.331	3379
758.441	4019
758.551	4328
758.661	3749
758.771	3249
758.880	3744
758.990	3583
759.100	2387
759.210	4274
759.320	3148
759.429	4509
759.539	3914
759.649	4078
759.758	3768
759.868	3852
759.978	3007
760.087	4218
760.197	3776
760.307	4183
760.416	3437
760.526	3576
760.635	3752
760.745	4428
760.854	3858
760.964	4303
761.073	3704
761.182	3875
761.292	4162
761.401	3439
761.511	2544
761.620	3869
761.729	3599
761.839	3029
761.948	3260
762.057	2899
762.166	2523
762.276	2895
762.385	3347
762.494	3789
762.603	2680
762.712	3533
762.822	2993
762.931	3661
763.040	3039
763.149	3070
763.258	2338
763.367	3690
763.476	2348
763.585	3546
763.694	2733
763.803	3408
763.912	2483
764.021	2594
764.130	2780
764.238	2732
764.347	2705
764.456	2855
764.565	3050
764.674	2514
764.783	2188
764.891	2617
765.000	2783
765.109	2975
765.217	2596
765.326	2688
765.435	2988
765.543	2518
765.652	2897
765.761	3110
765.869	3324
765.978	4579
766.086	4877
766.195	9067
766.303	21585
766.412	87796
766.520	91350
766.629	10758
766.737	4819
766.846	3500
766.954	2980
767.062	4134
767.171	2937
767.279	2992
767.387	2129
767.496	3494
767.604	2293
767.712	2388
767.820	2861
767.928	3587
768.037	3193
768.145	3083
768.253	2650
768.361	2911
768.469	2891
768.577	2728
768.685	3070
768.793	2624
768.901	2921
769.009	2672
769.117	2687
769.225	2927
769.333	2878
769.441	3600
769.549	4667
769.657	8691
769.765	28607
769.873	82370
769.981	22981
770.088	4232
770.196	3727
770.304	3987
770.412	2583
770.519	3455
770.627	2533
770.735	3867
770.842	2638
770.950	3069
771.058	3407
771.165	4122
771.273	3465
771.380	3277
771.488	4741
771.595	5305
771.703	4356
771.810	4286
771.918	3884
772.025	5480
772.133	5215
772.240	5596
772.348	5762
772.455	6008
772.562	5635
772.670	5459
772.777	5149
772.884	4883
772.991	5644
773.099	5687
773.206	4537
773.313	5829
773.420	4786
773.528	4657
773.635	4188
773.742	5743
773.849	4883
773.956	5437
774.063	4469
774.170	5104
774.277	4943
774.384	5367
774.491	4613
774.598	4677
774.705	5066
774.812	5310
774.919	5045
775.026	5392
775.133	4979
775.239	5985
775.346	4115
775.453	4277
775.560	4392
775.667	4740
775.773	4431
775.880	4113
775.987	4155
776.093	5330
776.200	4742
776.307	4138
776.413	4458
776.520	4938
776.627	4020
776.733	3807
776.840	2901
776.946	6233
777.053	3947
777.159	3634
777.266	3206
777.372	5119
777.478	4919
777.585	5305
777.691	4113
777.798	4551
777.904	4613
778.010	4066
778.117	5088
778.223	4494
778.329	3981
778.435	4274
778.542	4057
778.648	4378
778.754	3384
778.860	4283
778.966	3820
779.072	3942
779.178	3267
779.284	3396
779.391	2918
779.497	2792
779.603	5417
779.708	3345
779.815	2887
779.920	4520
780.026	3734
780.132	4153
780.238	3342
780.344	3476
780.450	5119
780.556	4206
780.661	2567
780.767	3639
780.873	3181
780.979	2788
781.085	4106
781.190	2665
781.296	2352
781.402	2905
781.507	3254
781.613	3745
781.719	3256
781.824	3322
781.930	3355
782.035	4020
782.141	3423
782.246	2694
782.352	2555
782.457	3071
782.563	2314
782.668	3285
782.773	2728
782.879	2707
782.984	2995
783.090	3881
783.195	2979
783.300	4406
783.405	2609
783.511	2717
783.616	3252
783.721	3638
783.826	3075
783.932	3194
784.037	2457
784.142	3169
784.247	2070
784.352	2835
784.457	2905
784.562	2906
784.667	2737
784.772	2259
784.877	2330
784.982	2759
785.087	2137
785.192	2944
785.297	2636
785.402	2406
785.507	2632
785.611	2636
785.716	2192
785.821	3039
785.926	2510
786.031	2134
786.135	1752
786.240	2897
786.345	1415
786.450	2387
786.554	1974
786.659	2023
786.763	1784
786.868	3299
786.973	2126
787.077	1879
787.182	2210
787.286	3015
787.391	3232
787.495	2509
787.600	2313
787.704	2306
787.809	2208
787.913	2557
788.017	2154
788.122	2812
788.226	1658
788.330	2071
788.435	2219
788.539	2690
788.643	1761
788.747	1478
788.852	1621
788.956	1887
789.060	2175
789.164	2194
789.268	2199
789.372	2826
789.476	2681
789.580	1868
789.684	2321
789.788	2510
789.892	1268
789.996	1855
790.100	2117
790.204	2257
790.308	2076
790.412	1711
790.516	1919
790.620	1858
790.724	2247
790.828	1137
790.931	1396
791.035	2936
791.139	1511
791.242	1623
791.346	1947
791.450	2204
791.554	1418
791.657	32
791.761	1929
791.864	2488
791.968	2201
792.072	2160
792.175	1304
792.279	1705
792.382	2273
792.486	1852
792.589	1221
792.693	2911
792.796	1514
792.899	2435
793.003	1666
793.106	1445
793.209	782
793.313	3328
793.416	760
793.519	2840
793.623	2975
793.726	2570
793.829	1751
793.932	762
794.035	841
794.138	2391
794.242	1603
794.345	1602
794.448	1512
794.551	1901
794.654	2465
794.757	2597
794.860	1940
794.963	1501
795.066	716
795.169	1851
795.272	1375
795.375	2390
795.477	917
795.580	1871
795.683	1017
795.786	1817
795.889	1219
795.991	2615
796.094	1633
796.197	2124
796.300	2375
796.402	1197
796.505	1149
796.608	1806
796.710	1583
796.813	1807
796.915	1659
797.018	1266
797.120	1637
797.223	1577
797.326	2353
797.428	440
797.530	1386
797.633	1983
797.735	2134
797.838	1613
797.940	2439
798.042	2005
798.145	1614
798.247	1237
798.349	648
798.452	1850
798.554	1198
798.656	1249
798.758	2687
798.860	1820
798.962	118
799.065	1045
799.167	643
799.269	2384
799.371	2200
799.473	2421
799.575	1221
799.677	1294
799.779	2253
799.881	839
799.983	2584
800.085	2176
800.187	758
800.289	548
800.390	1625
800.492	2383
800.594	1317
800.696	599
800.798	889
800.899	1526
801.001	1257
801.103	1409
801.205	1239
801.306	1315
801.408	519
801.509	737
801.611	1273
801.713	1321
801.814	549
801.916	925
802.017	1060
802.119	719
802.220	910
802.322	12
802.423	2251
802.525	723
802.626	1343
802.727	1776
802.829	1651
802.930	-39
803.031	2542
803.133	102
803.234	670
803.335	711
803.436	757
803.538	1657
803.639	888
803.740	1657
803.841	472
803.942	1765
804.043	1336
804.144	681
804.245	1045
804.346	1069
804.447	-129
804.548	987
804.649	1572
804.750	532
804.851	1177
804.952	748
805.053	892
805.154	169
805.255	1492
805.355	536
805.456	489
805.557	926
805.658	269
805.758	1406
805.859	1225
805.960	903
806.061	1209
806.161	1128
806.262	883
806.362	898
806.463	854
806.564	1096
806.664	1120
806.765	621
806.865	797
806.966	774
807.066	572
807.166	895
807.267	1206
807.367	1251
807.468	818
807.568	125
807.668	902
807.769	1449
807.869	181
807.969	748
808.069	-5
808.170	939
808.270	179
808.370	880
808.470	870
808.570	652
808.670	1198
808.770	1060
808.870	784
808.970	750
809.070	1395
809.170	1051
809.271	-57
809.370	677
809.470	1262
809.570	138
809.670	175
809.770	676
809.870	983
809.970	1136
810.070	1072
810.169	1593
810.269	-634
810.369	2587
810.469	791
810.568	926
810.668	243
810.768	1274
810.867	982
810.967	1025
811.066	862
811.166	207
811.265	1793
811.365	760
811.464	485
811.564	1725
811.663	849
811.763	698
811.862	688
811.962	895
812.061	443
812.160	624
812.260	798
812.359	213
812.458	798
812.557	3524
812.657	5410
812.756	2003
812.855	598
812.954	212
813.053	238
813.153	939
813.252	746
813.351	72
813.450	1094
813.549	259
813.648	576
813.747	395
813.846	1247
813.945	1082
814.044	655
814.143	627
814.242	593
814.341	351
814.439	1057
814.538	981
814.637	660
814.736	1529
814.835	649
814.933	632
815.032	766
815.131	1043
815.229	1725
815.328	3094
815.427	2328
815.525	2369
815.624	2319
815.722	2770
815.821	2194
815.919	2246
816.018	852
816.116	2329
816.215	1396
816.313	2003
816.412	2647
816.510	2951
816.609	3676
816.707	2853
816.805	3069
816.904	2489
817.002	2120
817.100	3151
817.198	3129
817.296	2541
817.395	2381
817.493	3209
817.591	2349
817.689	2593
817.787	2167
817.885	3295
817.983	4101
818.081	6592
818.179	11302
818.277	30332
818.375	30942
818.473	7540
818.571	3560
818.669	2824
818.767	2983
818.865	3027
818.963	2996
819.061	3088
819.158	4941
819.256	10847
819.354	21664
819.452	57516
819.549	39672
819.647	9169
819.745	3344
819.842	3353
819.940	2322
820.038	2235
820.135	1584
820.233	2332
820.330	2005
820.428	2132
820.525	2896
820.623	2319
820.720	1254
820.818	2437
820.915	2401
821.012	2318
821.110	508
821.207	2634
821.304	1226
821.402	3042
821.499	2376
821.596	1998
821.693	1699
821.791	1632
821.888	2146
821.985	3366
822.082	1361
822.179	2208
822.276	1545
822.373	2289
822.470	1244
822.567	1837
822.664	1822
822.761	1709
822.858	1972
822.955	1532
823.052	1404
823.149	1371
823.246	1089
823.343	756
823.440	1380
823.536	1005
823.633	2042
823.730	1563
823.827	1613
823.923	1533
824.020	2336
824.117	1604
824.213	905
824.310	1413
824.407	1437
824.503	1789
824.600	1582
824.696	1333
824.793	1907
824.889	1554
824.986	631
825.082	839
825.179	277
825.275	986
825.371	1709
825.468	1637
825.564	67
825.660	1297
825.757	1666
825.853	1078
825.949	694
826.045	1622
826.142	527
826.238	1962
826.334	1462
826.430	950
826.526	1399
826.622	-249
826.718	877
826.814	1025
826.910	1178
827.006	555
827.102	1146
827.198	923
827.294	979
827.390	1838
827.486	790
827.582	571
827.678	5
827.774	2105
827.869	1349
827.965	2082
828.061	933
828.157	1281
828.252	1171
828.348	775
828.444	1118
828.539	788
828.635	749
828.731	1404
828.826	759
828.922	1497
829.017	881
829.113	1695
829.208	901
829.304	924
829.399	2132
829.495	2025
829.590	981
829.685	1455
829.781	1005
829.876	1870
829.971	-102
830.066	278
830.162	264
830.257	993
830.352	1377
830.447	1045
830.543	343
830.638	648
830.733	1806
830.828	617
830.923	1459
831.018	443
831.113	791
831.208	341
831.303	214
831.398	616
831.493	413
831.588	1511
831.683	-61
831.778	388
831.873	988
831.967	1776
832.062	543
832.157	434
832.252	1170
832.346	376
832.441	793
832.536	1018
832.631	2282
832.725	1392
832.820	361
832.914	503
833.009	783
833.104	492
833.198	846
833.293	5
833.387	1539
833.482	1102
833.576	456
833.670	698
833.765	681
833.859	464
833.954	633
834.048	1284
834.142	511
834.237	513
834.331	1432
834.425	836
834.519	-455
834.613	1439
834.708	412
834.802	508
834.896	391
834.990	754
835.084	379
835.178	392
835.272	45
835.366	479
835.460	961
835.554	177
835.648	907
835.742	-666
835.836	-593
835.930	-223
836.024	359
836.117	538
836.211	491
836.305	719
836.399	892
836.493	-430
836.586	836
836.680	-546
836.774	-204
836.867	1170
836.961	-218
837.055	-279
837.148	-589
837.242	760
837.335	323
837.429	269
837.522	-703
837.616	11
837.709	644
837.803	920
837.896	-64
837.989	629
838.083	439
838.176	-112
838.269	-350
838.363	305
838.456	86
838.549	246
838.642	-135
838.735	2233
838.829	1482
838.922	-13
839.015	-274
839.108	-564
839.201	217
839.294	601
839.387	246
839.480	-43
839.573	-463
839.666	277
839.759	-483
839.852	146
839.945	177
840.038	76
840.131	-57
840.223	-297
840.316	925
840.409	-787
840.502	-66
840.594	757
840.687	-416
840.780	-344
840.873	-264
840.965	289
841.058	231
841.150	1271
841.243	-674
841.336	428
841.428	62
841.521	-85
841.613	-1130
841.706	22
841.798	-78
841.890	376
841.983	-1138
842.075	18
842.167	-1025
842.260	549
842.352	377
842.444	647
842.537	101
842.629	991
842.721	-465
842.813	-13
842.905	-347
842.997	186
843.090	31
843.182	80
843.274	-253
843.366	1130
843.458	1573
843.550	1364
843.642	178
843.734	637
843.826	-199
843.918	1205
844.009	-194
844.101	89
844.193	-39
844.285	-96
844.377	-153
844.469	725
844.560	-290
844.652	-43
844.744	-368
844.835	-143
844.927	-384
845.019	142
845.110	-472
845.202	186
845.293	-389
845.385	-626
845.476	-315
845.568	642
845.659	-650
845.751	193
845.842	-321
845.934	-74
846.025	-309
846.116	59
846.208	-294
846.299	-497
846.390	600
846.482	123
846.573	90
846.664	-399
846.755	-739
846.846	968
846.937	-1205
847.029	-27
847.120	-645
847.211	445
847.302	751
847.393	-643
847.484	381
847.575	-1066
847.666	-1188
847.757	-349
847.847	121
847.938	401
848.029	176
848.120	381
848.211	-746
848.302	-111
848.392	-547
848.483	220
848.574	-907
848.664	-310
848.755	272
848.846	413
848.936	76
849.027	-689
849.118	-635
849.208	-159
849.299	-198
849.389	1079
849.480	1666
849.570	4546
849.661	8035
849.751	18519
849.841	9521
849.932	646
850.022	-707
850.112	1059
850.203	-425
850.293	-310
850.383	-988
850.474	-569
850.564	-20
850.654	786
850.744	-682
850.834	-441
850.924	604
851.014	768
851.104	-222
851.194	-84
851.284	-379
851.374	203
851.464	-337
851.554	291
851.644	-684
851.734	256
851.824	-1183
851.914	-1136
852.004	186
852.094	-533
852.183	-461
852.273	-432
852.363	-1035
852.452	319
852.542	-56
852.632	-161
852.721	-833
852.811	-628
852.901	274
852.990	221
853.080	-21
853.169	-243
853.259	-581
853.348	-850
853.438	-597
853.527	415
853.617	531
853.706	3130
853.795	4954
853.885	11255
853.974	24286
854.063	42985
854.152	81611
854.242	43685
854.331	6282
854.420	2017
854.509	1252
854.598	649
854.687	826
854.777	37
854.866	229
854.955	931
855.044	-1103
855.133	164
855.222	-592
855.311	-240
855.400	-342
855.488	337
855.577	-1219
855.666	234
855.755	-727
855.844	-275
855.933	-350
856.021	30
856.110	-1684
856.199	-230
856.288	-1105
856.376	-221
856.465	-755
856.554	-222
856.642	-1339
856.731	176
856.819	-560
856.908	-676
856.996	-730
857.085	-1492
857.173	-1161
857.262	-680
857.350	-156
857.438	48
857.527	-817
857.615	-789
857.703	-570
857.792	-399
857.880	-668
857.968	-498
858.056	-285
858.145	-379
858.233	-1201
858.321	-860
858.409	237
858.497	6
858.585	-804
858.673	468
858.761	-1576
858.849	-644
858.937	-968
859.025	323
859.113	-289
859.201	-1081
859.289	-548
859.377	-912
859.465	3
859.552	56
859.640	-398
859.728	-787
859.816	-895
859.903	311
859.991	-196
860.079	-658
860.166	-393
860.254	-92
860.342	-50
860.429	-670
860.517	-876
860.604	-344
860.692	-1350
860.779	-403
860.867	-114
860.954	-322
861.042	195
861.129	-750
861.216	-833
861.304	-478
861.391	-1268
861.478	-101
861.565	-246
861.653	791
861.740	-1111
861.827	-398
861.914	-739
862.001	-704
862.089	-460
862.176	-1461
862.263	-1336
862.350	-244
862.437	-1126
862.524	-363
862.611	-508
862.698	-532
862.785	-662
862.871	-219
862.958	-738
863.045	343
863.132	-1107
863.219	-1094
863.306	-1000
863.392	-389
863.479	-340
863.566	-486
863.652	398
863.739	-451
863.826	-66
863.912	-146
863.999	-650
864.086	-65
864.172	-574
864.259	-73
864.345	-675
864.432	314
864.518	-668
864.604	-745
864.691	-729
864.777	-106
864.863	464
864.950	-6
865.036	80
865.122	2147
865.209	2487
865.295	1901
865.381	1530
865.467	1757
865.553	1749
865.639	1354
865.726	4526
865.812	6689
865.898	13367
865.984	21144
866.070	35380
866.156	54916
866.242	18746
866.328	3697
866.414	1249
866.499	1641
866.585	313
866.671	1759
866.757	1615
866.843	2172
866.928	1172
867.014	1142
867.100	1051
867.186	204
867.271	1203
867.357	653
867.442	1048
867.528	1581
867.614	357
867.699	611
867.785	943
867.870	685
867.956	877
868.041	988
868.127	404
868.212	766
868.297	309
868.383	624
868.468	814
868.553	1677
868.639	2136
868.724	2436
868.809	3331
868.894	1524
868.979	271
869.065	1369
869.150	271
869.235	851
869.320	318
869.405	821
869.490	-466
869.575	1370
869.660	-306
869.745	333
869.830	1130
869.915	372
870.000	179
870.085	1066
870.169	711
870.254	1309
870.339	-46
870.424	723
870.509	802
870.593	1113
870.678	1586
870.763	687
870.847	263
870.932	-33
871.016	415
871.101	-31
871.186	641
871.270	1049
871.355	-215
871.439	319
871.523	-1
871.608	420
871.692	302
871.777	1121
871.861	506
871.945	87
872.030	-1
872.114	565
872.198	-350
872.282	-61
872.367	1269
872.451	-96
872.535	1455
872.619	166
872.703	154
872.787	322
872.871	-320
872.955	1215
873.039	-536
873.123	-803
873.207	724
873.291	-475
873.375	-238
873.459	138
873.543	533
873.627	345
873.711	316
873.794	182
873.878	32
873.962	-320
874.045	1183
874.129	671
874.137	556
874.213	-600
874.245	-68
874.296	796
874.352	-787
874.380	-1561
874.460	-237
874.464	-185
874.547	204
874.568	329
874.631	712
874.676	596
874.714	492
874.784	444
874.798	435
874.881	1850
874.892	1636
874.965	188
874.999	137
875.048	24
875.107	711
875.131	999
875.215	245
875.215	245
875.298	-932
875.323	-561
875.381	398
875.430	333
875.465	280
875.538	200
875.548	182
875.631	-305
875.646	-314
875.714	-359
875.753	-215
875.798	10
875.861	-145
875.881	-233
875.964	-330
875.968	-299
876.047	385
876.076	304
876.130	106
876.183	51
876.213	65
876.291	541
876.296	564
876.379	226
876.398	152
876.462	-91
876.506	-575
876.545	-972
876.613	-80
876.628	137
876.711	-2
876.721	23
876.794	83
876.828	-4
876.877	-150
876.935	134
876.960	263
877.043	-276
877.043	-273
877.125	749
877.150	734
877.208	541
877.258	332
877.291	262
877.365	511
877.374	522
877.456	545
877.472	459
877.539	169
877.579	44
877.622	4
877.687	-62
877.704	-112
877.787	184
877.794	198
877.869	390
877.901	382
877.952	278
878.008	32
878.034	-17
878.115	189
878.117	188
878.199	-410
878.222	-255
878.282	550
878.329	458
878.364	290
878.437	1147
878.447	1210
878.529	-239
878.544	-230
878.611	157
878.651	-81
878.694	-227
878.758	396
878.776	529
878.858	125
878.865	149
878.941	96
878.972	-223
879.023	-582
879.078	-374
879.105	-156
879.185	305
879.187	309
879.269	284
879.292	130
879.351	51
879.399	213
879.433	217
879.506	707
879.516	717
879.598	-128
879.613	-210
879.680	-166
879.720	263
879.762	733
879.827	59
879.844	-131
879.926	761
879.933	681
880.007	11
880.040	238
880.089	455
880.147	38
880.171	-76
880.253	909
880.254	908
880.335	744
880.360	845
880.417	1127
880.467	1270
880.499	1453
880.574	2781
880.580	2845
880.662	1319
880.680	1052
880.744	164
880.787	3
880.825	97
880.893	315
880.907	290
880.989	-155
881.000	-114
881.070	564
881.106	431
881.152	122
881.213	505
881.233	580
881.315	-181
881.319	-179
881.396	295
881.426	264
881.478	92
881.532	221
881.559	395
881.639	120
881.641	109
881.722	508
881.745	386
881.803	67
881.852	141
881.885	320
881.958	474
881.966	491
882.047	781
882.064	813
882.129	775
882.171	633
882.210	494
882.277	638
882.291	711
882.372	800
882.383	809
882.454	855
882.489	719
882.535	382
882.596	414
882.616	456
882.697	148
882.702	121
882.778	37
882.808	231
882.859	329
882.914	203
882.940	302
883.020	308
883.021	310
883.102	564
883.127	620
883.183	929
883.233	818
883.264	553
883.339	164
883.345	156
883.426	155
883.445	107
883.507	173
883.551	345
883.587	476
883.657	783
883.668	810
883.749	1100
883.763	967
883.830	95
883.869	110
883.910	266
883.975	231
883.991	198
884.072	-138
884.081	-149
884.152	833
884.187	1257
884.233	1119
884.292	993
884.314	957
884.394	174
884.398	158
884.475	385
884.504	502
884.555	444
884.610	196
884.636	241
884.716	429
884.716	435
884.797	880
884.821	826
884.877	577
884.927	818
884.958	820
885.033	263
885.038	270
885.118	316
885.139	343
885.199	-110
885.244	-331
885.279	-3
885.350	511
885.359	534
885.439	1140
885.456	1097
885.520	648
885.561	513
885.600	334
885.667	237
885.680	409
885.760	1120
885.773	1258
885.840	1000
885.878	815
885.920	649
885.984	266
886.000	290
886.080	544
886.089	548
886.160	980
886.195	1265
886.240	1053
886.300	556
886.320	491
886.400	553
886.406	543
886.480	245
886.511	176
886.560	568
886.616	781
886.640	624
886.720	345
886.722	331
886.800	557
886.827	677
886.879	744
886.932	651
886.959	831
887.038	1596
887.039	1598
887.119	1000
887.143	877
887.198	839
887.248	609
887.278	716
887.354	1068
887.358	1074
887.437	1028
887.459	1058
887.517	1226
887.564	1231
887.596	926
887.669	248
887.676	228
887.755	-51
887.774	-98
887.835	446
887.880	821
887.914	760
887.985	571
887.994	611
888.073	967
888.090	1040
888.153	1069
888.195	1001
888.232	920
888.300	851
888.311	868
888.391	997
888.405	1002
888.470	747
888.510	537
888.549	275
888.615	-77
888.628	21
888.708	617
888.720	697
888.787	521
888.825	417
888.866	496
888.930	536
888.945	521
889.024	552
889.035	552
889.103	1726
889.140	2303
889.182	1760
889.245	999
889.261	1004
889.340	977
889.349	973
889.419	820
889.454	738
889.498	804
889.559	889
889.577	938
889.656	1156
889.664	1175
889.735	1231
889.768	1256
889.814	1104
889.873	896
889.978	616
890.083	601
890.187	622
890.292	893
890.397	752
890.501	808
890.606	472
890.710	545
890.815	1430
890.919	574
891.024	1796
891.128	722
891.233	714
891.337	1062
891.442	1049
891.546	429
891.650	944
891.755	920
891.859	1555
891.963	1274
892.068	1046
892.172	348
892.276	-19
892.380	1270
892.484	535
892.589	844
892.693	1414
892.797	1243
892.901	32
893.005	514
893.109	1091
893.213	1095
893.317	616
893.421	-337
893.525	373
893.629	353
893.733	752
893.837	438
893.941	65
894.045	364
894.148	-307
894.252	761
894.356	587
894.460	1094
894.564	912
894.667	613
894.771	692
894.875	-38
894.978	441
895.082	291
895.186	775
895.289	1705
895.393	223
895.496	758
895.600	655
895.703	727
895.807	961
895.910	420
896.014	262
896.117	604
896.221	467
896.324	473
896.427	744
896.531	439
896.634	362
896.737	542
896.840	102
896.944	293
897.047	411
897.150	753
897.253	189
897.356	286
897.460	122
897.563	633
897.666	1343
897.769	560
897.872	89
897.975	-15
898.078	188
898.181	-218
898.284	184
898.387	672
898.490	818
898.593	998
898.695	241
898.798	209
898.901	60
899.004	-23
899.107	-142
899.209	816
899.312	706
899.415	668
899.518	271
899.620	430
899.723	202
899.826	477
899.928	156
900.031	357
900.133	829
900.236	181
900.338	89
900.441	44
900.543	340
900.646	65
900.748	749
900.851	191
900.953	-92
901.055	-116
901.158	321
901.260	-39
901.362	-194
901.465	-213
901.567	-574
901.669	321
901.771	456
901.873	141
901.976	-227
902.078	611
902.180	223
902.282	-246
902.384	335
902.486	-14
902.588	245
902.690	670
902.792	54
902.894	217
902.996	138
903.098	402
903.200	678
903.302	-254
903.404	-53
903.505	742
903.607	-3
903.709	767
903.811	174
903.913	548
904.014	80
904.116	314
904.218	-47
904.319	108
904.421	941
904.523	588
904.624	167
904.726	340
904.827	-388
904.929	42
905.030	-529
905.132	1033
905.233	293
905.335	-587
905.436	402
905.537	-73
905.639	-334
905.740	797
905.841	-90
905.943	-11
906.044	-17
906.145	-12
906.247	458
906.348	-543
906.449	200
906.550	69
906.651	820
906.752	34
906.854	562
906.955	-244
907.056	63
907.157	508
907.258	-64
907.359	-654
907.460	128
907.561	-1009
907.662	-178
907.762	155
907.863	448
907.964	-56
908.065	438
908.166	190
908.267	-149
908.367	-759
908.468	110
908.569	-359
908.670	515
908.770	646
908.871	20
908.971	611
909.072	240
909.173	-631
909.273	468
909.374	437
909.474	831
909.575	138
909.675	-587
909.776	536
909.876	251
909.977	306
910.077	1202
910.177	-27
910.278	-588
910.378	101
910.478	224
910.579	34
910.679	205
910.779	319
910.879	265
910.980	391
911.080	940
911.180	-193
911.280	119
911.380	-284
911.480	60
911.580	8
911.680	-91
911.780	281
911.880	601
911.980	160
912.080	324
912.180	160
912.280	311
912.380	-425
912.480	-547
912.580	-442
912.679	-456
912.779	599
912.879	-137
912.979	296
913.078	356
913.178	-241
913.278	184
913.377	237
913.477	503
913.577	-887
913.676	704
913.776	458
913.875	194
913.975	282
914.074	-268
914.174	-94
914.273	-294
914.373	514
914.472	-256
914.572	-158
914.671	-32
914.770	-126
914.870	-228
914.969	-679
915.068	-176
915.167	295
915.267	-90
915.366	-551
915.465	-529
915.564	432
915.663	311
915.763	230
915.862	-108
915.961	16
916.060	-388
916.159	-223
916.258	171
916.357	301
916.456	521
916.555	-387
916.654	-189
916.752	85
916.851	339
916.950	273
917.049	-143
917.148	-106
917.247	369
917.345	-460
917.444	182
917.543	-78
917.642	-101
917.740	-703
917.839	549
917.937	-292
918.036	569
918.135	772
918.233	821
918.332	-418
918.430	512
918.529	-518
918.627	-153
918.726	693
918.824	473
918.923	101
919.021	149
919.119	-441
919.218	-621
919.316	-180
919.414	421
919.512	-88
919.611	-73
919.709	76
919.807	574
919.905	-36
920.003	628
920.102	-204
920.200	555
920.298	830
920.396	538
920.494	514
920.592	37
920.690	74
920.788	924
920.886	-56
920.984	664
921.082	531
921.180	779
921.277	419
921.375	505
921.473	1342
921.571	1585
921.669	576
921.766	1298
921.864	294
921.962	1165
922.060	-70
922.157	1553
922.255	1533
922.352	1162
922.450	977
922.548	865
922.645	1654
922.743	966
922.840	2587
922.938	3619
923.035	3170
923.133	3115
923.230	3126
923.327	4086
923.425	3458
923.522	4331
923.619	3162
923.717	3283
923.814	2928
923.911	2943
924.008	2696
924.106	3164
924.203	2463
924.300	3150
924.397	2339
924.494	3719
924.591	2199
924.688	1929
924.786	2879
924.883	2314
924.979	2717
925.077	2982
925.173	2335
925.270	2285
925.367	2698
925.464	3759
925.561	3356
925.658	3146
925.755	2107
925.852	3132
925.948	3352
926.045	3562
926.142	2634
926.239	2863
926.335	1861
926.432	2427
926.529	2342
926.625	3413
926.722	2372
926.818	1893
926.915	2867
927.011	2270
927.108	2623
927.204	2866
927.301	2902
927.397	2923
927.494	3401
927.590	1937
927.687	1356
927.783	2901
927.879	2527
927.976	3047
928.072	2425
928.168	2200
928.264	2597
928.361	1390
928.457	2276
928.553	2040
928.649	1668
928.745	2403
928.841	2484
928.937	2006
929.033	3177
929.129	2625
929.225	2459
929.321	2328
929.417	1781
929.513	2395
929.609	1908
929.705	2028
929.801	2236
929.897	2503
929.993	2109
930.089	1774
930.184	2451
930.280	2480
930.376	3179
930.471	1978
930.567	1069
930.663	2538
930.758	1795
930.854	1984
930.950	1815
931.045	2075
931.141	1543
931.236	3150
931.332	2596
931.427	1904
931.523	2573
931.618	1325
931.714	859
931.809	1612
931.905	2962
932.000	946
932.095	1382
932.191	1861
932.286	2595
932.381	2256
932.476	1476
932.572	1592
932.667	1918
932.762	1908
932.857	2638
932.952	3372
933.047	1666
933.142	1219
933.237	1930
933.332	1314
933.427	2912
933.522	2334
933.617	2122
933.712	1758
933.807	2176
933.902	1980
933.997	2056
934.092	1830
934.187	1309
934.282	2392
934.376	1464
934.471	1563
934.566	1082
934.661	1274
934.755	2647
934.850	2077
934.945	2043
935.039	1271
935.134	825
935.228	1040
935.323	3059
935.417	2371
935.512	954
935.606	875
935.701	1273
935.795	2021
935.890	2199
935.984	1739
936.079	1419
936.173	1575
936.267	2156
936.362	1493
936.456	1421
936.550	2383
936.644	1409
936.738	1301
936.833	859
936.927	648
937.021	580
937.115	1609
937.209	1841
937.303	1910
937.397	1421
937.491	1237
937.585	1643
937.679	1413
937.773	1411
937.867	1804
937.961	1127
938.055	1311
938.149	2045
938.243	941
938.337	410
938.430	807
938.524	1731
938.618	1494
938.712	969
938.805	1475
938.899	1779
938.993	2536
939.086	1242
939.180	979
939.274	700
939.367	513
939.461	1925
939.554	1859
939.648	726
939.741	913
939.835	1641
939.928	1946
940.022	1829
940.115	777
940.208	2030
940.302	1977
940.395	1372
940.488	305
940.582	1661
940.675	891
940.768	1053
940.861	1165
940.954	1556
941.048	298
941.141	110
941.234	599
941.327	459
941.420	1666
941.513	815
941.606	1362
941.699	1068
941.792	1223
941.885	1137
941.978	1493
942.071	681
942.164	1061
942.257	897
942.349	499
942.442	944
942.535	98
942.628	1061
942.721	608
942.813	219
942.906	1479
942.999	626
943.091	318
943.184	534
943.277	836
943.369	506
943.462	147
943.554	725
943.647	332
943.739	1973
943.832	1139
943.924	460
944.017	600
944.109	-163
944.201	589
944.294	277
944.386	11
944.478	110
944.571	288
944.663	547
944.755	1777
944.847	1094
944.940	259
945.032	397
945.124	-52
945.216	940
945.308	1325
945.400	621
945.492	1270
945.584	704
945.676	955
945.768	281
945.860	533
945.952	1041
946.044	752
946.136	73
946.228	740
946.320	-242
946.412	1055
946.503	936
946.595	1792
946.687	469
946.779	-2
946.870	481
946.962	-113
947.054	669
947.145	1117
947.237	30
947.329	795
947.420	20
947.512	1119
947.603	-94
947.695	191
947.786	590
947.878	-366
947.969	699
948.061	202
948.152	101
948.243	1064
948.335	503
948.426	-505
948.517	523
948.609	477
948.700	383
948.791	-133
948.882	-188
948.973	-79
949.065	-94
949.156	227
949.247	-168
949.338	407
949.429	78
949.520	112
949.611	-148
949.702	1594
949.793	-480
949.884	3
949.975	143
950.066	-707
950.157	344
950.247	-374
950.338	40
950.429	205
950.520	-446
950.611	39
950.701	179
950.792	1017
950.883	1014
950.973	301
951.064	-70
951.155	102
951.245	354
951.336	102
951.427	-608
951.517	907
951.608	380
951.698	431
951.788	389
951.879	-506
951.969	-1034
952.060	132
952.150	-98
952.240	44
952.331	-710
952.421	160
952.511	11
952.602	202
952.692	-525
952.782	92
952.872	-750
952.962	-681
953.052	914
953.143	-281
953.233	-26
953.323	871
953.413	375
953.503	534
953.593	-223
953.683	222
953.773	-829
953.863	-461
953.953	-452
954.042	-50
954.132	223
954.222	309
954.312	-467
954.402	-239
954.492	-988
954.581	-11
954.671	-320
954.761	334
954.850	-103
954.940	-261
955.030	-1445
955.119	286
955.209	-220
955.298	-500
955.388	1
955.477	-367
955.567	-543
955.656	278
955.746	226
955.835	-333
955.925	-579
956.014	-140
956.103	-57
956.193	-414
956.282	94
956.371	-283
956.461	52
956.550	-401
956.639	-636
956.728	105
956.817	-439
956.906	-408
956.995	24
957.085	-1190
957.174	-18
957.263	-362
957.352	-480
957.441	-242
957.530	-788
957.619	-1146
957.708	98
957.796	-1
957.885	30
957.974	-1049
958.063	-413
958.152	-160
958.241	-467
958.329	-715
958.418	-913
958.507	-858
958.596	784
958.684	-466
958.773	-29
958.861	-485
958.950	-804
959.039	-642
959.127	-93
959.216	-1091
959.304	-815
959.393	-1187
959.481	-383
959.570	-659
959.658	-1153
959.746	-904
959.835	-377
959.923	-438
960.011	-727
960.100	-529
960.188	-399
960.276	-1325
960.365	-1424
960.453	-728
960.541	-634
960.629	82
960.717	-326
960.805	-1090
960.893	-673
960.981	-1134
961.069	-153
961.158	-324
961.245	118
961.333	-871
961.421	-1055
961.509	-205
961.597	-137
961.685	-826
961.773	-851
961.861	-508
961.949	12
962.036	-899
962.124	-914
962.212	-583
962.299	-374
962.387	-620
962.475	-476
962.562	-1153
962.650	57
962.738	-133
962.825	-604
962.913	-1121
963.000	-262
963.088	-580
963.175	-307
963.263	-489
963.350	-888
963.438	180
963.525	-557
963.612	338
963.700	-421
963.787	298
963.874	-357
963.962	-613
964.049	-1059
964.136	104
964.223	-1270
964.310	-501
964.398	-868
964.485	-792
964.572	-588
964.659	-320
964.746	-396
964.833	-147
964.920	-890
965.007	-365
965.094	-89
965.181	-748
965.268	7
965.355	-812
965.441	-577
965.528	-1577
965.615	-124
965.702	-824
965.789	-1486
965.875	-83
965.962	-1020
966.049	-1012
966.136	-464
966.222	-1425
966.309	-463
966.395	-333
966.482	-1260
966.569	25
966.655	-547
966.742	-352
966.828	-265
966.915	-568
967.001	-549
967.087	-543
967.174	-1239
967.260	-454
967.347	-708
967.433	-439
967.519	-833
967.605	-1154
967.692	-324
967.778	-1296
967.864	-849
967.950	-819
968.036	-1364
968.123	-918
968.209	-1246
968.295	-1276
968.381	-774
968.467	-1079
968.553	-1389
968.639	-293
968.725	-1475
968.811	-582
968.897	-684
968.983	-983
969.069	-1298
969.154	-478
969.240	-496
969.326	-641
969.412	-950
969.497	-881
969.583	-1218
969.669	-100
969.755	-746
969.840	-1570
969.926	-379
970.012	-14
970.097	142
970.183	-155
970.268	119
970.354	-602
970.439	-1068
970.525	-540
970.610	-1703
970.696	-272
970.781	-276
970.866	-693
970.952	-967
971.037	-1425
971.122	-776
971.208	-1080
971.293	-165
971.378	-1362
971.463	-860
971.549	321
971.634	-1726
971.719	-641
971.804	-974
971.889	-323
971.974	-1231
972.059	-701
972.144	-540
972.229	-691
972.314	-740
972.399	-114
972.484	-1244
972.569	-585
972.654	-1145
972.739	-1423
972.824	-1162
972.908	-724
972.993	-1688
973.078	-1018
973.163	-1081
973.247	-743
973.332	-2177
973.417	779
973.501	-611
973.586	-1094
973.671	-648
973.755	-1246
973.840	-947
973.924	-966
974.009	-688
974.093	-563
974.178	-462
974.262	-985
974.346	-654
974.431	-1234
974.515	-1096
974.600	-588
974.684	-868
974.768	-1120
974.852	510
974.937	-1323
975.021	-364
975.105	-134
975.189	-888
975.273	-73
975.358	-1115
975.442	-1964
975.526	-792
975.610	-1844
975.694	-1906
975.778	-627
975.862	-1121
975.946	-2153
976.030	247
976.114	-988
976.198	-1752
976.281	-1343
976.365	-754
976.449	-1135
976.533	-1509
976.617	-1013
976.700	-1313
976.784	-972
976.868	-1047
976.951	-1155
977.035	-1098
977.119	-1020
977.202	-902
977.286	-947
977.369	-1132
977.453	-690
977.536	-101
977.620	-464
977.703	-336
977.787	-1648
977.870	-775
977.953	-274
978.037	-1498
978.120	-335
978.203	-1233
978.287	-1108
978.370	-1223
978.453	-1564
978.536	-975
978.620	-298
978.703	-1295
978.786	-1463
978.869	-771
978.952	-1790
979.035	-70
979.118	-1106
979.201	-1463
979.284	-995
979.367	-1169
979.450	-1539
979.533	-833
979.616	-1622
979.699	-558
979.782	79
979.865	-501
979.948	-1449
980.030	-1676
980.113	-421
980.196	-2037
980.279	-602
980.361	-608
980.444	-964
980.526	-944
980.609	-897
980.692	-992
980.774	-412
980.857	-1572
980.939	20
981.022	-952
981.104	-980
981.187	-1060
981.269	-1583
981.352	-409
981.434	-1750
981.516	-944
981.599	-987
981.681	-614
981.763	-1188
981.846	-1414
981.928	-1409
982.010	-629
982.092	-785
982.174	120
982.256	-1024
982.339	-603
982.421	104
982.503	-565
982.585	-717
982.667	-1316
982.749	-863
982.831	-1871
982.913	-1969
982.995	-565
983.077	-1268
983.158	-620
983.240	-1285
983.322	-820
983.404	-525
983.486	-475
983.568	-597
983.649	-188
983.731	-164
983.813	-1352
983.894	-78
983.976	-710
984.058	-1482
984.139	-229
984.221	-811
984.302	-4
984.384	-1129
984.465	-1667
984.547	-239
984.628	-713
984.710	-862
984.791	-753
984.872	-1028
984.954	-886
985.035	-557
985.116	-1433
985.198	-916
985.279	121
985.360	-778
985.441	-90
985.522	-48
985.604	164
985.685	-2425
985.766	-529
985.847	83
985.928	-986
986.009	-368
986.090	-1141
986.171	-935
986.252	-927
986.333	-454
986.414	-933
986.495	-660
986.576	-1125
986.656	-914
986.737	-751
986.818	-329
986.899	-1690
986.980	-555
987.060	-133
987.141	-1328
987.222	-855
987.302	-348
987.383	-419
987.464	-826
987.544	-622
987.625	-122
987.705	-1226
987.786	-912
987.866	-779
987.947	-818
988.027	-518
988.108	-572
988.188	-557
988.268	-684
988.349	-734
988.429	-1042
988.509	-320
988.589	-1097
988.670	-955
988.750	79
988.830	-539
988.910	-423
988.990	-797
989.070	36
989.151	-848
989.231	-1724
989.311	-145
989.391	-550
989.471	-1113
989.551	-1057
989.631	-138
989.711	-153
989.791	-359
989.870	-706
989.950	-26
990.030	-473
990.110	-825
990.190	-1716
990.269	-1077
990.349	-748
990.429	-1414
990.509	-58
990.588	-1263
990.668	-739
990.747	-491
990.827	-1038
990.907	-536
990.986	-782
991.066	-1578
991.145	-743
991.225	-588
991.304	-909
991.383	23
991.463	-1283
991.542	-1473
991.622	-1403
991.701	-938
991.780	-1179
991.859	-1008
991.939	-961
992.018	-1005
992.097	-1192
992.176	-1207
992.256	-1354
992.335	-722
992.414	-450
992.493	-1058
992.572	-1360
992.651	-322
992.730	-860
992.809	-465
992.888	-1918
992.967	-1099
993.046	-526
993.125	-1591
993.203	-1862
993.282	-1269
993.361	-101
993.440	-420
993.519	-985
993.597	-1118
993.676	-1698
993.755	-297
993.834	-1215
993.912	-1431
993.991	-434
994.069	-1755
994.148	-1684
994.226	-1179
994.305	-1203
994.384	-1779
994.462	-143
994.540	-1702
994.619	-1425
994.697	-736
994.776	-858
994.854	-570
994.932	-1506
995.011	-1196
995.089	-1255
995.167	-1677
995.245	-1143
995.324	-1822
995.402	-871
995.480	-1769
995.558	-544
995.636	-1702
995.714	-750
995.792	-271
995.870	-1136
995.948	-2208
996.026	-641
996.104	-2054
996.182	-589
996.260	-1310
996.338	-1123
996.416	-1486
996.494	-1447
996.572	-1184
996.649	-1435
996.727	-1877
996.805	-1386
996.883	-692
996.960	-2000
997.038	-866
997.116	-1313
997.193	-1923
997.271	-1049
997.348	-1584
997.426	-1700
997.504	-1266
997.581	-1065
997.658	-1277
997.736	-1287
997.813	-1927
997.891	-1358
997.968	-1668
998.046	-1214
998.123	-1514
998.200	-762
998.277	-1814
998.355	-624
998.432	-2305
998.509	-2049
998.586	-1474
998.663	-606
998.741	-1021
998.818	-1580
998.895	-1648
998.972	-1358
999.049	-1088
999.126	-1196
999.203	-302
999.280	-908
999.357	-1638
999.434	-836
999.511	-1447
999.587	-654
999.664	-1444
999.741	-1788
999.818	-619
999.895	-1467
999.971	-1465
1000.048	-1137
1000.125	-1006
1000.202	-2424
1000.278	-1287
1000.355	-1064
1000.431	-1417
1000.508	-1507
1000.584	-705
1000.661	-1434
1000.738	-1905
1000.814	-2117
1000.890	-1427
1000.967	-1503
1001.043	-613
1001.120	-2499
1001.196	-1124
1001.272	-1777
1001.349	-1649
1001.425	-1418
1001.501	-1090
1001.577	-1664
1001.654	-2092
1001.730	-1973
1001.806	-2074
1001.882	-2114
1001.958	-681
1002.034	-1407
1002.110	-1320
1002.186	-1867
1002.262	-2330
1002.338	-1276
1002.414	-605
1002.490	-1359
1002.566	-1654
1002.642	-1849
1002.718	-197
1002.794	-1135
1002.870	-2156
1002.945	-1341
1003.021	-1893
1003.097	-1543
1003.173	-1888
1003.248	-1730
1003.324	-1449
1003.400	-1830
1003.475	-1935
1003.551	-2131
1003.626	-1331
1003.702	-1286
1003.777	-1279
1003.853	-2571
1003.928	-2216
1004.004	-1649
1004.079	-1035
1004.155	-1802
1004.230	-2321
1004.305	-553
1004.381	-2503
1004.456	-1420
1004.531	-1898
1004.607	-1479
1004.682	-1231
1004.757	-1076
1004.832	-1876
1004.907	-2032
1004.982	-1409
1005.057	-1693
1005.133	-1750
1005.208	-1887
1005.283	-1342
1005.358	-1278
1005.433	-1835
1005.508	-1615
1005.583	-1705
1005.657	-2719
1005.732	-2077
1005.807	-1395
1005.882	-1653
1005.957	-1027
1006.032	-1886
1006.106	-1920
1006.181	-1714
1006.256	-1397
1006.331	-1700
1006.405	-1293
1006.480	-1878
1006.554	-1668
1006.629	-2144
1006.704	-1844
1006.778	-2223
1006.853	-1387
1006.927	-2250
1007.002	-1831
1007.076	-1839
1007.150	-2542
1007.225	-1994
1007.299	-1433
1007.373	-2527
1007.448	-1783
1007.522	-909
1007.596	-1107
1007.671	-1362
1007.745	-1496
1007.819	-1766
1007.893	-1800
1007.967	-1505
1008.041	-2846
1008.115	-1084
1008.190	-2819
1008.264	-1268
1008.338	-2699
1008.412	-2446
1008.486	-1596
1008.560	-1309
1008.633	-2183
1008.707	-1837
1008.781	-1497
1008.855	-1788
1008.929	-2193
1009.003	-1916
1009.076	-2208
1009.150	-1777
1009.224	-1921
1009.298	-1548
1009.371	-1924
1009.445	-1396
1009.519	-1695
1009.592	-2430
1009.666	-1719
1009.739	-1611
1009.813	-3015
1009.886	-649
1009.960	-1928
1010.033	-1238
1010.107	-2395
1010.180	-2273
1010.253	-1862
1010.327	-2532
1010.400	-2133
1010.473	-2408
1010.547	-957
1010.620	-2474
1010.693	-2003
1010.766	-1945
1010.840	-1300
1010.913	-2003
1010.986	-2576
1011.059	-2084
1011.132	-2468
1011.205	-1195
1011.278	-1738
1011.351	-2531
1011.424	-2084
1011.497	-1795
1011.570	-1946
1011.643	-2228
1011.716	-1737
1011.789	-1928
1011.862	-1805
1011.934	-2138
1012.007	-2281
1012.080	-2165
1012.153	-2190
1012.225	-1470
1012.298	-2404
1012.371	-1331
1012.443	-1713
1012.516	-2327
1012.588	-2682
1012.661	-2019
1012.733	-2992
1012.806	-1846
1012.879	-2177
1012.951	-2808
1013.023	-2150
1013.096	-1610
1013.168	-2846
1013.241	-1915
1013.313	-2775
1013.385	-2595
1013.458	-2518
1013.530	-2042
1013.602	-3462
1013.674	-2407
1013.746	-2343
1013.819	-2360
1013.891	-1872
1013.963	-3258
1014.035	-1774
1014.107	-2432
1014.179	-2456
1014.251	-2537
1014.323	-1518
1014.395	-2521
1014.467	-2241
1014.539	-2409
1014.611	-3129
1014.683	-1784
1014.754	-2327
1014.826	-2324
1014.898	-2604
1014.970	-2782
1015.042	-1798
1015.113	-2648
1015.185	-2376
1015.257	-3112
1015.328	-2076
1015.400	-2123
1015.471	-2232
1015.543	-2736
1015.615	-2361
1015.686	-2653
1015.757	-2747
1015.829	-1946
1015.901	-2723
1015.972	-2512
1016.043	-2381
1016.115	-2642
1016.186	-2475
1016.257	-2856
1016.328	-2499
1016.400	-1778
1016.471	-2441
1016.542	-2374
1016.613	-2163
1016.685	-2253
1016.756	-2603
1016.827	-1913
1016.898	-2169
1016.969	-2048
1017.040	-2097
1017.111	-2407
1017.182	-2889
1017.253	-2176
1017.324	-2568
1017.395	-2734
1017.466	-1971
1017.537	-2516
1017.608	-2842
1017.678	-2824
1017.749	-2746
1017.820	-2020
1017.891	-3034
1017.961	-3364
1018.032	-2262
1018.103	-3034
1018.173	-2750
1018.244	-3795
1018.315	-3182
1018.385	-1735
1018.456	-2811
1018.526	-2598
1018.597	-2477
1018.667	-3083
1018.738	-2392
1018.808	-1870
1018.878	-3114
1018.949	-2886
1019.019	-2194
1019.089	-2119
1019.160	-2937
1019.230	-3126
1019.300	-2455
1019.371	-2979
1019.441	-3065
1019.511	-2981
1019.581	-2385
1019.651	-2237
1019.721	-3069
1019.791	-3120
1019.861	-2785
1019.931	-2384
1020.001	-3027
1020.071	-2211
1020.141	-2841
1020.211	-2279
1020.281	-2529
1020.351	-3170
1020.421	-1706
1020.491	-1927
1020.560	-3051
1020.630	-3104
1020.700	-2374
1020.770	-2773
1020.839	-2793
1020.909	-2683
1020.979	-2606
1021.048	-3881
1021.118	-3267
1021.187	-3583
1021.257	-2381
1021.326	-2708
1021.396	-2147
1021.465	-2028
1021.535	-3008
1021.604	-2941
1021.674	-2628
1021.743	-2453
1021.812	-2243
1021.882	-3402
1021.951	-1776
1022.020	-2021
1022.089	-2286
1022.159	-3067
1022.228	-2688
1022.297	-2685
1022.366	-2724
1022.435	-3040
1022.504	-2664
1022.573	-2593
1022.642	-1999
1022.711	-3118
1022.781	-2881
1022.849	-2720
1022.918	-3443
1022.987	-2972
1023.056	-2299
1023.125	-2615
1023.194	-2499
1023.263	-2854
1023.331	-2427
1023.400	-2653
1023.469	-2938
1023.538	-2091
1023.606	-3271
1023.675	-1978
1023.744	-3206
1023.812	-3134
1023.881	-2522
1023.949	-2673
1024.018	-3166
1024.086	-2746
1024.155	-2600
1024.223	-3757
1024.292	-2495
1024.360	-2870
1024.429	-2060
1024.497	-2976
1024.565	-2348
1024.634	-2587
1024.702	-2402
1024.770	-2236
1024.838	-3157
1024.907	-3083
1024.975	-2235
1025.043	-2535
1025.111	-2779
1025.179	-2099
1025.247	-3084
1025.315	-3164
1025.383	-3429
1025.451	-3148
1025.519	-3365
1025.587	-3087
1025.655	-2776
1025.723	-2540
1025.791	-3116
1025.859	-2407
1025.927	-2492
1025.995	-3140
1026.062	-2447
1026.130	-2812
1026.198	-2847
1026.266	-3247
1026.333	-2165
1026.401	-1952
1026.469	-2976
1026.536	-2403
1026.604	-2459
1026.671	-2399
1026.739	-2526
1026.806	-2952
1026.874	-3457
1026.941	-2983
1027.009	-2964
1027.076	-3223
1027.144	-2023
1027.211	-3450
1027.278	-2760
1027.345	-2914
1027.413	-2843
1027.480	-3377
1027.547	-2547
1027.614	-3569
1027.682	-2582
1027.749	-3073
1027.816	-2488
1027.883	-1712
1027.950	-2362
1028.017	-3217
1028.084	-2692
1028.151	-3028
1028.218	-1850
1028.285	-2550
1028.352	-3197
1028.419	-3036
1028.486	-2487
1028.553	-3259
1028.619	-3029
1028.686	-1871
1028.753	-3044
1028.820	-2958
1028.886	-2766
1028.953	-2274
1029.020	-2326
1029.086	-2239
1029.153	-3238
1029.220	-3513
1029.286	-2860
1029.353	-2687
1029.419	-3210
1029.486	-2570
1029.552	-2299
1029.619	-2947
1029.685	-2834
1029.751	-2835
1029.818	-2526
1029.884	-2975
1029.951	-2114
1030.017	-3087
1030.083	-2176
1030.149	-2275
1030.216	-3034
1030.282	-2502
1030.348	-3358
1030.414	-2977
1030.480	-2891
1030.546	-2990
1030.612	-2277
1030.678	-3010
1030.744	-3236
1030.810	-2590
1030.876	-2742
1030.942	-3363
1031.008	-2201
1031.074	-2532
1031.140	-2221
1031.206	-1703
1031.272	-3062
1031.337	-2498
1031.403	-2348
1031.469	-3264
1031.534	-2314
1031.600	-2810
1031.666	-2890
1031.731	-3315
1031.797	-2658
1031.863	-2950
1031.928	-2458
1031.994	-2401
1032.059	-2801
1032.125	-2794
1032.190	-2255
1032.256	-2750
1032.321	-2941
1032.386	-2820
1032.452	-1508
1032.517	-2373
1032.582	-2765
1032.647	-2675
1032.713	-2229
1032.778	-2200
1032.843	-2874
1032.908	-2253
1032.974	-2357
1033.039	-2913
1033.104	-2139
1033.169	-2362
1033.234	-2627
1033.299	-3263
1033.364	-2060
1033.429	-2836
1033.494	-2008
1033.559	-3221
1033.624	-2449
1033.688	-2524
1033.753	-1982
1033.818	-2566
1033.883	-3009
1033.948	-1685
1034.013	-1932
1034.077	-2472
1034.142	-1669
1034.207	-2670
1034.271	-1394
1034.336	-1203
1034.400	-1656
1034.465	-2182
1034.530	-2843
1034.594	-2598
1034.658	-2687
1034.723	-2363
1034.787	-2839
1034.852	-2250
1034.916	-2508
1034.981	-3188
1035.045	-2230
1035.109	-2581
1035.173	-2164
1035.238	-2718
1035.302	-2482
1035.366	-2088
1035.430	-3087
1035.495	-3010
1035.559	-1863
1035.623	-2527
1035.687	-2329
1035.751	-2901
1035.815	-2697
1035.879	-2913
1035.943	-2379
1036.007	-2823
1036.071	-2974
1036.135	-2883
1036.198	-3336
1036.262	-3328
1036.326	-2022
1036.390	-2888
1036.454	-1913
1036.517	-2570
1036.581	-2723
1036.645	-2025
1036.709	-2480
1036.772	-3339
1036.836	-2552
1036.900	-2825
1036.963	-2250
1037.026	-3101
1037.090	-2794
1037.154	-2483
1037.217	-2691
1037.280	-2361
1037.344	-2669
1037.407	-3001
1037.471	-2026
1037.534	-3251
1037.597	-2172
1037.661	-3315
1037.724	-2242
1037.787	-2435
1037.850	-1926
1037.913	-2513
1037.977	-1408
1038.040	-2541
1038.103	-2397
1038.166	-2835
1038.229	-2408
1038.292	-2302
1038.355	-1796
1038.418	-3082
1038.481	-2216
1038.544	-3326
1038.607	-2825
1038.670	-2176
1038.732	-2351
1038.795	-2365
1038.858	-2618
1038.921	-2085
1038.984	-1898
1039.046	-2562
1039.109	-2254
1039.172	-1830
1039.234	-2328
1039.297	-2306
1039.360	-2538
1039.422	-2306
1039.485	-1995
1039.547	-2764
1039.610	-2436
1039.672	-2630
1039.734	-2072
1039.797	-2497
1039.859	-2135
1039.922	-3845
1039.984	-2650
1040.046	-1693
1040.109	-1730
1040.171	-1997
1040.233	-1241
1040.295	-2395
1040.358	-2292
1040.420	-2891
1040.482	-2488
1040.544	-2011
1040.606	-1887
1040.668	-2425
1040.730	-1817
1040.792	-2409
1040.854	-2826
1040.916	-2017
1040.978	-2475
1041.040	-1546
1041.102	-2167
1041.164	-2584
1041.225	-2032
1041.287	-2478
1041.349	-1388
1041.411	-2399
1041.472	-2212
1041.534	-2586
1041.596	-2435
1041.657	-2052
1041.719	-2154
1041.781	-2465
1041.842	-3498
1041.904	-2598
1041.965	-2421
1042.027	-2520
1042.088	-2205
1042.150	-2115
1042.211	-2442
1042.272	-2357
1042.334	-2567
1042.395	-2677
1042.456	-3013
1042.518	-1856
1042.579	-1641
1042.640	-2654
1042.701	-2135
1042.763	-1566
1042.824	-2993
1042.885	-2091
1042.946	-2801
1043.007	-2319
1043.068	-2983
1043.129	-2621
1043.190	-2153
1043.251	-2175
1043.312	-2817
1043.373	-2463
1043.434	-1716
1043.495	-2141
1043.556	-1627
1043.616	-1847
1043.677	-1853
1043.738	-2014
1043.799	-2341
1043.859	-2242
1043.920	-2375
1043.981	-2632
1044.041	-2194
1044.102	-3004
1044.162	-2654
1044.223	-2491
1044.284	-2538
1044.344	-2813
1044.405	-2725
1044.465	-2129
1044.525	-2681
1044.586	-2399
1044.646	-1847
1044.707	-2063
1044.767	-1926
1044.827	-2245
1044.887	-2345
1044.948	-1898
1045.008	-2455
1045.068	-2442
1045.128	-1353
1045.188	-2036
1045.249	-1874
1045.309	-2060
1045.369	-2505
1045.429	-2344
1045.489	-2307
1045.549	-2194
1045.609	-2399
1045.669	-2422
1045.729	-2235
1045.789	-2062
1045.848	-2615
1045.908	-2805
1045.968	-2049
1046.028	-1255
1046.088	-2680
1046.147	-1759
1046.207	-1837
1046.267	-2061
1046.326	-1793
1046.386	-2474
1046.446	-1286
1046.505	-1838
1046.565	-2113
1046.624	-934
1046.684	-1212
1046.743	-1281
1046.803	-1556
1046.862	-1002
1046.922	0
