'Start Wavelength	183.907
'End Wavelength	1046.922
'Gate Delay	5.000
'Gate Width (ms)	1.050
'Laser Output Level	0.000
'X Position	0.000
'Y Position	0.000
'Z Position	0.000
'Grid Point Number	1.000
'Shot Number	100.000
183.907	90.000
183.977	-574.000
184.047	-309
184.116	421
184.186	178
184.256	-226
184.325	154
184.395	-221
184.465	842
184.534	61
184.604	448
184.674	-14
184.743	-49
184.813	490
184.883	476
184.952	-156
185.022	-210
185.092	-717
185.161	681
185.231	-457
185.301	-224
185.370	-388
185.440	177
185.509	-69
185.579	71
185.649	-71
185.718	802
185.788	357
185.857	469
185.927	-727
185.996	116
186.066	155
186.136	-163
186.205	396
186.275	406
186.344	590
186.414	300
186.483	-27
186.553	1072
186.622	765
186.692	287
186.761	341
186.831	15
186.900	737
186.970	466
187.039	233
187.109	911
187.178	482
187.248	289
187.317	-6
187.387	204
187.456	159
187.526	19
187.595	290
187.664	610
187.734	548
187.803	357
187.873	235
187.942	710
188.012	175
188.081	-194
188.150	397
188.220	606
188.289	349
188.358	412
188.428	366
188.497	-165
188.567	-940
188.636	270
188.705	-356
188.775	196
188.844	-55
188.913	900
188.983	216
189.052	163
189.121	-310
189.191	237
189.260	243
189.329	299
189.399	-153
189.468	450
189.537	-264
189.606	-33
189.676	-479
189.745	307
189.814	-591
189.883	325
189.953	538
190.022	336
190.091	208
190.161	660
190.230	257
190.299	386
190.368	17
190.437	-312
190.507	82
190.576	612
190.645	-420
190.714	729
190.783	-56
190.853	361
190.922	114
190.991	511
191.060	-425
191.129	-34
191.198	47
191.268	-467
191.337	48
191.406	354
191.475	583
191.544	491
191.613	-235
191.682	602
191.752	-241
191.821	748
191.890	-807
191.959	-113
192.028	272
192.097	39
192.166	248
192.235	-363
192.304	-550
192.373	365
192.442	-595
192.511	931
192.580	-244
192.650	8
192.719	478
192.788	224
192.857	686
192.926	-1
192.995	-256
193.064	27
193.133	89
193.202	307
193.271	-78
193.340	615
193.409	775
193.478	396
193.547	716
193.615	898
193.684	-11
193.753	-351
193.822	133
193.891	277
193.960	360
194.029	349
194.098	225
194.167	-301
194.236	229
194.305	-140
194.374	-506
194.443	-405
194.512	486
194.580	627
194.649	318
194.718	539
194.787	-273
194.856	-8
194.925	36
194.994	146
195.062	-213
195.131	343
195.200	-97
195.269	-67
195.338	-183
195.407	-62
195.475	-27
195.544	714
195.613	-508
195.682	403
195.751	48
195.819	75
195.888	489
195.957	586
196.026	-122
196.094	-149
196.163	-387
196.232	253
196.301	484
196.369	504
196.438	513
196.507	433
196.576	-267
196.644	371
196.713	467
196.782	312
196.850	-180
196.919	-485
196.988	124
197.056	685
197.125	-18
197.194	718
197.262	-168
197.331	-779
197.400	-452
197.468	-166
197.537	153
197.606	-244
197.674	235
197.743	169
197.812	-91
197.880	411
197.949	234
198.017	571
198.086	215
198.155	514
198.223	816
198.292	1237
198.360	305
198.429	-80
198.497	-496
198.566	135
198.635	53
198.703	1002
198.772	321
198.840	325
198.909	-42
198.977	1192
199.046	144
199.114	298
199.183	99
199.251	228
199.320	279
199.388	248
199.457	53
199.525	-46
199.594	-732
199.662	172
199.731	369
199.799	-90
199.867	121
199.936	-300
200.004	-395
200.073	-368
200.141	135
200.210	744
200.278	-488
200.346	380
200.415	350
200.483	245
200.552	257
200.620	68
200.688	345
200.757	-264
200.825	33
200.893	257
200.962	-225
201.030	223
201.098	-228
201.167	219
201.235	-375
201.303	-100
201.372	591
201.440	191
201.508	771
201.577	205
201.645	273
201.713	861
201.781	-158
201.850	317
201.918	-40
201.986	59
202.055	493
202.123	376
202.191	-300
202.259	455
202.327	891
202.396	-592
202.464	277
202.532	-138
202.600	1125
202.669	506
202.737	-234
202.805	202
202.873	276
202.941	160
203.009	687
203.078	-68
203.146	4
203.214	24
203.282	-403
203.350	-4
203.418	529
203.487	611
203.555	-36
203.623	-68
203.691	-325
203.759	470
203.827	-475
203.895	440
203.963	226
204.031	17
204.099	191
204.168	111
204.236	584
204.304	525
204.372	-52
204.440	90
204.508	-387
204.576	14
204.644	-198
204.712	575
204.780	667
204.848	784
204.916	293
204.984	-54
205.052	242
205.120	-241
205.188	-24
205.256	-538
205.324	349
205.392	-157
205.460	-186
205.528	-8
205.596	885
205.664	-439
205.732	-303
205.799	638
205.867	827
205.935	-760
206.003	368
206.071	-458
206.139	32
206.207	376
206.275	-275
206.343	304
206.411	530
206.478	733
206.546	258
206.614	-154
206.682	-68
206.750	154
206.818	-72
206.885	373
206.953	-198
207.021	683
207.089	838
207.157	655
207.225	-225
207.292	-143
207.360	234
207.428	455
207.496	-394
207.563	-321
207.631	-450
207.699	-514
207.767	-79
207.834	306
207.902	852
207.970	194
208.038	-198
208.105	98
208.173	-217
208.241	780
208.309	-242
208.376	281
208.444	714
208.512	201
208.579	225
208.647	279
208.715	842
208.782	-181
208.850	367
208.918	438
208.985	65
209.053	31
209.120	-201
209.188	320
209.256	996
209.323	218
209.391	-428
209.459	853
209.526	-268
209.594	868
209.661	-903
209.729	582
209.796	448
209.864	1038
209.932	-2
209.999	369
210.067	-400
210.134	317
210.202	799
210.269	242
210.337	740
210.404	334
210.472	450
210.539	496
210.607	219
210.674	-507
210.742	391
210.809	131
210.877	664
210.944	701
211.012	16
211.079	524
211.146	-32
211.214	316
211.281	358
211.349	505
211.416	314
211.484	217
211.551	432
211.618	627
211.686	260
211.753	254
211.821	369
211.888	609
211.955	256
212.023	884
212.090	189
212.157	477
212.225	-219
212.292	644
212.359	2255
212.427	2310
212.494	539
212.561	472
212.629	397
212.696	746
212.763	-72
212.831	-203
212.898	58
212.965	807
213.032	-285
213.100	329
213.167	257
213.234	-116
213.301	-58
213.369	469
213.436	-64
213.503	89
213.570	126
213.638	299
213.705	-181
213.772	337
213.839	-158
213.906	-3
213.973	351
214.041	529
214.108	17
214.175	269
214.242	518
214.309	-206
214.376	516
214.444	575
214.511	440
214.578	695
214.645	864
214.712	599
214.779	509
214.846	286
214.913	484
214.980	767
215.048	1043
215.115	993
215.182	1522
215.249	795
215.316	927
215.383	222
215.450	536
215.517	317
215.584	146
215.651	-116
215.718	535
215.785	503
215.852	-197
215.919	295
215.986	-136
216.053	295
216.120	-135
216.187	287
216.254	-144
216.321	-86
216.388	247
216.455	-240
216.522	-215
216.589	189
216.656	379
216.722	686
216.789	858
216.856	994
216.923	209
216.990	1252
217.057	614
217.124	1268
217.191	64
217.258	1167
217.324	391
217.391	1160
217.458	1435
217.525	342
217.592	734
217.659	-75
217.725	367
217.792	753
217.859	724
217.926	534
217.993	-301
218.059	246
218.126	-301
218.193	697
218.260	-357
218.327	345
218.393	-451
218.460	328
218.527	216
218.594	191
218.660	640
218.727	-155
218.794	-323
218.860	-168
218.927	-296
218.994	-19
219.061	-144
219.127	316
219.194	123
219.261	-325
219.327	-285
219.394	59
219.461	-462
219.527	78
219.594	-19
219.661	198
219.727	-427
219.794	488
219.860	100
219.927	975
219.994	1247
220.060	2104
220.127	1896
220.193	1089
220.260	430
220.326	1516
220.393	2169
220.460	1794
220.526	1234
220.593	226
220.659	202
220.726	551
220.792	2337
220.859	1592
220.925	3597
220.992	3633
221.058	2926
221.125	2208
221.191	1907
221.258	1031
221.324	60
221.391	562
221.457	-765
221.524	858
221.590	463
221.657	2254
221.723	1020
221.789	1122
221.856	800
221.922	664
221.989	504
222.055	327
222.121	70
222.188	265
222.254	347
222.321	228
222.387	-608
222.453	206
222.520	302
222.586	91
222.652	440
222.719	-407
222.785	284
222.851	-99
222.918	-228
222.984	74
223.050	-59
223.116	-501
223.183	32
223.249	173
223.315	-676
223.382	-128
223.448	-52
223.514	283
223.580	-140
223.647	-807
223.713	-982
223.779	-960
223.845	-213
223.911	99
223.978	-678
224.044	401
224.110	0
224.176	-479
224.242	359
224.309	201
224.375	-357
224.441	-532
224.507	32
224.573	149
224.639	-710
224.705	-790
224.772	-137
224.838	-416
224.904	-215
224.970	65
225.036	-632
225.102	-213
225.168	-423
225.234	836
225.300	430
225.366	-5
225.432	-588
225.499	264
225.565	-521
225.631	53
225.697	-160
225.763	577
225.829	454
225.895	17
225.961	807
226.027	540
226.093	424
226.159	1158
226.225	1432
226.291	5706
226.357	6537
226.423	2060
226.489	1270
226.554	618
226.620	1440
226.686	624
226.752	1917
226.818	4838
226.884	10050
226.950	5472
227.016	2450
227.082	1631
227.148	796
227.214	1434
227.279	225
227.345	183
227.411	1284
227.477	2370
227.543	4841
227.609	4015
227.674	1354
227.740	972
227.806	1017
227.872	672
227.938	868
228.003	205
228.069	162
228.135	-124
228.201	-47
228.267	604
228.332	-526
228.398	-229
228.464	-356
228.530	-567
228.595	120
228.661	48
228.727	374
228.792	-389
228.858	86
228.924	-19
228.990	816
229.055	179
229.121	196
229.187	121
229.252	622
229.318	-584
229.384	-842
229.449	-136
229.515	-256
229.581	-1144
229.646	592
229.712	612
229.777	24
229.843	604
229.909	-108
229.974	-211
230.040	-451
230.105	330
230.171	277
230.236	501
230.302	384
230.368	457
230.433	-565
230.499	-57
230.564	23
230.630	535
230.695	255
230.761	480
230.826	-1203
230.892	552
230.957	-262
231.023	192
231.088	28
231.154	144
231.219	-4
231.284	676
231.350	78
231.415	169
231.481	-643
231.546	226
231.612	110
231.677	-156
231.742	-306
231.808	214
231.873	334
231.939	-319
232.004	594
232.069	388
232.135	-1308
232.200	61
232.265	370
232.331	527
232.396	-218
232.461	-171
232.527	-514
232.592	-96
232.657	614
232.723	-450
232.788	-308
232.853	-847
232.918	9
232.984	18
233.049	-303
233.114	-527
233.179	314
233.245	-668
233.310	184
233.375	-497
233.440	-318
233.506	-246
233.571	-553
233.636	-91
233.701	-84
233.766	77
233.832	373
233.897	-633
233.962	-379
234.027	296
234.092	-21
234.157	504
234.222	-122
234.288	615
234.353	-235
234.418	660
234.483	324
234.548	-338
234.613	-354
234.678	575
234.743	119
234.808	689
234.873	-1124
234.938	334
235.004	-290
235.069	-337
235.134	-482
235.199	502
235.264	388
235.329	-289
235.394	208
235.459	-13
235.524	90
235.589	313
235.654	-62
235.719	176
235.784	91
235.849	-8
235.913	21
235.978	809
236.043	-392
236.108	-249
236.173	-387
236.238	221
236.303	15
236.368	191
236.433	167
236.498	701
236.563	896
236.627	3786
236.692	12409
236.757	5761
236.822	1398
236.887	1457
236.952	935
237.017	1043
237.081	925
237.146	1470
237.211	4386
237.276	13224
237.341	14017
237.405	4368
237.470	1628
237.535	1386
237.600	1034
237.664	1095
237.729	848
237.794	1676
237.859	2280
237.923	540
237.988	57
238.053	231
238.118	184
238.182	927
238.247	1294
238.312	-96
238.376	436
238.441	-463
238.506	748
238.570	-859
238.635	577
238.700	69
238.764	-629
238.829	480
238.893	26
238.958	459
239.023	-278
239.087	361
239.152	562
239.216	-72
239.281	-279
239.346	262
239.410	-215
239.475	191
239.539	1168
239.604	550
239.668	633
239.733	902
239.797	5285
239.862	8707
239.926	3536
239.991	1393
240.055	482
240.120	921
240.184	-122
240.249	39
240.313	-87
240.378	240
240.442	-206
240.507	225
240.571	447
240.635	4
240.700	174
240.764	-238
240.829	339
240.893	-128
240.957	-154
241.022	285
241.086	-132
241.151	28
241.215	-397
241.279	718
241.344	-126
241.408	360
241.472	-127
241.537	525
241.601	545
241.665	-397
241.730	-472
241.794	442
241.858	-423
241.922	-214
241.987	191
242.051	-178
242.115	-349
242.179	-485
242.244	-1139
242.308	674
242.372	206
242.436	26
242.501	-22
242.565	150
242.629	-190
242.693	388
242.757	-488
242.822	-23
242.886	581
242.950	51
243.014	-73
243.078	430
243.142	233
243.206	-255
243.271	-548
243.335	4
243.399	483
243.463	5211
243.527	8169
243.591	728
243.655	473
243.719	357
243.783	121
243.847	381
243.911	1290
243.975	586
244.040	-614
244.104	-48
244.168	-636
244.232	443
244.296	765
244.360	551
244.424	-556
244.488	-59
244.552	268
244.615	-116
244.679	-468
244.743	299
244.807	-596
244.871	-35
244.935	-49
244.999	-507
245.063	196
245.127	154
245.191	201
245.255	162
245.319	275
245.383	-545
245.446	283
245.510	-536
245.574	326
245.638	-597
245.702	-533
245.766	955
245.829	211
245.893	-494
245.957	1
246.021	834
246.085	-263
246.149	247
246.212	1086
246.276	857
246.340	2
246.404	753
246.467	-167
246.531	395
246.595	166
246.659	-146
246.722	-703
246.786	8
246.850	-431
246.913	-185
246.977	433
247.041	102
247.104	-113
247.168	575
247.232	1648
247.295	1627
247.359	446
247.423	291
247.486	-53
247.550	668
247.614	-16
247.677	684
247.741	-147
247.804	-39
247.868	24
247.932	925
247.995	2217
248.059	455
248.122	-160
248.186	1214
248.249	1251
248.313	4604
248.376	3029
248.440	1867
248.503	-164
248.567	1102
248.630	124
248.694	228
248.757	3261
248.821	2947
248.884	2436
248.948	2194
249.011	3769
249.075	4989
249.138	3075
249.202	1331
249.265	-182
249.328	618
249.392	-290
249.455	603
249.519	-183
249.582	29
249.645	1472
249.709	610
249.772	515
249.835	266
249.899	316
249.962	653
250.025	135
250.089	1886
250.152	1561
250.215	621
250.279	1006
250.342	1115
250.405	784
250.468	101
250.532	983
250.595	2866
250.658	13353
250.721	13015
250.785	3017
250.848	2269
250.911	693
250.974	919
251.038	1451
251.101	2273
251.164	400
251.227	1878
251.290	1142
251.354	4452
251.417	17801
251.480	9180
251.543	10494
251.606	29206
251.669	12266
251.732	4918
251.795	4825
251.859	7731
251.922	15586
251.985	5714
252.048	1962
252.111	1224
252.174	857
252.237	3406
252.300	5402
252.363	11472
252.426	18460
252.489	4224
252.552	2679
252.615	1149
252.678	2411
252.741	5090
252.804	11633
252.867	19136
252.930	7216
252.993	2651
253.056	2088
253.119	1610
253.182	1049
253.245	1853
253.308	1176
253.371	393
253.434	595
253.497	968
253.559	1935
253.622	786
253.685	942
253.748	259
253.811	-114
253.874	916
253.937	-473
254.000	657
254.062	2073
254.125	1893
254.188	1874
254.251	535
254.314	784
254.376	1242
254.439	684
254.502	1118
254.565	1682
254.628	2167
254.690	518
254.753	-84
254.816	110
254.878	666
254.941	2392
255.004	1263
255.067	100
255.129	-16
255.192	650
255.255	-254
255.317	24
255.380	169
255.443	355
255.505	16
255.568	-619
255.631	482
255.693	-135
255.756	-228
255.819	1313
255.881	54
255.944	-44
256.006	-629
256.069	-412
256.132	-576
256.194	105
256.257	-296
256.319	-174
256.382	439
256.444	1174
256.507	566
256.569	711
256.632	636
256.694	528
256.757	9739
256.819	15893
256.882	3762
256.944	714
257.007	1587
257.069	31
257.132	455
257.194	663
257.257	397
257.319	444
257.381	630
257.444	5362
257.506	25120
257.569	13892
257.631	4408
257.693	1564
257.756	1342
257.818	1146
257.880	546
257.943	300
258.005	552
258.067	-272
258.130	66
258.192	63
258.254	-170
258.317	55
258.379	556
258.441	863
258.503	-53
258.566	1118
258.628	814
258.690	-1113
258.753	-13
258.815	71
258.877	-100
258.939	172
259.001	402
259.064	304
259.126	-16
259.188	88
259.250	-290
259.312	358
259.375	408
259.437	-394
259.499	10
259.561	-169
259.623	-290
259.685	167
259.747	241
259.809	941
259.872	844
259.934	3372
259.996	2513
260.058	-46
260.120	139
260.182	-483
260.244	-493
260.306	245
260.368	329
260.430	-474
260.492	602
260.554	926
260.616	368
260.678	1412
260.740	346
260.802	216
260.864	266
260.926	-327
260.988	782
261.050	-117
261.112	958
261.174	2063
261.236	347
261.298	-103
261.359	338
261.421	12
261.483	-177
261.545	178
261.607	73
261.669	248
261.731	56
261.793	853
261.854	-657
261.916	1029
261.978	388
262.040	216
262.102	318
262.164	88
262.225	76
262.287	-609
262.349	160
262.411	425
262.472	765
262.534	209
262.596	408
262.658	-121
262.719	193
262.781	-461
262.843	62
262.904	102
262.966	-477
263.028	33
263.090	6224
263.151	8254
263.213	2477
263.275	689
263.336	297
263.398	725
263.459	31
263.521	-60
263.583	1824
263.644	-221
263.706	-756
263.767	-505
263.829	-154
263.891	-377
263.952	-29
264.014	-614
264.075	390
264.137	983
264.198	297
264.260	-279
264.321	-542
264.383	1257
264.444	2600
264.506	495
264.567	276
264.629	2001
264.690	1901
264.752	-4
264.813	854
264.875	-321
264.936	569
264.998	-38
265.059	744
265.120	99
265.182	2051
265.243	12107
265.305	5660
265.366	1212
265.427	1097
265.489	790
265.550	-147
265.611	75
265.673	381
265.734	100
265.795	395
265.857	211
265.918	101
265.979	4245
266.040	19266
266.102	7206
266.163	2215
266.224	1360
266.286	497
266.347	-490
266.408	1003
266.469	188
266.530	531
266.592	-757
266.653	539
266.714	-191
266.775	80
266.836	206
266.898	-297
266.959	84
267.020	351
267.081	477
267.142	54
267.203	-424
267.264	79
267.326	1216
267.387	-289
267.448	-937
267.509	456
267.570	-266
267.631	181
267.692	-769
267.753	41
267.814	-779
267.875	1065
267.936	298
267.997	185
268.058	-490
268.119	-459
268.180	9
268.241	-692
268.302	-30
268.363	-625
268.424	260
268.485	-264
268.546	-495
268.607	-346
268.668	-834
268.729	-301
268.790	-394
268.851	620
268.912	421
268.972	82
269.033	-1035
269.094	-873
269.155	878
269.216	-108
269.277	-865
269.338	302
269.398	397
269.459	-949
269.520	284
269.581	402
269.642	-383
269.702	-88
269.763	-176
269.824	214
269.885	314
269.945	636
270.006	12
270.067	-444
270.128	288
270.188	34
270.249	-584
270.310	94
270.370	367
270.431	-1002
270.492	-166
270.553	-219
270.613	-244
270.674	766
270.734	-601
270.795	-92
270.856	314
270.916	-893
270.977	172
271.038	-104
271.098	338
271.159	361
271.219	-346
271.280	386
271.340	-286
271.401	-764
271.462	-512
271.522	280
271.583	-20
271.643	-262
271.704	-685
271.764	334
271.825	1072
271.885	5154
271.946	3614
272.006	484
272.066	3146
272.127	5558
272.187	3872
272.248	1086
272.308	736
272.369	3988
272.429	241
272.489	883
272.550	158
272.610	908
272.671	-201
272.731	238
272.791	188
272.852	244
272.912	692
272.972	-110
273.033	541
273.093	-322
273.153	556
273.214	365
273.274	528
273.334	3476
273.394	2702
273.455	1218
273.515	2080
273.575	2732
273.635	1340
273.696	3536
273.756	3575
273.816	1623
273.876	1398
273.936	1161
273.997	1416
274.057	-476
274.117	504
274.177	1221
274.237	5516
274.297	2400
274.358	1297
274.418	2846
274.478	1062
274.538	296
274.598	-112
274.658	1420
274.718	387
274.778	26
274.838	236
274.898	-110
274.958	1534
275.018	4608
275.078	1541
275.138	293
275.198	-360
275.258	166
275.318	-75
275.378	-14
275.438	451
275.498	453
275.558	662
275.618	2338
275.678	512
275.738	1504
275.798	176
275.858	127
275.918	-386
275.978	116
276.038	59
276.098	-150
276.157	736
276.217	1415
276.277	792
276.337	240
276.397	-261
276.457	121
276.517	-146
276.576	993
276.636	-564
276.696	-544
276.756	1641
276.815	202
276.875	692
276.935	555
276.995	91
277.055	596
277.114	1046
277.174	1005
277.234	1242
277.293	602
277.353	-144
277.413	38
277.472	654
277.532	196
277.592	1468
277.651	9944
277.711	7724
277.771	4063
277.830	14658
277.890	6920
277.950	11733
278.009	20258
278.069	5504
278.128	11484
278.188	8692
278.248	6376
278.307	15601
278.367	4796
278.426	1999
278.486	836
278.545	1076
278.605	378
278.664	661
278.724	334
278.783	3862
278.843	4702
278.902	1768
278.962	-286
279.021	1238
279.081	1765
279.140	838
279.199	638
279.259	1030
279.318	1562
279.378	2686
279.437	5927
279.496	21406
279.556	63160
279.615	28945
279.675	7722
279.734	5239
279.793	6307
279.853	7194
279.912	2681
279.971	2581
280.031	1324
280.090	3912
280.149	5471
280.208	11086
280.268	48220
280.327	25142
280.386	6143
280.445	3898
280.505	2792
280.564	2201
280.623	1128
280.682	2078
280.742	637
280.801	552
280.860	1198
280.919	1044
280.978	422
281.037	799
281.097	36
281.156	1072
281.215	718
281.274	744
281.333	3212
281.392	617
281.451	624
281.510	364
281.569	260
281.628	177
281.688	-119
281.747	1076
281.806	274
281.865	422
281.924	62
281.983	378
282.042	102
282.101	-326
282.160	754
282.219	117
282.278	790
282.337	211
282.396	534
282.454	430
282.513	199
282.572	1022
282.631	-14
282.690	407
282.749	156
282.808	350
282.867	497
282.926	615
282.985	215
283.043	674
283.102	395
283.161	-15
283.220	1974
283.279	1600
283.338	792
283.396	22
283.455	1160
283.514	1267
283.573	1224
283.631	1053
283.690	773
283.749	310
283.808	1368
283.866	798
283.925	84
283.984	1540
284.043	1784
284.101	1536
284.160	588
284.219	1673
284.277	1557
284.336	1687
284.395	3776
284.453	2710
284.512	2446
284.570	3657
284.629	3877
284.688	4078
284.746	4662
284.805	5815
284.863	8232
284.922	11067
284.981	13004
285.039	20400
285.098	36737
285.156	61277
285.215	53560
285.273	63176
285.332	51348
285.390	31060
285.449	20834
285.507	14705
285.566	10905
285.624	7979
285.683	6033
285.741	5091
285.799	4381
285.858	2985
285.916	3151
285.975	3200
286.033	2015
286.091	1970
286.150	1350
286.208	1667
286.267	2361
286.325	1168
286.383	1734
286.442	1659
286.500	1270
286.558	603
286.616	269
286.675	1122
286.733	692
286.791	371
286.850	1701
286.908	447
286.966	780
287.024	532
287.083	1126
287.141	632
287.199	1208
287.257	703
287.315	1250
287.374	803
287.432	1356
287.490	438
287.548	595
287.606	1094
287.664	991
287.723	1072
287.781	1058
287.839	943
287.897	772
287.955	1662
288.013	2007
288.071	5932
288.129	32609
288.187	53749
288.245	16039
288.303	5941
288.361	3925
288.419	2470
288.477	2486
288.535	1495
288.593	1488
288.651	223
288.709	447
288.767	444
288.825	14
288.883	686
288.941	-185
288.999	279
289.057	246
289.115	-128
289.173	712
289.231	616
289.289	546
289.346	-114
289.404	691
289.462	682
289.520	829
289.578	216
289.636	-88
289.694	-129
289.751	847
289.809	1134
289.867	184
289.925	555
289.983	142
290.040	-106
290.098	321
290.156	661
290.214	567
290.271	-305
290.329	988
290.387	-139
290.444	385
290.502	-412
290.560	586
290.617	196
290.675	255
290.733	802
290.790	275
290.848	379
290.906	534
290.963	234
291.021	795
291.078	236
291.136	789
291.194	1620
291.251	1600
291.309	278
291.366	-512
291.424	701
291.481	15
291.539	764
291.596	295
291.654	-314
291.711	140
291.769	534
291.826	893
291.884	3
291.941	265
291.999	-644
292.056	497
292.114	46
292.171	-276
292.228	515
292.286	934
292.343	802
292.401	639
292.458	363
292.515	-242
292.573	851
292.630	1278
292.687	213
292.745	-231
292.802	-38
292.859	1888
292.917	1871
292.974	338
293.031	117
293.089	197
293.146	-279
293.203	563
293.260	203
293.318	284
293.375	1123
293.432	408
293.489	104
293.546	408
293.604	566
293.661	3354
293.718	5155
293.775	2060
293.832	1856
293.889	2047
293.947	1269
294.004	604
294.061	258
294.118	2289
294.175	3388
294.232	4916
294.289	1233
294.346	870
294.403	745
294.460	418
294.517	92
294.574	767
294.631	1546
294.688	901
294.745	2092
294.802	7455
294.859	5400
294.916	1828
294.973	191
295.030	764
295.087	476
295.144	266
295.201	837
295.258	-236
295.315	841
295.372	3184
295.429	3040
295.486	564
295.542	938
295.599	4672
295.656	4047
295.713	3259
295.770	3350
295.827	876
295.883	920
295.940	-831
295.997	1107
296.054	645
296.111	11
296.167	850
296.224	-10
296.281	400
296.338	276
296.394	147
296.451	5
296.508	1330
296.564	1575
296.621	2279
296.678	6042
296.734	5077
296.791	1070
296.848	1014
296.904	1105
296.961	2119
297.018	3968
297.074	2173
297.131	1047
297.187	973
297.244	1737
297.301	7209
297.357	6782
297.414	2035
297.470	1139
297.527	687
297.583	316
297.640	879
297.696	637
297.753	600
297.809	-114
297.866	-672
297.922	492
297.979	-252
298.035	-215
298.092	-64
298.148	1764
298.204	1469
298.261	372
298.317	3602
298.374	5390
298.430	1567
298.486	714
298.543	844
298.599	823
298.656	912
298.712	2122
298.768	5073
298.824	3221
298.881	918
298.937	88
298.993	686
299.050	209
299.106	913
299.162	6
299.218	674
299.275	359
299.331	1490
299.387	2806
299.443	9252
299.500	14302
299.556	6378
299.612	3153
299.668	4599
299.724	12720
299.780	10194
299.837	3650
299.893	3906
299.949	12386
300.005	11282
300.061	12751
300.117	15750
300.173	5157
300.229	2305
300.285	2739
300.341	1763
300.397	610
300.453	1739
300.510	1632
300.566	1800
300.622	6266
300.678	21421
300.734	17518
300.790	8828
300.845	7723
300.901	12149
300.957	12040
301.013	4853
301.069	2607
301.125	1502
301.181	1106
301.237	1538
301.293	167
301.349	706
301.405	-191
301.461	1038
301.516	683
301.572	210
301.628	389
301.684	136
301.740	1785
301.796	1676
301.851	1185
301.907	2345
301.963	2018
302.019	6476
302.074	15446
302.130	11787
302.186	3902
302.242	1424
302.297	1028
302.353	1798
302.409	2301
302.464	2317
302.520	1893
302.576	4154
302.631	3729
302.687	1857
302.743	179
302.798	471
302.854	107
302.910	701
302.965	1161
303.021	925
303.076	971
303.132	1422
303.187	1316
303.243	755
303.299	235
303.354	401
303.410	848
303.465	536
303.521	669
303.576	642
303.632	513
303.687	2843
303.743	4873
303.798	3041
303.853	1530
303.909	1384
303.964	885
304.020	976
304.075	1342
304.130	1062
304.186	1314
304.241	2090
304.297	1416
304.352	779
304.358	732
304.407	344
304.449	879
304.463	1064
304.518	454
304.539	482
304.573	508
304.629	833
304.630	825
304.684	509
304.720	2882
304.739	4097
304.794	4850
304.811	4046
304.850	2088
304.902	666
304.905	573
304.960	776
304.992	357
305.015	70
305.071	526
305.083	499
305.126	393
305.173	219
305.181	188
305.236	251
305.264	453
305.292	675
305.347	883
305.354	874
305.402	863
305.445	1151
305.457	1186
305.512	1278
305.535	995
305.567	715
305.622	1406
305.626	1466
305.678	2468
305.716	3842
305.733	4438
305.788	3970
305.807	3680
305.843	3024
305.897	5022
305.898	5051
305.953	4073
305.988	3149
306.008	2567
306.063	1390
306.078	1148
306.118	602
306.168	885
306.173	919
306.228	938
306.259	607
306.283	364
306.338	287
306.349	352
306.393	615
306.440	1250
306.448	1346
306.503	822
306.530	605
306.558	618
306.613	2048
306.620	2169
306.668	2599
306.711	3197
306.723	3334
306.778	2628
306.801	2184
306.833	1559
306.888	750
306.892	720
306.943	548
306.982	804
306.997	926
307.052	745
307.072	719
307.107	610
307.162	1112
307.163	1107
307.217	999
307.253	1482
307.272	1660
307.327	1784
307.343	1627
307.381	1246
307.434	1587
307.436	1614
307.491	2056
307.524	2603
307.546	2928
307.600	2882
307.614	2709
307.655	1899
307.704	1729
307.710	1762
307.765	1559
307.795	1748
307.819	2024
307.874	3527
307.885	3527
307.929	3259
307.975	3939
307.984	4129
308.038	5322
308.065	7268
308.093	11652
308.148	25615
308.156	28949
308.202	53144
308.246	61616
308.257	58547
308.312	29594
308.336	20061
308.366	14320
308.421	7373
308.426	6820
308.475	4768
308.517	3906
308.530	3659
308.585	3124
308.607	2832
308.639	2673
308.694	2589
308.697	2613
308.748	3563
308.787	4610
308.803	4869
308.857	4766
308.877	4575
308.912	4059
308.967	4632
308.967	4633
309.021	5792
309.058	7944
309.076	9862
309.130	16824
309.148	20250
309.185	35559
309.238	64095
309.239	64555
309.293	82365
309.328	82375
309.348	69953
309.402	34652
309.418	25990
309.457	18443
309.508	11067
309.511	10879
309.566	10220
309.598	10214
309.620	12219
309.674	18991
309.688	20573
309.729	21196
309.778	18465
309.783	17859
309.837	11413
309.868	8133
309.892	6998
309.946	5192
309.959	4937
310.001	5276
310.049	5427
310.055	5332
310.109	4265
310.139	3696
310.163	3210
310.218	2326
310.229	2184
310.272	2266
310.319	2220
310.326	2101
310.381	1597
310.409	1215
310.435	1243
310.489	1409
310.499	1424
310.543	1181
310.589	1013
310.598	1089
310.652	1674
310.679	1853
310.706	1505
310.760	762
310.769	667
310.814	1048
310.859	1387
310.868	1345
310.923	1156
310.948	1005
310.977	1198
311.031	1677
311.038	1741
311.085	1410
311.128	1029
311.139	1057
311.193	1232
311.218	1289
311.247	1478
311.301	1875
311.308	1923
311.356	1730
311.398	1472
311.410	1458
311.464	1486
311.488	1427
311.518	1514
311.572	1783
311.578	1804
311.626	1591
311.668	1385
311.680	1372
311.734	1319
311.758	1303
311.788	1328
311.842	1350
311.847	1351
311.896	1787
311.937	2203
311.950	2166
312.004	1969
312.027	1883
312.058	1784
312.112	1607
312.117	1588
312.165	1387
312.207	1212
312.297	1989
312.386	1474
312.476	933
312.566	1815
312.656	1786
312.745	1421
312.835	1318
312.925	1337
313.015	1846
313.104	1352
313.194	1434
313.284	1835
313.374	2141
313.463	1573
313.553	1973
313.643	1880
313.732	2083
313.822	1582
313.912	2330
314.001	2344
314.091	2545
314.180	2951
314.270	2428
314.360	2163
314.449	2895
314.539	2073
314.628	1962
314.718	2585
314.808	2957
314.897	2178
314.987	3173
315.076	3081
315.166	3193
315.255	3472
315.345	3045
315.434	2000
315.524	3070
315.613	2942
315.703	3124
315.792	6012
315.881	25028
315.971	14130
316.060	4209
316.150	3432
316.239	2764
316.328	2335
316.418	2690
316.507	2658
316.597	3147
316.686	3337
316.775	2828
316.865	4085
316.954	2098
317.043	2537
317.133	2465
317.222	1652
317.311	1686
317.400	926
317.490	2586
317.579	1566
317.668	2456
317.757	3993
317.847	10198
317.936	41987
318.025	20179
318.114	10003
318.203	6834
318.293	2889
318.382	3884
318.471	5117
318.560	4940
318.649	9446
318.738	3592
318.828	1729
318.917	1663
319.006	1334
319.095	3316
319.184	8551
319.273	6719
319.362	2512
319.451	1828
319.540	1069
319.629	1352
319.718	2492
319.807	1498
319.896	3146
319.985	11178
320.074	5720
320.163	1791
320.252	2055
320.341	2287
320.430	2014
320.519	2357
320.608	2019
320.697	2203
320.786	2248
320.875	3035
320.964	3173
321.053	3485
321.142	3627
321.230	4665
321.319	5039
321.408	7399
321.497	6735
321.586	5296
321.675	4085
321.764	4995
321.852	4317
321.941	3640
322.030	4023
322.119	4225
322.207	5204
322.296	7627
322.385	5696
322.474	7706
322.562	8923
322.651	7947
322.740	4740
322.829	4518
322.917	3719
323.006	4601
323.095	3521
323.183	2798
323.272	3241
323.361	3264
323.449	7613
323.538	4163
323.626	5005
323.715	5614
323.804	2120
323.892	5133
323.981	3623
324.069	1986
324.158	2675
324.246	3584
324.335	1858
324.424	2692
324.512	1467
324.601	2047
324.689	1995
324.778	2157
324.866	2709
324.954	2195
325.043	1278
325.131	1691
325.220	2891
325.308	2347
325.397	1564
325.485	2078
325.574	1036
325.662	1405
325.750	1378
325.839	1772
325.927	1012
326.015	1392
326.104	1337
326.192	2541
326.280	1221
326.369	979
326.457	1444
326.545	1191
326.634	1642
326.722	864
326.810	1341
326.898	1934
326.987	1698
327.075	1476
327.163	1683
327.251	945
327.340	1230
327.428	2293
327.516	2816
327.604	1943
327.692	2241
327.781	1404
327.869	1676
327.957	1498
328.045	1004
328.133	1383
328.221	434
328.309	638
328.397	1698
328.485	1496
328.574	2190
328.662	4592
328.750	2851
328.838	2056
328.926	1385
329.014	1159
329.102	644
329.190	2481
329.278	1547
329.366	1324
329.454	380
329.542	1657
329.630	863
329.718	1282
329.806	1076
329.893	609
329.981	1095
330.069	989
330.157	1273
330.245	2930
330.333	2550
330.421	1842
330.509	309
330.597	2328
330.684	1632
330.772	2166
330.860	2040
330.948	2224
331.036	1815
331.123	1690
331.211	967
331.299	1914
331.387	2190
331.475	2916
331.562	1662
331.650	1574
331.738	972
331.825	2114
331.913	1090
332.001	919
332.089	741
332.176	1815
332.264	2058
332.352	3013
332.439	1314
332.527	1568
332.614	1111
332.702	1345
332.790	1077
332.877	1820
332.965	4128
333.052	3522
333.140	1994
333.228	6187
333.315	2961
333.403	1297
333.490	1897
333.578	3514
333.665	8555
333.753	6376
333.840	1091
333.928	2593
334.015	2910
334.103	5729
334.190	12922
334.278	9488
334.365	7778
334.452	10018
334.540	4769
334.627	4957
334.715	4982
334.802	7943
334.889	18016
334.977	32183
335.064	17789
335.151	7857
335.239	4112
335.326	3983
335.413	7157
335.501	13529
335.588	3889
335.675	4459
335.762	5180
335.850	6860
335.937	8273
336.024	16036
336.111	34562
336.199	37466
336.286	15526
336.373	7312
336.460	4598
336.547	3899
336.635	2827
336.722	2336
336.809	2118
336.896	2015
336.983	2909
337.070	8559
337.157	15162
337.245	8768
337.332	6937
337.419	2543
337.506	1837
337.593	2434
337.680	2714
337.767	8689
337.854	3167
337.941	2860
338.028	2585
338.115	2285
338.202	2035
338.289	2736
338.376	5949
338.463	3843
338.550	4060
338.637	7340
338.724	2028
338.811	2706
338.898	1454
338.984	1065
339.071	2056
339.158	1223
339.245	1187
339.332	1337
339.419	2082
339.506	2231
339.593	914
339.679	1462
339.766	1358
339.853	1368
339.940	1505
340.027	774
340.113	1264
340.200	1083
340.287	889
340.374	1264
340.460	1107
340.547	1095
340.634	648
340.720	1816
340.807	1657
340.894	1703
340.980	1525
341.067	1451
341.154	1169
341.240	1007
341.327	1726
341.414	1972
341.500	870
341.587	1508
341.674	1218
341.760	1326
341.847	1262
341.933	992
342.020	551
342.106	1412
342.193	606
342.279	1584
342.366	835
342.452	1228
342.539	949
342.625	1239
342.712	1749
342.798	1843
342.885	548
342.971	896
343.058	797
343.144	502
343.230	418
343.317	683
343.403	90
343.490	856
343.576	859
343.662	1672
343.749	1059
343.835	1164
343.921	730
344.008	4618
344.094	18265
344.180	5737
344.267	1580
344.353	2784
344.439	3934
344.525	1980
344.612	1138
344.698	2014
344.784	1510
344.870	835
344.957	181
345.043	1392
345.129	689
345.215	1258
345.301	1049
345.387	1184
345.474	637
345.560	766
345.646	728
345.732	789
345.818	523
345.904	1233
345.990	1058
346.076	1221
346.162	723
346.249	1091
346.335	982
346.421	1638
346.507	1735
346.593	5226
346.679	1911
346.765	1139
346.851	2204
346.937	2238
347.023	629
347.108	1731
347.194	774
347.280	1035
347.366	1786
347.452	4501
347.538	10923
347.624	6576
347.710	4264
347.796	1853
347.882	942
347.967	1014
348.053	777
348.139	1245
348.225	1096
348.311	609
348.397	1131
348.482	1154
348.568	1014
348.654	2324
348.740	6441
348.825	9409
348.911	3401
348.997	3287
349.083	7087
349.168	1826
349.254	500
349.340	1413
349.425	531
349.511	1088
349.597	1052
349.682	966
349.768	2287
349.854	2238
349.939	1117
350.025	437
350.110	679
350.196	1504
350.282	953
350.367	874
350.453	972
350.538	925
350.624	1270
350.709	997
350.795	876
350.880	486
350.966	1035
351.051	1247
351.137	874
351.222	858
351.308	1144
351.393	2290
351.479	1248
351.564	221
351.649	576
351.735	1106
351.820	-372
351.906	1070
351.991	722
352.076	1493
352.162	2713
352.247	569
352.332	577
352.418	480
352.503	907
352.588	2411
352.673	2064
352.759	1406
352.844	-175
352.929	1027
353.014	225
353.100	1407
353.185	1000
353.270	1324
353.355	1017
353.441	497
353.526	83
353.611	1430
353.696	1072
353.781	942
353.866	457
353.952	419
354.037	386
354.122	1275
354.207	1205
354.292	1075
354.377	879
354.462	892
354.547	537
354.632	1515
354.717	877
354.802	715
354.887	450
354.972	1118
355.057	634
355.142	831
355.227	443
355.312	471
355.397	1006
355.482	1387
355.567	1270
355.652	1229
355.737	884
355.822	2261
355.907	3737
355.991	1316
356.076	935
356.161	1097
356.246	987
356.331	659
356.416	1165
356.501	5042
356.585	9156
356.670	2058
356.755	924
356.840	1031
356.924	3054
357.009	15911
357.094	9350
357.179	1761
357.263	974
357.348	1674
357.433	892
357.517	1337
357.602	896
357.687	1443
357.771	1677
357.856	2686
357.941	3177
358.025	3134
358.110	17438
358.195	14840
358.279	1299
358.364	1775
358.448	2034
358.533	4415
358.617	3419
358.702	3817
358.787	2191
358.871	1175
358.956	736
359.040	1095
359.125	984
359.209	798
359.294	1854
359.378	4225
359.462	2981
359.547	1091
359.631	419
359.716	1044
359.800	1009
359.885	1267
359.969	165
360.053	1723
360.138	610
360.222	1103
360.306	639
360.391	1796
360.475	553
360.559	3197
360.644	2357
360.728	1876
360.812	3256
360.896	10830
360.981	5092
361.065	3150
361.149	1490
361.233	1251
361.318	1054
361.402	1317
361.486	1359
361.570	1591
361.654	341
361.739	1908
361.823	4422
361.907	12578
361.991	4342
362.075	2632
362.159	3369
362.243	6566
362.327	14219
362.411	34556
362.495	16778
362.580	5633
362.664	4480
362.748	5313
362.832	5833
362.916	12960
363.000	40443
363.084	91695
363.168	53903
363.252	13681
363.336	5471
363.420	4207
363.503	7057
363.587	15115
363.671	4382
363.755	2935
363.839	2717
363.923	3612
364.007	4420
364.091	5854
364.175	8102
364.258	27367
364.342	51843
364.426	119460
364.510	90949
364.594	22935
364.677	8875
364.761	9870
364.845	10537
364.929	4550
365.013	2856
365.096	2528
365.180	1985
365.264	3258
365.347	15895
365.431	10320
365.515	2632
365.598	1370
365.682	1461
365.766	1818
365.849	2500
365.933	1591
366.017	1947
366.100	1635
366.184	730
366.267	1628
366.351	1347
366.435	1536
366.518	1376
366.602	1375
366.685	967
366.769	1157
366.852	1369
366.936	2213
367.019	1500
367.103	1364
367.186	2652
367.270	1341
367.353	1421
367.436	2243
367.520	1106
367.603	1892
367.687	1431
367.770	2342
367.853	2114
367.937	2433
368.020	4312
368.104	1687
368.187	953
368.270	1762
368.353	1045
368.437	1392
368.520	3520
368.603	3059
368.687	1697
368.770	4458
368.853	1938
368.936	1513
369.020	2130
369.103	1235
369.186	42
369.269	1269
369.352	1216
369.436	1215
369.519	601
369.602	718
369.685	865
369.768	306
369.851	1069
369.934	1073
370.018	1073
370.101	572
370.184	1411
370.267	975
370.350	1255
370.433	2148
370.516	4386
370.599	15786
370.682	9248
370.765	3008
370.848	2671
370.931	5027
371.014	3344
371.097	1245
371.180	1226
371.263	1267
371.346	1167
371.429	1126
371.511	655
371.594	1549
371.677	1806
371.760	2774
371.843	1842
371.926	5221
372.009	17391
372.091	9088
372.174	3076
372.257	7471
372.340	4264
372.423	2509
372.505	4359
372.588	2460
372.671	2648
372.754	4545
372.836	4083
372.919	2976
373.002	8612
373.085	3829
373.167	1671
373.250	2558
373.332	5683
373.415	7500
373.498	23739
373.580	13191
373.663	17824
373.746	36317
373.828	8272
373.911	2686
373.993	2198
374.076	5544
374.159	9461
374.241	2951
374.324	3929
374.406	4350
374.489	4222
374.571	15960
374.654	9452
374.736	3454
374.819	8816
374.901	13330
374.983	19524
375.066	6794
375.148	2775
375.231	5345
375.313	14112
375.395	6824
375.478	2823
375.560	2354
375.643	2290
375.725	3146
375.807	10466
375.890	12478
375.972	5248
376.054	2115
376.136	3912
376.219	2881
376.301	1594
376.383	8739
376.465	5677
376.548	1584
376.630	1063
376.712	5654
376.794	4801
376.877	1750
376.959	1360
377.041	687
377.123	739
377.205	2295
377.287	989
377.369	1332
377.452	995
377.534	669
377.616	1425
377.698	1002
377.780	723
377.862	1301
377.944	661
378.026	1113
378.108	402
378.190	683
378.272	1469
378.354	1392
378.436	803
378.518	815
378.600	2296
378.682	2213
378.764	2253
378.846	3162
378.928	1228
379.010	1395
379.091	1185
379.173	1021
379.255	-51
379.337	978
379.419	1000
379.501	3201
379.583	2407
379.664	1102
379.746	672
379.828	2336
379.910	2248
379.991	3796
380.073	1101
380.155	1080
380.237	423
380.318	1278
380.400	119
380.482	1100
380.564	495
380.645	1396
380.727	1348
380.809	1760
380.890	98
380.972	25
381.053	1199
381.135	899
381.217	714
381.298	2914
381.380	2116
381.461	1590
381.543	4336
381.624	10463
381.706	3173
381.787	1848
381.869	1808
381.951	3156
382.032	14830
382.113	15697
382.195	3380
382.276	2523
382.358	2146
382.439	7257
382.521	8847
382.602	17505
382.684	9739
382.765	10397
382.846	19560
382.928	61121
383.009	50378
383.090	20203
383.172	60696
383.253	152230
383.334	60061
383.416	19593
383.497	13578
383.578	9416
383.659	15018
383.741	48329
383.822	177777
383.903	137901
383.984	26601
384.066	16635
384.147	11666
384.228	5981
384.309	4521
384.390	4617
384.471	3677
384.553	3670
384.634	3178
384.715	3878
384.796	2336
384.877	2947
384.958	3272
385.039	4224
385.120	2741
385.201	2955
385.282	2947
385.363	3261
385.444	3100
385.525	3411
385.606	5154
385.687	9051
385.768	3389
385.849	3234
385.930	6302
386.011	17630
386.092	7233
386.173	3585
386.254	2435
386.335	2549
386.416	2016
386.496	2569
386.577	4531
386.658	2991
386.739	2343
386.820	3334
386.901	1639
386.981	3423
387.062	3388
387.143	4668
387.224	5712
387.304	7562
387.385	5926
387.466	5219
387.547	5625
387.627	5244
387.708	5492
387.789	7543
387.869	10076
387.950	5647
388.031	3658
388.111	1842
388.192	2996
388.273	4766
388.353	3251
388.434	3015
388.514	805
388.595	5861
388.676	11243
388.756	4884
388.837	2303
388.917	2973
388.998	1156
389.078	2610
389.159	1573
389.239	1267
389.320	1850
389.400	1324
389.480	1620
389.561	3726
389.641	3779
389.722	1965
389.802	1316
389.883	2444
389.963	4762
390.043	3760
390.124	1734
390.204	2019
390.284	3146
390.365	3236
390.445	3347
390.525	11719
390.605	13967
390.686	4426
390.766	2297
390.846	1579
390.927	1463
391.007	1427
391.087	2451
391.167	1801
391.247	1922
391.328	2982
391.408	3750
391.488	2951
391.568	2247
391.648	2313
391.728	3018
391.808	2724
391.888	2541
391.969	3727
392.049	5001
392.129	4990
392.209	4203
392.289	7387
392.369	6668
392.449	6621
392.529	5807
392.609	6958
392.689	7292
392.769	9992
392.849	13179
392.929	14830
393.009	21142
393.089	28603
393.169	44688
393.248	105459
393.328	294798
393.408	408159
393.488	215180
393.568	76127
393.648	35079
393.728	21429
393.807	14226
393.887	11957
393.967	9553
394.047	8128
394.127	7097
394.206	8658
394.286	13667
394.366	65768
394.446	123726
394.525	38011
394.605	8726
394.685	5830
394.764	6641
394.844	12124
394.924	16419
395.003	7677
395.083	3304
395.163	4293
395.242	3230
395.322	3925
395.402	2587
395.481	4937
395.561	4780
395.640	13868
395.720	30193
395.799	24502
395.879	15319
395.958	9255
396.038	18426
396.117	87543
396.197	160667
396.276	57240
396.356	16091
396.435	12924
396.515	13969
396.594	18568
396.673	31822
396.753	90064
396.832	277023
396.912	301696
396.991	103862
397.070	34717
397.150	17015
397.229	13187
397.308	16026
397.388	42865
397.467	28029
397.546	8754
397.625	4174
397.705	5198
397.784	3481
397.863	3576
397.942	2959
398.022	2632
398.101	3181
398.180	8931
398.259	6916
398.338	3543
398.417	2491
398.497	1907
398.576	1578
398.655	1258
398.734	1739
398.813	1210
398.892	1960
398.971	8631
399.050	7704
399.129	916
399.208	909
399.287	1286
399.366	464
399.445	1095
399.524	734
399.603	1114
399.682	628
399.761	1453
399.840	7682
399.919	11120
399.998	2303
400.077	648
400.156	-143
400.235	2429
400.313	554
400.392	361
400.471	1435
400.550	2934
400.629	1165
400.708	534
400.786	509
400.865	890
400.944	691
401.023	1978
401.102	-377
401.180	724
401.259	247
401.338	290
401.416	402
401.495	581
401.574	233
401.652	186
401.731	-323
401.810	1010
401.888	154
401.967	-382
402.046	365
402.124	144
402.203	201
402.281	452
402.360	677
402.438	1847
402.517	1088
402.596	687
402.674	-624
402.753	239
402.831	-52
402.910	315
402.988	-354
403.066	2445
403.145	2865
403.223	1276
403.302	1866
403.380	2774
403.459	1455
403.537	727
403.615	685
403.694	-111
403.772	738
403.850	824
403.929	498
404.007	31
404.085	1344
404.164	-154
404.242	-39
404.320	1818
404.398	7800
404.477	10087
404.555	7242
404.633	10971
404.711	6204
404.789	6363
404.868	531
404.946	588
405.024	480
405.102	-167
405.180	-242
405.258	-933
405.336	566
405.415	596
405.493	604
405.571	153
405.649	326
405.727	-545
405.805	719
405.883	258
405.961	663
406.039	720
406.117	-461
406.195	764
406.273	-467
406.351	4619
406.429	4440
406.507	-41
406.585	-537
406.663	-114
406.740	-344
406.818	16
406.896	-543
406.974	81
407.052	-740
407.130	1190
407.208	4474
407.285	1653
407.363	-855
407.441	47
407.519	35
407.596	418
407.674	631
407.752	11829
407.830	18482
407.907	3767
407.985	396
408.063	548
408.141	-165
408.218	874
408.296	-673
408.373	-156
408.451	-354
408.529	-211
408.606	84
408.684	583
408.762	713
408.839	239
408.917	386
408.994	1299
409.072	914
409.149	1573
409.227	2591
409.304	5827
409.382	6947
409.459	7330
409.537	10587
409.614	10694
409.692	7622
409.769	6040
409.846	9113
409.924	13836
410.001	10594
410.079	7177
410.156	4549
410.233	3422
410.311	1973
410.388	793
410.465	1491
410.543	707
410.620	1374
410.697	1162
410.775	1260
410.852	939
410.929	1763
411.006	2189
411.083	1123
411.161	1375
411.238	1159
411.315	1257
411.392	661
411.469	759
411.547	178
411.624	156
411.701	387
411.778	616
411.855	844
411.932	234
412.009	-155
412.086	474
412.163	438
412.240	-178
412.317	300
412.394	-89
412.471	742
412.548	361
412.625	-214
412.702	619
412.779	953
412.856	504
412.933	-177
413.010	396
413.087	-411
413.164	-536
413.241	1240
413.318	221
413.395	539
413.471	-290
413.548	-311
413.625	-105
413.702	-634
413.779	524
413.855	-53
413.932	-803
414.009	-1201
414.086	13
414.162	347
414.239	193
414.316	350
414.393	1627
414.469	301
414.546	-1058
414.623	-541
414.699	83
414.776	-472
414.853	-491
414.929	-483
415.006	104
415.082	-178
415.159	-174
415.236	-779
415.312	758
415.389	-493
415.465	-695
415.542	-667
415.618	-709
415.695	2
415.771	-610
415.848	-487
415.924	-838
416.000	-1126
416.077	408
416.153	-613
416.230	-1156
416.306	-849
416.383	-430
416.459	-409
416.535	-1436
416.612	-219
416.688	46
416.764	-548
416.841	-621
416.917	-510
416.993	-194
417.069	-66
417.146	-626
417.222	66
417.298	-330
417.374	-596
417.451	27
417.527	-551
417.603	-496
417.679	-39
417.755	-211
417.831	-1094
417.908	94
417.984	-512
418.060	-825
418.136	-162
418.212	-361
418.288	-936
418.364	63
418.440	-533
418.516	-524
418.592	-351
418.668	304
418.744	-590
418.820	702
418.896	-857
418.972	-670
419.048	-305
419.124	-113
419.200	-416
419.276	592
419.352	-401
419.428	604
419.504	-537
419.579	487
419.655	-208
419.731	153
419.807	353
419.883	-227
419.959	-112
420.034	845
420.110	-113
420.186	872
420.262	1407
420.337	307
420.413	1319
420.489	907
420.565	1380
420.640	708
420.716	1026
420.792	860
420.867	1111
420.943	1405
421.019	1429
421.094	1712
421.170	2646
421.245	2082
421.321	2487
421.397	3068
421.472	3915
421.548	10215
421.623	12108
421.699	5480
421.774	4841
421.850	5190
421.925	6181
422.001	8836
422.076	9198
422.152	12784
422.227	16660
422.302	24141
422.378	33612
422.453	53556
422.529	95620
422.604	161055
422.679	160464
422.755	158687
422.830	151884
422.905	90671
422.981	53796
423.056	34816
423.131	25080
423.207	18634
423.282	14081
423.357	12269
423.432	8745
423.508	8622
423.583	6428
423.658	5689
423.733	5425
423.808	3169
423.883	4669
423.959	5339
424.034	5707
424.109	6598
424.184	3586
424.259	3313
424.334	2291
424.409	1735
424.484	1138
424.559	1857
424.634	1082
424.709	1638
424.784	1574
424.859	760
424.934	918
425.009	1105
425.084	1912
425.159	1315
425.234	236
425.309	414
425.384	580
425.459	1681
425.534	1285
425.609	862
425.683	225
425.758	373
425.833	554
425.908	572
425.983	-20
426.058	1563
426.132	870
426.207	92
426.282	1086
426.357	370
426.431	-374
426.506	176
426.581	93
426.655	-353
426.730	121
426.805	-219
426.879	-184
426.954	94
427.029	-448
427.103	35
427.178	3786
427.253	4332
427.327	659
427.402	-36
427.476	1035
427.551	333
427.625	322
427.700	713
427.774	-49
427.849	448
427.923	-350
427.998	358
428.072	73
428.147	2238
428.221	6596
428.296	44831
428.370	54264
428.444	8980
428.519	2020
428.593	1363
428.667	2380
428.742	2101
428.816	3513
428.890	16996
428.965	61331
429.039	28560
429.113	4326
429.188	1492
429.262	99
429.336	160
429.410	755
429.485	288
429.559	798
429.633	1535
429.707	1538
429.781	2548
429.855	16267
429.930	56956
430.004	27351
430.078	9282
430.152	14554
430.226	49425
430.300	100727
430.374	33973
430.448	6201
430.522	3190
430.596	6895
430.670	10299
430.744	25785
430.818	65355
430.892	21570
430.966	2526
431.040	1048
431.114	155
431.188	-503
431.262	758
431.336	-277
431.410	474
431.484	185
431.557	1524
431.631	-208
431.705	723
431.779	4505
431.853	38004
431.927	61098
432.000	13089
432.074	1547
432.148	-109
432.222	-473
432.295	-394
432.369	-696
432.443	-684
432.516	524
432.590	3583
432.664	2712
432.737	-87
432.811	-1176
432.885	-356
432.958	-553
433.032	-459
433.106	-1584
433.179	-145
433.253	-1351
433.326	-628
433.400	-896
433.473	-160
433.547	-1550
433.620	-386
433.694	-916
433.767	-595
433.841	-1709
433.914	-105
433.988	-888
434.061	-645
434.134	-957
434.208	-381
434.281	-1193
434.355	-709
434.428	142
434.501	-742
434.575	-867
434.648	-791
434.721	-1285
434.795	-626
434.868	-1171
434.941	-660
435.014	-970
435.088	-395
435.161	-163
435.234	-40
435.307	677
435.381	875
435.454	1722
435.527	4629
435.600	6332
435.673	5624
435.746	3247
435.819	2219
435.892	1771
435.966	1588
436.039	-362
436.112	1123
436.185	-321
436.258	-657
436.331	-920
436.404	291
436.477	-1259
436.550	-511
436.623	-613
436.696	-936
436.769	-724
436.842	-190
436.915	-927
436.987	-842
437.060	-495
437.133	-478
437.206	-1148
437.279	-386
437.352	-1219
437.425	-453
437.498	-628
437.570	-91
437.643	-388
437.716	-744
437.789	-646
437.861	-311
437.934	-506
438.007	-404
438.080	-857
438.152	-423
438.225	-439
438.298	-179
438.370	7310
438.443	7211
438.516	484
438.588	-542
438.661	-1224
438.734	-653
438.806	-1145
438.879	-511
438.951	-1280
439.024	-555
439.096	-1509
439.169	-170
439.241	-688
439.314	-894
439.386	-426
439.459	-465
439.531	-745
439.604	-86
439.676	-643
439.749	-757
439.821	-682
439.893	-504
439.966	-676
440.038	-918
440.110	-486
440.183	202
440.255	-1360
440.327	535
440.400	10
440.472	2287
440.544	4026
440.617	462
440.689	-485
440.761	-210
440.833	-344
440.905	-55
440.978	221
441.050	-17
441.122	-274
441.194	-454
441.266	-521
441.338	-188
441.411	-321
441.483	773
441.555	396
441.627	1432
441.699	-375
441.771	284
441.843	-575
441.915	-59
441.987	1
442.059	343
442.131	698
442.203	886
442.275	827
442.347	2642
442.419	4137
442.491	19498
442.563	87142
442.635	77757
442.706	16598
442.778	5801
442.850	2249
442.922	1598
442.994	1092
443.066	2162
443.137	2475
443.209	2923
443.281	4511
443.353	8548
443.425	24418
443.496	103986
443.568	179942
443.640	115310
443.711	30842
443.783	8719
443.855	4247
443.926	2022
443.998	1054
444.070	1435
444.141	1231
444.213	1052
444.285	733
444.356	699
444.428	1293
444.499	328
444.571	644
444.642	1543
444.714	300
444.785	1233
444.857	1098
444.928	1709
445.000	2460
445.071	3191
445.143	3667
445.214	5008
445.285	7975
445.357	17445
445.428	52572
445.500	165580
445.571	169500
445.642	129556
445.714	57964
445.785	19022
445.856	6341
445.928	4386
445.999	2512
446.070	2307
446.141	890
446.213	1198
446.284	169
446.355	879
446.426	-114
446.497	163
446.569	-570
446.640	301
446.711	939
446.782	136
446.853	-71
446.924	176
446.995	-417
447.066	561
447.138	-108
447.209	154
447.280	-933
447.351	-24
447.422	-460
447.493	-982
447.564	-681
447.635	-844
447.706	-627
447.777	-60
447.847	-1367
447.918	-1049
447.989	-489
448.060	-262
448.131	180
448.202	-233
448.273	-173
448.344	-464
448.414	-699
448.485	-545
448.556	-264
448.627	-974
448.698	-183
448.768	-317
448.839	-811
448.910	-170
448.981	-881
449.051	-991
449.122	-856
449.193	-1042
449.263	-750
449.334	-805
449.405	-560
449.475	-270
449.546	-436
449.616	-127
449.687	378
449.758	250
449.828	-1238
449.899	-144
449.969	-851
450.040	-774
450.110	-665
450.181	-657
450.251	-917
450.322	-359
450.392	-824
450.463	-677
450.533	-1247
450.604	-600
450.674	-969
450.744	-489
450.815	-710
450.885	605
450.955	25
451.026	428
451.096	292
451.166	143
451.237	-589
451.307	1376
451.377	1368
451.447	-278
451.518	-466
451.588	188
451.658	-308
451.728	-332
451.799	256
451.869	1346
451.939	102
452.009	-314
452.079	-377
452.149	-30
452.219	91
452.289	678
452.360	1889
452.430	1028
452.500	-107
452.570	1472
452.640	2596
452.710	9322
452.780	18790
452.850	13558
452.920	5270
452.990	3053
453.060	959
453.129	1410
453.199	-411
453.269	792
453.339	5019
453.409	9274
453.479	5279
453.549	9414
453.619	10620
453.688	7030
453.758	1294
453.828	-515
453.898	-498
453.968	31
454.037	104
454.087	-466
454.107	-713
454.168	-375
454.177	-341
454.247	-233
454.249	-243
454.316	-883
454.330	-661
454.386	115
454.411	-78
454.456	-515
454.492	369
454.525	1126
454.574	333
454.595	2
454.655	-431
454.665	-527
454.734	-752
454.736	-713
454.804	97
454.817	238
454.873	568
454.898	1093
454.943	2002
454.979	903
455.013	-113
455.060	44
455.082	126
455.141	3
455.152	-27
455.221	1326
455.222	1370
455.291	2849
455.303	3135
455.360	4218
455.384	5727
455.430	7271
455.465	7552
455.499	7903
455.546	4332
455.569	2753
455.627	1567
455.638	1349
455.707	639
455.708	654
455.777	562
455.789	469
455.846	-28
455.869	150
455.916	531
455.950	721
455.985	769
456.031	576
456.054	517
456.112	649
456.124	660
456.193	525
456.193	510
456.262	315
456.274	530
456.332	1271
456.355	1095
456.401	817
456.436	764
456.470	594
456.516	678
456.540	748
456.597	732
456.609	731
456.678	825
456.678	810
456.747	997
456.759	932
456.817	619
456.840	550
456.886	395
456.920	500
456.955	581
457.001	866
457.024	932
457.082	870
457.093	880
457.162	2069
457.163	2083
457.232	1604
457.243	1644
457.301	1712
457.324	1556
457.370	1468
457.405	1861
457.439	2068
457.485	1895
457.508	1955
457.566	2719
457.577	2929
457.646	3673
457.647	3714
457.715	9277
457.727	10314
457.784	21038
457.808	27507
457.853	34985
457.889	45225
457.922	44251
457.969	32350
457.991	34865
458.050	35572
458.060	37107
458.129	60907
458.130	61947
458.198	65992
458.211	63386
458.267	46051
458.292	31587
458.336	19289
458.372	15316
458.405	16894
458.453	23238
458.474	32060
458.533	61507
458.543	64350
458.611	100510
458.614	102216
458.680	76512
458.694	62754
458.749	35578
458.775	24025
458.818	12396
458.855	8593
458.887	6151
458.936	5498
458.955	5223
459.016	3888
459.024	3725
459.093	3259
459.097	3227
459.162	2944
459.177	3014
459.230	3064
459.257	2860
459.299	2683
459.338	2908
459.368	2888
459.418	2902
459.437	2930
459.499	2994
459.505	3013
459.574	2613
459.579	2640
459.643	2602
459.659	2508
459.711	2591
459.740	2879
459.780	3060
459.820	2917
459.849	2870
459.900	3039
459.917	3022
459.981	2701
459.986	2658
460.054	2519
460.061	2520
460.123	3105
460.141	3127
460.191	2960
460.222	3115
460.260	3397
460.302	3650
460.328	3552
460.382	3290
460.397	3443
460.462	4253
460.465	4310
460.534	5541
460.543	5737
460.602	16383
460.623	20214
460.671	35969
460.703	48517
460.739	43771
460.783	40702
460.808	35466
460.864	12042
460.876	10911
460.944	4282
460.945	4213
461.013	3284
461.024	3329
461.081	3439
461.104	3408
461.150	3001
461.184	2775
461.218	3019
461.264	3213
461.286	2923
461.345	2462
461.355	2584
461.423	3426
461.425	3435
461.491	2830
461.505	2849
461.559	3583
461.585	3706
461.628	4383
461.665	5132
461.696	5677
461.745	6876
461.764	6232
461.825	4195
461.832	4244
461.901	3304
461.905	3286
461.969	2949
461.985	3001
462.037	3673
462.065	3867
462.105	3549
462.145	3268
462.173	3656
462.225	4156
462.241	4278
462.305	5331
462.310	5268
462.378	4209
462.385	4053
462.446	3742
462.465	3681
462.514	3661
462.545	3466
462.582	3202
462.625	3454
462.650	3521
462.705	2796
462.718	2807
462.785	3725
462.786	3731
462.854	3515
462.865	3465
462.922	3753
462.945	4021
462.990	3686
463.025	3341
463.058	3367
463.104	3361
463.126	3315
463.184	3092
463.194	3130
463.262	3210
463.264	3229
463.330	3358
463.344	3250
463.398	3171
463.424	3269
463.466	3379
463.504	3526
463.533	3530
463.583	3405
463.601	3470
463.663	3802
463.669	3801
463.737	3583
463.743	3596
463.805	4578
463.823	4740
463.873	5579
463.903	6109
463.940	6469
463.982	6943
464.008	6008
464.062	4064
464.076	4058
464.142	3738
464.144	3730
464.211	3290
464.221	3215
464.279	3172
464.301	3202
464.347	3560
464.381	3840
464.414	3980
464.461	3995
464.482	4031
464.540	4314
464.550	4317
464.617	4046
464.620	4048
464.685	4608
464.699	4591
464.753	5108
464.779	5483
464.820	6020
464.859	6540
464.888	6375
464.938	6004
464.956	5991
465.018	5584
465.023	5555
465.091	5431
465.098	5388
465.158	5291
465.177	5314
465.226	5428
465.257	5457
465.293	5157
465.336	4629
465.361	4897
465.416	5551
465.428	5558
465.495	5824
465.496	5846
465.563	7581
465.575	7892
465.631	9078
465.654	9653
465.698	7706
465.734	5924
465.765	5719
465.813	5236
465.833	5136
465.893	5009
465.900	5024
465.968	5037
465.972	5035
466.035	4915
466.052	4851
466.102	5294
466.131	5534
466.170	5278
466.210	4919
466.237	4958
466.290	5123
466.304	5200
466.369	5380
466.372	5380
466.439	5158
466.449	5106
466.506	5134
466.528	5130
466.573	5796
466.607	6260
466.641	7626
466.687	9586
466.708	10430
466.766	12606
466.775	11896
466.842	6471
466.845	6200
466.909	5946
466.925	5874
466.977	6185
467.004	6346
467.044	6214
467.083	6069
467.111	6768
467.163	8031
467.178	8286
467.242	9276
467.245	9236
467.312	8023
467.321	7849
467.379	8137
467.400	8216
467.446	8343
467.480	8409
467.559	7555
467.638	7154
467.717	6828
467.796	7331
467.875	7747
467.955	9075
468.034	9824
468.113	14057
468.192	19350
468.271	13527
468.350	15990
468.429	23108
468.508	25838
468.588	17244
468.667	11188
468.746	9774
468.825	8390
468.904	7574
468.983	7379
469.062	8227
469.141	9507
469.220	7860
469.299	6074
469.378	7725
469.456	8355
469.535	8376
469.614	7591
469.693	7275
469.772	7953
469.851	8292
469.930	8241
470.009	8115
470.088	7737
470.166	7844
470.245	11337
470.324	13552
470.403	10904
470.482	7900
470.560	7080
470.639	7514
470.718	7377
470.797	6699
470.875	6519
470.954	7923
471.033	8467
471.111	7198
471.190	6629
471.269	7468
471.347	5872
471.426	5860
471.505	7447
471.583	7719
471.662	7996
471.740	6616
471.819	6969
471.898	6967
471.976	6928
472.055	6535
472.133	7792
472.212	8321
472.290	8296
472.369	6984
472.447	6009
472.526	6747
472.604	6741
472.683	7270
472.761	5914
472.839	6727
472.918	6920
472.996	6733
473.075	6006
473.153	6459
473.231	6257
473.310	7411
473.388	6346
473.466	7179
473.545	6794
473.623	7381
473.701	7132
473.780	6280
473.858	6977
473.936	6949
474.014	7351
474.093	6576
474.171	8570
474.249	9219
474.327	7249
474.405	5725
474.484	5959
474.562	6330
474.640	6960
474.718	6433
474.796	6197
474.874	6375
474.952	5254
475.030	6001
475.108	5933
475.187	6052
475.265	6035
475.343	6433
475.421	6845
475.499	6502
475.577	6484
475.655	6379
475.733	7855
475.811	10709
475.889	10517
475.966	9094
476.044	6213
476.122	6055
476.200	6442
476.278	5643
476.356	6021
476.434	5790
476.512	5359
476.590	6513
476.667	6335
476.745	5416
476.823	6158
476.901	6426
476.979	5416
477.056	6376
477.134	6285
477.212	5579
477.290	4977
477.367	5512
477.445	5259
477.523	5629
477.601	4608
477.678	5137
477.756	5736
477.834	5592
477.911	4604
477.989	5098
478.066	4872
478.144	5494
478.222	5598
478.299	6326
478.377	6745
478.454	5625
478.532	5181
478.609	5785
478.687	5984
478.764	5402
478.842	6569
478.919	5389
478.997	5811
479.074	4935
479.152	5296
479.229	6840
479.307	5442
479.384	5128
479.461	5223
479.539	5246
479.616	5971
479.694	5512
479.771	4812
479.848	5632
479.926	5558
480.003	5878
480.080	5337
480.157	5131
480.235	4995
480.312	5114
480.389	5673
480.467	6127
480.544	6858
480.621	6685
480.698	6177
480.775	6070
480.853	6327
480.930	6125
481.007	5741
481.084	6098
481.161	8711
481.238	7420
481.315	4775
481.392	4961
481.470	5544
481.547	5473
481.624	5396
481.701	6416
481.778	5025
481.855	6333
481.932	6365
482.009	8157
482.086	8442
482.163	7572
482.240	8242
482.317	8936
482.393	7348
482.470	7794
482.547	6940
482.624	7100
482.701	6761
482.778	6221
482.855	6092
482.932	6077
483.009	6119
483.085	7532
483.162	8554
483.239	9922
483.316	8767
483.393	9198
483.469	8530
483.546	6821
483.623	6539
483.699	5768
483.776	6199
483.853	6441
483.930	6257
484.006	9320
484.083	15608
484.160	12624
484.236	20978
484.313	17896
484.389	15111
484.466	13523
484.543	15666
484.619	16734
484.696	19118
484.772	15086
484.849	13033
484.925	11621
485.002	11925
485.078	11924
485.155	11298
485.231	10370
485.308	10537
485.384	10626
485.461	10712
485.537	12734
485.614	13955
485.690	10369
485.766	9697
485.843	9147
485.919	9572
485.995	10274
486.072	9519
486.148	10189
486.224	9344
486.301	9219
486.377	9361
486.453	9482
486.530	10037
486.606	12739
486.682	14657
486.758	13057
486.835	14237
486.911	12311
486.987	14943
487.063	13556
487.139	13554
487.215	15737
487.292	14861
487.368	14681
487.444	17685
487.520	24356
487.596	34525
487.672	64243
487.748	200086
487.824	394079
487.900	151478
487.976	39098
488.052	21340
488.128	16768
488.204	13524
488.280	11900
488.356	11825
488.432	13664
488.508	18328
488.584	11382
488.660	9834
488.736	8813
488.812	8241
488.888	9972
488.964	10245
489.039	10553
489.115	12316
489.191	11007
489.267	8538
489.343	8866
489.418	8382
489.494	8268
489.570	8075
489.646	8720
489.722	8485
489.797	8090
489.873	9130
489.949	13344
490.024	13445
490.100	8532
490.176	7658
490.251	7903
490.327	7818
490.403	8291
490.478	7729
490.554	6928
490.629	7246
490.705	7656
490.781	7496
490.856	6198
490.932	7613
491.007	6892
491.083	6445
491.158	7106
491.234	7395
491.309	9698
491.385	11077
491.460	6423
491.536	6310
491.611	5969
491.686	6519
491.762	7068
491.837	7284
491.913	8460
491.988	9320
492.063	10805
492.139	8438
492.214	7346
492.289	6109
492.365	5835
492.440	6620
492.515	5588
492.590	6585
492.666	5260
492.741	6505
492.816	7651
492.891	6255
492.967	6089
493.042	5535
493.117	7168
493.192	6966
493.267	8478
493.342	21446
493.418	38372
493.493	10365
493.568	5971
493.643	5614
493.718	5621
493.793	6414
493.868	6664
493.943	5054
494.018	5899
494.093	5632
494.168	5807
494.243	4696
494.318	5648
494.393	5113
494.468	4678
494.543	4567
494.618	5298
494.693	4952
494.768	4169
494.842	5417
494.917	4871
494.992	5358
495.067	4722
495.142	4233
495.217	6071
495.292	5072
495.366	5708
495.441	5013
495.516	5928
495.591	6075
495.665	8177
495.740	13122
495.815	9195
495.890	5663
495.964	5692
496.039	5542
496.114	5714
496.188	8457
496.263	8777
496.338	5994
496.412	4698
496.487	5725
496.561	6097
496.636	5767
496.710	5089
496.785	6168
496.860	6089
496.934	5068
497.009	5327
497.083	5442
497.158	5622
497.232	5299
497.307	6786
497.381	5564
497.455	6950
497.530	6568
497.604	5864
497.679	4989
497.753	7153
497.827	7243
497.902	7439
497.976	9088
498.050	14989
498.125	56950
498.199	74995
498.273	11593
498.348	5850
498.422	5691
498.496	7286
498.570	6667
498.645	5853
498.719	5287
498.793	6414
498.867	7536
498.941	9688
499.016	20722
499.090	68739
499.164	32178
499.238	5944
499.312	5993
499.386	6217
499.460	6085
499.534	6530
499.609	6921
499.683	8130
499.757	6925
499.831	10907
499.905	37262
499.979	48188
500.053	8108
500.127	7401
500.201	4715
500.275	5082
500.349	5819
500.422	6481
500.496	6839
500.570	9867
500.644	19550
500.718	47327
500.792	13750
500.866	5862
500.940	5624
501.013	5611
501.087	4375
501.161	6671
501.235	5542
501.309	12125
501.382	32345
501.456	36790
501.530	8358
501.603	12871
501.677	8387
501.751	4491
501.825	4963
501.898	6718
501.972	14138
502.046	12584
502.119	4975
502.193	6776
502.266	16421
502.340	11012
502.413	7705
502.487	14482
502.561	10017
502.634	5235
502.708	5301
502.781	4815
502.855	4113
502.928	3488
503.002	4326
503.075	3984
503.149	3181
503.222	4530
503.295	4845
503.369	4817
503.442	6322
503.516	10373
503.589	25997
503.662	22709
503.736	10689
503.809	18030
503.882	20767
503.956	29441
504.029	47313
504.102	104255
504.175	200881
504.249	86036
504.322	27495
504.395	15328
504.468	9978
504.542	7905
504.615	6569
504.688	5411
504.761	4847
504.834	4266
504.907	4109
504.980	5154
505.053	3486
505.127	3612
505.200	4758
505.273	4311
505.346	3384
505.419	3057
505.492	4576
505.565	2770
505.638	2821
505.711	3214
505.784	3044
505.857	2463
505.930	3594
506.003	2959
506.076	3564
506.149	3094
506.221	4487
506.294	3753
506.367	5908
506.440	18429
506.513	13234
506.586	4589
506.659	2906
506.731	2889
506.804	3552
506.877	2743
506.950	3138
507.022	3081
507.095	2871
507.168	4052
507.241	3144
507.313	3270
507.386	2730
507.459	3204
507.531	2082
507.604	2891
507.677	2783
507.749	2558
507.822	3740
507.894	5093
507.967	7580
508.040	5174
508.112	4467
508.185	3843
508.257	3593
508.330	4843
508.402	4095
508.475	3925
508.547	3835
508.620	4785
508.692	4710
508.765	3860
508.837	3593
508.909	4227
508.982	3116
509.054	3736
509.127	3844
509.199	4359
509.271	3715
509.344	3372
509.416	2835
509.488	3052
509.560	3684
509.633	4680
509.705	3448
509.777	4479
509.849	3907
509.922	4218
509.994	4520
510.066	4232
510.138	4310
510.210	8092
510.283	8073
510.355	6269
510.427	5136
510.499	4417
510.571	4240
510.643	4823
510.715	5321
510.787	4915
510.859	4183
510.931	5016
511.003	5666
511.076	4485
511.148	3774
511.219	4385
511.291	4988
511.363	6033
511.435	4219
511.507	4448
511.579	4383
511.651	4881
511.723	3950
511.795	3856
511.867	4097
511.939	3811
512.010	4686
512.082	5266
512.154	3629
512.226	4259
512.298	4694
512.369	7933
512.441	6354
512.513	5303
512.585	4333
512.656	4516
512.728	3958
512.800	4931
512.871	3953
512.943	4495
513.015	4220
513.086	3812
513.158	4492
513.230	4858
513.301	5030
513.373	4183
513.444	3908
513.516	4551
513.588	4744
513.659	4295
513.731	4420
513.802	3775
513.874	4634
513.945	5228
514.016	4339
514.088	3783
514.159	4212
514.231	4738
514.302	6411
514.374	5994
514.445	4531
514.516	6779
514.588	6325
514.659	3707
514.730	4879
514.802	5736
514.873	2894
514.944	5271
515.016	5638
515.087	4419
515.158	5329
515.229	5969
515.301	4881
515.372	4255
515.443	4757
515.514	4682
515.585	4408
515.656	4513
515.728	4306
515.799	4685
515.870	4720
515.941	4792
516.012	4607
516.083	6724
516.154	5169
516.225	7010
516.296	6466
516.367	7165
516.438	7449
516.509	9658
516.580	14122
516.651	32331
516.722	135374
516.793	78691
516.864	14142
516.935	12794
517.006	15936
517.077	21039
517.148	37131
517.219	142722
517.289	349564
517.360	69855
517.431	20595
517.502	10168
517.573	7294
517.643	7472
517.714	8227
517.785	9097
517.856	8950
517.926	11884
517.997	14375
518.068	17684
518.138	24499
518.209	36576
518.280	97244
518.350	431189
518.421	256213
518.492	35248
518.562	24121
518.633	28479
518.703	37779
518.774	72286
518.845	196731
518.915	250448
518.986	73433
519.056	26900
519.127	18493
519.197	16917
519.268	23449
519.338	21563
519.408	9020
519.479	7165
519.549	6328
519.620	6214
519.690	5001
519.760	4769
519.831	5154
519.901	4950
519.971	4455
520.042	5472
520.112	4684
520.182	4878
520.253	5107
520.323	4703
520.393	4176
520.463	6479
520.534	4627
520.604	7301
520.674	4491
520.744	5126
520.814	7025
520.885	7884
520.955	7989
521.025	22904
521.095	15163
521.165	4612
521.235	4224
521.305	4307
521.375	4718
521.445	4603
521.515	4162
521.585	4586
521.655	4066
521.725	5363
521.795	4351
521.865	3671
521.935	4972
522.005	4316
522.075	4172
522.145	4811
522.215	4322
522.285	4891
522.355	4736
522.424	7327
522.494	7437
522.564	5195
522.634	4663
522.704	7669
522.774	5572
522.843	4096
522.913	2996
522.983	4803
523.053	3961
523.122	3780
523.192	3303
523.262	5013
523.331	5497
523.401	4143
523.471	4017
523.540	4653
523.610	3267
523.680	4175
523.749	4474
523.819	4547
523.888	5455
523.958	4089
524.027	3818
524.097	3621
524.166	3998
524.236	4096
524.305	4939
524.375	4141
524.444	4435
524.514	4963
524.583	4223
524.653	4836
524.722	5470
524.791	4294
524.861	4925
524.930	4522
524.999	3868
525.069	5192
525.138	4766
525.207	5318
525.277	5343
525.346	5278
525.415	5548
525.484	6003
525.554	6321
525.623	8262
525.692	11031
525.761	12194
525.830	15420
525.900	22447
525.969	34625
526.038	69068
526.107	116110
526.176	387429
526.245	407419
526.314	112335
526.383	169497
526.452	318358
526.522	333580
526.591	473575
526.660	79878
526.729	38946
526.797	42737
526.867	57614
526.935	131930
527.004	521064
527.073	531555
527.142	67874
527.211	23966
527.280	15213
527.349	10772
527.418	9002
527.487	7015
527.555	6196
527.624	5703
527.693	6584
527.762	5423
527.831	4705
527.899	4856
527.968	4825
528.037	3829
528.106	4930
528.174	5020
528.243	5234
528.312	5062
528.380	4742
528.449	4014
528.518	4075
528.586	3143
528.655	4998
528.723	3776
528.792	3672
528.861	3590
528.929	3960
528.998	4880
529.066	5450
529.135	9713
529.203	9087
529.272	11843
529.340	16180
529.409	13830
529.477	12804
529.545	13070
529.614	14512
529.682	15495
529.751	18769
529.819	18634
529.887	21368
529.956	19906
530.024	18003
530.092	16799
530.161	16694
530.229	16607
530.297	19295
530.365	19378
530.434	19170
530.502	21720
530.570	17814
530.638	16623
530.707	15823
530.775	15651
530.843	14197
530.911	17563
530.979	16915
531.047	18964
531.115	19596
531.183	17171
531.252	16647
531.320	15786
531.388	14993
531.456	17217
531.524	17375
531.592	19345
531.660	22622
531.728	19630
531.796	19868
531.864	18686
531.932	18463
532.000	18569
532.067	19730
532.135	21755
532.203	21283
532.271	23691
532.339	23140
532.407	23886
532.475	22828
532.542	21173
532.610	21745
532.678	21128
532.746	25619
532.814	31326
532.881	26444
532.949	22854
533.017	21659
533.084	19844
533.152	19859
533.220	19295
533.287	20089
533.355	20902
533.423	20503
533.490	21073
533.558	20478
533.625	19406
533.693	19978
533.761	17799
533.828	19343
533.896	17653
533.963	21675
534.031	21351
534.098	22607
534.166	21554
534.233	20494
534.300	21437
534.368	21304
534.435	19755
534.503	20031
534.570	22612
534.637	25359
534.705	28976
534.772	32991
534.840	43803
534.907	138210
534.974	284428
535.041	50646
535.109	22799
535.176	18209
535.243	18631
535.310	17633
535.378	16965
535.445	16526
535.512	17102
535.579	15194
535.646	15087
535.714	13769
535.781	16582
535.848	16704
535.915	17505
535.982	17810
536.049	16460
536.116	15462
536.183	15007
536.250	14129
536.317	13466
536.384	14678
536.451	14761
536.518	14087
536.585	13527
536.652	15529
536.719	15283
536.786	14132
536.853	13436
536.920	13381
536.987	13227
537.053	12357
537.120	16071
537.187	17675
537.254	13940
537.321	13305
537.388	13702
537.454	12584
537.521	12428
537.588	12275
537.654	13091
537.721	13191
537.788	13778
537.855	13095
537.921	12948
537.988	12565
538.055	12007
538.121	12084
538.188	10644
538.254	11189
538.321	10865
538.388	10782
538.454	12099
538.521	13461
538.587	13556
538.654	12250
538.720	11947
538.787	11198
538.853	11807
538.920	11496
538.986	10863
539.053	10829
539.119	9821
539.185	10757
539.252	11985
539.318	11760
539.385	12527
539.451	12839
539.517	13096
539.583	12324
539.650	11103
539.716	13926
539.782	11403
539.849	10748
539.915	10664
539.981	10956
540.047	11798
540.114	11053
540.180	11080
540.246	11086
540.312	11217
540.378	11267
540.444	11939
540.510	11376
540.576	13675
540.643	12656
540.709	10414
540.775	11217
540.841	10494
540.907	11186
540.973	11134
541.039	11695
541.105	11420
541.171	11766
541.237	11637
541.303	11689
541.369	12136
541.435	11499
541.500	11388
541.566	9529
541.632	11126
541.698	10120
541.764	11108
541.830	10723
541.896	9711
541.961	8479
542.027	10630
542.093	11213
542.159	11840
542.224	10380
542.290	12260
542.356	10558
542.421	10373
542.487	10103
542.553	9694
542.618	10406
542.684	10092
542.750	10115
542.815	11022
542.881	10928
542.947	13071
543.012	13355
543.078	10209
543.143	9586
543.209	10071
543.274	9137
543.340	9837
543.405	9697
543.471	12111
543.536	10740
543.602	10611
543.667	9340
543.732	10723
543.798	10788
543.863	10819
543.928	9177
543.994	10508
544.059	10485
544.124	10653
544.190	10061
544.255	11126
544.320	11692
544.386	10794
544.451	11833
544.516	11357
544.581	11353
544.646	12496
544.712	14972
544.777	11797
544.842	12486
544.907	12046
544.972	11607
545.037	12658
545.102	12769
545.168	11763
545.233	12029
545.298	13533
545.363	13322
545.428	14260
545.493	14506
545.558	15110
545.623	14803
545.688	13511
545.753	14115
545.818	14829
545.883	14919
545.947	15427
546.012	16239
546.077	16615
546.142	17961
546.207	17336
546.272	18314
546.337	18794
546.401	20440
546.466	21608
546.531	21173
546.596	23808
546.661	23643
546.725	25924
546.790	25941
546.855	28629
546.919	30909
546.984	35508
547.049	37651
547.113	43911
547.178	47093
547.243	52994
547.307	60240
547.372	67836
547.436	69660
547.501	71532
547.565	76436
547.630	74501
547.695	69187
547.759	69527
547.823	70670
547.888	70182
547.952	73409
548.017	76330
548.081	79187
548.146	78117
548.210	79229
548.274	85484
548.339	85515
548.403	77861
548.468	73664
548.532	71522
548.596	73997
548.660	72869
548.725	77589
548.789	85047
548.853	86300
548.917	80830
548.982	80450
549.046	73523
549.110	65263
549.174	65313
549.238	74273
549.303	82637
549.367	86188
549.431	84182
549.495	78869
549.559	77974
549.623	88641
549.687	99609
549.751	94338
549.815	111016
549.879	120986
549.943	113083
550.007	117254
550.071	117235
550.135	106843
550.199	97950
550.263	100963
550.327	95307
550.391	94741
550.455	104059
550.519	111853
550.582	117377
550.646	129740
550.710	137222
550.774	135385
550.838	134061
550.901	139764
550.965	148070
551.029	152031
551.093	161138
551.156	174246
551.220	191277
551.284	218959
551.347	185637
551.411	154318
551.475	147773
551.538	145944
551.602	142044
551.666	131902
551.729	126208
551.793	122103
551.856	120360
551.920	118432
551.983	119430
552.047	115997
552.110	117533
552.174	117070
552.237	120943
552.301	113390
552.364	109491
552.428	107238
552.491	107898
552.554	112180
552.618	110408
552.681	111923
552.745	109631
552.808	113833
552.871	123914
552.934	117549
552.998	114804
553.061	110701
553.124	106716
553.187	105217
553.251	108090
553.314	109564
553.377	110575
553.440	119089
553.503	129871
553.567	152540
553.630	126372
553.693	119693
553.756	119817
553.819	118699
553.882	114960
553.945	114965
554.008	115238
554.071	115533
554.134	118153
554.197	113643
554.260	109615
554.323	112842
554.386	112437
554.449	115625
554.512	116465
554.575	110765
554.638	112373
554.701	108638
554.764	110782
554.827	106623
554.889	104489
554.952	98569
555.015	95351
555.078	97764
555.141	98203
555.203	95937
555.266	96033
555.329	95756
555.391	91959
555.454	89571
555.517	88874
555.580	84769
555.642	81450
555.705	80697
555.768	79222
555.830	77504
555.893	72965
555.955	73232
556.018	70948
556.080	69757
556.143	71845
556.206	70144
556.268	69219
556.330	67123
556.393	65698
556.455	64479
556.518	62234
556.580	61090
556.643	58477
556.705	56747
556.767	55112
556.830	56008
556.892	53678
556.955	52076
557.017	51373
557.079	51517
557.142	49273
557.204	49082
557.266	48746
557.328	46664
557.391	43392
557.453	42748
557.515	41929
557.577	42970
557.639	42076
557.701	43060
557.764	41994
557.826	42792
557.888	45369
557.950	47422
558.012	50206
558.074	60649
558.136	94666
558.198	259395
558.260	159673
558.322	48316
558.384	45233
558.446	48031
558.508	51241
558.570	59279
558.632	69791
558.694	88147
558.756	126530
558.818	259348
558.880	712731
558.942	423710
559.003	269268
559.065	206743
559.127	67556
559.189	61866
559.251	65975
559.312	86476
559.374	151112
559.436	469876
559.498	418332
559.559	86679
559.621	64400
559.683	67446
559.744	92592
559.806	214776
559.868	477883
559.929	162046
559.991	66822
560.052	86210
560.114	222479
560.176	230617
560.237	118760
560.299	258288
560.360	95806
560.422	28192
560.483	23624
560.545	21604
560.606	19190
560.667	19668
560.729	17136
560.790	16649
560.852	17744
560.913	17381
560.974	16158
561.036	15806
561.097	16943
561.158	16716
561.220	15819
561.281	15358
561.342	14608
561.403	15449
561.465	14433
561.526	14847
561.587	15548
561.648	14503
561.709	14131
561.771	13864
561.832	13464
561.893	13010
561.954	12974
562.015	12532
562.076	11926
562.137	12307
562.198	11886
562.259	12885
562.320	12431
562.381	11748
562.442	12582
562.503	12024
562.564	10693
562.625	11445
562.686	11884
562.747	11574
562.808	11793
562.869	11059
562.930	12219
562.991	10784
563.051	10462
563.112	10240
563.173	10249
563.234	9831
563.294	10960
563.355	10450
563.416	10468
563.477	9809
563.537	9520
563.598	10293
563.659	8964
563.720	10170
563.780	9759
563.841	9983
563.901	9651
563.962	9823
564.023	8874
564.083	9817
564.144	10098
564.204	10089
564.265	9971
564.325	9949
564.386	9941
564.446	10437
564.507	8925
564.567	9161
564.628	8804
564.688	9201
564.749	8781
564.809	9377
564.869	9268
564.930	9223
564.990	10325
565.050	8694
565.111	8754
565.171	8515
565.231	8011
565.292	9306
565.352	8389
565.412	9094
565.472	8151
565.532	9049
565.593	7592
565.653	7919
565.713	9480
565.773	8756
565.833	8970
565.893	9840
565.953	8235
566.013	8980
566.074	7426
566.134	8701
566.194	8673
566.254	9224
566.314	8068
566.374	7906
566.434	7675
566.494	8062
566.554	7425
566.614	8814
566.673	8188
566.733	8495
566.793	9503
566.853	9078
566.913	8938
566.973	8488
567.033	9393
567.092	8526
567.152	8551
567.212	8566
567.272	7853
567.331	8376
567.391	9014
567.451	9590
567.511	9599
567.570	9968
567.630	8859
567.690	9829
567.749	9051
567.809	8952
567.868	8521
567.928	8187
567.988	7960
568.047	9564
568.107	9141
568.166	8590
568.226	9683
568.285	10319
568.345	9081
568.404	9858
568.464	9663
568.523	9157
568.582	9133
568.642	9485
568.701	8376
568.761	9417
568.820	9513
568.879	10444
568.939	10057
568.998	9622
569.057	9091
569.116	8389
569.176	9270
569.235	8990
569.294	7932
569.353	8737
569.413	8372
569.472	8470
569.531	8327
569.590	8164
569.649	8199
569.708	8519
569.767	8220
569.827	8256
569.886	8221
569.945	7994
570.004	7453
570.063	8850
570.122	7976
570.181	8944
570.240	8690
570.299	9325
570.358	8031
570.417	8674
570.475	9084
570.534	9787
570.593	9351
570.652	8713
570.711	8998
570.770	8484
570.829	8598
570.887	9174
570.946	9305
571.005	9344
571.064	8932
571.122	9293
571.181	9046
571.240	9150
571.299	8427
571.357	8509
571.416	8246
571.475	8247
571.533	9784
571.592	9443
571.650	9975
571.709	9288
571.768	10299
571.826	11008
571.885	9889
571.943	9935
572.002	8573
572.060	8933
572.119	8743
572.177	8600
572.236	8883
572.294	8240
572.352	9332
572.411	8866
572.469	9340
572.528	9764
572.586	8438
572.644	8525
572.703	9242
572.761	7790
572.819	7779
572.877	8195
572.936	7156
572.994	7926
573.052	7732
573.110	7853
573.169	7979
573.227	8000
573.285	7645
573.343	8820
573.401	8612
573.459	8637
573.517	8058
573.576	8485
573.634	8436
573.692	7871
573.750	7466
573.808	8708
573.866	7654
573.924	8081
573.982	7744
574.040	7712
574.098	7858
574.155	7655
574.213	7238
574.271	7625
574.329	8101
574.387	7875
574.445	7593
574.503	7776
574.560	6256
574.618	7501
574.676	6870
574.734	7404
574.792	7378
574.849	6219
574.907	6609
574.965	6041
575.022	5523
575.080	6506
575.138	5513
575.195	5683
575.253	6302
575.311	5264
575.368	6639
575.426	5255
575.483	6320
575.541	6073
575.598	6152
575.656	6279
575.713	5536
575.771	6071
575.828	6765
575.886	6152
575.943	6744
576.001	5598
576.058	4725
576.115	5841
576.173	6213
576.230	6835
576.287	6488
576.345	6429
576.402	6254
576.459	6104
576.517	6522
576.574	5693
576.631	5492
576.688	5909
576.746	4880
576.803	5826
576.860	5839
576.917	5601
576.974	4549
577.031	6035
577.089	5846
577.146	4916
577.203	4981
577.260	5385
577.317	5467
577.374	4785
577.431	5385
577.488	5212
577.545	4417
577.602	5972
577.659	6115
577.716	5738
577.773	5479
577.830	5501
577.886	6134
577.943	5073
578.000	4803
578.057	5676
578.114	6464
578.171	6833
578.227	7923
578.284	8206
578.341	6351
578.398	6093
578.454	5914
578.511	6471
578.568	5965
578.625	5532
578.681	4686
578.738	5175
578.794	5516
578.851	5277
578.908	5683
578.964	5281
579.021	5677
579.077	6172
579.134	5200
579.190	5886
579.247	5932
579.303	6302
579.360	5043
579.416	5208
579.473	6551
579.529	5752
579.586	6132
579.642	6212
579.698	5474
579.755	6778
579.811	6304
579.867	6050
579.924	7181
579.980	6226
580.036	7776
580.093	7885
580.149	9880
580.205	12035
580.261	9896
580.317	8431
580.374	7725
580.430	7367
580.486	7704
580.542	7326
580.598	7773
580.619	7468
580.654	6945
580.692	6768
580.710	6689
580.765	7386
580.767	7413
580.823	7018
580.838	7110
580.879	7380
580.911	7606
580.935	7781
580.984	8116
580.991	8168
581.047	6913
581.057	7174
581.103	8376
581.130	8088
581.159	7822
581.203	8080
581.215	8135
581.270	8032
581.276	8070
581.326	8590
581.349	7958
581.382	6956
581.422	7557
581.438	7840
581.494	7133
581.494	7134
581.550	7614
581.567	7771
581.606	8093
581.640	8127
581.661	8178
581.713	8155
581.717	8149
581.773	8164
581.786	8196
581.829	8402
581.859	9011
581.885	9474
581.932	8979
581.940	8920
581.996	9132
582.004	9075
582.052	8677
582.077	8690
582.107	8739
582.150	8610
582.163	8550
582.219	9029
582.223	9017
582.274	9058
582.296	9218
582.330	9411
582.368	9564
582.386	9620
582.441	10454
582.441	10457
582.497	9710
582.514	9901
582.552	10247
582.587	10201
582.608	10200
582.659	10052
582.663	10042
582.719	10692
582.732	10729
582.774	10786
582.805	10951
582.830	11200
582.877	12144
582.885	12288
582.941	12733
582.950	12847
582.996	13465
583.023	14123
583.052	14935
583.095	15708
583.107	15887
583.162	16094
583.168	16148
583.218	16477
583.240	15632
583.273	14289
583.313	13758
583.328	13554
583.384	11854
583.385	11842
583.439	11509
583.458	11038
583.494	10289
583.531	10882
583.549	11206
583.603	10213
583.605	10179
583.660	10627
583.676	10632
583.715	10795
583.748	10931
583.770	10947
583.820	10870
583.825	10861
583.881	10998
583.893	10861
583.936	10409
583.965	10646
583.991	10837
584.038	10655
584.046	10647
584.101	11045
584.110	10967
584.156	10445
584.183	10739
584.211	11178
584.255	11417
584.266	11487
584.321	11967
584.328	12013
584.376	12253
584.400	12214
584.431	12003
584.472	12080
584.486	12209
584.541	12578
584.545	12624
584.596	13289
584.617	13267
584.651	13258
584.689	13237
584.706	13126
584.761	13762
584.762	13756
584.816	13517
584.834	13975
584.871	14665
584.906	14085
584.926	13846
584.978	14403
584.980	14426
585.035	15174
585.051	15412
585.090	16339
585.123	16950
585.145	17184
585.195	18645
585.200	18821
585.254	20899
585.267	21628
585.309	24297
585.340	26510
585.364	28307
585.412	32960
585.419	33622
585.473	39074
585.484	40779
585.528	49220
585.556	56880
585.583	68478
585.628	99548
585.637	111795
585.692	216462
585.700	242854
585.747	415630
585.772	426323
585.801	342601
585.845	163485
585.856	127055
585.910	49470
585.917	42288
585.965	31453
585.989	27612
586.019	25028
586.061	22537
586.074	22015
586.128	20264
586.133	20157
586.183	19399
586.205	18972
586.237	18437
586.277	18085
586.292	18010
586.346	17201
586.349	17218
586.401	17561
586.421	17257
586.455	16606
586.493	16431
586.509	16635
586.564	16676
586.565	16694
586.618	18291
586.637	18816
586.672	19774
586.709	20374
586.727	20829
586.781	23592
586.781	23605
586.835	21081
586.853	20028
586.889	17568
586.925	16194
586.944	15807
586.996	15038
586.998	15051
587.052	15033
587.068	15100
587.106	15131
587.140	15138
587.161	15049
587.212	15054
587.215	15091
587.269	15238
587.284	15372
587.323	15816
587.356	16313
587.377	16548
587.427	16758
587.431	16817
587.485	16922
587.499	17158
587.539	17399
587.571	17528
587.593	17835
587.643	18101
587.648	18121
587.702	18217
587.715	18265
587.755	18751
587.786	19111
587.810	19105
587.858	18859
587.864	18894
587.917	19199
587.930	19263
587.971	19735
588.001	20058
588.025	20060
588.073	19714
588.079	19717
588.133	19514
588.145	19536
588.187	20088
588.217	20641
588.241	21214
588.288	21911
588.295	22025
588.348	22851
588.360	23075
588.402	24280
588.431	25231
588.456	26025
588.503	27479
588.510	27749
588.564	29577
588.575	30143
588.617	32313
588.646	33973
588.671	36059
588.718	40364
588.725	41167
588.778	48729
588.789	50667
588.832	67092
588.861	81574
588.886	116096
588.932	191362
588.939	209501
588.993	364089
589.004	382137
589.047	283698
589.075	208151
589.100	146503
589.147	57113
589.154	54645
589.207	42022
589.218	39723
589.261	38696
589.290	38519
589.314	39521
589.361	41792
589.368	42595
589.421	50683
589.433	53079
589.475	81988
589.504	105453
589.528	154318
589.576	263326
589.582	266935
589.635	261235
589.647	253742
589.689	130979
589.718	57649
589.742	47387
589.790	30886
589.795	30438
589.849	26779
589.861	26025
589.902	25799
589.932	25537
589.955	25167
590.004	24072
590.009	24004
590.062	23285
590.075	23138
590.115	22830
590.146	22211
590.168	21911
590.218	21398
590.222	21483
590.275	22455
590.289	22651
590.328	22793
590.360	22813
590.381	22881
590.431	22773
590.435	22800
590.488	22947
590.503	22938
590.541	23190
590.574	23422
590.594	23900
590.645	24915
590.647	24971
590.700	25452
590.716	25580
590.753	26052
590.787	26428
590.806	26719
590.859	27299
590.859	27348
590.912	27707
590.930	27751
590.965	27907
591.001	28088
591.018	28084
591.071	27837
591.072	27792
591.124	26973
591.143	26695
591.177	27025
591.214	27314
591.230	27621
591.283	28441
591.285	28427
591.336	28349
591.356	28270
591.389	28425
591.427	28475
591.442	28562
591.495	28781
591.498	28745
591.547	28401
591.569	28186
591.600	28326
591.640	28428
591.653	28543
591.706	28797
591.711	28792
591.759	29339
591.782	29511
591.811	30280
591.853	31292
591.864	31459
591.917	32002
591.924	32041
591.969	31720
591.995	31428
592.022	31650
592.066	31852
592.075	32090
592.127	33338
592.137	33500
592.180	34036
592.208	34332
592.233	34883
592.279	35734
592.285	35775
592.338	35618
592.350	35532
592.390	36033
592.421	36276
592.443	36471
592.491	36742
592.495	36853
592.548	37530
592.562	37652
592.600	37694
592.633	37617
592.653	37753
592.704	37739
592.705	37952
592.775	37779
592.846	38778
592.916	39254
592.987	39587
593.058	40431
593.128	39951
593.199	41830
593.270	41133
593.341	42424
593.411	42999
593.482	44295
593.553	46395
593.623	46992
593.694	47938
593.764	48565
593.835	49188
593.906	48328
593.976	49956
594.047	51136
594.117	52922
594.188	56260
594.258	55169
594.329	55370
594.399	56945
594.470	59052
594.540	59371
594.611	62894
594.681	61560
594.751	62274
594.822	61975
594.892	65844
594.963	68138
595.033	68507
595.103	72196
595.174	72612
595.244	74504
595.314	78257
595.384	78457
595.455	79897
595.525	82980
595.595	86383
595.665	86969
595.736	85183
595.806	85512
595.876	89453
595.946	88366
596.016	90828
596.087	94312
596.157	96404
596.227	94303
596.297	97314
596.367	106150
596.437	113411
596.507	113897
596.577	113485
596.647	114927
596.717	120581
596.787	124406
596.857	125688
596.927	126240
596.997	125948
597.067	126824
597.137	130177
597.207	130511
597.277	132774
597.347	129046
597.417	124727
597.487	123022
597.557	125535
597.626	128864
597.696	132089
597.766	132170
597.836	129815
597.906	120833
597.975	117041
598.045	118154
598.115	122582
598.185	127159
598.254	140169
598.324	155860
598.394	162652
598.464	161910
598.533	157161
598.603	153079
598.672	142910
598.742	144138
598.812	145673
598.881	150342
598.951	150999
599.020	152387
599.090	156122
599.159	160882
599.229	158646
599.299	155556
599.368	155918
599.437	158213
599.507	150986
599.576	140710
599.646	142550
599.715	140573
599.785	140834
599.854	138419
599.924	136268
599.993	136958
600.062	137754
600.132	142466
600.201	144799
600.270	160136
600.340	179195
600.409	179705
600.478	180426
600.547	179977
600.617	184153
600.686	153140
600.755	137784
600.824	131651
600.894	128011
600.963	128708
601.032	130945
601.101	130833
601.170	125838
601.239	123164
601.308	123967
601.378	127036
601.447	128214
601.516	131595
601.585	131678
601.654	134305
601.723	136474
601.792	138821
601.861	144058
601.930	148813
601.999	155037
602.068	155941
602.137	154295
602.206	156581
602.275	159428
602.343	160751
602.412	160978
602.481	162715
602.550	165785
602.619	165675
602.688	169189
602.756	169974
602.825	172653
602.894	173181
602.963	177629
603.032	178561
603.100	181551
603.169	177200
603.238	180722
603.307	181844
603.375	176944
603.444	185754
603.513	183223
603.581	179820
603.650	190515
603.719	182105
603.787	168144
603.856	173463
603.924	176900
603.993	181130
604.061	185551
604.130	194950
604.198	199325
604.267	201172
604.335	205981
604.404	208009
604.472	212264
604.541	212291
604.609	215115
604.678	222226
604.746	222210
604.815	229610
604.883	234213
604.951	227513
605.020	228374
605.088	232621
605.156	224492
605.225	226593
605.293	228349
605.361	226547
605.429	227514
605.498	229241
605.566	233585
605.634	240447
605.702	250732
605.771	254620
605.839	263228
605.907	255539
605.975	249219
606.043	244951
606.111	237521
606.180	242717
606.248	245290
606.316	230936
606.384	238848
606.452	235440
606.520	211897
606.588	218499
606.656	220748
606.724	222914
606.792	211599
606.860	197638
606.928	178262
606.996	166819
607.064	159657
607.132	163636
607.200	168124
607.267	179396
607.335	180762
607.403	191190
607.471	185260
607.539	177508
607.607	180921
607.674	167269
607.742	155266
607.810	156644
607.878	155518
607.946	157955
608.013	162812
608.081	168516
608.149	171525
608.216	172464
608.284	181897
608.352	181289
608.419	183237
608.487	177571
608.555	171892
608.622	175383
608.690	182378
608.757	195628
608.825	212091
608.893	206345
608.960	198805
609.028	186769
609.095	185402
609.163	187210
609.230	176229
609.298	153704
609.365	153820
609.432	165606
609.500	176609
609.567	197811
609.635	227701
609.702	252613
609.769	251604
609.837	221733
609.904	168946
609.971	163353
610.039	171652
610.106	191019
610.173	261920
610.241	510947
610.308	673607
610.375	280086
610.442	192690
610.509	173159
610.577	169320
610.644	171830
610.711	176179
610.778	181861
610.845	185275
610.912	196628
610.980	208552
611.047	210772
611.114	211146
611.181	203051
611.248	199366
611.315	204435
611.382	213290
611.449	220874
611.516	227456
611.583	224704
611.650	224060
611.717	225038
611.784	228759
611.851	233305
611.918	238276
611.984	252303
612.051	294765
612.118	409537
612.185	768823
612.252	1061154
612.319	437624
612.386	297374
612.452	278368
612.519	259420
612.586	252563
612.653	251284
612.719	260433
612.786	261272
612.853	247178
612.919	234005
612.986	238502
613.053	233207
613.120	218677
613.186	206163
613.253	206114
613.319	204904
613.386	206801
613.453	208717
613.519	212059
613.586	209230
613.652	209335
613.719	207184
613.785	208740
613.852	214012
613.918	214351
613.985	214243
614.051	222700
614.118	226603
614.184	225704
614.250	212186
614.317	217285
614.383	214431
614.449	218211
614.516	217928
614.582	217221
614.648	218180
614.715	214650
614.781	211908
614.847	208561
614.914	210780
614.980	207576
615.046	203074
615.112	205957
615.179	211880
615.245	211417
615.311	210846
615.377	212182
615.443	215406
615.509	213645
615.575	218753
615.642	223182
615.708	221237
615.774	227047
615.840	234912
615.906	245452
615.972	257830
616.038	308367
616.104	458066
616.170	836853
616.236	1267278
616.302	608140
616.368	363477
616.434	304931
616.500	255870
616.565	253692
616.631	299285
616.697	305828
616.763	268800
616.829	308829
616.895	483598
616.961	655492
617.026	414194
617.092	245813
617.158	225347
617.224	221481
617.289	212469
617.355	199468
617.421	197542
617.487	196712
617.552	190579
617.618	184858
617.684	185254
617.749	186383
617.815	183267
617.880	176892
617.946	176391
618.012	176786
618.077	183331
618.143	181577
618.208	175537
618.274	182141
618.339	195287
618.405	176053
618.470	159382
618.536	163654
618.601	161702
618.667	158222
618.732	146363
618.798	142414
618.863	140642
618.928	139304
618.994	139804
619.059	139929
619.124	140809
619.190	142173
619.255	139066
619.320	139851
619.386	141289
619.451	140680
619.516	140920
619.581	138633
619.647	142702
619.712	145311
619.777	141155
619.842	138609
619.907	142568
619.972	143250
620.038	143668
620.103	139835
620.168	141854
620.233	142267
620.298	142105
620.363	143180
620.428	144841
620.493	148326
620.558	150916
620.623	153476
620.688	154972
620.753	152699
620.818	154153
620.883	157629
620.948	157176
621.013	156219
621.078	154163
621.143	152760
621.207	156027
621.272	154722
621.337	152204
621.402	148494
621.467	148798
621.532	147050
621.596	148759
621.661	147152
621.726	143475
621.791	145461
621.855	144885
621.920	142848
621.985	145139
622.049	147154
622.114	147563
622.179	148448
622.243	151792
622.308	154054
622.373	159810
622.437	161243
622.502	154571
622.566	150245
622.631	149331
622.695	152376
622.760	151743
622.824	151070
622.889	152593
622.953	152991
623.018	155100
623.082	161331
623.147	159246
623.211	157653
623.276	155774
623.340	153968
623.404	147937
623.469	147608
623.533	148198
623.597	147102
623.662	144729
623.726	142094
623.790	132555
623.854	127880
623.919	127146
623.983	128862
624.047	130875
624.111	129976
624.176	133571
624.240	133832
624.304	135870
624.368	137783
624.432	133007
624.496	133853
624.560	139012
624.625	142774
624.689	142226
624.753	144055
624.817	147349
624.881	137923
624.945	133519
625.009	124888
625.073	122838
625.137	125609
625.201	130670
625.265	132628
625.329	130157
625.393	125124
625.456	127330
625.520	129779
625.584	130774
625.648	134072
625.712	136293
625.776	140561
625.839	140490
625.903	128642
625.967	107580
626.031	107252
626.095	120974
626.158	131856
626.222	107948
626.286	92462
626.349	90653
626.413	86078
626.477	82482
626.540	81947
626.604	83789
626.668	82045
626.731	80967
626.795	80059
626.858	80781
626.922	79309
626.986	77351
627.049	77049
627.113	78709
627.176	79916
627.240	75125
627.303	75130
627.366	75240
627.430	74609
627.493	75927
627.557	73101
627.620	73183
627.684	74447
627.747	76344
627.810	74037
627.874	67069
627.937	61305
628.000	62322
628.064	63366
628.127	58993
628.190	55443
628.253	53367
628.317	53403
628.380	50769
628.443	48571
628.506	48717
628.569	47112
628.632	44307
628.696	44082
628.759	43459
628.822	42163
628.885	40794
628.948	40308
629.011	39873
629.074	38945
629.137	37406
629.200	37033
629.263	36221
629.326	34400
629.389	35436
629.452	35870
629.515	34279
629.578	33900
629.641	33418
629.704	34991
629.767	34373
629.830	32183
629.892	32665
629.955	31504
630.018	32519
630.081	32890
630.144	31718
630.207	30979
630.269	31871
630.332	31434
630.395	29323
630.458	30264
630.520	29011
630.583	28555
630.646	28735
630.708	27733
630.771	29084
630.834	30362
630.896	30384
630.959	30627
631.021	29155
631.084	29617
631.146	28528
631.209	29052
631.272	28295
631.334	28528
631.397	30175
631.459	29112
631.522	29255
631.584	30403
631.646	30914
631.709	32767
631.771	32815
631.834	31600
631.896	31398
631.958	29605
632.021	29624
632.083	27929
632.145	27784
632.208	26610
632.270	27480
632.332	26894
632.395	26844
632.457	26304
632.519	26984
632.581	26606
632.643	25685
632.706	26539
632.768	26332
632.830	26414
632.892	26484
632.954	26931
633.016	27057
633.078	27197
633.141	27027
633.203	26813
633.265	26136
633.327	26443
633.389	26581
633.451	26952
633.513	26690
633.575	25949
633.637	26910
633.698	26983
633.760	27119
633.822	28095
633.884	29599
633.946	29267
634.008	30202
634.070	30556
634.132	30761
634.193	32846
634.255	33938
634.317	36906
634.379	36758
634.441	34574
634.502	32323
634.564	29497
634.626	28620
634.687	26239
634.749	25373
634.811	25281
634.873	25206
634.934	25647
634.996	25167
635.057	25648
635.119	25331
635.181	25718
635.242	26479
635.304	26399
635.365	26724
635.427	25744
635.488	25629
635.550	25009
635.611	25237
635.673	24718
635.734	26651
635.796	26597
635.857	29218
635.918	29832
635.980	31331
636.041	34303
636.102	35979
636.164	37724
636.225	37724
636.286	33759
636.348	30931
636.409	27663
636.470	25709
636.531	25608
636.593	26354
636.654	25243
636.715	23683
636.776	23826
636.838	24219
636.899	23560
636.960	22494
637.021	22512
637.082	23053
637.143	21757
637.204	21235
637.265	21030
637.326	21307
637.387	22018
637.448	22694
637.509	22106
637.570	22432
637.631	22291
637.692	21422
637.753	21438
637.814	21081
637.875	22154
637.936	21020
637.997	20701
638.058	20830
638.119	21435
638.179	20839
638.240	21746
638.301	20661
638.362	20436
638.423	19954
638.483	19626
638.544	19294
638.605	19028
638.666	20231
638.726	20364
638.787	20049
638.848	20380
638.908	19985
638.969	19148
639.030	18575
639.090	17775
639.151	18951
639.211	20157
639.272	19479
639.332	19481
639.393	20483
639.453	19886
639.514	21311
639.574	20697
639.635	18451
639.695	18060
639.756	17709
639.816	17900
639.877	17227
639.937	17811
639.997	18402
640.058	17705
640.118	18574
640.178	17296
640.239	17982
640.299	18172
640.359	18318
640.420	18271
640.480	19952
640.540	21505
640.600	23385
640.661	21159
640.721	19047
640.781	20360
640.841	18751
640.901	19329
640.961	17702
641.021	17658
641.082	19449
641.142	18714
641.202	17952
641.262	17497
641.322	17621
641.382	17575
641.442	16546
641.502	17335
641.562	16796
641.622	17625
641.682	17795
641.742	19508
641.802	20509
641.861	17178
641.921	16333
641.981	16742
642.041	16617
642.101	15462
642.161	15869
642.221	15413
642.280	15523
642.340	16034
642.400	16115
642.460	16001
642.519	17043
642.579	17053
642.639	16088
642.698	15396
642.758	17736
642.818	17057
642.877	15716
642.937	16418
642.997	16277
643.056	16563
643.116	16075
643.175	16402
643.235	17114
643.294	16508
643.354	17274
643.414	17590
643.473	19846
643.532	21611
643.592	25476
643.651	33132
643.711	51255
643.770	88509
643.830	169420
643.889	448705
643.948	437422
644.008	77320
644.067	32462
644.126	24846
644.186	21299
644.245	19643
644.304	16885
644.363	17108
644.423	16600
644.482	15544
644.541	17334
644.600	17184
644.659	18567
644.719	21227
644.778	27911
644.837	40936
644.896	70645
644.955	163305
645.014	202215
645.073	38500
645.132	21151
645.191	18625
645.250	17504
645.309	17599
645.368	17910
645.427	21753
645.486	27002
645.545	53612
645.604	47906
645.663	17860
645.722	16342
645.781	16018
645.840	16795
645.898	18757
645.957	22420
646.016	30664
646.075	48134
646.134	84604
646.192	164947
646.251	441979
646.310	268556
646.369	45988
646.427	27021
646.486	23987
646.545	18237
646.603	17295
646.662	14958
646.721	14188
646.779	14938
646.838	14319
646.896	16170
646.955	18685
647.014	26535
647.072	42969
647.131	93036
647.189	166778
647.248	35599
647.306	15598
647.365	13118
647.423	11825
647.481	12436
647.540	9736
647.598	11367
647.657	11580
647.715	11527
647.773	11032
647.832	10340
647.890	10851
647.948	10004
648.007	10534
648.065	9772
648.123	10158
648.181	9859
648.240	9160
648.298	9475
648.356	9384
648.414	9314
648.472	9670
648.531	9203
648.589	7987
648.647	9157
648.705	8573
648.763	8803
648.821	9349
648.879	8975
648.937	9961
648.995	10664
649.053	12312
649.111	15987
649.169	23519
649.227	40091
649.285	72317
649.343	177942
649.401	315771
649.459	64964
649.516	19221
649.574	13782
649.632	13734
649.690	16521
649.748	16308
649.806	18614
649.863	32278
649.921	62276
649.979	134755
650.037	37767
650.094	10363
650.152	8549
650.210	7685
650.268	7678
650.325	7898
650.383	7493
650.440	6406
650.498	6882
650.556	5751
650.613	5412
650.671	6655
650.728	5450
650.786	6600
650.843	7242
650.901	8813
650.958	5801
651.016	5793
651.073	5161
651.131	5344
651.188	4443
651.246	5218
651.303	4550
651.360	5124
651.418	4377
651.475	4855
651.532	4190
651.590	4982
651.647	4069
651.704	4627
651.762	4165
651.819	5019
651.876	3979
651.933	4378
651.990	4288
652.048	3879
652.105	4114
652.162	3868
652.219	4424
652.276	3762
652.333	4245
652.390	3696
652.448	3879
652.505	4338
652.562	4153
652.619	4406
652.676	4376
652.733	5234
652.790	4713
652.847	3790
652.904	4413
652.961	2698
653.017	3202
653.074	4499
653.131	3071
653.188	3124
653.245	3618
653.302	4689
653.359	2887
653.415	3703
653.472	4274
653.529	4155
653.586	3462
653.642	3933
653.699	3974
653.756	2950
653.813	3364
653.869	3564
653.926	3909
653.983	3166
654.039	3428
654.096	3847
654.152	3490
654.209	2916
654.266	3669
654.322	3301
654.379	3110
654.435	3317
654.492	3704
654.548	3137
654.605	2776
654.661	3534
654.717	3090
654.774	3739
654.830	3744
654.887	3780
654.943	2388
655.000	3021
655.056	3722
655.112	3799
655.168	2826
655.225	3367
655.281	3693
655.337	2741
655.394	3609
655.450	2901
655.506	2827
655.562	2684
655.618	4203
655.675	2599
655.731	2596
655.787	2496
655.843	3520
655.899	2427
655.955	4024
656.011	3020
656.067	2157
656.123	3265
656.179	3010
656.235	3062
656.291	2655
656.347	3146
656.403	2426
656.459	3240
656.515	3721
656.571	2980
656.627	2427
656.683	2501
656.739	3299
656.795	2812
656.850	3411
656.906	3047
656.962	3057
657.018	3560
657.074	3560
657.129	3918
657.185	6671
657.241	11831
657.297	21877
657.352	7186
657.408	2547
657.464	3040
657.519	2361
657.575	2185
657.630	2675
657.686	2198
657.742	2082
657.797	2473
657.853	2556
657.908	3587
657.964	2116
658.019	1950
658.075	2169
658.130	2845
658.186	2250
658.241	2456
658.297	2574
658.352	2244
658.407	3418
658.463	2108
658.518	2342
658.573	2180
658.629	2023
658.684	1714
658.739	1552
658.795	2097
658.850	2086
658.905	2200
658.960	2686
659.016	2011
659.071	2343
659.126	2246
659.181	1544
659.236	2957
659.291	2639
659.346	2632
659.401	2663
659.457	2472
659.512	2928
659.567	3185
659.622	1959
659.677	2031
659.732	2179
659.787	1795
659.842	1752
659.897	2139
659.952	2647
660.007	1945
660.061	2131
660.116	1625
660.171	1630
660.226	2058
660.281	3166
660.336	2037
660.391	2320
660.445	1793
660.500	2008
660.555	2017
660.610	1329
660.664	2300
660.719	1173
660.774	2081
660.828	1304
660.883	1750
660.938	1803
660.992	1687
661.047	2480
661.101	1689
661.156	1357
661.211	1914
661.265	1825
661.320	1721
661.374	2094
661.429	1510
661.483	1952
661.538	1518
661.592	1377
661.647	2004
661.701	2018
661.755	2418
661.810	1885
661.864	1519
661.919	1545
661.973	2385
662.027	1577
662.081	1326
662.136	575
662.190	2136
662.244	2409
662.299	1175
662.353	1821
662.407	2069
662.461	1277
662.515	2149
662.569	1749
662.624	1470
662.678	818
662.732	2163
662.786	498
662.840	1927
662.894	1851
662.948	878
663.002	1818
663.056	1594
663.110	1060
663.164	1883
663.218	1305
663.272	2040
663.326	1759
663.380	1630
663.434	2138
663.488	943
663.542	2276
663.595	1825
663.649	763
663.703	1677
663.757	1271
663.811	708
663.864	1320
663.918	2361
663.972	1077
664.026	1260
664.079	1225
664.133	1563
664.187	1608
664.240	1878
664.294	1987
664.348	1884
664.401	1324
664.455	1819
664.508	1191
664.562	1658
664.615	1861
664.669	1355
664.722	1449
664.776	1244
664.829	1333
664.883	1738
664.936	1383
664.990	1660
665.043	2128
665.097	1023
665.150	1658
665.203	953
665.257	1755
665.310	1645
665.363	2005
665.417	2232
665.470	2019
665.523	1969
665.576	1827
665.630	1507
665.683	896
665.736	2031
665.789	1643
665.842	1429
665.895	1294
665.949	2406
666.002	1301
666.055	2100
666.108	2204
666.161	1762
666.214	1327
666.267	1751
666.320	1113
666.373	2350
666.426	1941
666.479	1716
666.532	1973
666.585	1830
666.638	2181
666.691	2395
666.744	1816
666.796	2221
666.849	1740
666.902	2593
666.955	1531
667.008	1886
667.060	1004
667.113	1274
667.166	2245
667.219	1925
667.271	2433
667.324	2522
667.377	1630
667.430	2334
667.482	806
667.535	2618
667.587	1081
667.640	1924
667.693	1342
667.745	1490
667.798	2038
667.850	1573
667.903	1305
667.955	1611
668.008	1818
668.060	2290
668.113	1739
668.165	1689
668.218	1528
668.270	1694
668.322	1080
668.375	1144
668.427	2686
668.479	1226
668.532	932
668.584	2270
668.636	2207
668.689	2009
668.741	1920
668.793	773
668.845	973
668.898	2004
668.950	933
669.002	2168
669.054	1758
669.106	904
669.158	2064
669.211	1350
669.263	2233
669.315	1834
669.367	1037
669.419	1338
669.471	2656
669.523	1305
669.575	1831
669.627	1389
669.679	1269
669.731	1199
669.783	2072
669.835	2202
669.886	2203
669.938	2123
669.990	1979
670.042	843
670.094	2891
670.146	1358
670.197	2113
670.249	2540
670.301	1791
670.353	3605
670.404	4164
670.456	6313
670.508	9346
670.560	15222
670.611	25959
670.663	45965
670.715	82578
670.766	206786
670.818	213901
670.869	43655
670.921	11854
670.972	6840
671.024	4481
671.075	4008
671.127	3138
671.178	2129
671.230	2941
671.281	2648
671.333	3159
671.384	2364
671.436	3120
671.487	4633
671.538	5831
671.590	10703
671.641	16798
671.692	27871
671.744	57315
671.795	89642
671.846	38471
671.897	12732
671.949	6421
672.000	5100
672.051	3895
672.102	3008
672.153	1957
672.204	1911
672.256	2129
672.307	2201
672.358	1402
672.409	2597
672.460	1147
672.511	1238
672.562	935
672.613	1469
672.664	490
672.715	864
672.766	1692
672.817	1139
672.868	881
672.919	885
672.970	403
673.021	592
673.071	474
673.122	1444
673.173	948
673.224	1146
673.275	758
673.326	237
673.376	442
673.427	37
673.478	1108
673.528	585
673.579	881
673.630	983
673.680	1185
673.731	579
673.782	501
673.832	746
673.883	1010
673.934	440
673.984	1206
674.035	1038
674.085	895
674.136	820
674.186	802
674.237	1672
674.287	981
674.338	1361
674.388	821
674.438	916
674.489	1395
674.539	1016
674.589	990
674.640	1130
674.690	821
674.740	664
674.791	1031
674.841	773
674.891	617
674.942	376
674.992	70
675.042	492
675.092	487
675.142	433
675.193	714
675.243	-217
675.293	411
675.343	210
675.393	634
675.443	158
675.493	684
675.543	1054
675.593	731
675.643	734
675.693	105
675.743	922
675.793	634
675.843	19
675.893	790
675.943	387
675.993	608
676.043	316
676.093	474
676.142	104
676.192	190
676.242	390
676.292	397
676.341	385
676.391	371
676.441	-131
676.491	316
676.540	284
676.590	577
676.640	339
676.689	-308
676.739	-453
676.789	116
676.838	-28
676.888	-277
676.937	-337
676.987	373
677.037	498
677.086	94
677.136	-303
677.185	-564
677.235	117
677.284	-547
677.333	-575
677.383	178
677.432	-224
677.482	658
677.531	83
677.580	-196
677.630	354
677.679	-67
677.728	-380
677.778	687
677.827	145
677.876	-898
677.925	-83
677.975	-277
678.024	44
678.073	134
678.122	564
678.171	-102
678.220	-133
678.269	-171
678.319	934
678.368	497
678.417	416
678.466	278
678.515	84
678.564	-84
678.613	338
678.662	-263
678.711	387
678.760	167
678.809	-371
678.857	44
678.906	13
678.955	251
679.004	511
679.053	-861
679.102	-339
679.151	-494
679.199	-244
679.248	-257
679.297	666
679.346	-44
679.394	305
679.443	-647
679.492	1058
679.540	9
679.589	234
679.638	-299
679.686	-519
679.735	584
679.784	124
679.832	300
679.881	165
679.929	-514
679.978	-323
680.026	-117
680.075	-116
680.123	-765
680.172	-669
680.220	-146
680.268	-118
680.317	-59
680.365	-3
680.414	-261
680.462	-295
680.510	-104
680.559	-1099
680.607	-293
680.655	-620
680.703	-292
680.752	-715
680.800	23
680.848	-420
680.896	-96
680.945	-1120
680.993	-193
681.041	-406
681.089	255
681.137	807
681.185	-455
681.233	-329
681.258	-650
681.281	-980
681.329	-53
681.377	74
681.380	62
681.425	-684
681.473	334
681.502	131
681.521	-47
681.569	-126
681.617	187
681.624	231
681.665	289
681.713	276
681.745	414
681.761	446
681.809	503
681.857	1009
681.867	871
681.904	286
681.952	565
681.989	309
682.000	199
682.048	731
682.096	674
682.111	664
682.143	550
682.191	492
682.233	759
682.239	775
682.286	247
682.334	735
682.354	951
682.382	1189
682.430	1491
682.476	1296
682.477	1269
682.525	1169
682.572	326
682.598	379
682.620	395
682.667	1479
682.715	1576
682.720	1677
682.763	2355
682.810	1422
682.841	1189
682.857	1057
682.905	1557
682.952	1744
682.963	1770
683.000	1669
683.047	1710
683.085	1773
683.095	1794
683.142	1446
683.190	1958
683.206	1939
683.237	1784
683.284	1757
683.328	2212
683.332	2228
683.379	2428
683.426	2516
683.449	2364
683.473	2212
683.521	2333
683.568	2459
683.571	2514
683.615	2968
683.662	2549
683.693	2248
683.709	2036
683.757	2369
683.804	2956
683.814	2815
683.851	2235
683.898	2827
683.936	2851
683.945	2847
683.992	2968
684.039	2242
684.057	2501
684.086	2919
684.133	2577
684.179	2578
684.180	2559
684.227	2038
684.274	2748
684.300	2808
684.321	2847
684.368	2325
684.415	3022
684.422	3000
684.462	2838
684.509	2999
684.543	3790
684.556	4024
684.603	3284
684.649	3583
684.665	3478
684.696	3279
684.743	3408
684.786	4049
684.790	4086
684.837	3892
684.883	3832
684.908	4018
684.930	4137
684.977	4475
685.023	4123
685.029	4073
685.070	3728
685.117	3960
685.150	4220
685.164	4297
685.210	4043
685.257	3706
685.272	4246
685.303	5326
685.350	4296
685.393	4248
685.396	4232
685.443	4494
685.490	4631
685.514	4346
685.536	4058
685.583	4221
685.629	4497
685.636	4464
685.675	4264
685.722	4281
685.757	4379
685.768	4403
685.815	5119
685.861	4981
685.878	5055
685.908	5163
685.954	4688
686.000	5242
686.000	5245
686.047	4810
686.093	4786
686.121	5184
686.139	5439
686.185	4872
686.232	5153
686.242	5208
686.278	5353
686.324	5369
686.363	5055
686.370	4977
686.416	5422
686.463	5153
686.484	5138
686.509	5224
686.555	5429
686.601	4990
686.606	5040
686.647	5323
686.693	5608
686.727	5516
686.739	5485
686.785	5407
686.831	5430
686.848	5443
686.877	5464
686.923	5340
686.969	5879
686.969	5881
687.015	5969
687.061	6144
687.090	6139
687.107	6096
687.153	6570
687.199	6158
687.211	6191
687.245	6246
687.291	6392
687.332	6272
687.336	6259
687.382	6359
687.428	6289
687.453	6343
687.474	6471
687.520	6438
687.565	6832
687.574	6797
687.611	6479
687.657	6341
687.695	6656
687.702	6785
687.748	6691
687.794	7914
687.816	8047
687.839	8072
687.885	7693
687.931	7651
687.937	7689
687.976	7545
688.022	7261
688.058	7269
688.067	7321
688.113	6818
688.158	6887
688.179	6962
688.204	7132
688.249	7321
688.295	7006
688.300	7049
688.340	7423
688.386	7410
688.421	7439
688.431	7440
688.477	7536
688.522	7617
688.542	7723
688.567	7900
688.613	7603
688.658	7858
688.663	7893
688.703	8330
688.749	8282
688.784	8288
688.794	8228
688.839	8320
688.884	8389
688.905	8255
688.930	8181
688.975	8137
689.020	8311
689.026	8269
689.065	8194
689.110	8454
689.146	8625
689.155	8618
689.201	8380
689.246	8300
689.267	8224
689.291	8308
689.336	8489
689.381	8283
689.388	8324
689.426	8381
689.471	8025
689.509	8154
689.516	8234
689.561	8669
689.606	8498
689.630	8569
689.651	8558
689.696	8186
689.741	8538
689.750	8497
689.785	8506
689.830	8465
689.871	8782
689.875	8828
689.920	8717
689.965	8917
689.992	8747
690.010	8610
690.054	8749
690.099	8945
690.112	8910
690.144	8862
690.189	8670
690.233	8789
690.233	8803
690.278	8775
690.323	8785
690.354	8493
690.367	8444
690.412	9387
690.457	9131
690.474	9174
690.501	9174
690.546	8874
690.590	9353
690.595	9360
690.635	9639
690.680	9644
690.716	9572
690.724	9629
690.769	9918
690.813	10221
690.836	10614
690.857	11267
690.902	12071
690.946	12954
690.957	13225
690.991	15958
691.035	19501
691.077	23139
691.080	23567
691.124	31080
691.168	37311
691.198	41389
691.213	38656
691.257	30917
691.301	23423
691.318	20366
691.346	18460
691.390	15134
691.434	11966
691.439	11544
691.478	10624
691.522	10679
691.559	10199
691.567	10241
691.611	10466
691.655	10590
691.680	10509
691.699	10392
691.743	10219
691.787	10412
691.800	10244
691.831	10178
691.875	10579
691.919	11000
691.921	10979
691.964	10741
692.008	10982
692.041	10904
692.052	10894
692.096	10711
692.139	10577
692.162	10625
692.183	10637
692.227	10164
692.271	9969
692.282	9884
692.315	9979
692.359	10018
692.402	10111
692.403	10132
692.447	10055
692.490	9924
692.523	9920
692.534	9995
692.578	9673
692.622	9838
692.643	9803
692.666	9841
692.709	9948
692.753	10071
692.763	10046
692.797	10070
692.840	10166
692.884	10377
692.884	10402
692.928	10605
692.971	10463
693.004	10530
693.015	10573
693.059	10672
693.102	10710
693.124	10598
693.146	10533
693.189	10752
693.233	10879
693.245	10819
693.276	11011
693.320	11444
693.363	11932
693.365	11923
693.407	12290
693.450	12433
693.485	12740
693.493	12949
693.537	13441
693.580	14442
693.605	14940
693.624	15861
693.667	17677
693.710	19747
693.725	20476
693.753	25796
693.797	34112
693.840	42836
693.845	43836
693.883	59031
693.926	74530
693.966	89002
693.970	87315
694.013	68294
694.056	48885
694.086	35805
694.099	33853
694.142	26629
694.185	20279
694.206	16937
694.229	16335
694.272	15337
694.315	14215
694.326	13884
694.358	13605
694.401	13279
694.444	12858
694.446	12811
694.487	12804
694.530	12567
694.566	12411
694.573	12347
694.616	11996
694.659	11344
694.686	10927
694.702	10996
694.745	11112
694.787	11310
694.806	11451
694.830	11624
694.873	11593
694.916	11409
694.926	11418
694.959	11523
695.002	11512
695.044	11434
695.046	11397
695.087	11646
695.130	12111
695.166	12542
695.172	12617
695.215	12657
695.258	12662
695.286	12748
695.301	12822
695.343	12889
695.386	13063
695.406	12920
695.428	12984
695.471	13495
695.514	13766
695.526	13870
695.556	14657
695.599	15557
695.641	16576
695.646	16628
695.684	16858
695.726	17052
695.766	17264
695.769	17269
695.811	16779
695.854	16115
695.886	15548
695.896	15488
695.938	15411
695.981	15197
696.005	14898
696.023	14959
696.065	15148
696.108	15345
696.125	15400
696.150	15882
696.192	16622
696.235	17305
696.245	17457
696.277	17662
696.319	17706
696.361	17918
696.365	17879
696.404	18099
696.446	18425
696.485	18486
696.488	18504
696.530	18194
696.572	17973
696.604	17719
696.614	17777
696.656	17730
696.698	17726
696.724	17742
696.740	17748
696.783	17465
696.825	17319
696.844	17194
696.867	17443
696.909	17807
696.951	18133
696.964	18221
696.992	18214
697.034	17954
697.076	17826
697.083	17745
697.118	18161
697.160	18761
697.202	19089
697.203	19051
697.244	19030
697.286	18811
697.323	18693
697.327	18793
697.369	19116
697.411	19530
697.442	19669
697.453	19714
697.494	19836
697.536	19908
697.562	19914
697.578	19934
697.620	19799
697.661	19656
697.682	19585
697.703	19778
697.744	19951
697.786	20182
697.801	20176
697.828	20481
697.869	20960
697.911	21397
697.921	21447
697.952	21379
697.994	21249
698.035	21068
698.040	20995
698.077	20700
698.118	20238
698.160	19796
698.160	19739
698.201	20351
698.243	20909
698.279	21398
698.284	21502
698.325	21861
698.367	22287
698.399	22491
698.408	22638
698.449	23081
698.491	23513
698.518	23732
698.532	23817
698.573	23878
698.614	23949
698.638	23926
698.656	23924
698.697	23739
698.738	23584
698.757	23441
698.779	23373
698.820	23120
698.862	22862
698.877	22707
698.903	23126
698.944	23689
698.985	24249
698.996	24339
699.026	24278
699.067	24097
699.116	23817
699.235	22899
699.354	24049
699.474	22608
699.593	21536
699.713	21970
699.832	21524
699.951	22805
700.070	23049
700.190	21929
700.309	21344
700.428	20485
700.547	20817
700.667	19704
700.786	20187
700.905	19987
701.024	18802
701.143	19930
701.262	19508
701.381	20478
701.500	19806
701.619	20873
701.738	20150
701.857	20739
701.976	19659
702.095	18825
702.214	20149
702.333	19289
702.452	19066
702.571	19941
702.690	20259
702.809	19533
702.928	19599
703.047	18036
703.165	18826
703.284	18798
703.403	17798
703.522	18146
703.640	18248
703.759	17709
703.878	17263
703.997	16446
704.115	16292
704.234	17167
704.353	17660
704.471	16927
704.590	15896
704.708	15861
704.827	15556
704.946	15714
705.064	16181
705.183	16248
705.301	15696
705.420	16077
705.538	16756
705.656	15759
705.775	14387
705.893	15865
706.012	21138
706.130	17264
706.249	15510
706.367	15523
706.485	14861
706.604	15092
706.722	14445
706.840	14710
706.958	16734
707.077	18733
707.195	14657
707.313	14825
707.431	13649
707.549	13820
707.668	13666
707.786	13286
707.904	13956
708.022	13516
708.140	13986
708.258	13265
708.376	13408
708.494	14203
708.612	12719
708.730	14723
708.848	15003
708.966	14283
709.084	14109
709.202	14232
709.320	14246
709.438	12547
709.556	13118
709.674	13072
709.791	13119
709.909	12653
710.027	12514
710.145	11877
710.263	12583
710.380	12621
710.498	12752
710.616	11996
710.733	12224
710.851	11415
710.969	11386
711.086	11469
711.204	12422
711.322	11653
711.439	11628
711.557	11358
711.674	11116
711.792	10737
711.909	11835
712.027	11568
712.144	11932
712.262	11258
712.379	11286
712.497	11891
712.614	11996
712.732	11748
712.849	11318
712.966	10837
713.084	12367
713.201	11737
713.318	11229
713.436	11629
713.553	12310
713.670	11847
713.787	12469
713.905	12129
714.022	12007
714.139	11554
714.256	13649
714.373	15427
714.490	21757
714.608	39836
714.725	121735
714.842	444017
714.959	202024
715.076	26109
715.193	15210
715.310	13548
715.427	12093
715.544	10507
715.661	11453
715.778	10681
715.895	10166
716.011	10696
716.128	10327
716.245	10604
716.362	10472
716.479	9425
716.596	9302
716.713	9555
716.829	9824
716.946	8880
717.063	9543
717.180	9045
717.296	9332
717.413	9544
717.530	9232
717.646	8616
717.763	8903
717.880	8162
717.996	8368
718.113	8227
718.229	7959
718.346	8064
718.462	8175
718.579	8043
718.695	8344
718.812	9346
718.928	8004
719.045	8368
719.161	8482
719.277	8295
719.394	8307
719.510	9218
719.626	8498
719.743	9959
719.859	11844
719.975	19389
720.092	42517
720.208	179332
720.324	210849
720.440	20306
720.557	11516
720.673	9540
720.789	9365
720.905	9014
721.021	10940
721.137	8908
721.253	7352
721.369	7545
721.486	7603
721.602	7808
721.718	7324
721.834	7079
721.950	6827
722.066	6468
722.181	6683
722.297	6968
722.413	7040
722.529	7057
722.645	8308
722.761	6502
722.877	6224
722.993	6715
723.108	7880
723.224	9071
723.340	6917
723.456	6878
723.571	6334
723.687	6009
723.803	6146
723.918	7009
724.034	6419
724.150	5690
724.265	6387
724.381	6156
724.497	6959
724.612	6974
724.728	6938
724.843	5767
724.959	6032
725.074	6340
725.190	8028
725.305	7384
725.421	5723
725.536	6175
725.651	6876
725.767	6359
725.882	6340
725.997	6106
726.113	5921
726.228	6390
726.343	6456
726.459	6413
726.574	5486
726.689	6198
726.804	6118
726.920	5439
727.035	5611
727.150	5607
727.265	5724
727.380	5938
727.495	6566
727.610	4950
727.725	5733
727.841	5556
727.956	6563
728.071	8503
728.186	5758
728.301	5106
728.416	5207
728.531	5318
728.645	5964
728.760	4820
728.875	6064
728.990	5282
729.105	5216
729.220	5652
729.335	5263
729.449	6177
729.564	5657
729.679	5181
729.794	5503
729.908	5761
730.023	5429
730.138	5906
730.253	4981
730.367	5212
730.482	5697
730.596	5458
730.711	5742
730.826	6025
730.940	8476
731.055	7724
731.169	6362
731.284	6747
731.398	7184
731.513	6848
731.627	6382
731.742	7742
731.856	9845
731.970	10519
732.085	10921
732.199	13634
732.313	19864
732.428	34556
732.542	100286
732.656	243863
732.771	81166
732.885	21527
732.999	15339
733.113	14407
733.227	14960
733.342	13932
733.456	12742
733.570	13988
733.684	12725
733.798	13161
733.912	12204
734.026	12390
734.140	11921
734.254	12242
734.368	11363
734.482	12307
734.596	11949
734.710	11387
734.824	10843
734.938	10501
735.052	11146
735.166	11147
735.280	11326
735.393	10975
735.507	10266
735.621	10591
735.735	10593
735.849	9667
735.962	11539
736.076	9192
736.190	11181
736.303	9985
736.417	10802
736.531	9373
736.644	10308
736.758	10512
736.872	10105
736.985	9342
737.099	10477
737.212	8878
737.326	9528
737.439	8904
737.553	10285
737.666	9078
737.780	9427
737.893	9275
738.007	9295
738.120	8719
738.233	9024
738.347	8809
738.460	9804
738.573	7783
738.687	9220
738.800	8916
738.913	9484
739.026	9262
739.140	8403
739.253	8860
739.366	8842
739.479	7938
739.592	7851
739.705	8867
739.818	7292
739.932	9319
740.045	7595
740.158	8796
740.271	7723
740.384	8174
740.497	8027
740.610	7346
740.723	8463
740.836	7628
740.949	7321
741.062	7843
741.174	8551
741.287	7316
741.400	8279
741.513	8442
741.626	7143
741.739	8366
741.851	7718
741.964	7165
742.077	7611
742.189	6693
742.302	6990
742.415	7670
742.527	6590
742.640	6956
742.753	6490
742.865	7225
742.978	7383
743.090	6973
743.203	5897
743.316	6993
743.428	6503
743.541	5976
743.653	6619
743.766	6305
743.878	6848
743.990	6743
744.103	6753
744.215	6333
744.327	6310
744.440	6594
744.552	7791
744.664	5613
744.777	6213
744.889	6899
745.001	6623
745.113	5556
745.226	7206
745.338	5953
745.450	5779
745.562	6363
745.674	7036
745.786	6022
745.898	6688
746.010	6793
746.122	6360
746.234	6390
746.347	6390
746.459	6472
746.570	5474
746.682	5029
746.794	6503
746.906	6825
747.018	5862
747.130	6693
747.242	5817
747.354	5196
747.466	5830
747.577	5803
747.689	5843
747.801	5870
747.913	5417
748.024	5405
748.136	5989
748.248	5237
748.359	5469
748.471	5459
748.583	6134
748.694	4832
748.806	5423
748.918	5424
749.029	5914
749.141	5377
749.252	6475
749.364	5753
749.475	4999
749.587	5168
749.698	4906
749.809	4828
749.921	5459
750.032	5282
750.144	5873
750.255	5120
750.366	4934
750.478	5424
750.589	4297
750.700	4886
750.811	5410
750.923	5288
751.034	4729
751.145	5337
751.256	5264
751.367	4402
751.479	4662
751.590	4668
751.701	5243
751.812	4379
751.923	4794
752.034	4959
752.145	5617
752.256	4747
752.367	4807
752.478	4850
752.589	4323
752.700	5351
752.811	5616
752.922	5067
753.032	5635
753.143	4802
753.254	4916
753.365	4947
753.476	5321
753.586	5755
753.697	4920
753.808	4997
753.919	5389
754.029	4536
754.140	4571
754.251	4655
754.361	5442
754.472	5258
754.582	4796
754.693	4467
754.804	4798
754.914	5027
755.025	4572
755.135	4604
755.246	4840
755.356	4568
755.466	4678
755.577	4136
755.687	4923
755.798	5082
755.908	4331
756.018	4409
756.129	4799
756.239	4650
756.349	4508
756.460	5070
756.570	5446
756.680	5112
756.790	4504
756.900	5651
757.011	5093
757.121	4611
757.231	4882
757.341	5433
757.451	4891
757.561	3648
757.671	4927
757.781	4910
757.891	5362
758.001	5370
758.111	4889
758.221	5134
758.331	5595
758.441	5654
758.551	5095
758.661	5451
758.771	5291
758.880	5487
758.990	6144
759.100	5282
759.210	5970
759.320	5777
759.429	5883
759.539	6171
759.649	6309
759.758	6498
759.868	7508
759.978	5970
760.087	8046
760.197	7313
760.307	7122
760.416	6883
760.526	7297
760.635	6908
760.745	7147
760.854	7737
760.964	8327
761.073	8508
761.182	8277
761.292	8160
761.401	8043
761.511	7823
761.620	7303
761.729	6899
761.839	6929
761.948	7723
762.057	7602
762.166	6717
762.276	7307
762.385	7759
762.494	7846
762.603	7311
762.712	8060
762.822	7765
762.931	9358
763.040	8420
763.149	8922
763.258	9474
763.367	9119
763.476	9565
763.585	9794
763.694	10363
763.803	10665
763.912	10860
764.021	12541
764.130	12522
764.238	13050
764.347	13546
764.456	14315
764.565	15948
764.674	17168
764.783	18757
764.891	20203
765.000	22024
765.109	24559
765.217	27603
765.326	31571
765.435	36032
765.543	44187
765.652	52394
765.761	66101
765.869	84227
765.978	114196
766.086	158540
766.195	232054
766.303	338884
766.412	438572
766.520	341255
766.629	363820
766.737	383395
766.846	274441
766.954	188392
767.062	135324
767.171	100016
767.279	78539
767.387	62578
767.496	51814
767.604	43060
767.712	36993
767.820	32889
767.928	30256
768.037	26969
768.145	25189
768.253	23472
768.361	22410
768.469	21651
768.577	21707
768.685	23088
768.793	23404
768.901	25371
769.009	28288
769.117	32727
769.225	38952
769.333	50002
769.441	68739
769.549	102329
769.657	166163
769.765	285084
769.873	393670
769.981	317519
770.088	333777
770.196	218321
770.304	133812
770.412	90668
770.519	66168
770.627	51110
770.735	41485
770.842	34220
770.950	29439
771.058	25308
771.165	22889
771.273	21752
771.380	20090
771.488	18617
771.595	19577
771.703	18794
771.810	16466
771.918	15851
772.025	16063
772.133	15713
772.240	16527
772.348	15576
772.455	15819
772.562	15113
772.670	14095
772.777	13161
772.884	13699
772.991	13144
773.099	12335
773.206	12326
773.313	12039
773.420	11787
773.528	12037
773.635	11681
773.742	11874
773.849	11836
773.956	10269
774.063	11406
774.170	10713
774.277	10370
774.384	10407
774.491	9573
774.598	9968
774.705	10201
774.812	9014
774.919	9992
775.026	10109
775.133	9506
775.239	9788
775.346	9215
775.453	9388
775.560	8933
775.667	8719
775.773	9492
775.880	8045
775.987	8324
776.093	8395
776.200	8531
776.307	8360
776.413	7586
776.520	7393
776.627	9783
776.733	7251
776.840	7658
776.946	8092
777.053	9052
777.159	7137
777.266	7324
777.372	8196
777.478	7256
777.585	8586
777.691	7120
777.798	6400
777.904	7831
778.010	7262
778.117	7248
778.223	7324
778.329	6285
778.435	6711
778.542	6314
778.648	8000
778.754	6399
778.860	6146
778.966	7669
779.072	5871
779.178	6341
779.284	6631
779.391	5187
779.497	6479
779.603	8194
779.708	7382
779.815	8825
779.920	16294
780.026	53132
780.132	69284
780.238	10865
780.344	6696
780.450	6396
780.556	7299
780.661	4627
780.767	5425
780.873	5412
780.979	4245
781.085	5306
781.190	5856
781.296	5055
781.402	5370
781.507	5641
781.613	4898
781.719	4580
781.824	5806
781.930	5887
782.035	3957
782.141	5404
782.246	5652
782.352	4476
782.457	4993
782.563	5217
782.668	5192
782.773	5204
782.879	3986
782.984	4275
783.090	4965
783.195	5027
783.300	5374
783.405	4657
783.511	4204
783.616	5128
783.721	3964
783.826	4389
783.932	4331
784.037	3686
784.142	4577
784.247	5207
784.352	4717
784.457	4392
784.562	4201
784.667	5201
784.772	5017
784.877	3453
784.982	4480
785.087	3717
785.192	4619
785.297	3277
785.402	3155
785.507	4403
785.611	4563
785.716	3854
785.821	4427
785.926	3802
786.031	4285
786.135	4051
786.240	3829
786.345	3776
786.450	3570
786.554	3198
786.659	3677
786.763	4049
786.868	3948
786.973	4002
787.077	3841
787.182	3386
787.286	3851
787.391	3418
787.495	3986
787.600	2783
787.704	2396
787.809	3470
787.913	3392
788.017	3749
788.122	3530
788.226	4233
788.330	3073
788.435	2868
788.539	3415
788.643	3087
788.747	3383
788.852	2311
788.956	3001
789.060	2641
789.164	3596
789.268	2607
789.372	3550
789.476	3482
789.580	3239
789.684	2165
789.788	3586
789.892	4112
789.996	3288
790.100	1854
790.204	1801
790.308	3753
790.412	3090
790.516	1865
790.620	2206
790.724	2854
790.828	4210
790.931	3182
791.035	2891
791.139	2482
791.242	3310
791.346	3350
791.450	2891
791.554	2608
791.657	2549
791.761	2778
791.864	3154
791.968	2521
792.072	3172
792.175	2841
792.279	2203
792.382	2916
792.486	2543
792.589	1633
792.693	2526
792.796	2790
792.899	3477
793.003	2210
793.106	2975
793.209	2542
793.313	3153
793.416	1100
793.519	1502
793.623	2363
793.726	2699
793.829	2078
793.932	1641
794.035	1715
794.138	2986
794.242	3322
794.345	2976
794.448	2845
794.551	3760
794.654	8890
794.757	26846
794.860	41400
794.963	6402
795.066	2199
795.169	2344
795.272	2596
795.375	2859
795.477	3045
795.580	1737
795.683	923
795.786	1948
795.889	2248
795.991	2843
796.094	2678
796.197	2008
796.300	2054
796.402	2688
796.505	1741
796.608	1603
796.710	2281
796.813	2906
796.915	3576
797.018	2525
797.120	1940
797.223	1786
797.326	2771
797.428	2324
797.530	1214
797.633	1392
797.735	2019
797.838	1959
797.940	2052
798.042	2549
798.145	2483
798.247	2342
798.349	1146
798.452	2792
798.554	2461
798.656	2036
798.758	2779
798.860	3053
798.962	1639
799.065	2051
799.167	1771
799.269	1560
799.371	1686
799.473	1904
799.575	2904
799.677	2002
799.779	2420
799.881	1903
799.983	2123
800.085	1587
800.187	834
800.289	1326
800.390	896
800.492	1656
800.594	2441
800.696	1863
800.798	2187
800.899	656
801.001	2723
801.103	2408
801.205	1827
801.306	2264
801.408	1134
801.509	2123
801.611	2055
801.713	1889
801.814	970
801.916	676
802.017	1520
802.119	2075
802.220	1759
802.322	1081
802.423	2249
802.525	1429
802.626	1777
802.727	1274
802.829	1965
802.930	789
803.031	1637
803.133	1541
803.234	958
803.335	2129
803.436	1507
803.538	965
803.639	1608
803.740	1648
803.841	1187
803.942	1785
804.043	2363
804.144	1175
804.245	897
804.346	1621
804.447	1637
804.548	1085
804.649	1880
804.750	1122
804.851	504
804.952	641
805.053	1120
805.154	1468
805.255	1559
805.355	1644
805.456	1757
805.557	1778
805.658	778
805.758	1803
805.859	1795
805.960	2083
806.061	1798
806.161	1699
806.262	1073
806.362	824
806.463	546
806.564	1390
806.664	1080
806.765	1138
806.865	787
806.966	1399
807.066	367
807.166	1519
807.267	1578
807.367	968
807.468	1664
807.568	940
807.668	1121
807.769	1997
807.869	990
807.969	2066
808.069	1423
808.170	1601
808.270	681
808.370	1866
808.470	1262
808.570	994
808.670	1029
808.770	699
808.870	752
808.970	796
809.070	1003
809.170	1581
809.271	923
809.370	1410
809.470	1035
809.570	1561
809.670	1595
809.770	1470
809.870	825
809.970	1165
810.070	346
810.169	1859
810.269	-250
810.369	1531
810.469	473
810.568	1399
810.668	531
810.768	595
810.867	1005
810.967	903
811.066	1574
811.166	841
811.265	1214
811.365	717
811.464	943
811.564	905
811.663	1176
811.763	938
811.862	1447
811.962	2017
812.061	1762
812.160	1252
812.260	1158
812.359	848
812.458	1687
812.557	2415
812.657	3808
812.756	3503
812.855	1762
812.954	578
813.053	676
813.153	904
813.252	1211
813.351	694
813.450	1647
813.549	1021
813.648	1446
813.747	1487
813.846	-19
813.945	1529
814.044	1802
814.143	1095
814.242	1324
814.341	751
814.439	1733
814.538	1442
814.637	2015
814.736	969
814.835	1918
814.933	2500
815.032	2037
815.131	2740
815.229	3191
815.328	5778
815.427	6973
815.525	5178
815.624	4269
815.722	4940
815.821	3732
815.919	3976
816.018	4106
816.116	4347
816.215	4325
816.313	4740
816.412	4335
816.510	5979
816.609	5778
816.707	6814
816.805	7088
816.904	5552
817.002	5718
817.100	5795
817.198	6510
817.296	6510
817.395	5601
817.493	6349
817.591	5663
817.689	5513
817.787	4883
817.885	6353
817.983	4624
818.081	6313
818.179	6734
818.277	8429
818.375	15221
818.473	10306
818.571	6210
818.669	5134
818.767	5364
818.865	6197
818.963	5141
819.061	4558
819.158	5980
819.256	5653
819.354	7758
819.452	13452
819.549	22484
819.647	12965
819.745	6643
819.842	4612
819.940	4534
820.038	6092
820.135	4915
820.233	4204
820.330	4271
820.428	4965
820.525	4802
820.623	5386
820.720	3949
820.818	4813
820.915	4564
821.012	4893
821.110	3203
821.207	4422
821.304	4391
821.402	3792
821.499	4872
821.596	4114
821.693	3699
821.791	4527
821.888	4173
821.985	4402
822.082	4227
822.179	4189
822.276	3873
822.373	4416
822.470	3549
822.567	4066
822.664	4372
822.761	4175
822.858	2908
822.955	4845
823.052	3176
823.149	2898
823.246	3898
823.343	4206
823.440	3478
823.536	2957
823.633	4060
823.730	3513
823.827	3229
823.923	3151
824.020	3255
824.117	3621
824.213	3348
824.310	5218
824.407	2151
824.503	2477
824.600	4768
824.696	3361
824.793	2814
824.889	3776
824.986	4014
825.082	3677
825.179	2931
825.275	2562
825.371	4007
825.468	5006
825.564	1800
825.660	2405
825.757	4212
825.853	4187
825.949	3182
826.045	1925
826.142	2368
826.238	3644
826.334	3795
826.430	3621
826.526	3494
826.622	1535
826.718	2242
826.814	3100
826.910	4625
827.006	2454
827.102	1623
827.198	2351
827.294	2449
827.390	4110
827.486	3230
827.582	2271
827.678	282
827.774	2352
827.869	3102
827.965	2637
828.061	1411
828.157	1843
828.252	3809
828.348	2728
828.444	2948
828.539	1487
828.635	2500
828.731	2640
828.826	1719
828.922	2314
829.017	2656
829.113	2592
829.208	2283
829.304	1790
829.399	3237
829.495	2713
829.590	2779
829.685	1320
829.781	2508
829.876	3244
829.971	2333
830.066	865
830.162	1683
830.257	1999
830.352	2964
830.447	2833
830.543	1613
830.638	1438
830.733	3224
830.828	2826
830.923	1828
831.018	2264
831.113	2478
831.208	2037
831.303	1283
831.398	1140
831.493	1799
831.588	2786
831.683	2579
831.778	2043
831.873	1287
831.967	1435
832.062	1925
832.157	1561
832.252	1925
832.346	1868
832.441	2227
832.536	1768
832.631	1670
832.725	1490
832.820	1483
832.914	1293
833.009	1422
833.104	1316
833.198	1832
833.293	1575
833.387	1959
833.482	2122
833.576	1604
833.670	2651
833.765	1297
833.859	1292
833.954	3107
834.048	1630
834.142	1860
834.237	996
834.331	1100
834.425	2211
834.519	1328
834.613	1075
834.708	1240
834.802	2305
834.896	419
834.990	2011
835.084	1662
835.178	1173
835.272	1249
835.366	1753
835.460	2385
835.554	2172
835.648	729
835.742	708
835.836	1029
835.930	322
836.024	1696
836.117	1621
836.211	702
836.305	1887
836.399	1704
836.493	989
836.586	1636
836.680	1541
836.774	1619
836.867	1199
836.961	1310
837.055	513
837.148	709
837.242	818
837.335	1218
837.429	1561
837.522	614
837.616	1349
837.709	1602
837.803	885
837.896	1285
837.989	1103
838.083	1806
838.176	1026
838.269	48
838.363	1341
838.456	-223
838.549	643
838.642	993
838.735	1015
838.829	1882
838.922	1599
839.015	1427
839.108	900
839.201	1186
839.294	946
839.387	1489
839.480	824
839.573	422
839.666	793
839.759	917
839.852	893
839.945	1490
840.038	461
840.131	1045
840.223	119
840.316	671
840.409	1281
840.502	1157
840.594	1801
840.687	794
840.780	996
840.873	-499
840.965	386
841.058	682
841.150	1190
841.243	1535
841.336	929
841.428	-85
841.521	378
841.613	1308
841.706	740
841.798	797
841.890	481
841.983	419
842.075	1784
842.167	264
842.260	363
842.352	1190
842.444	1194
842.537	1292
842.629	1380
842.721	81
842.813	159
842.905	54
842.997	756
843.090	1068
843.182	365
843.274	207
843.366	1039
843.458	1117
843.550	3131
843.642	2209
843.734	1821
843.826	503
843.918	1145
844.009	1111
844.101	673
844.193	227
844.285	-308
844.377	1234
844.469	368
844.560	917
844.652	726
844.744	663
844.835	987
844.927	116
845.019	875
845.110	1165
845.202	981
845.293	975
845.385	785
845.476	136
845.568	402
845.659	672
845.751	356
845.842	248
845.934	450
846.025	664
846.116	686
846.208	282
846.299	345
846.390	569
846.482	-187
846.573	717
846.664	868
846.755	469
846.846	994
846.937	396
847.029	578
847.120	-166
847.211	419
847.302	794
847.393	544
847.484	1193
847.575	629
847.666	615
847.757	180
847.847	-96
847.938	1224
848.029	-114
848.120	1086
848.211	778
848.302	355
848.392	-57
848.483	915
848.574	1090
848.664	481
848.755	1296
848.846	637
848.936	-30
849.027	299
849.118	508
849.208	463
849.299	428
849.389	1314
849.480	2816
849.570	4469
849.661	8963
849.751	16717
849.841	25265
849.932	7967
850.022	1358
850.112	958
850.203	588
850.293	425
850.383	543
850.474	187
850.564	239
850.654	880
850.744	-45
850.834	253
850.924	-101
851.014	607
851.104	781
851.194	335
851.284	779
851.374	1024
851.464	551
851.554	129
851.644	33
851.734	981
851.824	-96
851.914	618
852.004	1331
852.094	1319
852.183	2043
852.273	1101
852.363	547
852.452	503
852.542	536
852.632	-69
852.721	506
852.811	892
852.901	615
852.990	1496
853.080	720
853.169	-192
853.259	604
853.348	609
853.438	1054
853.527	1308
853.617	1155
853.706	2026
853.795	5323
853.885	9909
853.974	20246
854.063	39027
854.152	67341
854.242	85620
854.331	31132
854.420	7758
854.509	3553
854.598	2654
854.687	1997
854.777	1652
854.866	1032
854.955	1508
855.044	824
855.133	1215
855.222	1354
855.311	193
855.400	772
855.488	1696
855.577	24
855.666	772
855.755	577
855.844	778
855.933	160
856.021	722
856.110	554
856.199	-742
856.288	225
856.376	229
856.465	-311
856.554	664
856.642	-331
856.731	93
856.819	162
856.908	1175
856.996	-158
857.085	193
857.173	-238
857.262	149
857.350	53
857.438	-234
857.527	231
857.615	472
857.703	459
857.792	658
857.880	234
857.968	-457
858.056	-80
858.145	-310
858.233	-733
858.321	295
858.409	565
858.497	-373
858.585	274
858.673	-396
858.761	784
858.849	-76
858.937	59
859.025	95
859.113	269
859.201	-773
859.289	524
859.377	492
859.465	608
859.552	-241
859.640	-873
859.728	21
859.816	-696
859.903	376
859.991	-216
860.079	70
860.166	-192
860.254	153
860.342	67
860.429	36
860.517	107
860.604	201
860.692	391
860.779	246
860.867	227
860.954	-5
861.042	71
861.129	354
861.216	741
861.304	477
861.391	631
861.478	-381
861.565	95
861.653	931
861.740	-149
861.827	81
861.914	535
862.001	174
862.089	358
862.176	57
862.263	-299
862.350	-76
862.437	250
862.524	264
862.611	107
862.698	667
862.785	132
862.871	384
862.958	637
863.045	1627
863.132	256
863.219	72
863.306	237
863.392	260
863.479	398
863.566	-230
863.652	872
863.739	-112
863.826	80
863.912	743
863.999	331
864.086	716
864.172	425
864.259	1238
864.345	579
864.432	997
864.518	729
864.604	515
864.691	636
864.777	577
864.863	1064
864.950	1041
865.036	1780
865.122	3455
865.209	6642
865.295	6712
865.381	4898
865.467	5567
865.553	5214
865.639	6316
865.726	7006
865.812	9839
865.898	14505
865.984	23568
866.070	32808
866.156	57279
866.242	52999
866.328	17506
866.414	6769
866.499	6612
866.585	5229
866.671	5252
866.757	5191
866.843	4709
866.928	3885
867.014	5199
867.100	5499
867.186	4472
867.271	4381
867.357	4753
867.442	4298
867.528	4306
867.614	4217
867.699	4435
867.785	3925
867.870	3668
867.956	3837
868.041	4464
868.127	4259
868.212	3874
868.297	3700
868.383	3541
868.468	3531
868.553	4113
868.639	4403
868.724	4098
868.809	4237
868.894	4636
868.979	3226
869.065	3933
869.150	3276
869.235	3252
869.320	3070
869.405	4017
869.490	3150
869.575	3609
869.660	3801
869.745	2949
869.830	2898
869.915	3151
870.000	2093
870.085	3129
870.169	3300
870.254	4624
870.339	3191
870.424	2119
870.509	1640
870.593	3463
870.678	4180
870.763	4383
870.847	3018
870.932	2708
871.016	4270
871.101	3626
871.186	1775
871.270	3011
871.355	3796
871.439	2939
871.523	2272
871.608	3539
871.692	1883
871.777	2108
871.861	3724
871.945	2831
872.030	3277
872.114	2669
872.198	2942
872.282	2309
872.367	2454
872.451	2094
872.535	2961
872.619	2443
872.703	2225
872.787	2566
872.871	3291
872.955	3034
873.039	1931
873.123	1685
873.207	3026
873.291	2698
873.375	1435
873.459	1923
873.543	2462
873.627	2204
873.711	2363
873.794	2158
873.878	2401
873.962	1619
874.045	1547
874.129	2076
874.137	1969
874.213	899
874.245	1659
874.296	2890
874.352	2704
874.380	2618
874.460	1258
874.464	1202
874.547	1942
874.568	2026
874.631	2292
874.676	2084
874.714	1919
874.784	2412
874.798	2507
874.881	2923
874.892	2741
874.965	1520
874.999	1262
875.048	889
875.107	1744
875.131	2072
875.215	1986
875.215	1985
875.298	1800
875.323	1543
875.381	986
875.430	1869
875.465	2454
875.538	2491
875.548	2491
875.631	1746
875.646	1706
875.714	1517
875.753	1374
875.798	1312
875.861	1230
875.881	1144
875.964	2295
875.968	2243
876.047	1428
876.076	1338
876.130	1230
876.183	1595
876.213	1745
876.291	1970
876.296	1984
876.379	1366
876.398	1441
876.462	1788
876.506	1703
876.545	1580
876.613	1423
876.628	1412
876.711	1550
876.721	1570
876.794	1677
876.828	1685
876.877	1642
876.935	2228
876.960	2478
877.043	1311
877.043	1314
877.125	2102
877.150	2090
877.208	1966
877.258	2323
877.291	2521
877.365	1728
877.374	1646
877.456	1404
877.472	1494
877.539	1808
877.579	1522
877.622	1293
877.687	1524
877.704	1588
877.787	1482
877.794	1449
877.869	1095
877.901	1368
877.952	1661
878.008	1507
878.034	1504
878.115	1661
878.117	1659
878.199	504
878.222	659
878.282	1378
878.329	1454
878.364	1367
878.437	1824
878.447	1911
878.529	1516
878.544	1474
878.611	1055
878.651	1075
878.694	1253
878.758	1814
878.776	1944
878.858	1141
878.865	1205
878.941	1813
878.972	1546
879.023	1283
879.078	1013
879.105	876
879.185	1147
879.187	1153
879.269	1767
879.292	1798
879.351	1836
879.399	1551
879.433	1278
879.506	1000
879.516	977
879.598	1349
879.613	1240
879.680	1024
879.720	1289
879.762	1447
879.827	1332
879.844	1248
879.926	598
879.933	573
880.007	895
880.040	1377
880.089	1956
880.147	1310
880.171	923
880.253	1804
880.254	1804
880.335	2101
880.360	2262
880.417	2500
880.467	2710
880.499	3171
880.574	5183
880.580	5253
880.662	4236
880.680	3841
880.744	2589
880.787	1820
880.825	1132
880.893	815
880.907	813
880.989	1239
881.000	1215
881.070	1090
881.106	1204
881.152	1515
881.213	2006
881.233	2004
881.315	843
881.319	873
881.396	1868
881.426	1601
881.478	797
881.532	698
881.559	951
881.639	1803
881.641	1807
881.722	1271
881.745	1114
881.803	970
881.852	1041
881.885	1106
881.958	1483
881.966	1517
882.047	1094
882.064	1121
882.129	1138
882.171	1037
882.210	978
882.277	872
882.291	911
882.372	1187
882.383	1239
882.454	1498
882.489	1803
882.535	1916
882.596	1187
882.616	1112
882.697	1676
882.702	1677
882.778	1298
882.808	1168
882.859	889
882.914	903
882.940	966
883.020	756
883.021	756
883.102	968
883.127	866
883.183	1084
883.233	1635
883.264	1749
883.339	1644
883.345	1562
883.426	473
883.445	224
883.507	494
883.551	853
883.587	1051
883.657	1136
883.668	1148
883.749	1606
883.763	1603
883.830	1760
883.869	1925
883.910	1560
883.975	941
883.991	1003
884.072	1226
884.081	1280
884.152	1097
884.187	979
884.233	1460
884.292	2153
884.314	2129
884.394	1418
884.398	1392
884.475	862
884.504	725
884.555	853
884.610	994
884.636	861
884.716	520
884.716	524
884.797	1155
884.821	1303
884.877	1587
884.927	1539
884.958	1503
885.033	1829
885.038	1803
885.118	1089
885.139	905
885.199	635
885.244	689
885.279	719
885.350	425
885.359	546
885.439	2017
885.456	2208
885.520	2260
885.561	2259
885.600	1705
885.667	791
885.680	731
885.760	835
885.773	762
885.840	510
885.878	408
885.920	340
885.984	477
886.000	578
886.080	1025
886.089	1041
886.160	1433
886.195	1688
886.240	1630
886.300	1435
886.320	1310
886.400	1067
886.406	1028
886.480	1264
886.511	1430
886.560	1094
886.616	635
886.640	804
886.720	1480
886.722	1490
886.800	821
886.827	614
886.879	855
886.932	1059
886.959	1331
887.038	2214
887.039	2215
887.119	1815
887.143	1726
887.198	1671
887.248	1602
887.278	1389
887.354	807
887.358	812
887.437	959
887.459	1004
887.517	1247
887.564	1375
887.596	1495
887.669	1746
887.676	1673
887.755	769
887.774	532
887.835	744
887.880	977
887.914	964
887.985	827
887.994	892
888.073	1420
888.090	1577
888.153	2003
888.195	2168
888.232	2123
888.300	2019
888.311	1902
888.391	1056
888.405	912
888.470	945
888.510	961
888.549	973
888.615	925
888.628	950
888.708	1197
888.720	1225
888.787	1563
888.825	1730
888.866	1686
888.930	1615
888.945	1575
889.024	1358
889.035	1336
889.103	1273
889.140	1187
889.182	1188
889.245	1190
889.261	1141
889.340	926
889.349	900
889.419	1165
889.454	1290
889.498	1299
889.559	1315
889.577	1346
889.656	1474
889.664	1487
889.735	2229
889.768	2573
889.814	2027
889.873	1293
889.978	1388
890.083	1590
890.187	519
890.292	1939
890.397	1312
890.501	1705
890.606	1135
890.710	1027
890.815	1242
890.919	2041
891.024	1839
891.128	1126
891.233	904
891.337	840
891.442	2221
891.546	1300
891.650	1511
891.755	1178
891.859	1627
891.963	1365
892.068	2333
892.172	1262
892.276	979
892.380	172
892.484	1405
892.589	1908
892.693	1339
892.797	585
892.901	907
893.005	550
893.109	1070
893.213	2069
893.317	1347
893.421	1269
893.525	790
893.629	78
893.733	778
893.837	1589
893.941	1372
894.045	1256
894.148	220
894.252	1385
894.356	1910
894.460	1982
894.564	1673
894.667	1298
894.771	1100
894.875	610
894.978	1134
895.082	1097
895.186	862
895.289	1622
895.393	1142
895.496	1021
895.600	1260
895.703	1168
895.807	1224
895.910	1440
896.014	634
896.117	1128
896.221	563
896.324	1489
896.427	592
896.531	1536
896.634	137
896.737	927
896.840	-157
896.944	1141
897.047	1133
897.150	1482
897.253	1041
897.356	1078
897.460	725
897.563	905
897.666	348
897.769	966
897.872	549
897.975	575
898.078	688
898.181	733
898.284	741
898.387	1193
898.490	2050
898.593	1548
898.695	-199
898.798	1146
898.901	737
899.004	448
899.107	648
899.209	925
899.312	1229
899.415	1712
899.518	1285
899.620	-178
899.723	666
899.826	883
899.928	801
900.031	1014
900.133	283
900.236	1278
900.338	-89
900.441	925
900.543	689
900.646	1230
900.748	532
900.851	1300
900.953	905
901.055	241
901.158	-222
901.260	802
901.362	953
901.465	957
901.567	362
901.669	1289
901.771	561
901.873	1006
901.976	635
902.078	547
902.180	934
902.282	905
902.384	235
902.486	1204
902.588	1382
902.690	781
902.792	366
902.894	298
902.996	1022
903.098	714
903.200	366
903.302	838
903.404	183
903.505	454
903.607	233
903.709	1060
903.811	913
903.913	1671
904.014	1035
904.116	1005
904.218	399
904.319	617
904.421	1059
904.523	1743
904.624	-157
904.726	479
904.827	-446
904.929	511
905.030	1287
905.132	713
905.233	1034
905.335	339
905.436	847
905.537	385
905.639	326
905.740	441
905.841	872
905.943	852
906.044	146
906.145	675
906.247	586
906.348	331
906.449	183
906.550	-173
906.651	995
906.752	-143
906.854	971
906.955	291
907.056	-238
907.157	451
907.258	775
907.359	708
907.460	418
907.561	239
907.662	-117
907.762	474
907.863	616
907.964	611
908.065	990
908.166	845
908.267	190
908.367	760
908.468	271
908.569	-64
908.670	945
908.770	838
908.871	475
908.971	1103
909.072	833
909.173	1235
909.273	618
909.374	315
909.474	91
909.575	-5
909.675	-352
909.776	479
909.876	440
909.977	713
910.077	870
910.177	961
910.278	653
910.378	-40
910.478	-436
910.579	947
910.679	1037
910.779	243
910.879	1422
910.980	1080
911.080	982
911.180	1113
911.280	722
911.380	1115
911.480	230
911.580	-5
911.680	23
911.780	1106
911.880	498
911.980	1089
912.080	338
912.180	992
912.280	948
912.380	702
912.480	1355
912.580	-421
912.679	-198
912.779	705
912.879	-100
912.979	666
913.078	20
913.178	892
913.278	144
913.377	852
913.477	-787
913.577	706
913.676	472
913.776	330
913.875	621
913.975	485
914.074	336
914.174	31
914.273	675
914.373	209
914.472	920
914.572	587
914.671	-134
914.770	950
914.870	-37
914.969	173
915.068	56
915.167	525
915.267	422
915.366	621
915.465	373
915.564	999
915.663	1022
915.763	763
915.862	933
915.961	-68
916.060	-174
916.159	504
916.258	307
916.357	71
916.456	819
916.555	796
916.654	928
916.752	139
916.851	1146
916.950	939
917.049	273
917.148	-134
917.247	-1
917.345	-525
917.444	192
917.543	494
917.642	167
917.740	-140
917.839	462
917.937	971
918.036	485
918.135	977
918.233	-138
918.332	-404
918.430	-356
918.529	844
918.627	-142
918.726	542
918.824	1066
918.923	277
919.021	-89
919.119	262
919.218	623
919.316	357
919.414	513
919.512	85
919.611	57
919.709	1028
919.807	569
919.905	1179
920.003	453
920.102	845
920.200	698
920.298	396
920.396	1376
920.494	1636
920.592	-40
920.690	827
920.788	1393
920.886	869
920.984	1243
921.082	524
921.180	1594
921.277	437
921.375	1351
921.473	2021
921.571	1808
921.669	1763
921.766	1405
921.864	1802
921.962	1541
922.060	1827
922.157	1546
922.255	1871
922.352	1448
922.450	1622
922.548	2198
922.645	2161
922.743	3303
922.840	3916
922.938	6770
923.035	6204
923.133	5049
923.230	5422
923.327	6640
923.425	7539
923.522	6070
923.619	6898
923.717	5802
923.814	6213
923.911	5125
924.008	6089
924.106	5167
924.203	5441
924.300	4833
924.397	5551
924.494	5418
924.591	5463
924.688	4572
924.786	5484
924.883	5128
924.979	4969
925.077	5264
925.173	4712
925.270	4622
925.367	5199
925.464	5329
925.561	6095
925.658	6463
925.755	5143
925.852	4666
925.948	5332
926.045	4366
926.142	5096
926.239	4479
926.335	5225
926.432	4871
926.529	4813
926.625	5432
926.722	6041
926.818	3616
926.915	4861
927.011	4560
927.108	4092
927.204	4797
927.301	5355
927.397	4324
927.494	6254
927.590	4846
927.687	2814
927.783	3739
927.879	5543
927.976	4998
928.072	4556
928.168	5056
928.264	5685
928.361	4340
928.457	4828
928.553	4910
928.649	3657
928.745	4558
928.841	3763
928.937	3442
929.033	4854
929.129	4302
929.225	4779
929.321	5297
929.417	4030
929.513	3391
929.609	4646
929.705	3696
929.801	4207
929.897	3562
929.993	4126
930.089	4423
930.184	3950
930.280	4316
930.376	4472
930.471	5183
930.567	3447
930.663	3104
930.758	3284
930.854	3573
930.950	3644
931.045	3728
931.141	3101
931.236	3810
931.332	4462
931.427	2584
931.523	2227
931.618	4779
931.714	4030
931.809	2169
931.905	3827
932.000	4645
932.095	2503
932.191	3199
932.286	4571
932.381	5193
932.476	2532
932.572	2488
932.667	3470
932.762	3539
932.857	4034
932.952	4231
933.047	4611
933.142	2921
933.237	3247
933.332	2743
933.427	3057
933.522	3632
933.617	3104
933.712	3626
933.807	2933
933.902	4101
933.997	4291
934.092	3996
934.187	2711
934.282	3461
934.376	2955
934.471	4149
934.566	3992
934.661	2916
934.755	3140
934.850	3988
934.945	3995
935.039	2462
935.134	2079
935.228	2588
935.323	4097
935.417	4295
935.512	2433
935.606	1952
935.701	2812
935.795	3134
935.890	4338
935.984	3146
936.079	2614
936.173	2736
936.267	2293
936.362	2773
936.456	1708
936.550	3989
936.644	3330
936.738	3402
936.833	2180
936.927	1735
937.021	1118
937.115	3515
937.209	2874
937.303	3622
937.397	1802
937.491	2331
937.585	2080
937.679	3938
937.773	1982
937.867	2908
937.961	2101
938.055	2163
938.149	4367
938.243	2583
938.337	1514
938.430	1168
938.524	2057
938.618	3333
938.712	2242
938.805	1779
938.899	2594
938.993	3606
939.086	3045
939.180	926
939.274	1062
939.367	2503
939.461	2782
939.554	2608
939.648	2149
939.741	1573
939.835	1576
939.928	3319
940.022	4050
940.115	2704
940.208	2476
940.302	2451
940.395	3708
940.488	3578
940.582	1703
940.675	2258
940.768	1769
940.861	1705
940.954	3612
941.048	2927
941.141	919
941.234	737
941.327	2423
941.420	2307
941.513	2537
941.606	1965
941.699	2011
941.792	2378
941.885	2833
941.978	1453
942.071	1770
942.164	1803
942.257	1504
942.349	1680
942.442	1937
942.535	2023
942.628	1373
942.721	1267
942.813	2000
942.906	865
942.999	1779
943.091	893
943.184	2217
943.277	1818
943.369	2173
943.462	389
943.554	1389
943.647	1015
943.739	1895
943.832	2292
943.924	1983
944.017	559
944.109	1503
944.201	1571
944.294	2022
944.386	983
944.478	2471
944.571	1824
944.663	1422
944.755	1519
944.847	2346
944.940	1547
945.032	1659
945.124	744
945.216	605
945.308	954
945.400	1977
945.492	505
945.584	2002
945.676	1815
945.768	2167
945.860	892
945.952	2325
946.044	2135
946.136	1212
946.228	1293
946.320	1728
946.412	1309
946.503	1803
946.595	2239
946.687	2124
946.779	1105
946.870	373
946.962	1444
947.054	1557
947.145	2139
947.237	1615
947.329	1740
947.420	1450
947.512	1089
947.603	959
947.695	673
947.786	1709
947.878	1321
947.969	1447
948.061	1391
948.152	1979
948.243	507
948.335	1046
948.426	1244
948.517	-217
948.609	816
948.700	912
948.791	1011
948.882	1063
948.973	629
949.065	1537
949.156	1179
949.247	1044
949.338	400
949.429	702
949.520	967
949.611	1478
949.702	1470
949.793	1951
949.884	1175
949.975	607
950.066	701
950.157	655
950.247	1215
950.338	378
950.429	238
950.520	857
950.611	951
950.701	453
950.792	967
950.883	1726
950.973	1120
951.064	631
951.155	1721
951.245	1636
951.336	932
951.427	354
951.517	1256
951.608	1507
951.698	507
951.788	727
951.879	154
951.969	910
952.060	361
952.150	515
952.240	917
952.331	1608
952.421	2326
952.511	1235
952.602	438
952.692	348
952.782	625
952.872	496
952.962	474
953.052	359
953.143	454
953.233	985
953.323	198
953.413	754
953.503	1541
953.593	674
953.683	1058
953.773	878
953.863	-8
953.953	116
954.042	611
954.132	758
954.222	1392
954.312	242
954.402	660
954.492	971
954.581	1015
954.671	1057
954.761	-477
954.850	1313
954.940	251
955.030	-219
955.119	425
955.209	252
955.298	510
955.388	105
955.477	1557
955.567	1057
955.656	181
955.746	564
955.835	529
955.925	1209
956.014	166
956.103	1031
956.193	1683
956.282	986
956.371	839
956.461	310
956.550	396
956.639	1182
956.728	-479
956.817	1867
956.906	-223
956.995	457
957.085	599
957.174	894
957.263	648
957.352	871
957.441	78
957.530	756
957.619	455
957.708	958
957.796	933
957.885	791
957.974	959
958.063	389
958.152	603
958.241	-83
958.329	-321
958.418	580
958.507	249
958.596	1090
958.684	1056
958.773	420
958.861	690
958.950	329
959.039	-151
959.127	404
959.216	334
959.304	895
959.393	761
959.481	1683
959.570	587
959.658	455
959.746	830
959.835	483
959.923	748
960.011	-149
960.100	31
960.188	1301
960.276	1363
960.365	466
960.453	1345
960.541	-180
960.629	975
960.717	472
960.805	549
960.893	424
960.981	-536
961.069	1211
961.158	960
961.245	1457
961.333	1016
961.421	1032
961.509	945
961.597	603
961.685	150
961.773	673
961.861	768
961.949	830
962.036	1047
962.124	594
962.212	-535
962.299	-352
962.387	-59
962.475	254
962.562	-140
962.650	360
962.738	-38
962.825	238
962.913	101
963.000	-43
963.088	-83
963.175	1386
963.263	-150
963.350	531
963.438	-469
963.525	286
963.612	-21
963.700	321
963.787	512
963.874	1515
963.962	13
964.049	375
964.136	344
964.223	404
964.310	556
964.398	382
964.485	47
964.572	58
964.659	1189
964.746	81
964.833	-314
964.920	2
965.007	546
965.094	-42
965.181	-754
965.268	513
965.355	84
965.441	161
965.528	235
965.615	803
965.702	441
965.789	483
965.875	-105
965.962	138
966.049	-218
966.136	418
966.222	0
966.309	689
966.395	-38
966.482	1485
966.569	510
966.655	1031
966.742	195
966.828	-14
966.915	-648
967.001	-175
967.087	-9
967.174	-740
967.260	183
967.347	18
967.433	-253
967.519	420
967.605	797
967.692	559
967.778	237
967.864	348
967.950	262
968.036	-304
968.123	95
968.209	-320
968.295	85
968.381	774
968.467	-88
968.553	-536
968.639	-439
968.725	-53
968.811	990
968.897	1553
968.983	238
969.069	-275
969.154	43
969.240	302
969.326	118
969.412	-622
969.497	-286
969.583	-149
969.669	-438
969.755	246
969.840	-438
969.926	1318
970.012	946
970.097	1313
970.183	1782
970.268	1582
970.354	-163
970.439	218
970.525	-188
970.610	-28
970.696	-119
970.781	345
970.866	-704
970.952	514
971.037	-353
971.122	237
971.208	82
971.293	-186
971.378	429
971.463	162
971.549	931
971.634	561
971.719	-304
971.804	229
971.889	-313
971.974	-370
972.059	-271
972.144	147
972.229	-67
972.314	-153
972.399	-143
972.484	260
972.569	-202
972.654	-556
972.739	147
972.824	172
972.908	287
972.993	88
973.078	-77
973.163	148
973.247	37
973.332	-655
973.417	-2
973.501	-455
973.586	275
973.671	511
973.755	-651
973.840	613
973.924	-15
974.009	233
974.093	492
974.178	1073
974.262	535
974.346	560
974.431	586
974.515	982
974.600	-124
974.684	247
974.768	230
974.852	824
974.937	-4
975.021	136
975.105	68
975.189	-197
975.273	-59
975.358	-85
975.442	-151
975.526	-220
975.610	47
975.694	7
975.778	-575
975.862	-615
975.946	-512
976.030	147
976.114	-457
976.198	283
976.281	-730
976.365	538
976.449	-593
976.533	482
976.617	-955
976.700	-317
976.784	-166
976.868	43
976.951	-771
977.035	168
977.119	-354
977.202	460
977.286	-93
977.369	370
977.453	341
977.536	1665
977.620	-580
977.703	437
977.787	-760
977.870	483
977.953	873
978.037	108
978.120	-624
978.203	672
978.287	-261
978.370	-547
978.453	228
978.536	107
978.620	105
978.703	-81
978.786	-653
978.869	-601
978.952	-480
979.035	220
979.118	-272
979.201	-215
979.284	160
979.367	-191
979.450	129
979.533	137
979.616	-400
979.699	-410
979.782	201
979.865	377
979.948	-594
980.030	104
980.113	-912
980.196	-232
980.279	-61
980.361	-11
980.444	-13
980.526	-362
980.609	109
980.692	1675
980.774	1782
980.857	278
980.939	610
981.022	672
981.104	425
981.187	452
981.269	375
981.352	248
981.434	-474
981.516	78
981.599	155
981.681	528
981.763	107
981.846	-178
981.928	734
982.010	285
982.092	444
982.174	348
982.256	468
982.339	-78
982.421	-381
982.503	143
982.585	-913
982.667	216
982.749	-802
982.831	689
982.913	-640
982.995	509
983.077	-836
983.158	950
983.240	-59
983.322	1224
983.404	72
983.486	1027
983.568	1008
983.649	476
983.731	1027
983.813	659
983.894	373
983.976	211
984.058	204
984.139	935
984.221	-204
984.302	910
984.384	396
984.465	568
984.547	838
984.628	797
984.710	-547
984.791	718
984.872	392
984.954	573
985.035	683
985.116	715
985.198	109
985.279	283
985.360	-89
985.441	519
985.522	951
985.604	634
985.685	-372
985.766	935
985.847	78
985.928	51
986.009	88
986.090	873
986.171	348
986.252	849
986.333	937
986.414	64
986.495	596
986.576	-389
986.656	344
986.737	1141
986.818	866
986.899	130
986.980	601
987.060	839
987.141	223
987.222	491
987.302	725
987.383	790
987.464	1198
987.544	1149
987.625	1899
987.705	970
987.786	578
987.866	1940
987.947	12
988.027	1628
988.108	725
988.188	1199
988.268	434
988.349	1327
988.429	1291
988.509	1004
988.589	490
988.670	951
988.750	1247
988.830	794
988.910	-126
988.990	1665
989.070	1415
989.151	962
989.231	334
989.311	781
989.391	1180
989.471	247
989.551	1068
989.631	932
989.711	763
989.791	-45
989.870	380
989.950	212
990.030	507
990.110	1525
990.190	353
990.269	123
990.349	300
990.429	727
990.509	1024
990.588	-379
990.668	704
990.747	885
990.827	568
990.907	187
990.986	-56
991.066	999
991.145	307
991.225	510
991.304	-166
991.383	911
991.463	845
991.542	872
991.622	43
991.701	370
991.780	165
991.859	816
991.939	-382
992.018	927
992.097	238
992.176	293
992.256	310
992.335	176
992.414	338
992.493	-106
992.572	196
992.651	266
992.730	246
992.809	222
992.888	131
992.967	219
993.046	630
993.125	-269
993.203	188
993.282	115
993.361	617
993.440	30
993.519	-18
993.597	290
993.676	685
993.755	1053
993.834	-349
993.912	252
993.991	-304
994.069	105
994.148	172
994.226	263
994.305	-73
994.384	-51
994.462	1547
994.540	-17
994.619	242
994.697	470
994.776	-913
994.854	595
994.932	-254
995.011	-380
995.089	-449
995.167	219
995.245	-702
995.324	446
995.402	172
995.480	-536
995.558	-88
995.636	-754
995.714	-744
995.792	317
995.870	-139
995.948	604
996.026	-245
996.104	92
996.182	-555
996.260	-397
996.338	-404
996.416	-792
996.494	-443
996.572	-166
996.649	-451
996.727	-402
996.805	1
996.883	96
996.960	-953
997.038	-146
997.116	-492
997.193	-655
997.271	-585
997.348	-245
997.426	-1643
997.504	-448
997.581	440
997.658	341
997.736	-577
997.813	-1412
997.891	-618
997.968	-515
998.046	-635
998.123	-936
998.200	-1217
998.277	-855
998.355	-480
998.432	-580
998.509	-288
998.586	-4
998.663	-528
998.741	-572
998.818	-695
998.895	-203
998.972	-914
999.049	-300
999.126	83
999.203	-290
999.280	-98
999.357	-755
999.434	-856
999.511	-225
999.587	-460
999.664	67
999.741	-598
999.818	-577
999.895	-999
999.971	-571
1000.048	-693
1000.125	546
1000.202	-646
1000.278	-977
1000.355	-681
1000.431	-459
1000.508	-1068
1000.584	-1072
1000.661	-795
1000.738	-994
1000.814	-461
1000.890	411
1000.967	-1001
1001.043	-315
1001.120	-1351
1001.196	-750
1001.272	-1076
1001.349	-980
1001.425	-806
1001.501	-922
1001.577	-619
1001.654	-682
1001.730	-101
1001.806	-1462
1001.882	-730
1001.958	-875
1002.034	-476
1002.110	-822
1002.186	-452
1002.262	-1022
1002.338	-1657
1002.414	-365
1002.490	-1130
1002.566	-1563
1002.642	-646
1002.718	-919
1002.794	-649
1002.870	-742
1002.945	-962
1003.021	-622
1003.097	-1251
1003.173	-1235
1003.248	-1068
1003.324	-581
1003.400	-948
1003.475	-1144
1003.551	-651
1003.626	-1201
1003.702	-917
1003.777	-623
1003.853	-1008
1003.928	-725
1004.004	-542
1004.079	-1002
1004.155	-1487
1004.230	-1623
1004.305	-688
1004.381	-506
1004.456	-1431
1004.531	189
1004.607	-858
1004.682	-1214
1004.757	-1026
1004.832	-70
1004.907	-1113
1004.982	-975
1005.057	-1194
1005.133	333
1005.208	-1067
1005.283	-398
1005.358	-954
1005.433	-1047
1005.508	-1218
1005.583	-777
1005.657	-1048
1005.732	-203
1005.807	-431
1005.882	-714
1005.957	-1701
1006.032	-254
1006.106	-415
1006.181	-612
1006.256	-1099
1006.331	-1150
1006.405	-1430
1006.480	-1047
1006.554	-526
1006.629	-1452
1006.704	-745
1006.778	-1657
1006.853	-1347
1006.927	-1367
1007.002	-888
1007.076	-827
1007.150	-1143
1007.225	-1076
1007.299	-1458
1007.373	-1694
1007.448	-503
1007.522	-647
1007.596	-509
1007.671	-1046
1007.745	-1002
1007.819	-1590
1007.893	-1430
1007.967	-1826
1008.041	-1611
1008.115	-827
1008.190	-959
1008.264	-1613
1008.338	-1421
1008.412	-422
1008.486	-748
1008.560	-677
1008.633	-1392
1008.707	-1139
1008.781	-1013
1008.855	-1495
1008.929	-456
1009.003	-994
1009.076	-1228
1009.150	-1922
1009.224	-1436
1009.298	-894
1009.371	-1330
1009.445	-1510
1009.519	-1057
1009.592	-1087
1009.666	-854
1009.739	-1162
1009.813	-1378
1009.886	-261
1009.960	-1985
1010.033	-326
1010.107	-1094
1010.180	-575
1010.253	-1653
1010.327	-1154
1010.400	-1435
1010.473	-816
1010.547	-646
1010.620	-1306
1010.693	-1516
1010.766	-1761
1010.840	-963
1010.913	-931
1010.986	-1503
1011.059	-1827
1011.132	-1660
1011.205	-360
1011.278	-1271
1011.351	-782
1011.424	-462
1011.497	-1298
1011.570	-750
1011.643	-1999
1011.716	-756
1011.789	-951
1011.862	-1514
1011.934	-1527
1012.007	-1875
1012.080	-1378
1012.153	-1649
1012.225	-700
1012.298	-1515
1012.371	-1368
1012.443	-1362
1012.516	-1232
1012.588	-1367
1012.661	-879
1012.733	-1284
1012.806	-628
1012.879	-1561
1012.951	-1247
1013.023	-871
1013.096	-754
1013.168	-951
1013.241	-210
1013.313	-1721
1013.385	-1718
1013.458	-1204
1013.530	-1240
1013.602	-2029
1013.674	-1207
1013.746	-2183
1013.819	-1298
1013.891	-1358
1013.963	-1158
1014.035	-947
1014.107	-938
1014.179	-1320
1014.251	-1326
1014.323	-1005
1014.395	-642
1014.467	-1835
1014.539	-1402
1014.611	-1850
1014.683	-856
1014.754	-1945
1014.826	-1534
1014.898	-1182
1014.970	-982
1015.042	-1129
1015.113	-1760
1015.185	-1602
1015.257	-1966
1015.328	-1460
1015.400	-1436
1015.471	-2210
1015.543	-2006
1015.615	-678
1015.686	-879
1015.757	-1533
1015.829	-618
1015.901	-1974
1015.972	-335
1016.043	-1458
1016.115	-934
1016.186	-1401
1016.257	-1456
1016.328	-440
1016.400	-921
1016.471	-1323
1016.542	-868
1016.613	-1738
1016.685	-737
1016.756	-1317
1016.827	-980
1016.898	-855
1016.969	-247
1017.040	-1755
1017.111	-1221
1017.182	-1787
1017.253	-1294
1017.324	-806
1017.395	-1279
1017.466	-1526
1017.537	-989
1017.608	-1681
1017.678	-1751
1017.749	-1147
1017.820	-911
1017.891	-847
1017.961	-2041
1018.032	-1362
1018.103	-833
1018.173	-1454
1018.244	-1641
1018.315	-1310
1018.385	-489
1018.456	-1729
1018.526	-987
1018.597	-1318
1018.667	-1207
1018.738	-2155
1018.808	-480
1018.878	-1578
1018.949	-1235
1019.019	-1859
1019.089	-1588
1019.160	-1165
1019.230	-2122
1019.300	-647
1019.371	-1929
1019.441	-1651
1019.511	-849
1019.581	-1628
1019.651	-765
1019.721	-1728
1019.791	-1294
1019.861	-1484
1019.931	-728
1020.001	-1347
1020.071	-1164
1020.141	-1406
1020.211	-489
1020.281	-1691
1020.351	-1013
1020.421	-1572
1020.491	-1437
1020.560	-1718
1020.630	-983
1020.700	-1363
1020.770	-1786
1020.839	-1428
1020.909	-1943
1020.979	-1204
1021.048	-1383
1021.118	-1350
1021.187	-1667
1021.257	-942
1021.326	-1075
1021.396	-656
1021.465	-1229
1021.535	-1112
1021.604	-2043
1021.674	-939
1021.743	-1207
1021.812	-1600
1021.882	-1226
1021.951	-1004
1022.020	-939
1022.089	-112
1022.159	-1360
1022.228	-1285
1022.297	-1455
1022.366	-1628
1022.435	-1227
1022.504	-1073
1022.573	-1378
1022.642	-1134
1022.711	-998
1022.781	-814
1022.849	-1860
1022.918	-1136
1022.987	-834
1023.056	-2026
1023.125	-960
1023.194	-1549
1023.263	-906
1023.331	-1758
1023.400	-1616
1023.469	-1700
1023.538	-1016
1023.606	-2025
1023.675	-889
1023.744	-1675
1023.812	-1728
1023.881	-1389
1023.949	-941
1024.018	-1713
1024.086	-1613
1024.155	-2186
1024.223	-682
1024.292	-2029
1024.360	-1561
1024.429	-1249
1024.497	-2745
1024.565	-1879
1024.634	-1599
1024.702	-1846
1024.770	-1275
1024.838	-1489
1024.907	-988
1024.975	-1677
1025.043	-1395
1025.111	-2200
1025.179	-1136
1025.247	-832
1025.315	-1428
1025.383	-1513
1025.451	-1693
1025.519	-1876
1025.587	-1505
1025.655	-1210
1025.723	-2258
1025.791	-1273
1025.859	-1126
1025.927	-1790
1025.995	-2103
1026.062	-1567
1026.130	-1573
1026.198	-2638
1026.266	-1071
1026.333	-2361
1026.401	-1079
1026.469	-2261
1026.536	-1275
1026.604	-1777
1026.671	-1518
1026.739	-1408
1026.806	-2053
1026.874	-1256
1026.941	-1130
1027.009	-2199
1027.076	-1639
1027.144	-1562
1027.211	-2347
1027.278	-1895
1027.345	-1451
1027.413	-1123
1027.480	-1875
1027.547	-1534
1027.614	-1800
1027.682	-1624
1027.749	-1533
1027.816	-1271
1027.883	-1294
1027.950	-1421
1028.017	-1641
1028.084	-1181
1028.151	-2710
1028.218	-1260
1028.285	-945
1028.352	-2449
1028.419	-1565
1028.486	-2077
1028.553	-1312
1028.619	-2127
1028.686	-1209
1028.753	-1991
1028.820	-2116
1028.886	-2577
1028.953	-1139
1029.020	-1264
1029.086	-1604
1029.153	-2060
1029.220	-2068
1029.286	-1960
1029.353	-1305
1029.419	-2071
1029.486	-1921
1029.552	-1776
1029.619	-2094
1029.685	-1572
1029.751	-803
1029.818	-1710
1029.884	-1740
1029.951	-1023
1030.017	-1184
1030.083	-1863
1030.149	-2047
1030.216	-1644
1030.282	-682
1030.348	-1135
1030.414	-1831
1030.480	-1451
1030.546	-1920
1030.612	-852
1030.678	-1921
1030.744	-1337
1030.810	-2292
1030.876	-1772
1030.942	-1648
1031.008	-1928
1031.074	-1820
1031.140	-2432
1031.206	-1302
1031.272	-2525
1031.337	-1855
1031.403	-1843
1031.469	-2231
1031.534	-1758
1031.600	-1589
1031.666	-2387
1031.731	-2496
1031.797	-1745
1031.863	-1870
1031.928	-1128
1031.994	-1922
1032.059	-2408
1032.125	-2067
1032.190	-2064
1032.256	-1569
1032.321	-1476
1032.386	-1536
1032.452	-2331
1032.517	-1055
1032.582	-2361
1032.647	-1825
1032.713	-2222
1032.778	-1460
1032.843	-2142
1032.908	-2075
1032.974	-2190
1033.039	-1539
1033.104	-1085
1033.169	-2021
1033.234	-2221
1033.299	-1886
1033.364	-2161
1033.429	-1424
1033.494	-2045
1033.559	-1964
1033.624	-2097
1033.688	-1838
1033.753	-1554
1033.818	-2055
1033.883	-1889
1033.948	-1512
1034.013	-824
1034.077	-1287
1034.142	-1658
1034.207	-1350
1034.271	-1146
1034.336	1030
1034.400	49
1034.465	410
1034.530	-1537
1034.594	-888
1034.658	-1513
1034.723	-1970
1034.787	-2297
1034.852	-1780
1034.916	-1956
1034.981	-1578
1035.045	-2076
1035.109	-2576
1035.173	-1025
1035.238	-2301
1035.302	-1628
1035.366	-1173
1035.430	-1740
1035.495	-1609
1035.559	-1835
1035.623	-1617
1035.687	-2186
1035.751	-1789
1035.815	-2198
1035.879	-2027
1035.943	-1824
1036.007	-2704
1036.071	-2066
1036.135	-1938
1036.198	-1596
1036.262	-2178
1036.326	-2197
1036.390	-1636
1036.454	-1451
1036.517	-2105
1036.581	-950
1036.645	-1042
1036.709	-1317
1036.772	-1015
1036.836	-2246
1036.900	-2222
1036.963	-1621
1037.026	-2210
1037.090	-2514
1037.154	-1653
1037.217	-2190
1037.280	-2572
1037.344	-1838
1037.407	-2121
1037.471	-2122
1037.534	-2177
1037.597	-1547
1037.661	-1859
1037.724	-2608
1037.787	-1539
1037.850	-2512
1037.913	-1705
1037.977	-1311
1038.040	-1546
1038.103	-2161
1038.166	-1356
1038.229	-1493
1038.292	-1706
1038.355	-1299
1038.418	-2261
1038.481	-1837
1038.544	-2553
1038.607	-2055
1038.670	-1837
1038.732	-2482
1038.795	-2760
1038.858	-2131
1038.921	-2164
1038.984	-1379
1039.046	-1370
1039.109	-1916
1039.172	-1271
1039.234	-2078
1039.297	-2104
1039.360	-1991
1039.422	-2055
1039.485	-1721
1039.547	-2464
1039.610	-1794
1039.672	-1628
1039.734	-1484
1039.797	-2177
1039.859	-1566
1039.922	-1975
1039.984	-1169
1040.046	-1757
1040.109	-1782
1040.171	-1854
1040.233	-1979
1040.295	-1919
1040.358	-1770
1040.420	-1396
1040.482	-2033
1040.544	-1729
1040.606	-1267
1040.668	-1615
1040.730	-1951
1040.792	-1860
1040.854	-2056
1040.916	-1512
1040.978	-2156
1041.040	-1926
1041.102	-2351
1041.164	-1940
1041.225	-2331
1041.287	-1972
1041.349	-2005
1041.411	-1596
1041.472	-2868
1041.534	-1888
1041.596	-1665
1041.657	-1978
1041.719	-2741
1041.781	-2590
1041.842	-1921
1041.904	-2102
1041.965	-2292
1042.027	-1517
1042.088	-1779
1042.150	-1214
1042.211	-2364
1042.272	-1908
1042.334	-2155
1042.395	-1653
1042.456	-1992
1042.518	-1481
1042.579	-1978
1042.640	-2250
1042.701	-1888
1042.763	-1930
1042.824	-1965
1042.885	-1490
1042.946	-1890
1043.007	-1703
1043.068	-2200
1043.129	-1650
1043.190	-1620
1043.251	-1690
1043.312	-2083
1043.373	-1213
1043.434	-2082
1043.495	-1323
1043.556	-1512
1043.616	-2256
1043.677	-2270
1043.738	-1456
1043.799	-2859
1043.859	-1573
1043.920	-1986
1043.981	-1167
1044.041	-2314
1044.102	-1771
1044.162	-2624
1044.223	-1567
1044.284	-1735
1044.344	-1309
1044.405	-2215
1044.465	-2169
1044.525	-1890
1044.586	-1391
1044.646	-1950
1044.707	-2240
1044.767	-1209
1044.827	-1665
1044.887	-1538
1044.948	-2165
1045.008	-1978
1045.068	-1783
1045.128	-1432
1045.188	-1462
1045.249	-1993
1045.309	-2083
1045.369	-1588
1045.429	-968
1045.489	-2278
1045.549	-2246
1045.609	-1807
1045.669	-2132
1045.729	-2131
1045.789	-821
1045.848	-2366
1045.908	-859
1045.968	-1118
1046.028	-2309
1046.088	-1415
1046.147	-1214
1046.207	-1611
1046.267	-997
1046.326	-1742
1046.386	-1036
1046.446	-1272
1046.505	-1333
1046.565	-1363
1046.624	-1092
1046.684	-615
1046.743	-1030
1046.803	-1122
1046.862	-583
1046.922	0
