'Start Wavelength	183.907
'End Wavelength	1046.922
'Gate Delay	5.000
'Gate Width (ms)	1.050
'Laser Output Level	0.000
'X Position	0.000
'Y Position	0.000
'Z Position	0.000
'Grid Point Number	1.000
'Shot Number	100.000
183.907	505.000
183.977	43.000
184.047	449
184.116	661
184.186	677
184.256	-96
184.325	976
184.395	424
184.465	-31
184.534	-17
184.604	-314
184.674	-123
184.743	-694
184.813	199
184.883	657
184.952	336
185.022	685
185.092	430
185.161	287
185.231	-14
185.301	474
185.370	521
185.440	-73
185.509	-174
185.579	428
185.649	271
185.718	278
185.788	226
185.857	-351
185.927	598
185.996	763
186.066	342
186.136	144
186.205	27
186.275	161
186.344	200
186.414	236
186.483	337
186.553	954
186.622	578
186.692	-209
186.761	934
186.831	336
186.900	689
186.970	193
187.039	497
187.109	237
187.178	777
187.248	72
187.317	1001
187.387	20
187.456	-75
187.526	-427
187.595	364
187.664	-244
187.734	1213
187.803	-243
187.873	97
187.942	125
188.012	707
188.081	224
188.150	219
188.220	538
188.289	63
188.358	92
188.428	1309
188.497	785
188.567	164
188.636	318
188.705	141
188.775	967
188.844	561
188.913	731
188.983	64
189.052	-420
189.121	769
189.191	13
189.260	-159
189.329	-193
189.399	844
189.468	-362
189.537	253
189.606	31
189.676	101
189.745	45
189.814	908
189.883	17
189.953	268
190.022	370
190.091	247
190.161	261
190.230	447
190.299	-77
190.368	114
190.437	-326
190.507	-82
190.576	-315
190.645	201
190.714	-39
190.783	-458
190.853	368
190.922	234
190.991	-439
191.060	447
191.129	-303
191.198	564
191.268	324
191.337	120
191.406	466
191.475	902
191.544	-380
191.613	515
191.682	-337
191.752	-98
191.821	102
191.890	64
191.959	-289
192.028	-36
192.097	85
192.166	320
192.235	-753
192.304	-268
192.373	-55
192.442	-220
192.511	141
192.580	26
192.650	377
192.719	500
192.788	185
192.857	-184
192.926	240
192.995	625
193.064	378
193.133	-124
193.202	-277
193.271	-359
193.340	387
193.409	68
193.478	663
193.547	177
193.615	-465
193.684	554
193.753	99
193.822	-102
193.891	183
193.960	480
194.029	275
194.098	-20
194.167	-447
194.236	250
194.305	65
194.374	352
194.443	-150
194.512	217
194.580	804
194.649	679
194.718	232
194.787	628
194.856	-391
194.925	718
194.994	-296
195.062	639
195.131	-169
195.200	-64
195.269	298
195.338	-114
195.407	273
195.475	-74
195.544	-349
195.613	-720
195.682	729
195.751	292
195.819	153
195.888	348
195.957	398
196.026	91
196.094	-46
196.163	-42
196.232	-423
196.301	309
196.369	800
196.438	727
196.507	-158
196.576	-133
196.644	-65
196.713	-181
196.782	413
196.850	380
196.919	501
196.988	471
197.056	-57
197.125	-266
197.194	-631
197.262	188
197.331	-319
197.400	580
197.468	-164
197.537	199
197.606	-64
197.674	229
197.743	-342
197.812	178
197.880	44
197.949	247
198.017	93
198.086	-252
198.155	-490
198.223	654
198.292	256
198.360	-164
198.429	-376
198.497	-87
198.566	101
198.635	-334
198.703	-756
198.772	874
198.840	575
198.909	-286
198.977	618
199.046	109
199.114	134
199.183	44
199.251	-179
199.320	829
199.388	251
199.457	1330
199.525	83
199.594	13
199.662	465
199.731	934
199.799	-364
199.867	595
199.936	-8
200.004	54
200.073	37
200.141	413
200.210	-767
200.278	56
200.346	459
200.415	115
200.483	-240
200.552	239
200.620	-6
200.688	-625
200.757	-194
200.825	154
200.893	-775
200.962	-46
201.030	214
201.098	409
201.167	-95
201.235	-486
201.303	215
201.372	-179
201.440	112
201.508	79
201.577	16
201.645	122
201.713	-557
201.781	-294
201.850	-310
201.918	-33
201.986	-158
202.055	-71
202.123	-257
202.191	154
202.259	-135
202.327	-217
202.396	4
202.464	685
202.532	-124
202.600	539
202.669	-393
202.737	-447
202.805	-142
202.873	-27
202.941	74
203.009	-131
203.078	-19
203.146	57
203.214	-1026
203.282	-409
203.350	-134
203.418	101
203.487	-46
203.555	906
203.623	184
203.691	457
203.759	-84
203.827	347
203.895	-218
203.963	89
204.031	-309
204.099	24
204.168	-320
204.236	780
204.304	131
204.372	-357
204.440	227
204.508	204
204.576	-428
204.644	-74
204.712	-361
204.780	-229
204.848	-311
204.916	390
204.984	-355
205.052	-415
205.120	-427
205.188	72
205.256	-814
205.324	-110
205.392	-109
205.460	374
205.528	-310
205.596	29
205.664	587
205.732	298
205.799	-1043
205.867	-604
205.935	-241
206.003	176
206.071	-571
206.139	22
206.207	-517
206.275	-246
206.343	-99
206.411	102
206.478	24
206.546	-321
206.614	-623
206.682	92
206.750	-119
206.818	588
206.885	203
206.953	-609
207.021	470
207.089	365
207.157	-125
207.225	601
207.292	104
207.360	-482
207.428	-169
207.496	18
207.563	-405
207.631	214
207.699	-581
207.767	332
207.834	243
207.902	-486
207.970	14
208.038	-179
208.105	331
208.173	-263
208.241	76
208.309	246
208.376	27
208.444	215
208.512	-40
208.579	-1115
208.647	352
208.715	376
208.782	-507
208.850	-16
208.918	-330
208.985	-179
209.053	-111
209.120	-514
209.188	-149
209.256	-592
209.323	-451
209.391	394
209.459	-120
209.526	221
209.594	-1243
209.661	-120
209.729	289
209.796	418
209.864	200
209.932	-1014
209.999	-66
210.067	59
210.134	-207
210.202	-425
210.269	-306
210.337	-337
210.404	-646
210.472	-249
210.539	397
210.607	-29
210.674	-808
210.742	-348
210.809	-257
210.877	-20
210.944	-138
211.012	-339
211.079	931
211.146	185
211.214	-758
211.281	-604
211.349	282
211.416	-322
211.484	-144
211.551	-206
211.618	-61
211.686	-304
211.753	243
211.821	361
211.888	-43
211.955	-362
212.023	20
212.090	238
212.157	-817
212.225	320
212.292	-612
212.359	131
212.427	486
212.494	-31
212.561	91
212.629	110
212.696	-757
212.763	-326
212.831	175
212.898	-427
212.965	164
213.032	-213
213.100	-627
213.167	-369
213.234	-53
213.301	277
213.369	-987
213.436	-456
213.503	393
213.570	-12
213.638	-865
213.705	-83
213.772	-1102
213.839	-267
213.906	-596
213.973	214
214.041	-226
214.108	-287
214.175	-382
214.242	430
214.309	-353
214.376	-415
214.444	178
214.511	-5
214.578	-90
214.645	52
214.712	-162
214.779	-595
214.846	-84
214.913	-6
214.980	-302
215.048	-196
215.115	-117
215.182	-55
215.249	-578
215.316	159
215.383	-53
215.450	-923
215.517	-571
215.584	-1512
215.651	-756
215.718	57
215.785	-244
215.852	162
215.919	58
215.986	-59
216.053	181
216.120	-237
216.187	191
216.254	586
216.321	-448
216.388	569
216.455	-131
216.522	-57
216.589	-723
216.656	-750
216.722	-132
216.789	19
216.856	-392
216.923	30
216.990	-574
217.057	-130
217.124	-621
217.191	-537
217.258	306
217.324	267
217.391	63
217.458	-336
217.525	-455
217.592	-370
217.659	-864
217.725	-872
217.792	-167
217.859	273
217.926	-737
217.993	48
218.059	88
218.126	682
218.193	-473
218.260	-673
218.327	-708
218.393	-641
218.460	-347
218.527	-551
218.594	-183
218.660	-376
218.727	-52
218.794	-511
218.860	-362
218.927	185
218.994	-710
219.061	-502
219.127	-352
219.194	-334
219.261	-523
219.327	-552
219.394	-483
219.461	-578
219.527	-281
219.594	284
219.661	67
219.727	-634
219.794	-246
219.860	-473
219.927	-508
219.994	-4
220.060	438
220.127	292
220.193	245
220.260	-399
220.326	-206
220.393	-216
220.460	-83
220.526	-231
220.593	-477
220.659	-85
220.726	-321
220.792	-415
220.859	-869
220.925	-70
220.992	-543
221.058	-94
221.125	337
221.191	-308
221.258	-682
221.324	-307
221.391	-392
221.457	-605
221.524	-1525
221.590	195
221.657	-259
221.723	-352
221.789	-188
221.856	-32
221.922	-882
221.989	206
222.055	-731
222.121	-591
222.188	170
222.254	-47
222.321	-280
222.387	234
222.453	-2
222.520	-714
222.586	-551
222.652	-174
222.719	-314
222.785	-153
222.851	-990
222.918	-234
222.984	-382
223.050	-638
223.116	-584
223.183	280
223.249	-775
223.315	-440
223.382	-360
223.448	149
223.514	-143
223.580	130
223.647	238
223.713	-495
223.779	3
223.845	-251
223.911	187
223.978	-57
224.044	-85
224.110	-813
224.176	208
224.242	-701
224.309	-1212
224.375	-105
224.441	-627
224.507	-287
224.573	-780
224.639	-501
224.705	-355
224.772	-11
224.838	-616
224.904	-129
224.970	-665
225.036	-53
225.102	-629
225.168	-215
225.234	741
225.300	-380
225.366	-308
225.432	-767
225.499	-670
225.565	-311
225.631	-161
225.697	13
225.763	-35
225.829	-278
225.895	-694
225.961	-760
226.027	-161
226.093	-287
226.159	-898
226.225	-208
226.291	-245
226.357	-293
226.423	-470
226.489	-664
226.554	-828
226.620	355
226.686	10
226.752	278
226.818	71
226.884	473
226.950	-268
227.016	-70
227.082	74
227.148	18
227.214	122
227.279	-524
227.345	-831
227.411	84
227.477	561
227.543	1496
227.609	1148
227.674	-254
227.740	-412
227.806	180
227.872	-784
227.938	-344
228.003	-893
228.069	128
228.135	-132
228.201	-1627
228.267	-518
228.332	-136
228.398	-1088
228.464	556
228.530	-739
228.595	533
228.661	-936
228.727	-637
228.792	-87
228.858	-559
228.924	-693
228.990	368
229.055	-526
229.121	-544
229.187	-940
229.252	-653
229.318	-374
229.384	-433
229.449	-985
229.515	-831
229.581	-1434
229.646	-9
229.712	-358
229.777	-661
229.843	-169
229.909	185
229.974	-605
230.040	256
230.105	-624
230.171	-325
230.236	-616
230.302	-250
230.368	-884
230.433	310
230.499	-103
230.564	446
230.630	-916
230.695	-392
230.761	-830
230.826	102
230.892	198
230.957	-858
231.023	-355
231.088	-1197
231.154	-187
231.219	692
231.284	-764
231.350	18
231.415	-690
231.481	-274
231.546	-891
231.612	-713
231.677	-1166
231.742	-597
231.808	-149
231.873	-23
231.939	-833
232.004	-97
232.069	-312
232.135	-290
232.200	-646
232.265	139
232.331	-406
232.396	-265
232.461	-977
232.527	-720
232.592	-1021
232.657	150
232.723	-1101
232.788	-258
232.853	-388
232.918	295
232.984	-585
233.049	-668
233.114	-776
233.179	-293
233.245	204
233.310	-452
233.375	-848
233.440	-375
233.506	-1101
233.571	-584
233.636	-725
233.701	-416
233.766	-1120
233.832	-692
233.897	-344
233.962	-977
234.027	-498
234.092	-32
234.157	-55
234.222	316
234.288	-258
234.353	-479
234.418	-463
234.483	-895
234.548	-975
234.613	-1059
234.678	-376
234.743	-547
234.808	-283
234.873	-616
234.938	-155
235.004	-127
235.069	-440
235.134	-1266
235.199	-344
235.264	-1074
235.329	-404
235.394	-322
235.459	-242
235.524	-429
235.589	-644
235.654	-233
235.719	-956
235.784	-137
235.849	-1019
235.913	-1376
235.978	-698
236.043	-391
236.108	-5
236.173	-463
236.238	-942
236.303	-1003
236.368	-1002
236.433	-451
236.498	-582
236.563	-1294
236.627	-93
236.692	651
236.757	-222
236.822	-63
236.887	-936
236.952	-1002
237.017	-1050
237.081	-654
237.146	-689
237.211	58
237.276	374
237.341	1635
237.405	225
237.470	-571
237.535	-325
237.600	178
237.664	-169
237.729	-131
237.794	-965
237.859	-374
237.923	-963
237.988	-455
238.053	162
238.118	-510
238.182	54
238.247	-343
238.312	-1173
238.376	-233
238.441	-961
238.506	233
238.570	-1551
238.635	375
238.700	-426
238.764	-15
238.829	49
238.893	-550
238.958	-102
239.023	-1152
239.087	-214
239.152	-265
239.216	-373
239.281	-346
239.346	112
239.410	-583
239.475	-1056
239.539	-422
239.604	-1263
239.668	-88
239.733	-97
239.797	1234
239.862	2252
239.926	1145
239.991	-542
240.055	65
240.120	-663
240.184	-127
240.249	-20
240.313	-73
240.378	-1239
240.442	-1008
240.507	-546
240.571	214
240.635	-1243
240.700	-737
240.764	-927
240.829	-617
240.893	-426
240.957	-331
241.022	-782
241.086	-425
241.151	-1271
241.215	-748
241.279	-116
241.344	-725
241.408	-1316
241.472	-308
241.537	-390
241.601	-68
241.665	-847
241.730	-911
241.794	-212
241.858	-1087
241.922	-579
241.987	-436
242.051	-947
242.115	-1018
242.179	-1123
242.244	-1141
242.308	-419
242.372	-403
242.436	-1311
242.501	-326
242.565	-818
242.629	-579
242.693	-305
242.757	-707
242.822	-1072
242.886	59
242.950	-953
243.014	-1447
243.078	-699
243.142	-726
243.206	-1166
243.271	-805
243.335	-1024
243.399	-423
243.463	-472
243.527	-76
243.591	-677
243.655	-437
243.719	-961
243.783	-515
243.847	-810
243.911	-262
243.975	-549
244.040	-1681
244.104	-195
244.168	-346
244.232	-693
244.296	-987
244.360	-1094
244.424	-930
244.488	-158
244.552	-246
244.615	-1361
244.679	-913
244.743	-1168
244.807	-1254
244.871	-707
244.935	9
244.999	-1182
245.063	-258
245.127	361
245.191	-59
245.255	-767
245.319	-402
245.383	-1874
245.446	-4
245.510	-1281
245.574	246
245.638	-964
245.702	-627
245.766	-908
245.829	-96
245.893	-655
245.957	-1417
246.021	-501
246.085	-312
246.149	-542
246.212	-318
246.276	-998
246.340	-998
246.404	-602
246.467	-352
246.531	-1224
246.595	-332
246.659	-1139
246.722	-1476
246.786	-329
246.850	128
246.913	-745
246.977	-845
247.041	-602
247.104	-901
247.168	-400
247.232	-161
247.295	-374
247.359	-296
247.423	-1165
247.486	-410
247.550	-483
247.614	-974
247.677	18
247.741	-693
247.804	-778
247.868	-685
247.932	-730
247.995	-385
248.059	-585
248.122	-1049
248.186	-69
248.249	-948
248.313	293
248.376	-753
248.440	-788
248.503	-1573
248.567	-451
248.630	-1094
248.694	-413
248.757	-389
248.821	150
248.884	-93
248.948	-1227
249.011	-474
249.075	-306
249.138	-145
249.202	-296
249.265	-488
249.328	-951
249.392	-586
249.455	-438
249.519	-1124
249.582	-1310
249.645	-84
249.709	-1154
249.772	-827
249.835	-1262
249.899	-547
249.962	-522
250.025	-1975
250.089	28
250.152	-117
250.215	-868
250.279	-953
250.342	-524
250.405	-881
250.468	-667
250.532	-245
250.595	-1010
250.658	321
250.721	466
250.785	-601
250.848	-206
250.911	-870
250.974	-346
251.038	-921
251.101	-670
251.164	-990
251.227	-1090
251.290	-1250
251.354	-459
251.417	1866
251.480	-87
251.543	398
251.606	3193
251.669	134
251.732	-115
251.795	-80
251.859	-298
251.922	672
251.985	-451
252.048	-409
252.111	-759
252.174	-780
252.237	-1015
252.300	-183
252.363	-89
252.426	1268
252.489	-714
252.552	-577
252.615	-1021
252.678	-801
252.741	-153
252.804	247
252.867	1151
252.930	-258
252.993	-757
253.056	-108
253.119	-947
253.182	-958
253.245	-840
253.308	32
253.371	-689
253.434	-446
253.497	-1001
253.559	-288
253.622	-132
253.685	-375
253.748	-1255
253.811	-516
253.874	-151
253.937	-311
254.000	-285
254.062	-1312
254.125	-648
254.188	-127
254.251	-1040
254.314	-874
254.376	-1266
254.439	158
254.502	-453
254.565	-578
254.628	-72
254.690	-976
254.753	-991
254.816	-735
254.878	-699
254.941	-378
255.004	-932
255.067	-963
255.129	-1343
255.192	-373
255.255	-1918
255.317	-625
255.380	-959
255.443	-540
255.505	-833
255.568	-1663
255.631	-450
255.693	-111
255.756	-1185
255.819	77
255.881	3
255.944	-833
256.006	-748
256.069	-346
256.132	-1091
256.194	-922
256.257	-751
256.319	-748
256.382	-887
256.444	-415
256.507	-1299
256.569	-1158
256.632	-473
256.694	-1673
256.757	236
256.819	535
256.882	-1328
256.944	-743
257.007	-494
257.069	-515
257.132	-300
257.194	-898
257.257	-922
257.319	-385
257.381	-1307
257.444	444
257.506	836
257.569	61
257.631	-331
257.693	-304
257.756	-681
257.818	-657
257.880	-419
257.943	-264
258.005	-1414
258.067	-1
258.130	-1454
258.192	-941
258.254	-769
258.317	-638
258.379	-389
258.441	-1186
258.503	-529
258.566	-381
258.628	-729
258.690	-1594
258.753	-707
258.815	-939
258.877	-847
258.939	-795
259.001	-611
259.064	-675
259.126	-1182
259.188	-213
259.250	-937
259.312	-936
259.375	-1047
259.437	-415
259.499	-760
259.561	-954
259.623	-924
259.685	-1077
259.747	-954
259.809	-50
259.872	-581
259.934	-1017
259.996	-589
260.058	-320
260.120	-696
260.182	-545
260.244	-209
260.306	-795
260.368	-852
260.430	-1077
260.492	-1251
260.554	53
260.616	-1402
260.678	-1189
260.740	-1146
260.802	-733
260.864	-1224
260.926	-1154
260.988	-401
261.050	-340
261.112	-2040
261.174	-91
261.236	-940
261.298	-462
261.359	-761
261.421	-524
261.483	-1769
261.545	-543
261.607	-1059
261.669	-252
261.731	-837
261.793	-201
261.854	-1630
261.916	554
261.978	-767
262.040	-953
262.102	-401
262.164	-568
262.225	-887
262.287	-873
262.349	-1132
262.411	-691
262.472	-174
262.534	-845
262.596	-1290
262.658	-519
262.719	-1690
262.781	-1105
262.843	-1939
262.904	83
262.966	-733
263.028	-1084
263.090	-1226
263.151	-869
263.213	-1506
263.275	-1058
263.336	-966
263.398	-140
263.459	-1251
263.521	-960
263.583	-874
263.644	-295
263.706	-1056
263.767	-607
263.829	-485
263.891	-964
263.952	-643
264.014	-964
264.075	-1041
264.137	-464
264.198	-1288
264.260	-666
264.321	-1154
264.383	-424
264.444	-829
264.506	-1015
264.567	-978
264.629	-731
264.690	-1621
264.752	-385
264.813	-817
264.875	-1201
264.936	-340
264.998	-1257
265.059	-812
265.120	-430
265.182	-652
265.243	211
265.305	-248
265.366	-970
265.427	-835
265.489	-790
265.550	-1412
265.611	-550
265.673	-262
265.734	-1053
265.795	-533
265.857	-978
265.918	-676
265.979	131
266.040	-48
266.102	-534
266.163	-906
266.224	-1183
266.286	-829
266.347	-1355
266.408	-869
266.469	-711
266.530	-763
266.592	-630
266.653	-1234
266.714	-725
266.775	-1612
266.836	-1543
266.898	-834
266.959	-1232
267.020	-1440
267.081	454
267.142	-849
267.203	-653
267.264	-757
267.326	-519
267.387	-1086
267.448	-1007
267.509	-457
267.570	-1098
267.631	-1137
267.692	-1784
267.753	-90
267.814	-1295
267.875	-862
267.936	-950
267.997	-1919
268.058	-939
268.119	-1290
268.180	-1030
268.241	-1643
268.302	-117
268.363	-915
268.424	-491
268.485	-1115
268.546	-1500
268.607	-681
268.668	-831
268.729	-1315
268.790	-797
268.851	-1620
268.912	-295
268.972	-550
269.033	-1946
269.094	-1344
269.155	-713
269.216	-1340
269.277	-1299
269.338	-1154
269.398	-390
269.459	-2156
269.520	26
269.581	-1364
269.642	-320
269.702	-1375
269.763	-923
269.824	-952
269.885	-1576
269.945	-1008
270.006	-719
270.067	-1205
270.128	-641
270.188	-1605
270.249	-1043
270.310	-1379
270.370	-993
270.431	-1331
270.492	-948
270.553	-936
270.613	-302
270.674	-719
270.734	-755
270.795	-547
270.856	-741
270.916	-1924
270.977	-961
271.038	-441
271.098	-506
271.159	-1520
271.219	-782
271.280	-337
271.340	-1138
271.401	-1401
271.462	-498
271.522	-1500
271.583	-335
271.643	-1418
271.704	-357
271.764	-1098
271.825	-802
271.885	731
271.946	528
272.006	-1507
272.066	-470
272.127	267
272.187	593
272.248	-1275
272.308	-261
272.369	-208
272.429	-1179
272.489	-599
272.550	4
272.610	-789
272.671	-1087
272.731	-501
272.791	-1364
272.852	-1694
272.912	-129
272.972	-650
273.033	-422
273.093	-1793
273.153	-317
273.214	-1020
273.274	-495
273.334	-569
273.394	-554
273.455	-1197
273.515	-103
273.575	-1383
273.635	-215
273.696	87
273.756	-1353
273.816	-72
273.876	-257
273.936	-840
273.997	-175
274.057	-1227
274.117	-1154
274.177	-841
274.237	453
274.297	-846
274.358	-581
274.418	118
274.478	-452
274.538	-678
274.598	-1515
274.658	-694
274.718	-1299
274.778	-986
274.838	-643
274.898	-997
274.958	-655
275.018	-76
275.078	-821
275.138	-503
275.198	-1351
275.258	-511
275.318	-280
275.378	-838
275.438	-833
275.498	-1410
275.558	-347
275.618	-320
275.678	-681
275.738	251
275.798	-723
275.858	-553
275.918	-410
275.978	-334
276.038	-110
276.098	-767
276.157	-1252
276.217	-546
276.277	-736
276.337	-1073
276.397	-705
276.457	-474
276.517	-440
276.576	-346
276.636	-1240
276.696	-753
276.756	137
276.815	-950
276.875	-590
276.935	-473
276.995	-1192
277.055	-794
277.114	-368
277.174	-786
277.234	-476
277.293	-559
277.353	-768
277.413	-835
277.472	-901
277.532	-1140
277.592	-560
277.651	-233
277.711	-424
277.771	-1240
277.830	-76
277.890	-335
277.950	287
278.009	993
278.069	-252
278.128	-2
278.188	6
278.248	-392
278.307	347
278.367	-568
278.426	-1062
278.486	-800
278.545	-531
278.605	-1281
278.664	-1109
278.724	-1197
278.783	233
278.843	-130
278.902	-758
278.962	-874
279.021	-411
279.081	-298
279.140	-988
279.199	-601
279.259	-746
279.318	-659
279.378	-854
279.437	-343
279.496	1938
279.556	6524
279.615	1662
279.675	-78
279.734	-83
279.793	-95
279.853	162
279.912	-481
279.971	-360
280.031	-500
280.090	-63
280.149	-857
280.208	304
280.268	4659
280.327	2312
280.386	-378
280.445	-331
280.505	-1614
280.564	-267
280.623	-547
280.682	-542
280.742	-569
280.801	-1040
280.860	-552
280.919	-646
280.978	-670
281.037	-134
281.097	-1023
281.156	-867
281.215	-746
281.274	-566
281.333	-766
281.392	-177
281.451	-113
281.510	-573
281.569	-228
281.628	-1196
281.688	-540
281.747	-327
281.806	-328
281.865	-372
281.924	-548
281.983	-801
282.042	-682
282.101	-1304
282.160	-378
282.219	-642
282.278	-932
282.337	-919
282.396	-1673
282.454	76
282.513	-1108
282.572	-614
282.631	-557
282.690	-634
282.749	-1761
282.808	-302
282.867	-273
282.926	-68
282.985	-675
283.043	-164
283.102	-740
283.161	-387
283.220	-159
283.279	-194
283.338	346
283.396	-537
283.455	-119
283.514	-803
283.573	-642
283.631	-264
283.690	-745
283.749	-91
283.808	-1055
283.866	-556
283.925	-1191
283.984	-659
284.043	-911
284.101	-128
284.160	-1027
284.219	-414
284.277	241
284.336	-476
284.395	-928
284.453	-49
284.512	-249
284.570	-805
284.629	-573
284.688	-819
284.746	-457
284.805	-620
284.863	-357
284.922	-224
284.981	-824
285.039	304
285.098	1591
285.156	6738
285.215	15488
285.273	11327
285.332	4285
285.390	2120
285.449	592
285.507	960
285.566	225
285.624	-240
285.683	150
285.741	7
285.799	-527
285.858	-832
285.916	342
285.975	-55
286.033	-936
286.091	-70
286.150	-242
286.208	-488
286.267	86
286.325	-746
286.383	-469
286.442	-299
286.500	-956
286.558	-581
286.616	15
286.675	489
286.733	-307
286.791	-750
286.850	-647
286.908	-59
286.966	-398
287.024	-969
287.083	-357
287.141	-349
287.199	-683
287.257	-485
287.315	-722
287.374	293
287.432	-559
287.490	-171
287.548	-348
287.606	-127
287.664	-441
287.723	702
287.781	-354
287.839	-637
287.897	324
287.955	-686
288.013	74
288.071	230
288.129	3350
288.187	5691
288.245	1366
288.303	-109
288.361	-12
288.419	134
288.477	-66
288.535	-593
288.593	189
288.651	-469
288.709	-712
288.767	538
288.825	-327
288.883	-267
288.941	26
288.999	-751
289.057	101
289.115	-511
289.173	82
289.231	193
289.289	-897
289.346	27
289.404	-276
289.462	-282
289.520	-420
289.578	-706
289.636	-297
289.694	333
289.751	-343
289.809	-344
289.867	-165
289.925	308
289.983	-359
290.040	-324
290.098	-518
290.156	-146
290.214	-102
290.271	-527
290.329	402
290.387	708
290.444	-151
290.502	-257
290.560	292
290.617	266
290.675	-253
290.733	-616
290.790	-63
290.848	-533
290.906	-331
290.963	284
291.021	-87
291.078	-228
291.136	-1238
291.194	-4
291.251	-125
291.309	262
291.366	148
291.424	-66
291.481	-368
291.539	-478
291.596	-564
291.654	-339
291.711	30
291.769	198
291.826	-164
291.884	754
291.941	-746
291.999	53
292.056	583
292.114	-605
292.171	-361
292.228	380
292.286	-320
292.343	-296
292.401	72
292.458	232
292.515	-545
292.573	267
292.630	206
292.687	40
292.745	416
292.802	-247
292.859	-4
292.917	186
292.974	-362
293.031	-237
293.089	-629
293.146	-115
293.203	-568
293.260	-268
293.318	-801
293.375	42
293.432	-174
293.489	-242
293.546	-597
293.604	-948
293.661	-290
293.718	625
293.775	321
293.832	248
293.889	-40
293.947	44
294.004	91
294.061	-482
294.118	-150
294.175	129
294.232	-337
294.289	268
294.346	-217
294.403	324
294.460	151
294.517	108
294.574	46
294.631	-195
294.688	-296
294.745	356
294.802	581
294.859	497
294.916	160
294.973	-1115
295.030	-181
295.087	39
295.144	-961
295.201	124
295.258	-577
295.315	-729
295.372	178
295.429	-367
295.486	-473
295.542	183
295.599	110
295.656	-168
295.713	-429
295.770	62
295.827	-700
295.883	-739
295.940	-86
295.997	115
296.054	56
296.111	-32
296.167	70
296.224	-1093
296.281	-638
296.338	-814
296.394	-584
296.451	-228
296.508	-540
296.564	89
296.621	312
296.678	1423
296.734	424
296.791	374
296.848	-417
296.904	94
296.961	-364
297.018	25
297.074	-406
297.131	-277
297.187	-260
297.244	234
297.301	145
297.357	843
297.414	363
297.470	144
297.527	-634
297.583	331
297.640	-363
297.696	-711
297.753	-284
297.809	-562
297.866	-128
297.922	-318
297.979	-97
298.035	1
298.092	118
298.148	165
298.204	-46
298.261	483
298.317	384
298.374	854
298.430	487
298.486	587
298.543	-144
298.599	44
298.656	-945
298.712	604
298.768	-261
298.824	441
298.881	-93
298.937	-412
298.993	-167
299.050	258
299.106	-99
299.162	-265
299.218	293
299.275	-498
299.331	-204
299.387	983
299.443	2695
299.500	6296
299.556	2891
299.612	1685
299.668	2374
299.724	5512
299.780	5526
299.837	2362
299.893	1260
299.949	4665
300.005	5977
300.061	5013
300.117	6743
300.173	2738
300.229	848
300.285	844
300.341	1285
300.397	141
300.453	365
300.510	-160
300.566	1099
300.622	2635
300.678	8959
300.734	9561
300.790	3920
300.845	2391
300.901	4734
300.957	5880
301.013	2937
301.069	505
301.125	154
301.181	76
301.237	185
301.293	336
301.349	700
301.405	174
301.461	-669
301.516	630
301.572	-391
301.628	-108
301.684	83
301.740	110
301.796	482
301.851	325
301.907	83
301.963	1121
302.019	663
302.074	2963
302.130	2293
302.186	1281
302.242	-70
302.297	-20
302.353	-236
302.409	82
302.464	-626
302.520	491
302.576	478
302.631	612
302.687	267
302.743	85
302.798	-175
302.854	26
302.910	131
302.965	-114
303.021	-64
303.076	-197
303.132	483
303.187	398
303.243	312
303.299	371
303.354	10
303.410	-45
303.465	409
303.521	-16
303.576	-213
303.632	-123
303.687	-54
303.743	304
303.798	886
303.853	603
303.909	222
303.964	74
304.020	-653
304.075	596
304.130	358
304.186	38
304.241	-90
304.297	13
304.352	-203
304.358	-146
304.407	315
304.449	361
304.463	375
304.518	-444
304.539	-363
304.573	-231
304.629	-136
304.630	-137
304.684	-232
304.720	471
304.739	842
304.794	532
304.811	368
304.850	-50
304.902	-275
304.905	-287
304.960	-324
304.992	-181
305.015	-114
305.071	-236
305.083	-142
305.126	284
305.173	-156
305.181	-236
305.236	182
305.264	283
305.292	371
305.347	-39
305.354	54
305.402	683
305.445	91
305.457	-76
305.512	48
305.535	21
305.567	-51
305.622	-572
305.626	-541
305.678	-78
305.716	492
305.733	750
305.788	297
305.807	361
305.843	466
305.897	1147
305.898	1158
305.953	586
305.988	407
306.008	269
306.063	185
306.078	160
306.118	116
306.168	219
306.173	231
306.228	-296
306.259	-203
306.283	-124
306.338	-86
306.349	66
306.393	684
306.440	5
306.448	-118
306.503	356
306.530	291
306.558	168
306.613	198
306.620	168
306.668	156
306.711	395
306.723	418
306.778	92
306.801	205
306.833	426
306.888	-108
306.892	-71
306.943	309
306.982	-28
306.997	-125
307.052	269
307.072	204
307.107	52
307.162	767
307.163	763
307.217	446
307.253	134
307.272	-39
307.327	-167
307.343	64
307.381	554
307.434	149
307.436	133
307.491	92
307.524	398
307.546	571
307.600	143
307.614	216
307.655	454
307.704	172
307.710	151
307.765	337
307.795	157
307.819	60
307.874	655
307.885	692
307.929	596
307.975	679
307.984	715
308.038	1071
308.065	1210
308.093	1663
308.148	3791
308.156	4439
308.202	8864
308.246	10680
308.257	10427
308.312	5192
308.336	3404
308.366	2185
308.421	1068
308.426	1045
308.475	999
308.517	945
308.530	918
308.585	895
308.607	747
308.639	292
308.694	-399
308.697	-403
308.748	311
308.787	528
308.803	510
308.857	394
308.877	391
308.912	550
308.967	847
308.967	849
309.021	918
309.058	1191
309.076	1386
309.130	2039
309.148	2450
309.185	4661
309.238	10317
309.239	10399
309.293	14270
309.328	13458
309.348	11307
309.402	5235
309.418	3841
309.457	2336
309.508	1070
309.511	1020
309.566	1108
309.598	947
309.620	910
309.674	1010
309.688	1001
309.729	877
309.778	802
309.783	819
309.837	844
309.868	886
309.892	732
309.946	655
309.959	636
310.001	839
310.049	832
310.055	799
310.109	797
310.139	577
310.163	570
310.218	920
310.229	983
310.272	945
310.319	775
310.326	702
310.381	79
310.409	-214
310.435	52
310.489	915
310.499	1051
310.543	977
310.589	649
310.598	576
310.652	290
310.679	142
310.706	259
310.760	496
310.769	533
310.814	432
310.859	238
310.868	263
310.923	637
310.948	688
310.977	527
311.031	381
311.038	362
311.085	687
311.128	827
311.139	803
311.193	982
311.218	909
311.247	750
311.301	633
311.308	615
311.356	776
311.398	854
311.410	879
311.464	1017
311.488	1127
311.518	970
311.572	570
311.578	522
311.626	661
311.668	867
311.680	879
311.734	795
311.758	816
311.788	892
311.842	972
311.847	981
311.896	868
311.937	763
311.950	749
312.004	713
312.027	690
312.058	510
312.112	205
312.117	179
312.165	648
312.207	1057
312.297	464
312.386	440
312.476	570
312.566	1041
312.656	798
312.745	506
312.835	536
312.925	816
313.015	856
313.104	1054
313.194	1126
313.284	1084
313.374	840
313.463	655
313.553	976
313.643	538
313.732	1449
313.822	1327
313.912	988
314.001	1303
314.091	1378
314.180	466
314.270	743
314.360	1001
314.449	915
314.539	397
314.628	1286
314.718	790
314.808	1565
314.897	1364
314.987	2038
315.076	1550
315.166	1390
315.255	1412
315.345	1586
315.434	925
315.524	984
315.613	1330
315.703	1340
315.792	2171
315.881	5126
315.971	2572
316.060	1461
316.150	1412
316.239	1408
316.328	1295
316.418	1403
316.507	1310
316.597	1613
316.686	2337
316.775	742
316.865	876
316.954	922
317.043	949
317.133	1500
317.222	1336
317.311	364
317.400	611
317.490	2004
317.579	924
317.668	1537
317.757	1341
317.847	2562
317.936	7542
318.025	4970
318.114	1782
318.203	1804
318.293	1348
318.382	1263
318.471	2732
318.560	1994
318.649	1496
318.738	1516
318.828	1361
318.917	1081
319.006	991
319.095	1380
319.184	1294
319.273	961
319.362	531
319.451	540
319.540	1064
319.629	1070
319.718	913
319.807	850
319.896	1465
319.985	1575
320.074	976
320.163	1276
320.252	1162
320.341	997
320.430	1364
320.519	1032
320.608	845
320.697	1462
320.786	1759
320.875	2135
320.964	1485
321.053	2209
321.142	2495
321.230	2514
321.319	2333
321.408	1786
321.497	3555
321.586	2029
321.675	2105
321.764	2118
321.852	1753
321.941	1594
322.030	1656
322.119	1791
322.207	2903
322.296	2893
322.385	2492
322.474	3308
322.562	3896
322.651	3346
322.740	2445
322.829	2216
322.917	2103
323.006	2150
323.095	1980
323.183	1781
323.272	1424
323.361	1457
323.449	1845
323.538	1158
323.626	949
323.715	1043
323.804	608
323.892	1739
323.981	1312
324.069	828
324.158	1325
324.246	1245
324.335	719
324.424	1069
324.512	1907
324.601	708
324.689	1253
324.778	1552
324.866	379
324.954	-33
325.043	780
325.131	672
325.220	1158
325.308	1181
325.397	254
325.485	928
325.574	1526
325.662	1054
325.750	716
325.839	672
325.927	839
326.015	942
326.104	236
326.192	483
326.280	951
326.369	1290
326.457	638
326.545	71
326.634	668
326.722	1115
326.810	1769
326.898	1026
326.987	882
327.075	679
327.163	1421
327.251	1057
327.340	1320
327.428	980
327.516	1027
327.604	1100
327.692	1332
327.781	1350
327.869	985
327.957	-170
328.045	766
328.133	1104
328.221	155
328.309	58
328.397	851
328.485	158
328.574	1116
328.662	1471
328.750	1542
328.838	792
328.926	945
329.014	1344
329.102	571
329.190	1035
329.278	737
329.366	1225
329.454	632
329.542	570
329.630	1008
329.718	1247
329.806	785
329.893	1434
329.981	714
330.069	165
330.157	863
330.245	884
330.333	1433
330.421	903
330.509	488
330.597	958
330.684	294
330.772	1150
330.860	554
330.948	352
331.036	577
331.123	448
331.211	677
331.299	510
331.387	313
331.475	909
331.562	1099
331.650	1559
331.738	629
331.825	292
331.913	883
332.001	158
332.089	1585
332.176	736
332.264	542
332.352	596
332.439	906
332.527	1025
332.614	363
332.702	1006
332.790	1286
332.877	558
332.965	1015
333.052	-78
333.140	1205
333.228	823
333.315	589
333.403	1220
333.490	331
333.578	858
333.665	826
333.753	1489
333.840	1028
333.928	1045
334.015	1941
334.103	1465
334.190	2254
334.278	2327
334.365	4038
334.452	4217
334.540	2437
334.627	2096
334.715	2691
334.802	4225
334.889	6299
334.977	9162
335.064	8223
335.151	3844
335.239	2535
335.326	2247
335.413	2358
335.501	2219
335.588	1932
335.675	2000
335.762	2420
335.850	3523
335.937	4742
336.024	6993
336.111	11923
336.199	13616
336.286	7527
336.373	3653
336.460	2348
336.547	1444
336.635	1498
336.722	1312
336.809	1593
336.896	1141
336.983	1380
337.070	1761
337.157	1759
337.245	1000
337.332	1814
337.419	862
337.506	1367
337.593	1632
337.680	317
337.767	1573
337.854	854
337.941	987
338.028	534
338.115	1232
338.202	1044
338.289	1022
338.376	980
338.463	277
338.550	323
338.637	834
338.724	761
338.811	725
338.898	862
338.984	700
339.071	984
339.158	468
339.245	593
339.332	543
339.419	283
339.506	932
339.593	991
339.679	594
339.766	844
339.853	1226
339.940	529
340.027	1074
340.113	969
340.200	218
340.287	428
340.374	879
340.460	699
340.547	304
340.634	510
340.720	284
340.807	782
340.894	1529
340.980	583
341.067	736
341.154	1343
341.240	731
341.327	353
341.414	991
341.500	824
341.587	937
341.674	626
341.760	763
341.847	743
341.933	672
342.020	809
342.106	1111
342.193	246
342.279	732
342.366	1005
342.452	626
342.539	449
342.625	145
342.712	916
342.798	459
342.885	829
342.971	482
343.058	792
343.144	940
343.230	951
343.317	838
343.403	599
343.490	190
343.576	239
343.662	-79
343.749	784
343.835	624
343.921	972
344.008	650
344.094	1942
344.180	1353
344.267	432
344.353	654
344.439	853
344.525	454
344.612	532
344.698	596
344.784	564
344.870	236
344.957	645
345.043	289
345.129	-79
345.215	1402
345.301	467
345.387	-147
345.474	737
345.560	160
345.646	612
345.732	195
345.818	827
345.904	416
345.990	428
346.076	785
346.162	522
346.249	898
346.335	512
346.421	774
346.507	-484
346.593	1313
346.679	216
346.765	952
346.851	1081
346.937	1821
347.023	593
347.108	861
347.194	278
347.280	164
347.366	391
347.452	1241
347.538	2905
347.624	2040
347.710	813
347.796	450
347.882	485
347.967	570
348.053	526
348.139	154
348.225	539
348.311	128
348.397	574
348.482	913
348.568	776
348.654	1250
348.740	2960
348.825	3785
348.911	1939
348.997	1128
349.083	1829
349.168	463
349.254	520
349.340	1475
349.425	787
349.511	355
349.597	912
349.682	267
349.768	593
349.854	713
349.939	934
350.025	429
350.110	919
350.196	202
350.282	502
350.367	-166
350.453	770
350.538	1084
350.624	17
350.709	747
350.795	545
350.880	-160
350.966	964
351.051	236
351.137	346
351.222	792
351.308	896
351.393	313
351.479	277
351.564	208
351.649	560
351.735	677
351.820	913
351.906	1100
351.991	668
352.076	1020
352.162	1109
352.247	519
352.332	1306
352.418	222
352.503	239
352.588	625
352.673	179
352.759	-281
352.844	131
352.929	241
353.014	776
353.100	560
353.185	624
353.270	205
353.355	803
353.441	778
353.526	645
353.611	280
353.696	-161
353.781	996
353.866	-35
353.952	875
354.037	395
354.122	105
354.207	512
354.292	893
354.377	808
354.462	1121
354.547	375
354.632	376
354.717	198
354.802	-50
354.887	-293
354.972	599
355.057	565
355.142	-135
355.227	963
355.312	494
355.397	-646
355.482	53
355.567	815
355.652	-343
355.737	107
355.822	706
355.907	621
355.991	950
356.076	343
356.161	1068
356.246	995
356.331	-25
356.416	604
356.501	1154
356.585	1191
356.670	257
356.755	1291
356.840	47
356.924	693
357.009	1728
357.094	1260
357.179	695
357.263	881
357.348	1288
357.433	-181
357.517	1181
357.602	196
357.687	211
357.771	446
357.856	295
357.941	1211
358.025	981
358.110	2229
358.195	2020
358.279	968
358.364	619
358.448	658
358.533	539
358.617	1199
358.702	306
358.787	244
358.871	157
358.956	685
359.040	760
359.125	603
359.209	1176
359.294	1210
359.378	596
359.462	1496
359.547	1116
359.631	39
359.716	1029
359.800	510
359.885	643
359.969	-184
360.053	1307
360.138	-385
360.222	50
360.306	-178
360.391	597
360.475	800
360.559	1314
360.644	929
360.728	248
360.812	1003
360.896	1590
360.981	624
361.065	1051
361.149	888
361.233	723
361.318	1196
361.402	434
361.486	1111
361.570	1307
361.654	790
361.739	818
361.823	939
361.907	2241
361.991	1586
362.075	1820
362.159	1835
362.243	3072
362.327	8066
362.411	15488
362.495	8412
362.580	3062
362.664	1983
362.748	3505
362.832	3438
362.916	6984
363.000	19032
363.084	35307
363.168	18165
363.252	5534
363.336	3002
363.420	1761
363.503	2358
363.587	2321
363.671	1310
363.755	1399
363.839	1774
363.923	1807
364.007	2004
364.091	3190
364.175	4264
364.258	9877
364.342	21246
364.426	46878
364.510	35263
364.594	10435
364.677	4072
364.761	2785
364.845	2397
364.929	2083
365.013	869
365.096	1058
365.180	1103
365.264	814
365.347	1506
365.431	973
365.515	179
365.598	199
365.682	1057
365.766	745
365.849	1259
365.933	962
366.017	801
366.100	643
366.184	944
366.267	1254
366.351	1324
366.435	1147
366.518	764
366.602	876
366.685	1168
366.769	417
366.852	1122
366.936	737
367.019	1070
367.103	417
367.186	532
367.270	1332
367.353	495
367.436	1381
367.520	726
367.603	1050
367.687	1138
367.770	843
367.853	1010
367.937	186
368.020	88
368.104	377
368.187	335
368.270	579
368.353	258
368.437	212
368.520	223
368.603	225
368.687	138
368.770	483
368.853	575
368.936	447
369.020	77
369.103	106
369.186	382
369.269	367
369.352	610
369.436	633
369.519	683
369.602	-85
369.685	800
369.768	238
369.851	1099
369.934	771
370.018	151
370.101	47
370.184	1361
370.267	673
370.350	974
370.433	417
370.516	1278
370.599	3306
370.682	1442
370.765	1123
370.848	580
370.931	561
371.014	1401
371.097	208
371.180	668
371.263	231
371.346	52
371.429	191
371.511	433
371.594	141
371.677	708
371.760	1651
371.843	435
371.926	748
372.009	2798
372.091	2048
372.174	489
372.257	714
372.340	1323
372.423	46
372.505	1217
372.588	-91
372.671	962
372.754	251
372.836	230
372.919	1102
373.002	1037
373.085	804
373.167	912
373.250	397
373.332	1288
373.415	1399
373.498	2351
373.580	2918
373.663	3682
373.746	6306
373.828	1505
373.911	1629
373.993	603
374.076	1102
374.159	1179
374.241	897
374.324	459
374.406	1500
374.489	886
374.571	2230
374.654	1729
374.736	456
374.819	808
374.901	1920
374.983	2422
375.066	1498
375.148	1368
375.231	387
375.313	1372
375.395	1282
375.478	1537
375.560	715
375.643	1083
375.725	1431
375.807	2479
375.890	2129
375.972	890
376.054	650
376.136	565
376.219	-439
376.301	635
376.383	1509
376.465	907
376.548	652
376.630	564
376.712	63
376.794	1112
376.877	956
376.959	900
377.041	131
377.123	280
377.205	332
377.287	550
377.369	787
377.452	201
377.534	1332
377.616	874
377.698	266
377.780	483
377.862	1187
377.944	1260
378.026	61
378.108	625
378.190	90
378.272	894
378.354	1429
378.436	475
378.518	812
378.600	360
378.682	516
378.764	-155
378.846	795
378.928	474
379.010	238
379.091	851
379.173	867
379.255	169
379.337	36
379.419	301
379.501	699
379.583	713
379.664	553
379.746	28
379.828	538
379.910	270
379.991	1452
380.073	929
380.155	608
380.237	389
380.318	294
380.400	625
380.482	567
380.564	593
380.645	505
380.727	440
380.809	55
380.890	-500
380.972	257
381.053	695
381.135	131
381.217	12
381.298	580
381.380	919
381.461	218
381.543	401
381.624	567
381.706	105
381.787	768
381.869	-417
381.951	134
382.032	1367
382.113	2465
382.195	889
382.276	948
382.358	45
382.439	1134
382.521	1143
382.602	1666
382.684	1041
382.765	1099
382.846	1178
382.928	1557
383.009	1889
383.090	1575
383.172	2886
383.253	4620
383.334	2659
383.416	1178
383.497	675
383.578	1039
383.659	174
383.741	2131
383.822	7181
383.903	4422
383.984	189
384.066	1873
384.147	894
384.228	1041
384.309	1249
384.390	1081
384.471	1365
384.553	604
384.634	256
384.715	442
384.796	384
384.877	1023
384.958	1029
385.039	261
385.120	-290
385.201	572
385.282	-243
385.363	1002
385.444	540
385.525	1026
385.606	1430
385.687	1220
385.768	956
385.849	554
385.930	1688
386.011	2588
386.092	1140
386.173	1291
386.254	1576
386.335	833
386.416	1777
386.496	779
386.577	1446
386.658	1449
386.739	355
386.820	1581
386.901	883
386.981	1687
387.062	894
387.143	1798
387.224	1716
387.304	2963
387.385	2446
387.466	1790
387.547	2662
387.627	2320
387.708	2814
387.789	2720
387.869	1732
387.950	1731
388.031	2078
388.111	351
388.192	1472
388.273	1801
388.353	1957
388.434	1162
388.514	-328
388.595	1005
388.676	1434
388.756	1542
388.837	979
388.917	1255
388.998	521
389.078	845
389.159	336
389.239	798
389.320	1413
389.400	-242
389.480	1450
389.561	254
389.641	1456
389.722	723
389.802	212
389.883	825
389.963	1461
390.043	605
390.124	638
390.204	906
390.284	1207
390.365	718
390.445	952
390.525	1180
390.605	1218
390.686	965
390.766	1223
390.846	1428
390.927	529
391.007	743
391.087	1592
391.167	564
391.247	-592
391.328	1809
391.408	750
391.488	871
391.568	724
391.648	503
391.728	1432
391.808	1171
391.888	455
391.969	1249
392.049	1352
392.129	1720
392.209	1344
392.289	2187
392.369	1582
392.449	1757
392.529	1295
392.609	3010
392.689	2624
392.769	2546
392.849	3964
392.929	4021
393.009	5369
393.089	8203
393.169	14168
393.248	30973
393.328	85841
393.408	119545
393.488	58853
393.568	19861
393.648	10638
393.728	6125
393.807	4107
393.887	4243
393.967	3419
394.047	2585
394.127	1930
394.206	2381
394.286	2088
394.366	9846
394.446	17869
394.525	4669
394.605	1498
394.685	1241
394.764	1661
394.844	2531
394.924	4939
395.003	3072
395.083	900
395.163	1405
395.242	1014
395.322	724
395.402	-21
395.481	1534
395.561	1300
395.640	4045
395.720	11528
395.799	8064
395.879	1881
395.958	2084
396.038	2541
396.117	13234
396.197	24098
396.276	7535
396.356	2576
396.435	2578
396.515	4212
396.594	5209
396.673	10272
396.753	26781
396.832	82965
396.912	86840
396.991	28574
397.070	11318
397.150	4078
397.229	5584
397.308	6550
397.388	18238
397.467	12016
397.546	3346
397.625	1402
397.705	2684
397.784	1841
397.863	1541
397.942	1294
398.022	1282
398.101	350
398.180	1094
398.259	837
398.338	1031
398.417	-10
398.497	761
398.576	736
398.655	112
398.734	175
398.813	81
398.892	678
398.971	1280
399.050	464
399.129	254
399.208	152
399.287	698
399.366	-308
399.445	-104
399.524	333
399.603	385
399.682	968
399.761	-185
399.840	1501
399.919	502
399.998	555
400.077	-215
400.156	-556
400.235	960
400.313	115
400.392	-768
400.471	552
400.550	95
400.629	32
400.708	65
400.786	-285
400.865	-584
400.944	-486
401.023	1270
401.102	-182
401.180	-244
401.259	-295
401.338	-253
401.416	478
401.495	-774
401.574	306
401.652	-866
401.731	266
401.810	-80
401.888	-516
401.967	31
402.046	172
402.124	22
402.203	-412
402.281	-254
402.360	-766
402.438	-29
402.517	-524
402.596	376
402.674	-159
402.753	-137
402.831	158
402.910	268
402.988	-243
403.066	-493
403.145	-108
403.223	83
403.302	-89
403.380	94
403.459	394
403.537	-254
403.615	130
403.694	-521
403.772	418
403.850	-564
403.929	107
404.007	-676
404.085	890
404.164	589
404.242	-78
404.320	-290
404.398	1420
404.477	839
404.555	534
404.633	201
404.711	186
404.789	437
404.868	-318
404.946	-240
405.024	-388
405.102	-828
405.180	-553
405.258	-1807
405.336	284
405.415	-911
405.493	536
405.571	-100
405.649	50
405.727	-224
405.805	2
405.883	-294
405.961	-266
406.039	-98
406.117	-1283
406.195	-55
406.273	-1262
406.351	-123
406.429	7
406.507	-165
406.585	-729
406.663	216
406.740	-455
406.818	-1130
406.896	-471
406.974	187
407.052	-672
407.130	394
407.208	1
407.285	-900
407.363	-1049
407.441	-360
407.519	170
407.596	-326
407.674	-60
407.752	1866
407.830	3485
407.907	-207
407.985	-1192
408.063	646
408.141	-226
408.218	199
408.296	-1258
408.373	-807
408.451	180
408.529	1
408.606	-425
408.684	-170
408.762	-82
408.839	321
408.917	290
408.994	896
409.072	-29
409.149	-343
409.227	720
409.304	2973
409.382	3682
409.459	3076
409.537	4487
409.614	4365
409.692	3020
409.769	2805
409.846	4459
409.924	6565
410.001	3688
410.079	2689
410.156	2385
410.233	1447
410.311	1372
410.388	-190
410.465	1047
410.543	334
410.620	780
410.697	-216
410.775	568
410.852	403
410.929	1496
411.006	738
411.083	755
411.161	702
411.238	454
411.315	469
411.392	208
411.469	498
411.547	560
411.624	-369
411.701	-477
411.778	114
411.855	-64
411.932	-729
412.009	147
412.086	77
412.163	632
412.240	-1254
412.317	8
412.394	-173
412.471	-312
412.548	375
412.625	-310
412.702	-264
412.779	338
412.856	408
412.933	-790
413.010	-206
413.087	136
413.164	-506
413.241	259
413.318	-803
413.395	389
413.471	-182
413.548	-165
413.625	220
413.702	-529
413.779	69
413.855	33
413.932	-511
414.009	-653
414.086	-707
414.162	-94
414.239	-579
414.316	-129
414.393	-404
414.469	-671
414.546	-1306
414.623	-498
414.699	-946
414.776	42
414.853	-534
414.929	-83
415.006	-1463
415.082	-297
415.159	-183
415.236	-390
415.312	-545
415.389	-155
415.465	-764
415.542	-323
415.618	-1304
415.695	398
415.771	-1024
415.848	-875
415.924	-314
416.000	-400
416.077	-514
416.153	-1054
416.230	-1291
416.306	-620
416.383	-1033
416.459	-202
416.535	-922
416.612	-977
416.688	-535
416.764	-687
416.841	-1164
416.917	-439
416.993	-814
417.069	-376
417.146	-90
417.222	-230
417.298	-247
417.374	-368
417.451	-135
417.527	-559
417.603	-982
417.679	-980
417.755	-821
417.831	-886
417.908	-261
417.984	-142
418.060	-753
418.136	-791
418.212	-186
418.288	522
418.364	-165
418.440	-551
418.516	-213
418.592	-558
418.668	-629
418.744	-266
418.820	-251
418.896	-120
418.972	-1069
419.048	164
419.124	925
419.200	-560
419.276	136
419.352	-751
419.428	-28
419.504	-144
419.579	-313
419.655	-95
419.731	-437
419.807	398
419.883	-460
419.959	317
420.034	1152
420.110	577
420.186	287
420.262	907
420.337	1134
420.413	787
420.489	997
420.565	1033
420.640	947
420.716	1153
420.792	567
420.867	1889
420.943	496
421.019	1892
421.094	1282
421.170	2032
421.245	1492
421.321	2597
421.397	1959
421.472	4485
421.548	4209
421.623	5172
421.699	5320
421.774	4989
421.850	5150
421.925	6977
422.001	8925
422.076	10472
422.152	11556
422.227	15509
422.302	21120
422.378	27738
422.453	37710
422.529	54574
422.604	75721
422.679	71247
422.755	72633
422.830	72750
422.905	51038
422.981	38121
423.056	27949
423.131	22561
423.207	17340
423.282	12955
423.357	11375
423.432	9208
423.508	8596
423.583	6321
423.658	5428
423.733	4828
423.808	5291
423.883	4090
423.959	4736
424.034	4448
424.109	4601
424.184	3150
424.259	2493
424.334	2577
424.409	1893
424.484	1823
424.559	1375
424.634	1418
424.709	1347
424.784	1643
424.859	607
424.934	372
425.009	1014
425.084	954
425.159	631
425.234	810
425.309	606
425.384	1104
425.459	14
425.534	1234
425.609	8
425.683	677
425.758	777
425.833	652
425.908	779
425.983	-322
426.058	47
426.132	754
426.207	-222
426.282	693
426.357	-272
426.431	132
426.506	941
426.581	-89
426.655	487
426.730	-177
426.805	-289
426.879	234
426.954	-342
427.029	195
427.103	62
427.178	112
427.253	268
427.327	79
427.402	-359
427.476	-104
427.551	-556
427.625	291
427.700	-253
427.774	161
427.849	-140
427.923	8
427.998	150
428.072	134
428.147	1218
428.221	3181
428.296	21443
428.370	24144
428.444	4740
428.519	1177
428.593	-321
428.667	676
428.742	520
428.816	1574
428.890	9185
428.965	26715
429.039	13029
429.113	2362
429.188	-133
429.262	-222
429.336	-435
429.410	73
429.485	423
429.559	831
429.633	-271
429.707	638
429.781	1154
429.855	7913
429.930	24369
430.004	12220
430.078	2595
430.152	5818
430.226	24287
430.300	44254
430.374	17285
430.448	4491
430.522	861
430.596	619
430.670	2755
430.744	11955
430.818	27926
430.892	9905
430.966	957
431.040	-162
431.114	895
431.188	156
431.262	-562
431.336	-547
431.410	-753
431.484	-1088
431.557	-109
431.631	-538
431.705	-34
431.779	2843
431.853	19479
431.927	27611
432.000	7185
432.074	926
432.148	-685
432.222	72
432.295	6
432.369	-880
432.443	-1327
432.516	-176
432.590	-442
432.664	370
432.737	-1042
432.811	-1453
432.885	-842
432.958	-726
433.032	-727
433.106	-656
433.179	-932
433.253	-101
433.326	-1322
433.400	-676
433.473	-381
433.547	-617
433.620	-1492
433.694	-1221
433.767	-584
433.841	-1081
433.914	-334
433.988	-301
434.061	-869
434.134	-514
434.208	-534
434.281	-471
434.355	-936
434.428	-623
434.501	-390
434.575	-540
434.648	-932
434.721	-946
434.795	-914
434.868	-848
434.941	-742
435.014	-450
435.088	-546
435.161	-789
435.234	-942
435.307	120
435.381	-131
435.454	639
435.527	2125
435.600	3467
435.673	3186
435.746	1934
435.819	1265
435.892	618
435.966	812
436.039	-67
436.112	585
436.185	-560
436.258	-699
436.331	-698
436.404	202
436.477	-386
436.550	-630
436.623	-70
436.696	-468
436.769	-65
436.842	-98
436.915	-588
436.987	-396
437.060	-633
437.133	-245
437.206	-988
437.279	-239
437.352	-637
437.425	-348
437.498	-598
437.570	-348
437.643	-382
437.716	-683
437.789	76
437.861	-980
437.934	-553
438.007	-776
438.080	-879
438.152	-708
438.225	-6
438.298	-1134
438.370	583
438.443	818
438.516	66
438.588	-203
438.661	-567
438.734	-471
438.806	-586
438.879	244
438.951	-418
439.024	-794
439.096	-497
439.169	-529
439.241	-622
439.314	-411
439.386	-800
439.459	-28
439.531	30
439.604	-740
439.676	-13
439.749	-373
439.821	-190
439.893	103
439.966	-255
440.038	-672
440.110	32
440.183	-562
440.255	-1261
440.327	305
440.400	-277
440.472	-63
440.544	303
440.617	-224
440.689	677
440.761	-637
440.833	126
440.905	-84
440.978	-283
441.050	-442
441.122	-99
441.194	410
441.266	-265
441.338	-415
441.411	92
441.483	60
441.555	-188
441.627	402
441.699	-41
441.771	-543
441.843	-179
441.915	861
441.987	257
442.059	86
442.131	970
442.203	999
442.275	874
442.347	2492
442.419	3634
442.491	13741
442.563	45886
442.635	41966
442.706	13865
442.778	3429
442.850	2379
442.922	1572
442.994	1656
443.066	1329
443.137	2529
443.209	2720
443.281	4357
443.353	7205
443.425	18117
443.496	56766
443.568	85464
443.640	60191
443.711	23463
443.783	8678
443.855	4318
443.926	2550
443.998	2065
444.070	2017
444.141	1066
444.213	1000
444.285	1606
444.356	869
444.428	1309
444.499	1057
444.571	1175
444.642	372
444.714	875
444.785	870
444.857	1604
444.928	1620
445.000	2093
445.071	2569
445.143	2399
445.214	4946
445.285	6571
445.357	14612
445.428	35755
445.500	84597
445.571	86541
445.642	72229
445.714	39322
445.785	17681
445.856	6673
445.928	4279
445.999	2443
446.070	2053
446.141	1392
446.213	1345
446.284	276
446.355	415
446.426	440
446.497	455
446.569	429
446.640	-393
446.711	499
446.782	65
446.853	204
446.924	645
446.995	377
447.066	180
447.138	27
447.209	718
447.280	-679
447.351	164
447.422	-998
447.493	-449
447.564	-212
447.635	-612
447.706	-133
447.777	-30
447.847	-547
447.918	-625
447.989	-327
448.060	-53
448.131	-34
448.202	-445
448.273	24
448.344	-512
448.414	71
448.485	130
448.556	510
448.627	-432
448.698	130
448.768	-343
448.839	-489
448.910	-255
448.981	-124
449.051	-292
449.122	-512
449.193	-454
449.263	-694
449.334	-634
449.405	-293
449.475	-76
449.546	169
449.616	202
449.687	-109
449.758	-222
449.828	-293
449.899	-316
449.969	-882
450.040	-160
450.110	-348
450.181	-513
450.251	-168
450.322	-283
450.392	129
450.463	-647
450.533	-3
450.604	-213
450.674	-679
450.744	-626
450.815	182
450.885	266
450.955	499
451.026	294
451.096	-29
451.166	291
451.237	783
451.307	375
451.377	1033
451.447	-119
451.518	-686
451.588	-237
451.658	-270
451.728	63
451.799	-176
451.869	-537
451.939	-574
452.009	131
452.079	102
452.149	122
452.219	-326
452.289	51
452.360	201
452.430	13
452.500	85
452.570	1292
452.640	2915
452.710	7416
452.780	14641
452.850	12920
452.920	6620
452.990	3502
453.060	2507
453.129	406
453.199	349
453.269	167
453.339	518
453.409	875
453.479	253
453.549	667
453.619	439
453.688	316
453.758	813
453.828	-817
453.898	-55
453.968	-109
454.037	500
454.087	368
454.107	302
454.168	49
454.177	-7
454.247	-283
454.249	-263
454.316	-150
454.330	-98
454.386	28
454.411	-277
454.456	-838
454.492	-364
454.525	-10
454.574	386
454.595	578
454.655	-473
454.665	-670
454.734	182
454.736	208
454.804	367
454.817	422
454.873	565
454.898	455
454.943	281
454.979	353
455.013	334
455.060	574
455.082	668
455.141	645
455.152	633
455.221	608
455.222	629
455.291	852
455.303	796
455.360	460
455.384	1022
455.430	1790
455.465	1737
455.499	1727
455.546	1441
455.569	1239
455.627	851
455.638	786
455.707	1733
455.708	1746
455.777	887
455.789	922
455.846	1079
455.869	930
455.916	547
455.950	597
455.985	554
456.031	476
456.054	482
456.112	667
456.124	651
456.193	771
456.193	754
456.262	1398
456.274	1442
456.332	1536
456.355	1519
456.401	1291
456.436	1128
456.470	984
456.516	1346
456.540	1545
456.597	1548
456.609	1512
456.678	1492
456.678	1473
456.747	2181
456.759	2132
456.817	1734
456.840	1382
456.886	846
456.920	1208
456.955	1467
457.001	2206
457.024	2522
457.082	2017
457.093	1883
457.162	1654
457.163	1674
457.232	2357
457.243	2379
457.301	2383
457.324	2648
457.370	3253
457.405	3295
457.439	3108
457.485	3142
457.508	3371
457.566	4292
457.577	4468
457.646	5517
457.647	5561
457.715	11520
457.727	12799
457.784	25834
457.808	32566
457.853	40048
457.889	50305
457.922	47243
457.969	36810
457.991	40977
458.050	42794
458.060	44823
458.129	68469
458.130	69522
458.198	66642
458.211	64284
458.267	48113
458.292	34701
458.336	25359
458.372	20495
458.405	21745
458.453	28192
458.474	37433
458.533	67841
458.543	70742
458.611	104523
458.614	106208
458.680	74900
458.694	62747
458.749	41685
458.775	29684
458.818	17982
458.855	13430
458.887	10672
458.936	8486
458.955	7651
459.016	6095
459.024	5888
459.093	4899
459.097	4862
459.162	4580
459.177	4616
459.230	4448
459.257	4462
459.299	4633
459.338	4653
459.368	4459
459.418	4165
459.437	4133
459.499	4188
459.505	4193
459.574	4265
459.579	4280
459.643	4265
459.659	4209
459.711	4203
459.740	4400
459.780	4272
459.820	4227
459.849	4342
459.900	4270
459.917	4229
459.981	3775
459.986	3737
460.054	4389
460.061	4383
460.123	4085
460.141	4134
460.191	4220
460.222	4159
460.260	4176
460.302	4111
460.328	4113
460.382	4433
460.397	4599
460.462	5405
460.465	5464
460.534	6789
460.543	6883
460.602	15381
460.623	18903
460.671	33269
460.703	43724
460.739	38716
460.783	34642
460.808	29788
460.864	12236
460.876	11684
460.944	5263
460.945	5195
461.013	4568
461.024	4606
461.081	4541
461.104	4465
461.150	4645
461.184	4742
461.218	4712
461.264	4651
461.286	4574
461.345	4607
461.355	4607
461.423	4218
461.425	4217
461.491	4209
461.505	4244
461.559	4669
461.585	4758
461.628	4434
461.665	4211
461.696	4412
461.745	4835
461.764	4812
461.825	4754
461.832	4794
461.901	4616
461.905	4651
461.969	4723
461.985	4712
462.037	5211
462.065	5299
462.105	4912
462.145	4746
462.173	4636
462.225	4239
462.241	4281
462.305	4688
462.310	4709
462.378	4938
462.385	4971
462.446	4925
462.465	4846
462.514	4593
462.545	4578
462.582	4723
462.625	4766
462.650	4712
462.705	4629
462.718	4716
462.785	5121
462.786	5119
462.854	4754
462.865	4686
462.922	4727
462.945	4846
462.990	5252
463.025	5465
463.058	5314
463.104	5151
463.126	5215
463.184	5364
463.194	5264
463.262	4311
463.264	4289
463.330	4914
463.344	4975
463.398	5307
463.424	5424
463.466	5055
463.504	4983
463.533	5230
463.583	5304
463.601	5160
463.663	4946
463.669	4946
463.737	4667
463.743	4623
463.805	5306
463.823	5588
463.873	5269
463.903	5041
463.940	5302
463.982	5519
464.008	5347
464.062	4994
464.076	4925
464.142	4686
464.144	4701
464.211	4668
464.221	4753
464.279	5547
464.301	5631
464.347	5429
464.381	5502
464.414	5382
464.461	5074
464.482	5075
464.540	5063
464.550	5087
464.617	5203
464.620	5198
464.685	5397
464.699	5418
464.753	5596
464.779	5733
464.820	5972
464.859	6161
464.888	5994
464.938	5663
464.956	5675
465.018	5663
465.023	5691
465.091	5946
465.098	5969
465.158	5607
465.177	5482
465.226	5681
465.257	5787
465.293	5878
465.336	5863
465.361	5755
465.416	5698
465.428	5823
465.495	6233
465.496	6243
465.563	6377
465.575	6383
465.631	6308
465.654	6263
465.698	6302
465.734	6286
465.765	6256
465.813	6258
465.833	6292
465.893	6265
465.900	6196
465.968	5544
465.972	5490
466.035	5430
466.052	5407
466.102	5626
466.131	5660
466.170	5726
466.210	5853
466.237	5770
466.290	5559
466.304	5772
466.369	6671
466.372	6666
466.439	6174
466.449	6077
466.506	6246
466.528	6299
466.573	6307
466.607	6279
466.641	6872
466.687	7712
466.708	7577
466.766	7107
466.775	7035
466.842	6399
466.845	6357
466.909	6785
466.925	6873
466.977	6748
467.004	6667
467.044	6944
467.083	7211
467.111	7347
467.163	7535
467.178	7475
467.242	7169
467.245	7185
467.312	7267
467.321	7266
467.379	7643
467.400	7757
467.446	7869
467.480	7923
467.559	8147
467.638	7732
467.717	7582
467.796	8407
467.875	8102
467.955	8674
468.034	8551
468.113	10178
468.192	12503
468.271	13195
468.350	19288
468.429	26245
468.508	28630
468.588	19781
468.667	12395
468.746	9915
468.825	9209
468.904	8521
468.983	8255
469.062	7754
469.141	7339
469.220	7669
469.299	6523
469.378	7533
469.456	7243
469.535	7448
469.614	6722
469.693	7318
469.772	8380
469.851	7558
469.930	7519
470.009	7776
470.088	7914
470.166	7860
470.245	8687
470.324	7901
470.403	8070
470.482	7301
470.560	7560
470.639	7828
470.718	7502
470.797	7403
470.875	7014
470.954	6622
471.033	6791
471.111	6660
471.190	7086
471.269	8349
471.347	7497
471.426	8181
471.505	6910
471.583	7898
471.662	7043
471.740	7954
471.819	6848
471.898	7405
471.976	8131
472.055	7503
472.133	8374
472.212	7866
472.290	7883
472.369	7390
472.447	7111
472.526	6489
472.604	6930
472.683	6638
472.761	7546
472.839	7042
472.918	7556
472.996	6934
473.075	7281
473.153	7387
473.231	7015
473.310	7791
473.388	8354
473.466	7996
473.545	7202
473.623	7904
473.701	7251
473.780	8279
473.858	7115
473.936	7857
474.014	8426
474.093	9022
474.171	8757
474.249	9450
474.327	7854
474.405	7439
474.484	7381
474.562	8102
474.640	6970
474.718	7412
474.796	7155
474.874	8063
474.952	6861
475.030	6872
475.108	7203
475.187	8129
475.265	7771
475.343	7254
475.421	7483
475.499	7243
475.577	7675
475.655	7516
475.733	6731
475.811	7979
475.889	7414
475.966	7514
476.044	6848
476.122	7254
476.200	7285
476.278	6968
476.356	6765
476.434	7333
476.512	6797
476.590	7541
476.667	7785
476.745	8035
476.823	7590
476.901	7080
476.979	7149
477.056	7041
477.134	6524
477.212	7948
477.290	7087
477.367	7253
477.445	7488
477.523	6336
477.601	6704
477.678	6703
477.756	7737
477.834	6600
477.911	6453
477.989	6776
478.066	6937
478.144	6882
478.222	7305
478.299	6910
478.377	7328
478.454	7370
478.532	7207
478.609	7107
478.687	7462
478.764	7355
478.842	7012
478.919	7609
478.997	7040
479.074	6799
479.152	7062
479.229	6989
479.307	7151
479.384	6575
479.461	6397
479.539	6804
479.616	7100
479.694	6535
479.771	6951
479.848	6869
479.926	6085
480.003	8053
480.080	6174
480.157	7051
480.235	7277
480.312	7079
480.389	7732
480.467	7640
480.544	7355
480.621	7415
480.698	8025
480.775	7971
480.853	7441
480.930	6827
481.007	7126
481.084	8569
481.161	10420
481.238	9087
481.315	6719
481.392	6966
481.470	6803
481.547	6449
481.624	7266
481.701	7324
481.778	7441
481.855	7664
481.932	7730
482.009	8673
482.086	9091
482.163	9383
482.240	10070
482.317	10383
482.393	8327
482.470	8854
482.547	8330
482.624	8432
482.701	7363
482.778	7880
482.855	8077
482.932	8057
483.009	8534
483.085	10138
483.162	11034
483.239	11858
483.316	10972
483.393	11295
483.469	9282
483.546	8920
483.623	8448
483.699	7982
483.776	7653
483.853	7347
483.930	7083
484.006	8076
484.083	9078
484.160	8848
484.236	9987
484.313	10297
484.389	10035
484.466	11134
484.543	12175
484.619	15460
484.696	17498
484.772	13331
484.849	10175
484.925	9260
485.002	9196
485.078	8593
485.155	7958
485.231	7498
485.308	7325
485.384	7896
485.461	8251
485.537	8203
485.614	8515
485.690	7515
485.766	7129
485.843	8249
485.919	7525
485.995	7623
486.072	7763
486.148	7759
486.224	6596
486.301	7281
486.377	7700
486.453	8130
486.530	7835
486.606	8796
486.682	8507
486.758	8880
486.835	8122
486.911	8174
486.987	8786
487.063	9504
487.139	9887
487.215	12298
487.292	12965
487.368	14052
487.444	17858
487.520	24554
487.596	37826
487.672	71142
487.748	215468
487.824	411826
487.900	164369
487.976	45492
488.052	24545
488.128	16492
488.204	13796
488.280	11626
488.356	10221
488.432	10091
488.508	10052
488.584	8527
488.660	7936
488.736	8838
488.812	6801
488.888	8634
488.964	7207
489.039	8011
489.115	8074
489.191	8173
489.267	7288
489.343	7198
489.418	7080
489.494	7576
489.570	7089
489.646	7716
489.722	5937
489.797	7425
489.873	7156
489.949	7355
490.024	7797
490.100	6953
490.176	7378
490.251	6886
490.327	7599
490.403	7440
490.478	7344
490.554	7554
490.629	7283
490.705	7364
490.781	6978
490.856	7070
490.932	6553
491.007	8502
491.083	6541
491.158	6092
491.234	6637
491.309	7088
491.385	6071
491.460	5806
491.536	6578
491.611	6478
491.686	6374
491.762	6499
491.837	6269
491.913	6407
491.988	6420
492.063	6936
492.139	6428
492.214	6087
492.289	6373
492.365	5764
492.440	6196
492.515	6309
492.590	6267
492.666	5926
492.741	5847
492.816	5599
492.891	5517
492.967	6135
493.042	6503
493.117	6129
493.192	5882
493.267	6493
493.342	8804
493.418	11639
493.493	5183
493.568	6273
493.643	5429
493.718	6317
493.793	4581
493.868	5395
493.943	6025
494.018	5800
494.093	5915
494.168	5886
494.243	5851
494.318	5856
494.393	5438
494.468	5932
494.543	5107
494.618	5248
494.693	5536
494.768	5142
494.842	4867
494.917	5460
494.992	5155
495.067	5341
495.142	5966
495.217	5739
495.292	4708
495.366	4876
495.441	5484
495.516	5158
495.591	5568
495.665	6329
495.740	6388
495.815	5163
495.890	5577
495.964	5157
496.039	5894
496.114	5537
496.188	8589
496.263	7094
496.338	6062
496.412	5907
496.487	4611
496.561	5806
496.636	5301
496.710	5974
496.785	5118
496.860	4296
496.934	4923
497.009	4876
497.083	5363
497.158	5598
497.232	5374
497.307	4573
497.381	4706
497.455	5275
497.530	5352
497.604	5367
497.679	6207
497.753	5150
497.827	5400
497.902	5304
497.976	5471
498.050	6632
498.125	9931
498.199	12576
498.273	5186
498.348	4619
498.422	4556
498.496	4027
498.570	5177
498.645	4794
498.719	4591
498.793	4929
498.867	4772
498.941	4824
499.016	5796
499.090	10111
499.164	7047
499.238	4989
499.312	4918
499.386	4306
499.460	5297
499.534	5959
499.609	5581
499.683	5668
499.757	5075
499.831	5791
499.905	7696
499.979	9092
500.053	5388
500.127	5253
500.201	5018
500.275	6460
500.349	4544
500.422	4872
500.496	6094
500.570	5495
500.644	6801
500.718	9135
500.792	6037
500.866	5217
500.940	5381
501.013	5693
501.087	4816
501.161	5309
501.235	5281
501.309	6853
501.382	7054
501.456	7958
501.530	5424
501.603	5187
501.677	4757
501.751	4123
501.825	5240
501.898	5380
501.972	5571
502.046	6504
502.119	4532
502.193	4951
502.266	5235
502.340	5707
502.413	4168
502.487	5044
502.561	4452
502.634	5840
502.708	5839
502.781	5124
502.855	4988
502.928	5033
503.002	5043
503.075	5465
503.149	4677
503.222	5751
503.295	5359
503.369	5777
503.442	4789
503.516	7569
503.589	8218
503.662	8818
503.736	9490
503.809	12600
503.882	17811
503.956	25417
504.029	45219
504.102	122431
504.175	224763
504.249	99140
504.322	34755
504.395	19000
504.468	12760
504.542	10038
504.615	8097
504.688	7341
504.761	6368
504.834	5620
504.907	5736
504.980	5324
505.053	4834
505.127	4064
505.200	5479
505.273	5323
505.346	4611
505.419	4168
505.492	5409
505.565	4637
505.638	4347
505.711	4266
505.784	4436
505.857	4483
505.930	4438
506.003	3657
506.076	4470
506.149	4499
506.221	4675
506.294	4591
506.367	4256
506.440	5041
506.513	5229
506.586	4296
506.659	3556
506.731	3914
506.804	4147
506.877	4231
506.950	3539
507.022	3887
507.095	3642
507.168	4260
507.241	3361
507.313	3951
507.386	3177
507.459	4534
507.531	2900
507.604	3939
507.677	3299
507.749	3599
507.822	4242
507.894	3825
507.967	4447
508.040	4828
508.112	4090
508.185	5190
508.257	3503
508.330	4977
508.402	3961
508.475	5079
508.547	4173
508.620	3548
508.692	3523
508.765	4443
508.837	3386
508.909	4621
508.982	3855
509.054	3993
509.127	3277
509.199	3904
509.271	4101
509.344	3359
509.416	3981
509.488	3900
509.560	3998
509.633	4218
509.705	2879
509.777	3193
509.849	4223
509.922	2973
509.994	3499
510.066	3654
510.138	3182
510.210	4983
510.283	4772
510.355	4944
510.427	3348
510.499	4406
510.571	4058
510.643	4029
510.715	3968
510.787	4229
510.859	3752
510.931	3924
511.003	4255
511.076	4073
511.148	3743
511.219	3799
511.291	3937
511.363	4517
511.435	4281
511.507	3900
511.579	4114
511.651	4039
511.723	4047
511.795	4746
511.867	4010
511.939	3984
512.010	3653
512.082	3730
512.154	3286
512.226	4037
512.298	3702
512.369	4775
512.441	4715
512.513	4652
512.585	4068
512.656	4557
512.728	3155
512.800	4242
512.871	3702
512.943	4124
513.015	3632
513.086	3431
513.158	3505
513.230	4224
513.301	3401
513.373	4680
513.444	3239
513.516	4351
513.588	4077
513.659	3666
513.731	3994
513.802	3944
513.874	3354
513.945	3835
514.016	3554
514.088	4338
514.159	3647
514.231	3922
514.302	4329
514.374	4526
514.445	3847
514.516	5101
514.588	4352
514.659	4697
514.730	3955
514.802	5156
514.873	3018
514.944	5249
515.016	4187
515.087	3636
515.158	3497
515.229	4663
515.301	4043
515.372	3467
515.443	4170
515.514	3843
515.585	3712
515.656	4224
515.728	3876
515.799	3874
515.870	4033
515.941	4493
516.012	3771
516.083	4638
516.154	3798
516.225	4870
516.296	4346
516.367	4882
516.438	4041
516.509	4830
516.580	5517
516.651	7104
516.722	16814
516.793	11088
516.864	5343
516.935	5854
517.006	5085
517.077	6046
517.148	8149
517.219	20544
517.289	41893
517.360	10272
517.431	6461
517.502	4495
517.573	5085
517.643	4791
517.714	4977
517.785	5295
517.856	5354
517.926	6166
517.997	6581
518.068	6944
518.138	7891
518.209	9839
518.280	18402
518.350	63343
518.421	38231
518.492	17546
518.562	19657
518.633	27843
518.703	41707
518.774	83701
518.845	214785
518.915	258333
518.986	78969
519.056	29868
519.127	18165
519.197	13248
519.268	11544
519.338	10272
519.408	7183
519.479	6273
519.549	5606
519.620	6200
519.690	5347
519.760	5686
519.831	4910
519.901	5460
519.971	5486
520.042	5008
520.112	4458
520.182	4916
520.253	4769
520.323	3716
520.393	4810
520.463	5146
520.534	3522
520.604	5027
520.674	4520
520.744	3913
520.814	4866
520.885	4883
520.955	4015
521.025	5945
521.095	4616
521.165	4801
521.235	4248
521.305	4262
521.375	3848
521.445	4727
521.515	4028
521.585	4858
521.655	3544
521.725	4840
521.795	3945
521.865	4334
521.935	4686
522.005	4259
522.075	3980
522.145	4239
522.215	4096
522.285	4777
522.355	4321
522.424	4417
522.494	4588
522.564	4961
522.634	4093
522.704	5092
522.774	4095
522.843	4708
522.913	3829
522.983	5531
523.053	4222
523.122	4938
523.192	3637
523.262	4586
523.331	4359
523.401	5122
523.471	4072
523.540	5382
523.610	4438
523.680	4763
523.749	6259
523.819	5903
523.888	5372
523.958	4617
524.027	5043
524.097	4548
524.166	5494
524.236	5288
524.305	5448
524.375	5123
524.444	4063
524.514	5256
524.583	6062
524.653	4937
524.722	5636
524.791	4308
524.861	6145
524.930	5531
524.999	5376
525.069	6045
525.138	5582
525.207	5859
525.277	6437
525.346	5943
525.415	6841
525.484	7912
525.554	8074
525.623	9586
525.692	11281
525.761	14629
525.830	17386
525.900	24227
525.969	37199
526.038	75640
526.107	121271
526.176	377514
526.245	375438
526.314	109740
526.383	175282
526.452	304937
526.522	306014
526.591	396864
526.660	77017
526.729	42113
526.797	43070
526.867	57603
526.935	122482
527.004	435873
527.073	419513
527.142	69693
527.211	27625
527.280	17563
527.349	13832
527.418	10704
527.487	9322
527.555	8846
527.624	6976
527.693	7707
527.762	8078
527.831	7321
527.899	7246
527.968	7037
528.037	5208
528.106	6732
528.174	7180
528.243	5575
528.312	6008
528.380	5592
528.449	5117
528.518	7145
528.586	4798
528.655	6147
528.723	5508
528.792	4908
528.861	5399
528.929	6149
528.998	5721
529.066	6040
529.135	5748
529.203	6309
529.272	5684
529.340	8811
529.409	7703
529.477	6515
529.545	5789
529.614	7354
529.682	6859
529.751	7583
529.819	9198
529.887	7922
529.956	8100
530.024	8163
530.092	7090
530.161	8328
530.229	7843
530.297	7750
530.365	8550
530.434	8731
530.502	8343
530.570	7957
530.638	6107
530.707	8154
530.775	8398
530.843	6739
530.911	7828
530.979	7655
531.047	8010
531.115	8183
531.183	7408
531.252	7758
531.320	7242
531.388	7771
531.456	8047
531.524	7929
531.592	8936
531.660	9044
531.728	8860
531.796	8086
531.864	8084
531.932	8938
532.000	8467
532.067	9435
532.135	9054
532.203	10369
532.271	11337
532.339	11486
532.407	10182
532.475	11839
532.542	10003
532.610	9881
532.678	10185
532.746	12598
532.814	11567
532.881	11915
532.949	10839
533.017	10319
533.084	9005
533.152	10603
533.220	9523
533.287	10312
533.355	9540
533.423	10794
533.490	10885
533.558	10165
533.625	10446
533.693	10474
533.761	10312
533.828	11146
533.896	9847
533.963	11650
534.031	11599
534.098	13563
534.166	16432
534.233	15883
534.300	16044
534.368	16850
534.435	15457
534.503	16918
534.570	17360
534.637	19458
534.705	24110
534.772	27353
534.840	41693
534.907	132363
534.974	251605
535.041	45551
535.109	19804
535.176	16941
535.243	16201
535.310	15744
535.378	14417
535.445	14572
535.512	15357
535.579	14306
535.646	14148
535.714	15516
535.781	15841
535.848	15920
535.915	15836
535.982	14556
536.049	14420
536.116	16063
536.183	15664
536.250	14459
536.317	13703
536.384	15955
536.451	16120
536.518	15232
536.585	14509
536.652	16760
536.719	15064
536.786	14832
536.853	15026
536.920	15519
536.987	15611
537.053	14585
537.120	16518
537.187	17507
537.254	17393
537.321	16348
537.388	17974
537.454	17151
537.521	16398
537.588	16635
537.654	17018
537.721	17205
537.788	18972
537.855	16615
537.921	17289
537.988	15595
538.055	15908
538.121	15030
538.188	13798
538.254	13471
538.321	13964
538.388	16137
538.454	18115
538.521	18937
538.587	18911
538.654	18288
538.720	17100
538.787	17422
538.853	16799
538.920	17080
538.986	15672
539.053	15519
539.119	15941
539.185	16843
539.252	16233
539.318	16759
539.385	19014
539.451	18229
539.517	17385
539.583	18221
539.650	17011
539.716	17647
539.782	15592
539.849	16161
539.915	16978
539.981	16241
540.047	15882
540.114	15771
540.180	17337
540.246	17687
540.312	18633
540.378	17420
540.444	18172
540.510	17854
540.576	18175
540.643	16723
540.709	15376
540.775	17076
540.841	16945
540.907	16226
540.973	16454
541.039	16117
541.105	17334
541.171	17744
541.237	19059
541.303	18778
541.369	19409
541.435	19057
541.500	17033
541.566	15413
541.632	16208
541.698	16737
541.764	18420
541.830	17559
541.896	16539
541.961	17091
542.027	16819
542.093	18365
542.159	19020
542.224	17135
542.290	16622
542.356	15874
542.421	16426
542.487	16844
542.553	16050
542.618	17032
542.684	16508
542.750	17286
542.815	17409
542.881	17382
542.947	17747
543.012	18486
543.078	16975
543.143	15174
543.209	16729
543.274	16329
543.340	16256
543.405	16587
543.471	16328
543.536	17674
543.602	16527
543.667	16292
543.732	17129
543.798	17586
543.863	17929
543.928	17842
543.994	16768
544.059	16806
544.124	17874
544.190	18276
544.255	18157
544.320	19164
544.386	18255
544.451	19515
544.516	18915
544.581	18139
544.646	19331
544.712	21492
544.777	19728
544.842	19738
544.907	19621
544.972	19916
545.037	20946
545.102	21532
545.168	21065
545.233	21887
545.298	21859
545.363	22065
545.428	22602
545.493	23043
545.558	22436
545.623	23170
545.688	23377
545.753	24274
545.818	24827
545.883	25940
545.947	27187
546.012	26852
546.077	27334
546.142	30083
546.207	29835
546.272	32363
546.337	32935
546.401	34944
546.466	35464
546.531	37359
546.596	39411
546.661	41439
546.725	42707
546.790	46078
546.855	50339
546.919	54144
546.984	61083
547.049	65280
547.113	72222
547.178	82718
547.243	92021
547.307	105769
547.372	118525
547.436	122159
547.501	123886
547.565	135442
547.630	127387
547.695	119343
547.759	121396
547.823	121745
547.888	124385
547.952	128502
548.017	131607
548.081	136479
548.146	134674
548.210	136597
548.274	145610
548.339	148495
548.403	135481
548.468	125825
548.532	124580
548.596	126849
548.660	126505
548.725	135477
548.789	147819
548.853	148838
548.917	138331
548.982	137295
549.046	125524
549.110	114121
549.174	113668
549.238	130572
549.303	144080
549.367	150214
549.431	144224
549.495	135324
549.559	134636
549.623	149876
549.687	170147
549.751	161849
549.815	187988
549.879	198959
549.943	188633
550.007	194950
550.071	198020
550.135	182817
550.199	167908
550.263	170511
550.327	160346
550.391	159044
550.455	176236
550.519	186232
550.582	196269
550.646	215936
550.710	222323
550.774	219546
550.838	220854
550.901	225654
550.965	238062
551.029	245104
551.093	257173
551.156	267421
551.220	281108
551.284	297236
551.347	262952
551.411	239666
551.475	227029
551.538	235516
551.602	230748
551.666	216293
551.729	208659
551.793	202338
551.856	201155
551.920	196466
551.983	198131
552.047	194748
552.110	193757
552.174	196443
552.237	203944
552.301	191509
552.364	182284
552.428	176462
552.491	178901
552.554	185239
552.618	183342
552.681	186849
552.745	181819
552.808	181572
552.871	191899
552.934	188132
552.998	184610
553.061	180800
553.124	176591
553.187	174260
553.251	180662
553.314	180623
553.377	180789
553.440	191357
553.503	198151
553.567	205042
553.630	196072
553.693	194592
553.756	197637
553.819	195152
553.882	190116
553.945	189099
554.008	191328
554.071	190362
554.134	195294
554.197	186418
554.260	183750
554.323	183153
554.386	186876
554.449	192303
554.512	192137
554.575	184774
554.638	183450
554.701	181884
554.764	181807
554.827	177973
554.889	171628
554.952	164501
555.015	159173
555.078	160545
555.141	161839
555.203	160306
555.266	158286
555.329	158584
555.391	153280
555.454	149068
555.517	142667
555.580	139628
555.642	134886
555.705	131713
555.768	130864
555.830	129067
555.893	123914
555.955	120030
556.018	116891
556.080	116161
556.143	119451
556.206	118181
556.268	114430
556.330	112466
556.393	108266
556.455	107499
556.518	102652
556.580	102147
556.643	97903
556.705	94883
556.767	93020
556.830	93846
556.892	89779
556.955	88274
557.017	86558
557.079	84742
557.142	82450
557.204	81911
557.266	79985
557.328	76026
557.391	71746
557.453	69247
557.515	67873
557.577	69404
557.639	69123
557.701	68947
557.764	67295
557.826	67859
557.888	68006
557.950	70383
558.012	73314
558.074	80611
558.136	112447
558.198	254073
558.260	155532
558.322	67570
558.384	64314
558.446	66587
558.508	68802
558.570	75121
558.632	82583
558.694	99870
558.756	132169
558.818	249830
558.880	559143
558.942	348700
559.003	265984
559.065	194778
559.127	80627
559.189	74662
559.251	79639
559.312	95052
559.374	153045
559.436	390169
559.498	331406
559.559	95043
559.621	74341
559.683	76867
559.744	99843
559.806	203181
559.868	388778
559.929	146035
559.991	79616
560.052	95540
560.114	217326
560.176	208527
560.237	124915
560.299	240151
560.360	93672
560.422	39723
560.483	34537
560.545	32840
560.606	29691
560.667	30177
560.729	29159
560.790	27258
560.852	26868
560.913	26862
560.974	26290
561.036	25259
561.097	25728
561.158	25540
561.220	26153
561.281	23172
561.342	23209
561.403	24198
561.465	23481
561.526	23713
561.587	23179
561.648	21515
561.709	22559
561.771	20778
561.832	21338
561.893	20378
561.954	20904
562.015	20232
562.076	20413
562.137	19101
562.198	19619
562.259	20143
562.320	19132
562.381	20613
562.442	19194
562.503	19536
562.564	19696
562.625	18000
562.686	18421
562.747	18849
562.808	17611
562.869	17768
562.930	17683
562.991	17248
563.051	16892
563.112	17133
563.173	16865
563.234	15413
563.294	16912
563.355	16106
563.416	16773
563.477	16487
563.537	16535
563.598	17088
563.659	16589
563.720	16174
563.780	16521
563.841	15840
563.901	16295
563.962	15856
564.023	15085
564.083	16217
564.144	15295
564.204	15327
564.265	15574
564.325	15261
564.386	14150
564.446	15312
564.507	14067
564.567	15369
564.628	13897
564.688	14613
564.749	14062
564.809	15023
564.869	15233
564.930	14455
564.990	15054
565.050	14261
565.111	14655
565.171	14095
565.231	13721
565.292	15733
565.352	14239
565.412	15294
565.472	14513
565.532	14724
565.593	14549
565.653	14438
565.713	14289
565.773	14392
565.833	14248
565.893	15711
565.953	12817
566.013	13588
566.074	13141
566.134	14488
566.194	13166
566.254	13761
566.314	13639
566.374	13520
566.434	13280
566.494	13905
566.554	13876
566.614	13476
566.673	13918
566.733	14439
566.793	14164
566.853	15083
566.913	14419
566.973	14549
567.033	14663
567.092	13343
567.152	13724
567.212	13742
567.272	14355
567.331	15242
567.391	14496
567.451	15977
567.511	15858
567.570	16144
567.630	14949
567.690	14484
567.749	14111
567.809	14170
567.868	14368
567.928	13992
567.988	13957
568.047	13769
568.107	13922
568.166	14933
568.226	14544
568.285	14667
568.345	14282
568.404	14772
568.464	14201
568.523	14093
568.582	14166
568.642	13944
568.701	13610
568.761	13594
568.820	13288
568.879	14052
568.939	13262
568.998	13808
569.057	14091
569.116	14007
569.176	12834
569.235	13661
569.294	13921
569.353	14683
569.413	13388
569.472	13702
569.531	13093
569.590	13231
569.649	13619
569.708	13742
569.767	13780
569.827	12981
569.886	12294
569.945	13283
570.004	14425
570.063	14384
570.122	12788
570.181	14760
570.240	13498
570.299	15110
570.358	15133
570.417	15799
570.475	14632
570.534	16092
570.593	14730
570.652	14459
570.711	14477
570.770	14151
570.829	14198
570.887	14385
570.946	13977
571.005	15185
571.064	14109
571.122	14230
571.181	13028
571.240	13727
571.299	13372
571.357	13914
571.416	13339
571.475	13107
571.533	13716
571.592	15194
571.650	15273
571.709	14107
571.768	16498
571.826	16949
571.885	15775
571.943	15771
572.002	14493
572.060	15477
572.119	13819
572.177	14408
572.236	13646
572.294	14697
572.352	15594
572.411	14989
572.469	14381
572.528	14998
572.586	13754
572.644	13546
572.703	14096
572.761	13345
572.819	12632
572.877	13033
572.936	13528
572.994	13181
573.052	12404
573.110	12880
573.169	13176
573.227	13169
573.285	13610
573.343	13536
573.401	13356
573.459	12987
573.517	12823
573.576	13780
573.634	12494
573.692	12539
573.750	13132
573.808	13694
573.866	12623
573.924	13181
573.982	12160
574.040	12247
574.098	12822
574.155	11745
574.213	12167
574.271	11731
574.329	12879
574.387	12764
574.445	11653
574.503	11087
574.560	11176
574.618	11680
574.676	11529
574.734	11247
574.792	12053
574.849	11100
574.907	9891
574.965	9868
575.022	9508
575.080	9662
575.138	9754
575.195	9657
575.253	10716
575.311	10352
575.368	9769
575.426	9793
575.483	9386
575.541	10045
575.598	10166
575.656	10015
575.713	9050
575.771	10026
575.828	9932
575.886	9989
575.943	9002
576.001	8521
576.058	8843
576.115	8533
576.173	8796
576.230	9365
576.287	8902
576.345	9659
576.402	8974
576.459	9955
576.517	9204
576.574	9438
576.631	9172
576.688	9437
576.746	8842
576.803	9798
576.860	8333
576.917	8965
576.974	8481
577.031	9950
577.089	9533
577.146	8323
577.203	8260
577.260	8005
577.317	8594
577.374	7875
577.431	8569
577.488	8376
577.545	7857
577.602	9453
577.659	7971
577.716	9537
577.773	9069
577.830	8944
577.886	8451
577.943	8361
578.000	8192
578.057	8254
578.114	8840
578.171	8805
578.227	8277
578.284	8927
578.341	8186
578.398	8928
578.454	8362
578.511	8774
578.568	8073
578.625	8621
578.681	8610
578.738	8516
578.794	7956
578.851	8566
578.908	8629
578.964	8322
579.021	9662
579.077	8565
579.134	8844
579.190	8532
579.247	8370
579.303	9545
579.360	8611
579.416	9143
579.473	8751
579.529	8575
579.586	8713
579.642	8535
579.698	9263
579.755	7776
579.811	7799
579.867	9233
579.924	8868
579.980	9113
580.036	9253
580.093	9254
580.149	9499
580.205	9590
580.261	8834
580.317	9482
580.374	9782
580.430	9770
580.486	9825
580.542	9611
580.598	9721
580.619	9597
580.654	9393
580.692	9121
580.710	9001
580.765	10211
580.767	10262
580.823	9779
580.838	9930
580.879	10373
580.911	10270
580.935	10220
580.984	9642
580.991	9571
581.047	9432
581.057	9519
581.103	9952
581.130	9801
581.159	9667
581.203	9669
581.215	9686
581.270	9562
581.276	9476
581.326	8706
581.349	9021
581.382	9525
581.422	9532
581.438	9527
581.494	9194
581.494	9191
581.550	9685
581.567	9549
581.606	9278
581.640	8909
581.661	8680
581.713	9322
581.717	9381
581.773	9328
581.786	9345
581.829	9507
581.859	9099
581.885	8681
581.932	9574
581.940	9770
581.996	9705
582.004	9675
582.052	9447
582.077	9213
582.107	8921
582.150	8680
582.163	8639
582.219	9558
582.223	9544
582.274	9315
582.296	9254
582.330	9223
582.368	9127
582.386	9078
582.441	9249
582.441	9253
582.497	8821
582.514	8908
582.552	8994
582.587	9053
582.608	9150
582.659	9494
582.663	9525
582.719	9693
582.732	9743
582.774	9701
582.805	9567
582.830	9560
582.877	9671
582.885	9686
582.941	9243
582.950	9456
582.996	10566
583.023	10285
583.052	9949
583.095	9731
583.107	9665
583.162	9148
583.168	9256
583.218	10339
583.240	9945
583.273	9355
583.313	9294
583.328	9268
583.384	8637
583.385	8668
583.439	9501
583.458	9246
583.494	8837
583.531	8948
583.549	8982
583.603	8436
583.605	8418
583.660	8609
583.676	8650
583.715	8849
583.748	9351
583.770	9657
583.820	9374
583.825	9348
583.881	9259
583.893	9213
583.936	8947
583.965	8737
583.991	8501
584.038	8803
584.046	8926
584.101	9457
584.110	9479
584.156	9332
584.183	9235
584.211	9130
584.255	9387
584.266	9464
584.321	9825
584.328	9767
584.376	9236
584.400	9216
584.431	9145
584.472	9594
584.486	9837
584.541	10556
584.545	10561
584.596	10375
584.617	10493
584.651	10667
584.689	10532
584.706	10460
584.761	10319
584.762	10322
584.816	10376
584.834	10668
584.871	11487
584.906	11480
584.926	11489
584.978	11533
584.980	11519
585.035	12489
585.051	12671
585.090	13410
585.123	14196
585.145	14734
585.195	16278
585.200	16436
585.254	18213
585.267	19101
585.309	21770
585.340	23660
585.364	25336
585.412	29831
585.419	30463
585.473	36080
585.484	37728
585.528	45596
585.556	52950
585.583	62152
585.628	87461
585.637	96317
585.692	179879
585.700	199627
585.747	319330
585.772	316584
585.801	259826
585.845	132544
585.856	104661
585.910	46732
585.917	41865
585.965	30237
585.989	26159
586.019	23005
586.061	20601
586.074	20040
586.128	17826
586.133	17759
586.183	17331
586.205	16926
586.237	16466
586.277	16510
586.292	16559
586.346	16603
586.349	16592
586.401	16259
586.421	16274
586.455	16239
586.493	16230
586.509	16228
586.564	16090
586.565	16116
586.618	17179
586.637	17500
586.672	18219
586.709	18877
586.727	19557
586.781	22714
586.781	22710
586.835	20879
586.853	20395
586.889	18554
586.925	16865
586.944	16560
586.996	16691
586.998	16681
587.052	16556
587.068	16584
587.106	17018
587.140	17046
587.161	16786
587.212	16503
587.215	16511
587.269	17091
587.284	17133
587.323	17399
587.356	17845
587.377	17935
587.427	18299
587.431	18333
587.485	18686
587.499	18740
587.539	18658
587.571	18968
587.593	19540
587.643	20486
587.648	20531
587.702	21321
587.715	21324
587.755	20749
587.786	20650
587.810	20770
587.858	20961
587.864	21008
587.917	21383
587.930	21512
587.971	21425
588.001	21212
588.025	20960
588.073	20878
588.079	20901
588.133	20784
588.145	20647
588.187	20033
588.217	20275
588.241	20558
588.288	20770
588.295	20801
588.348	21272
588.360	21331
588.402	21449
588.431	21402
588.456	21258
588.503	21311
588.510	21395
588.564	22142
588.575	22444
588.617	23478
588.646	23928
588.671	24232
588.718	25275
588.725	25371
588.778	26270
588.789	26464
588.832	28501
588.861	31063
588.886	37297
588.932	51485
588.939	55564
588.993	96032
589.004	99302
589.047	72223
589.075	52747
589.100	39536
589.147	24035
589.154	23761
589.207	23104
589.218	22988
589.261	22813
589.290	22876
589.314	23320
589.361	24371
589.368	24493
589.421	25480
589.433	25909
589.475	30228
589.504	34258
589.528	42981
589.576	64857
589.582	65879
589.635	63874
589.647	61973
589.689	37875
589.718	25433
589.742	24197
589.790	22415
589.795	22416
589.849	22373
589.861	22434
589.902	22316
589.932	22230
589.955	22463
590.004	22869
590.009	22833
590.062	22613
590.075	22469
590.115	22100
590.146	22181
590.168	22094
590.218	21740
590.222	21786
590.275	22629
590.289	22748
590.328	22846
590.360	23375
590.381	23419
590.431	22968
590.435	23019
590.488	24316
590.503	24680
590.541	24637
590.574	24612
590.594	24813
590.645	25357
590.647	25385
590.700	26563
590.716	26793
590.753	27402
590.787	28216
590.806	28431
590.859	28805
590.859	28804
590.912	29245
590.930	29344
590.965	29594
591.001	30004
591.018	29999
591.071	29650
591.072	29652
591.124	28943
591.143	28630
591.177	28631
591.214	28862
591.230	29174
591.283	30204
591.285	30245
591.336	29677
591.356	29459
591.389	29270
591.427	29089
591.442	29011
591.495	28755
591.498	28743
591.547	29233
591.569	29499
591.600	29391
591.640	29251
591.653	29461
591.706	30435
591.711	30534
591.759	30836
591.782	31097
591.811	31554
591.853	32116
591.864	32242
591.917	32978
591.924	33079
591.969	32909
591.995	32857
592.022	32681
592.066	32512
592.075	32678
592.127	33709
592.137	33927
592.180	34356
592.208	34650
592.233	35356
592.279	36791
592.285	36873
592.338	37612
592.350	37784
592.390	37386
592.421	37102
592.443	37484
592.491	38379
592.495	38419
592.548	39049
592.562	39230
592.600	38640
592.633	38157
592.653	38422
592.704	38948
592.705	39164
592.775	38882
592.846	39925
592.916	40935
592.987	41307
593.058	41271
593.128	41537
593.199	42913
593.270	42507
593.341	43223
593.411	44037
593.482	44439
593.553	47609
593.623	47619
593.694	48972
593.764	51171
593.835	50249
593.906	49931
593.976	51086
594.047	53825
594.117	55233
594.188	56707
594.258	58588
594.329	56262
594.399	58016
594.470	60162
594.540	61638
594.611	62858
594.681	63437
594.751	63348
594.822	64379
594.892	67048
594.963	68483
595.033	70844
595.103	73859
595.174	74502
595.244	76218
595.314	77354
595.384	78867
595.455	81457
595.525	83756
595.595	86576
595.665	89329
595.736	86581
595.806	87214
595.876	89327
595.946	89002
596.016	92190
596.087	96063
596.157	97786
596.227	95820
596.297	99338
596.367	104308
596.437	115007
596.507	116078
596.577	112277
596.647	115342
596.717	121349
596.787	125511
596.857	124125
596.927	124780
596.997	125045
597.067	126181
597.137	128343
597.207	128613
597.277	131649
597.347	128805
597.417	123660
597.487	122520
597.557	123236
597.626	127237
597.696	129930
597.766	129133
597.836	125591
597.906	117473
597.975	115643
598.045	115073
598.115	118993
598.185	124404
598.254	135489
598.324	150351
598.394	157153
598.464	154146
598.533	151974
598.603	145011
598.672	136565
598.742	138581
598.812	140188
598.881	140801
598.951	142231
599.020	142730
599.090	146927
599.159	153542
599.229	149454
599.299	144880
599.368	145566
599.437	149206
599.507	139258
599.576	130231
599.646	129880
599.715	129084
599.785	127674
599.854	124843
599.924	123357
599.993	120512
600.062	123765
600.132	125335
600.201	128181
600.270	143482
600.340	160641
600.409	158401
600.478	158112
600.547	157367
600.617	158130
600.686	129200
600.755	113120
600.824	105706
600.894	101244
600.963	100679
601.032	101668
601.101	98326
601.170	96476
601.239	92411
601.308	90063
601.378	90682
601.447	91039
601.516	93295
601.585	92798
601.654	93795
601.723	94219
601.792	95974
601.861	99432
601.930	101245
601.999	105240
602.068	101945
602.137	103433
602.206	105187
602.275	106679
602.343	107901
602.412	108432
602.481	109376
602.550	111814
602.619	111987
602.688	113411
602.756	115760
602.825	115673
602.894	118711
602.963	121798
603.032	123269
603.100	124404
603.169	122435
603.238	123666
603.307	124307
603.375	127333
603.444	127991
603.513	129704
603.581	130292
603.650	131638
603.719	131228
603.787	130434
603.856	135437
603.924	138143
603.993	140904
604.061	145023
604.130	152834
604.198	156689
604.267	159161
604.335	160850
604.404	161447
604.472	166294
604.541	166369
604.609	169179
604.678	170224
604.746	169229
604.815	173202
604.883	176752
604.951	175642
605.020	178331
605.088	181788
605.156	185195
605.225	187303
605.293	189396
605.361	188654
605.429	189755
605.498	191819
605.566	195684
605.634	204802
605.702	210717
605.771	218589
605.839	221324
605.907	219723
605.975	212623
606.043	207744
606.111	208624
606.180	207569
606.248	208456
606.316	204038
606.384	205354
606.452	205204
606.520	205713
606.588	212051
606.656	217627
606.724	216291
606.792	208936
606.860	195516
606.928	177478
606.996	167182
607.064	161428
607.132	163210
607.200	167070
607.267	177920
607.335	180514
607.403	187491
607.471	184592
607.539	174917
607.607	178575
607.674	163737
607.742	154556
607.810	155551
607.878	154587
607.946	155455
608.013	160505
608.081	168124
608.149	167077
608.216	172491
608.284	179067
608.352	181232
608.419	181429
608.487	177255
608.555	173704
608.622	175249
608.690	179240
608.757	195717
608.825	209130
608.893	206958
608.960	200056
609.028	189440
609.095	185466
609.163	186302
609.230	181045
609.298	157357
609.365	159128
609.432	169306
609.500	180148
609.567	199776
609.635	224300
609.702	249023
609.769	246305
609.837	217276
609.904	168910
609.971	167153
610.039	170110
610.106	179455
610.173	221527
610.241	363558
610.308	451723
610.375	225003
610.442	183391
610.509	175041
610.577	171106
610.644	173437
610.711	177059
610.778	182750
610.845	188310
610.912	196240
610.980	206727
611.047	208769
611.114	207412
611.181	203598
611.248	198901
611.315	204089
611.382	213701
611.449	218957
611.516	225916
611.583	222940
611.650	221642
611.717	224235
611.784	226436
611.851	229373
611.918	234951
611.984	243007
612.051	269201
612.118	333161
612.185	526654
612.252	681339
612.319	357601
612.386	279576
612.452	267097
612.519	251122
612.586	246982
612.653	249506
612.719	255780
612.786	257466
612.853	245321
612.919	230557
612.986	235673
613.053	232248
613.120	218353
613.186	207366
613.253	208630
613.319	206072
613.386	208754
613.453	211086
613.519	214472
613.586	210793
613.652	212425
613.719	210797
613.785	208792
613.852	214987
613.918	215676
613.985	214100
614.051	220154
614.118	221500
614.184	216900
614.250	209635
614.317	218629
614.383	216162
614.449	220107
614.516	219276
614.582	221362
614.648	222098
614.715	216296
614.781	215076
614.847	210448
614.914	213617
614.980	211216
615.046	206376
615.112	209067
615.179	214078
615.245	214339
615.311	216437
615.377	213337
615.443	216875
615.509	215725
615.575	222669
615.642	222162
615.708	222736
615.774	230655
615.840	237565
615.906	238436
615.972	246180
616.038	275072
616.104	361140
616.170	567086
616.236	786271
616.302	452724
616.368	318788
616.434	278964
616.500	249621
616.565	247618
616.631	271573
616.697	277267
616.763	257343
616.829	278485
616.895	379431
616.961	476766
617.026	341169
617.092	244505
617.158	228676
617.224	225680
617.289	217476
617.355	207900
617.421	202754
617.487	204381
617.552	199939
617.618	193326
617.684	193820
617.749	196152
617.815	192529
617.880	186717
617.946	186126
618.012	184348
618.077	190966
618.143	190756
618.208	184330
618.274	193348
618.339	204655
618.405	185213
618.470	169265
618.536	174202
618.601	170879
618.667	166851
618.732	156976
618.798	155014
618.863	152589
618.928	152061
618.994	152948
619.059	151174
619.124	152622
619.190	153699
619.255	152646
619.320	153975
619.386	153211
619.451	152491
619.516	152652
619.581	152138
619.647	157349
619.712	158026
619.777	154048
619.842	151271
619.907	153322
619.972	154997
620.038	158125
620.103	152284
620.168	153519
620.233	155769
620.298	156511
620.363	156163
620.428	157329
620.493	162567
620.558	164980
620.623	165865
620.688	167131
620.753	165259
620.818	166581
620.883	170397
620.948	170478
621.013	166957
621.078	167025
621.143	164810
621.207	170159
621.272	166958
621.337	164871
621.402	162605
621.467	161681
621.532	159218
621.596	161109
621.661	161368
621.726	156538
621.791	158374
621.855	158719
621.920	158396
621.985	158284
622.049	160924
622.114	162801
622.179	162737
622.243	163161
622.308	168912
622.373	170888
622.437	174312
622.502	167295
622.566	163666
622.631	162463
622.695	165127
622.760	167096
622.824	164254
622.889	164926
622.953	166595
623.018	168427
623.082	174377
623.147	172749
623.211	171521
623.276	168280
623.340	168972
623.404	164845
623.469	161897
623.533	164396
623.597	162865
623.662	159508
623.726	157927
623.790	146780
623.854	142511
623.919	142712
623.983	145168
624.047	147408
624.111	146892
624.176	149827
624.240	150187
624.304	151876
624.368	151557
624.432	150290
624.496	149579
624.560	153207
624.625	158516
624.689	155654
624.753	158837
624.817	161033
624.881	153443
624.945	147805
625.009	137456
625.073	139372
625.137	141441
625.201	145494
625.265	148377
625.329	143838
625.393	141160
625.456	142866
625.520	143632
625.584	147812
625.648	148457
625.712	150557
625.776	151392
625.839	147138
625.903	136279
625.967	120357
626.031	122346
626.095	131752
626.158	143456
626.222	120758
626.286	106623
626.349	104577
626.413	100755
626.477	95370
626.540	96018
626.604	95037
626.668	95851
626.731	93774
626.795	92302
626.858	90970
626.922	91294
626.986	90509
627.049	88887
627.113	90094
627.176	91538
627.240	86486
627.303	87334
627.366	85582
627.430	84716
627.493	85368
627.557	82921
627.620	83515
627.684	84897
627.747	85426
627.810	83457
627.874	76080
627.937	71303
628.000	72011
628.064	71169
628.127	67581
628.190	65053
628.253	63514
628.317	61932
628.380	57870
628.443	56667
628.506	56485
628.569	54169
628.632	52858
628.696	51382
628.759	51769
628.822	49610
628.885	49403
628.948	47841
629.011	46056
629.074	45601
629.137	44762
629.200	42888
629.263	41324
629.326	41273
629.389	41639
629.452	40929
629.515	40019
629.578	39076
629.641	39558
629.704	39791
629.767	39028
629.830	38055
629.892	36644
629.955	35385
630.018	35794
630.081	36581
630.144	36271
630.207	34704
630.269	34970
630.332	34590
630.395	33841
630.458	33410
630.520	31934
630.583	31630
630.646	31606
630.708	31921
630.771	32784
630.834	34301
630.896	33623
630.959	32605
631.021	31942
631.084	32536
631.146	31237
631.209	31023
631.272	31998
631.334	31295
631.397	32528
631.459	32097
631.522	32215
631.584	32842
631.646	33040
631.709	33575
631.771	32458
631.834	32212
631.896	32565
631.958	30643
632.021	31581
632.083	29171
632.145	30551
632.208	29855
632.270	29291
632.332	29127
632.395	29256
632.457	29199
632.519	29137
632.581	30029
632.643	29263
632.706	29388
632.768	27988
632.830	28949
632.892	29321
632.954	28244
633.016	29502
633.078	29264
633.141	28603
633.203	29338
633.265	29275
633.327	28087
633.389	28664
633.451	28902
633.513	27529
633.575	28932
633.637	28773
633.698	28932
633.760	29258
633.822	30874
633.884	30949
633.946	30419
634.008	31519
634.070	32305
634.132	30314
634.193	31270
634.255	33434
634.317	33794
634.379	34352
634.441	32175
634.502	32018
634.564	29844
634.626	28526
634.687	26784
634.749	27369
634.811	26927
634.873	26491
634.934	27228
634.996	26736
635.057	26513
635.119	27273
635.181	27019
635.242	26922
635.304	26451
635.365	27680
635.427	27630
635.488	27080
635.550	26849
635.611	26956
635.673	26312
635.734	26947
635.796	27445
635.857	28337
635.918	29836
635.980	30920
636.041	32766
636.102	32976
636.164	34371
636.225	33094
636.286	30915
636.348	29560
636.409	26954
636.470	27332
636.531	25775
636.593	26490
636.654	26368
636.715	25364
636.776	25288
636.838	25050
636.899	24763
636.960	24859
637.021	24946
637.082	23837
637.143	24173
637.204	23598
637.265	23775
637.326	24228
637.387	23477
637.448	25035
637.509	23821
637.570	24449
637.631	23681
637.692	24436
637.753	22754
637.814	23286
637.875	23517
637.936	23847
637.997	23122
638.058	22912
638.119	22862
638.179	22873
638.240	23679
638.301	24216
638.362	23418
638.423	22145
638.483	22766
638.544	22169
638.605	22820
638.666	21180
638.726	21815
638.787	22295
638.848	22409
638.908	22799
638.969	22196
639.030	21646
639.090	21493
639.151	21642
639.211	21701
639.272	21262
639.332	21000
639.393	21686
639.453	21369
639.514	22674
639.574	21671
639.635	21559
639.695	19515
639.756	20403
639.816	19738
639.877	19574
639.937	20015
639.997	20019
640.058	20236
640.118	20048
640.178	20423
640.239	19951
640.299	20037
640.359	20910
640.420	20694
640.480	21507
640.540	22097
640.600	23046
640.661	22802
640.721	20026
640.781	21911
640.841	21281
640.901	21419
640.961	20819
641.021	20813
641.082	21069
641.142	20905
641.202	20862
641.262	18864
641.322	19778
641.382	20096
641.442	20384
641.502	19474
641.562	19210
641.622	20537
641.682	20248
641.742	20537
641.802	21781
641.861	19865
641.921	19199
641.981	18445
642.041	17958
642.101	17051
642.161	17528
642.221	18015
642.280	18269
642.340	18104
642.400	18331
642.460	18288
642.519	18184
642.579	18877
642.639	19846
642.698	17488
642.758	20005
642.818	18338
642.877	18925
642.937	18477
642.997	19363
643.056	18477
643.116	18051
643.175	19349
643.235	17909
643.294	19450
643.354	19386
643.414	19278
643.473	20652
643.532	22461
643.592	24519
643.651	30116
643.711	40163
643.770	63141
643.830	114291
643.889	276090
643.948	259981
644.008	59850
644.067	29923
644.126	24220
644.186	21814
644.245	19514
644.304	18182
644.363	19164
644.423	17403
644.482	17876
644.541	18731
644.600	16835
644.659	19694
644.719	21283
644.778	24413
644.837	33031
644.896	50694
644.955	107360
645.014	128441
645.073	31524
645.132	20516
645.191	19825
645.250	17593
645.309	18849
645.368	18986
645.427	20329
645.486	24801
645.545	44059
645.604	38435
645.663	17846
645.722	16464
645.781	17726
645.840	17504
645.898	18362
645.957	22141
646.016	25232
646.075	38429
646.134	58977
646.192	109854
646.251	266409
646.310	164627
646.369	39042
646.427	24653
646.486	22896
646.545	18838
646.603	18189
646.662	16542
646.721	15710
646.779	15437
646.838	15375
646.896	16441
646.955	18353
647.014	22678
647.072	32095
647.131	65225
647.189	108538
647.248	28052
647.306	15794
647.365	14510
647.423	12812
647.481	13659
647.540	12092
647.598	13049
647.657	13780
647.715	13179
647.773	12391
647.832	11505
647.890	10912
647.948	11809
648.007	11850
648.065	11645
648.123	10229
648.181	12028
648.240	10652
648.298	9848
648.356	10392
648.414	10409
648.472	10590
648.531	10680
648.589	10089
648.647	9617
648.705	10042
648.763	9316
648.821	9824
648.879	10332
648.937	10017
648.995	11060
649.053	12058
649.111	14114
649.169	18707
649.227	28927
649.285	48489
649.343	113576
649.401	187480
649.459	43799
649.516	16059
649.574	11440
649.632	11972
649.690	11448
649.748	12450
649.806	13769
649.863	22976
649.921	42632
649.979	88684
650.037	26764
650.094	9483
650.152	8347
650.210	8235
650.268	8339
650.325	8012
650.383	7640
650.440	6769
650.498	6716
650.556	7021
650.613	7050
650.671	7107
650.728	6217
650.786	7041
650.843	7533
650.901	7935
650.958	6292
651.016	6776
651.073	6106
651.131	5544
651.188	5035
651.246	6485
651.303	4767
651.360	6247
651.418	5396
651.475	6223
651.532	5305
651.590	6301
651.647	4516
651.704	5568
651.762	6253
651.819	6147
651.876	4736
651.933	4359
651.990	4723
652.048	4953
652.105	4509
652.162	4638
652.219	4912
652.276	4463
652.333	4776
652.390	4862
652.448	4472
652.505	4357
652.562	4556
652.619	4684
652.676	5014
652.733	4918
652.790	4441
652.847	3935
652.904	4964
652.961	3947
653.017	3797
653.074	3727
653.131	3443
653.188	3240
653.245	3665
653.302	3779
653.359	3473
653.415	4063
653.472	3924
653.529	3484
653.586	3981
653.642	4078
653.699	3636
653.756	3571
653.813	2987
653.869	3908
653.926	3126
653.983	3766
654.039	3398
654.096	4297
654.152	4385
654.209	3270
654.266	3451
654.322	3715
654.379	3127
654.435	3633
654.492	3399
654.548	3054
654.605	3790
654.661	3988
654.717	3284
654.774	3659
654.830	3401
654.887	3158
654.943	2937
655.000	2716
655.056	3074
655.112	2970
655.168	3198
655.225	3533
655.281	3953
655.337	2815
655.394	3444
655.450	2856
655.506	3245
655.562	3820
655.618	3498
655.675	3204
655.731	3213
655.787	3233
655.843	4170
655.899	2837
655.955	3591
656.011	3025
656.067	2306
656.123	3338
656.179	3263
656.235	2829
656.291	3017
656.347	3101
656.403	2649
656.459	2857
656.515	2772
656.571	2921
656.627	3518
656.683	2155
656.739	3769
656.795	2482
656.850	3381
656.906	2717
656.962	2974
657.018	2975
657.074	3709
657.129	4050
657.185	6747
657.241	11063
657.297	18278
657.352	6199
657.408	2717
657.464	4135
657.519	2618
657.575	1786
657.630	2735
657.686	2748
657.742	1728
657.797	2850
657.853	1490
657.908	2973
657.964	2051
658.019	2222
658.075	2257
658.130	3240
658.186	1737
658.241	2592
658.297	2287
658.352	2426
658.407	3637
658.463	1904
658.518	2015
658.573	2322
658.629	1919
658.684	2439
658.739	2408
658.795	2757
658.850	2603
658.905	2638
658.960	2139
659.016	1635
659.071	1971
659.126	1883
659.181	2188
659.236	2010
659.291	3159
659.346	2355
659.401	2532
659.457	2967
659.512	1948
659.567	2689
659.622	2080
659.677	1993
659.732	1600
659.787	1681
659.842	2222
659.897	2104
659.952	2709
660.007	1766
660.061	1271
660.116	2382
660.171	2445
660.226	2160
660.281	2986
660.336	2158
660.391	2220
660.445	2303
660.500	1573
660.555	2265
660.610	1989
660.664	2406
660.719	2324
660.774	2143
660.828	2820
660.883	1575
660.938	1750
660.992	1555
661.047	1650
661.101	992
661.156	2135
661.211	2002
661.265	1470
661.320	1585
661.374	2026
661.429	1395
661.483	2431
661.538	1729
661.592	1185
661.647	1741
661.701	2222
661.755	2795
661.810	2963
661.864	1569
661.919	1540
661.973	1648
662.027	1613
662.081	973
662.136	678
662.190	2029
662.244	2452
662.299	1716
662.353	1219
662.407	2492
662.461	1719
662.515	2664
662.569	1751
662.624	2365
662.678	1129
662.732	2677
662.786	1539
662.840	1648
662.894	2102
662.948	1758
663.002	655
663.056	1581
663.110	1192
663.164	2133
663.218	2195
663.272	1831
663.326	1597
663.380	2370
663.434	1126
663.488	1424
663.542	1399
663.595	1992
663.649	1192
663.703	2579
663.757	2178
663.811	1170
663.864	1556
663.918	2234
663.972	1837
664.026	1961
664.079	1550
664.133	2005
664.187	1886
664.240	1881
664.294	1341
664.348	2322
664.401	2015
664.455	1891
664.508	815
664.562	1973
664.615	1612
664.669	1563
664.722	2548
664.776	762
664.829	1589
664.883	1484
664.936	1267
664.990	1590
665.043	2106
665.097	1034
665.150	1908
665.203	2095
665.257	1363
665.310	1846
665.363	1320
665.417	1115
665.470	1459
665.523	1128
665.576	1665
665.630	1870
665.683	1762
665.736	1972
665.789	2270
665.842	1228
665.895	1670
665.949	1562
666.002	1415
666.055	1816
666.108	2082
666.161	2297
666.214	1945
666.267	2347
666.320	1927
666.373	2075
666.426	1592
666.479	1660
666.532	1208
666.585	1786
666.638	3190
666.691	1888
666.744	2259
666.796	1533
666.849	2111
666.902	2197
666.955	1521
667.008	2090
667.060	1413
667.113	1218
667.166	1954
667.219	1740
667.271	2713
667.324	2946
667.377	1654
667.430	3233
667.482	1385
667.535	2256
667.587	2478
667.640	2383
667.693	1590
667.745	2088
667.798	2659
667.850	1142
667.903	1432
667.955	1605
668.008	2382
668.060	2316
668.113	2117
668.165	1293
668.218	1537
668.270	1883
668.322	1837
668.375	2355
668.427	2332
668.479	1590
668.532	1923
668.584	2538
668.636	1996
668.689	1636
668.741	498
668.793	2304
668.845	1379
668.898	1518
668.950	1629
669.002	1944
669.054	1963
669.106	1566
669.158	2557
669.211	2070
669.263	2347
669.315	1855
669.367	1946
669.419	1106
669.471	2037
669.523	1594
669.575	1856
669.627	721
669.679	1695
669.731	1252
669.783	1123
669.835	1393
669.886	1561
669.938	992
669.990	1454
670.042	1276
670.094	2106
670.146	1459
670.197	964
670.249	1939
670.301	1298
670.353	1157
670.404	1764
670.456	1264
670.508	2279
670.560	3407
670.611	4661
670.663	6434
670.715	12013
670.766	30044
670.818	30296
670.869	5996
670.921	2185
670.972	2532
671.024	1192
671.075	1175
671.127	1872
671.178	1009
671.230	1757
671.281	2323
671.333	1825
671.384	1701
671.436	2190
671.487	3615
671.538	4934
671.590	7076
671.641	12185
671.692	20209
671.744	39690
671.795	62905
671.846	30429
671.897	11531
671.949	6629
672.000	4441
672.051	3110
672.102	1824
672.153	1625
672.204	1988
672.256	1855
672.307	1557
672.358	881
672.409	1611
672.460	1733
672.511	1004
672.562	1514
672.613	758
672.664	574
672.715	302
672.766	1013
672.817	627
672.868	197
672.919	606
672.970	493
673.021	-139
673.071	-13
673.122	628
673.173	808
673.224	503
673.275	757
673.326	432
673.376	868
673.427	424
673.478	134
673.528	170
673.579	559
673.630	927
673.680	1158
673.731	91
673.782	-237
673.832	438
673.883	22
673.934	-45
673.984	1340
674.035	131
674.085	109
674.136	480
674.186	972
674.237	1045
674.287	124
674.338	962
674.388	636
674.438	750
674.489	612
674.539	385
674.589	721
674.640	1228
674.690	816
674.740	733
674.791	679
674.841	884
674.891	735
674.942	762
674.992	-30
675.042	318
675.092	803
675.142	69
675.193	-243
675.243	-382
675.293	114
675.343	282
675.393	361
675.443	860
675.493	604
675.543	256
675.593	819
675.643	613
675.693	576
675.743	328
675.793	466
675.843	-862
675.893	192
675.943	-212
675.993	757
676.043	-171
676.093	383
676.142	-749
676.192	324
676.242	-337
676.292	482
676.341	425
676.391	248
676.441	107
676.491	-382
676.540	212
676.590	555
676.640	381
676.689	256
676.739	-495
676.789	-249
676.838	219
676.888	-220
676.937	-1294
676.987	-239
677.037	520
677.086	-294
677.136	-607
677.185	-762
677.235	434
677.284	-364
677.333	196
677.383	-738
677.432	-351
677.482	342
677.531	311
677.580	-452
677.630	128
677.679	-235
677.728	-305
677.778	-81
677.827	-1120
677.876	-189
677.925	25
677.975	-310
678.024	-167
678.073	481
678.122	152
678.171	345
678.220	-8
678.269	525
678.319	-172
678.368	-142
678.417	136
678.466	-195
678.515	-239
678.564	-875
678.613	541
678.662	-148
678.711	-184
678.760	-165
678.809	1021
678.857	540
678.906	43
678.955	-131
679.004	-298
679.053	-227
679.102	-936
679.151	-895
679.199	-366
679.248	-725
679.297	-363
679.346	-932
679.394	-827
679.443	-669
679.492	-85
679.540	106
679.589	-111
679.638	-352
679.686	-544
679.735	68
679.784	-399
679.832	553
679.881	255
679.929	-85
679.978	-66
680.026	-203
680.075	-252
680.123	-457
680.172	-443
680.220	170
680.268	-673
680.317	246
680.365	-958
680.414	-431
680.462	-782
680.510	107
680.559	-345
680.607	-842
680.655	-190
680.703	-662
680.752	-712
680.800	490
680.848	-595
680.896	390
680.945	-1017
680.993	301
681.041	-599
681.089	-411
681.137	-225
681.185	-542
681.233	-590
681.258	-376
681.281	-203
681.329	-240
681.377	-502
681.380	-459
681.425	-243
681.473	-295
681.502	-123
681.521	-50
681.569	395
681.617	605
681.624	742
681.665	1415
681.713	475
681.745	123
681.761	-103
681.809	-406
681.857	1537
681.867	1383
681.904	758
681.952	458
681.989	546
682.000	532
682.048	420
682.096	42
682.111	481
682.143	1326
682.191	934
682.233	1043
682.239	1028
682.286	1554
682.334	918
682.354	961
682.382	945
682.430	948
682.476	1308
682.477	1290
682.525	1367
682.572	1805
682.598	1489
682.620	1152
682.667	1638
682.715	1118
682.720	1193
682.763	1669
682.810	1876
682.841	1537
682.857	1310
682.905	1441
682.952	1483
682.963	1659
683.000	2139
683.047	1939
683.085	2429
683.095	2546
683.142	1775
683.190	2275
683.206	2200
683.237	2011
683.284	2705
683.328	2652
683.332	2618
683.379	1614
683.426	2038
683.449	2000
683.473	1969
683.521	2779
683.568	2585
683.571	2592
683.615	2302
683.662	2920
683.693	2936
683.709	2899
683.757	3026
683.804	3581
683.814	3470
683.851	2917
683.898	3090
683.936	2834
683.945	2803
683.992	3332
684.039	3298
684.057	3310
684.086	3195
684.133	3390
684.179	3106
684.180	3076
684.227	3259
684.274	3809
684.300	3540
684.321	3331
684.368	2746
684.415	3441
684.422	3495
684.462	3732
684.509	2945
684.543	3640
684.556	3863
684.603	4066
684.649	3609
684.665	3662
684.696	3838
684.743	4287
684.786	4681
684.790	4680
684.837	4429
684.883	4539
684.908	4345
684.930	4158
684.977	4522
685.023	4041
685.029	4120
685.070	4686
685.117	4586
685.150	4617
685.164	4584
685.210	4621
685.257	4539
685.272	4765
685.303	5259
685.350	4820
685.393	4672
685.396	4653
685.443	4627
685.490	4944
685.514	5072
685.536	5055
685.583	5315
685.629	4132
685.636	4212
685.675	4824
685.722	4610
685.757	4956
685.768	5023
685.815	4857
685.861	5026
685.878	4919
685.908	4884
685.954	4847
686.000	5198
686.000	5194
686.047	5615
686.093	5148
686.121	5634
686.139	5993
686.185	5449
686.232	5902
686.242	5962
686.278	6051
686.324	6305
686.363	5909
686.370	5836
686.416	5263
686.463	5660
686.484	5754
686.509	5900
686.555	6204
686.601	5925
686.606	6007
686.647	6576
686.693	6365
686.727	6169
686.739	6047
686.785	5974
686.831	5802
686.848	5868
686.877	6232
686.923	6158
686.969	6413
686.969	6412
687.015	6323
687.061	6650
687.090	6305
687.107	6233
687.153	7624
687.199	7444
687.211	7466
687.245	7182
687.291	7143
687.332	6573
687.336	6529
687.382	7334
687.428	6899
687.453	7169
687.474	7355
687.520	7204
687.565	6904
687.574	6909
687.611	7262
687.657	7935
687.695	8107
687.702	8117
687.748	8255
687.794	8617
687.816	8707
687.839	8892
687.885	8786
687.931	9783
687.937	9803
687.976	9208
688.022	8331
688.058	8483
688.067	8618
688.113	8559
688.158	8345
688.179	8245
688.204	8074
688.249	8519
688.295	7940
688.300	7917
688.340	8060
688.386	8470
688.421	8222
688.431	8114
688.477	8378
688.522	8408
688.542	8325
688.567	8534
688.613	9047
688.658	9607
688.663	9648
688.703	9487
688.749	9177
688.784	9193
688.794	9223
688.839	8758
688.884	9064
688.905	9180
688.930	9483
688.975	8730
689.020	9181
689.026	9250
689.065	9470
689.110	9040
689.146	9397
689.155	9544
689.201	9138
689.246	9279
689.267	9180
689.291	9222
689.336	9327
689.381	9455
689.388	9554
689.426	9744
689.471	9524
689.509	9398
689.516	9430
689.561	9585
689.606	9507
689.630	9472
689.651	9353
689.696	9343
689.741	9094
689.750	9080
689.785	9426
689.830	9768
689.871	9798
689.875	9789
689.920	9864
689.965	9777
689.992	9781
690.010	9747
690.054	9533
690.099	9456
690.112	9382
690.144	9382
690.189	9475
690.233	9143
690.233	9157
690.278	9334
690.323	9406
690.354	9479
690.367	9483
690.412	9837
690.457	9692
690.474	9654
690.501	9815
690.546	9982
690.590	10163
690.595	10189
690.635	10132
690.680	9936
690.716	9501
690.724	9495
690.769	9754
690.813	9877
690.836	10037
690.857	10149
690.902	9762
690.946	10326
690.957	10302
690.991	10858
691.035	11360
691.077	12546
691.080	12631
691.124	13221
691.168	14030
691.198	14142
691.213	13710
691.257	12881
691.301	12483
691.318	11994
691.346	11658
691.390	11179
691.434	11222
691.439	11162
691.478	11009
691.522	10801
691.559	10776
691.567	10818
691.611	11007
691.655	11076
691.680	11085
691.699	11277
691.743	11554
691.787	12016
691.800	12069
691.831	11788
691.875	11521
691.919	11051
691.921	11019
691.964	11131
692.008	11205
692.041	11276
692.052	11322
692.096	11519
692.139	11271
692.162	11233
692.183	11311
692.227	11635
692.271	11938
692.282	11916
692.315	11557
692.359	11268
692.402	10949
692.403	10974
692.447	11162
692.490	11442
692.523	11477
692.534	11411
692.578	10866
692.622	10781
692.643	10687
692.666	10814
692.709	10960
692.753	10782
692.763	10792
692.797	10944
692.840	11399
692.884	11166
692.884	11191
692.928	11410
692.971	11572
693.004	11655
693.015	11653
693.059	11473
693.102	11211
693.124	11309
693.146	11635
693.189	11545
693.233	11827
693.245	11891
693.276	11875
693.320	11537
693.363	11485
693.365	11462
693.407	11993
693.450	12181
693.485	12232
693.493	12201
693.537	12223
693.580	11720
693.605	11729
693.624	11979
693.667	12534
693.710	12721
693.725	12674
693.753	12901
693.797	13909
693.840	14384
693.845	14460
693.883	16531
693.926	18625
693.966	20433
693.970	20275
694.013	18326
694.056	16286
694.086	14781
694.099	14572
694.142	13704
694.185	13023
694.206	12720
694.229	12731
694.272	12454
694.315	12366
694.326	12265
694.358	12499
694.401	12887
694.444	13272
694.446	13254
694.487	12888
694.530	12741
694.566	12229
694.573	12215
694.616	12290
694.659	12327
694.686	12198
694.702	12291
694.745	12582
694.787	12813
694.806	12867
694.830	12926
694.873	13179
694.916	13211
694.926	13238
694.959	13179
695.002	12931
695.044	12691
695.046	12650
695.087	13506
695.130	14382
695.166	15008
695.172	15010
695.215	14718
695.258	14530
695.286	14444
695.301	14595
695.343	14716
695.386	15127
695.406	15139
695.428	15267
695.471	15434
695.514	15870
695.526	15904
695.556	17057
695.599	19018
695.641	20381
695.646	20510
695.684	21020
695.726	21499
695.766	22008
695.769	22001
695.811	20932
695.854	20050
695.886	19156
695.896	19098
695.938	18724
695.981	18530
696.005	18274
696.023	18537
696.065	19048
696.108	19668
696.125	19857
696.150	20512
696.192	21632
696.235	22601
696.245	22768
696.277	23293
696.319	24216
696.361	24882
696.365	24879
696.404	24671
696.446	24294
696.485	24102
696.488	24116
696.530	23266
696.572	22564
696.604	21860
696.614	21981
696.656	22352
696.698	22762
696.724	22970
696.740	22992
696.783	22691
696.825	22611
696.844	22446
696.867	22613
696.909	22844
696.951	23122
696.964	23147
696.992	23427
697.034	23732
697.076	23978
697.083	23973
697.118	24183
697.160	24305
697.202	24451
697.203	24389
697.244	25222
697.286	26170
697.323	26799
697.327	26811
697.369	26376
697.411	25783
697.442	25401
697.453	25574
697.494	25942
697.536	26353
697.562	26495
697.578	26392
697.620	25959
697.661	25542
697.682	25253
697.703	25668
697.744	26412
697.786	27147
697.801	27318
697.828	27814
697.869	28532
697.911	29253
697.921	29346
697.952	28807
697.994	28007
698.035	27258
698.040	27084
698.077	26952
698.118	26772
698.160	26588
698.160	26516
698.201	27233
698.243	27890
698.279	28439
698.284	28634
698.325	29728
698.367	30774
698.399	31572
698.408	31758
698.449	32142
698.491	32584
698.518	32782
698.532	32831
698.573	32711
698.614	32600
698.638	32436
698.656	32550
698.697	32628
698.738	32693
698.757	32645
698.779	32686
698.820	32576
698.862	32473
698.877	32349
698.903	32699
698.944	33107
698.985	33522
698.996	33548
699.026	33002
699.067	32116
699.116	30977
699.235	33016
699.354	32282
699.474	31956
699.593	29290
699.713	31007
699.832	29525
699.951	31092
700.070	32375
700.190	30214
700.309	28701
700.428	28373
700.547	27720
700.667	26625
700.786	26895
700.905	26802
701.024	25364
701.143	28007
701.262	25433
701.381	27794
701.500	27580
701.619	28458
701.738	26888
701.857	28060
701.976	26567
702.095	24819
702.214	26298
702.333	26977
702.452	26659
702.571	27716
702.690	27598
702.809	27127
702.928	26753
703.047	25796
703.165	24236
703.284	24496
703.403	23380
703.522	25158
703.640	23303
703.759	23636
703.878	22899
703.997	22194
704.115	22815
704.234	23797
704.353	23858
704.471	25046
704.590	20829
704.708	21441
704.827	20744
704.946	21062
705.064	20348
705.183	21726
705.301	19765
705.420	22566
705.538	19049
705.656	20888
705.775	17919
705.893	19479
706.012	21618
706.130	19954
706.249	19067
706.367	19948
706.485	18293
706.604	19443
706.722	18121
706.840	18918
706.958	20386
707.077	23653
707.195	17916
707.313	17915
707.431	15796
707.549	17135
707.668	16181
707.786	16628
707.904	17775
708.022	16612
708.140	17943
708.258	16397
708.376	16539
708.494	17336
708.612	14822
708.730	17725
708.848	15992
708.966	16568
709.084	17085
709.202	17950
709.320	15329
709.438	15231
709.556	16291
709.674	15562
709.791	13026
709.909	14569
710.027	13697
710.145	15967
710.263	13774
710.380	14904
710.498	14360
710.616	13553
710.733	13779
710.851	13432
710.969	14023
711.086	13731
711.204	13043
711.322	13838
711.439	14042
711.557	13976
711.674	11878
711.792	12998
711.909	13057
712.027	12494
712.144	11873
712.262	12409
712.379	12713
712.497	13756
712.614	12829
712.732	12237
712.849	12803
712.966	12099
713.084	12913
713.201	12815
713.318	10769
713.436	13768
713.553	13266
713.670	12168
713.787	12483
713.905	13273
714.022	12893
714.139	13627
714.256	13422
714.373	16798
714.490	25377
714.608	45412
714.725	130729
714.842	423952
714.959	196821
715.076	32717
715.193	18298
715.310	15712
715.427	12929
715.544	11926
715.661	12234
715.778	12094
715.895	10978
716.011	12243
716.128	11337
716.245	10981
716.362	11569
716.479	10293
716.596	9583
716.713	9570
716.829	10029
716.946	9757
717.063	8904
717.180	9660
717.296	8847
717.413	9881
717.530	9309
717.646	9038
717.763	8216
717.880	8971
717.996	7908
718.113	8618
718.229	8550
718.346	9123
718.462	8504
718.579	8657
718.695	8195
718.812	8505
718.928	8738
719.045	9354
719.161	7356
719.277	8363
719.394	9188
719.510	9132
719.626	8384
719.743	10933
719.859	12684
719.975	20939
720.092	47775
720.208	186537
720.324	203379
720.440	24258
720.557	11628
720.673	10054
720.789	9017
720.905	9055
721.021	9126
721.137	7899
721.253	7226
721.369	6699
721.486	8253
721.602	7945
721.718	6977
721.834	8269
721.950	7394
722.066	6636
722.181	6211
722.297	7643
722.413	7702
722.529	7443
722.645	7078
722.761	6881
722.877	6870
722.993	6829
723.108	8401
723.224	9753
723.340	6617
723.456	7777
723.571	5170
723.687	6634
723.803	6105
723.918	7097
724.034	5898
724.150	6059
724.265	5958
724.381	6448
724.497	5491
724.612	6475
724.728	6268
724.843	6619
724.959	5234
725.074	7522
725.190	6227
725.305	6087
725.421	5871
725.536	6935
725.651	5972
725.767	6407
725.882	5774
725.997	6264
726.113	5691
726.228	6459
726.343	5646
726.459	6069
726.574	6270
726.689	6618
726.804	6017
726.920	7022
727.035	5854
727.150	6221
727.265	5674
727.380	6130
727.495	6099
727.610	5722
727.725	5284
727.841	6211
727.956	5399
728.071	6810
728.186	5361
728.301	5384
728.416	5175
728.531	6528
728.645	5280
728.760	5613
728.875	4890
728.990	6080
729.105	5365
729.220	5140
729.335	5468
729.449	6202
729.564	4858
729.679	5814
729.794	5072
729.908	6342
730.023	5156
730.138	5804
730.253	6162
730.367	5516
730.482	4735
730.596	6520
730.711	6278
730.826	8103
730.940	10699
731.055	9763
731.169	7608
731.284	8478
731.398	8244
731.513	9282
731.627	8898
731.742	11206
731.856	13360
731.970	15347
732.085	15808
732.199	20680
732.313	28566
732.428	52708
732.542	136996
732.656	292576
732.771	105724
732.885	33334
732.999	22065
733.113	21406
733.227	22970
733.342	21986
733.456	19389
733.570	20417
733.684	18439
733.798	17749
733.912	17465
734.026	17200
734.140	16696
734.254	17732
734.368	16036
734.482	17277
734.596	16452
734.710	16208
734.824	15227
734.938	15802
735.052	15326
735.166	15876
735.280	14792
735.393	15660
735.507	15283
735.621	15398
735.735	14904
735.849	14077
735.962	15397
736.076	13729
736.190	14703
736.303	14672
736.417	14238
736.531	14711
736.644	13807
736.758	14521
736.872	13950
736.985	13061
737.099	13200
737.212	12328
737.326	13150
737.439	12846
737.553	14346
737.666	12389
737.780	11998
737.893	12198
738.007	12615
738.120	12416
738.233	13220
738.347	12442
738.460	11613
738.573	12663
738.687	12594
738.800	12703
738.913	11243
739.026	13428
739.140	12277
739.253	11919
739.366	11309
739.479	10926
739.592	11895
739.705	11278
739.818	9347
739.932	12310
740.045	9404
740.158	12273
740.271	10144
740.384	12890
740.497	9652
740.610	10924
740.723	10954
740.836	10251
740.949	10153
741.062	11191
741.174	11222
741.287	9664
741.400	10602
741.513	10194
741.626	9076
741.739	10948
741.851	9969
741.964	9747
742.077	10532
742.189	8641
742.302	9027
742.415	11099
742.527	8424
742.640	9616
742.753	8920
742.865	8284
742.978	9333
743.090	9174
743.203	7994
743.316	10311
743.428	8997
743.541	8885
743.653	7847
743.766	7807
743.878	9541
743.990	8620
744.103	7760
744.215	8516
744.327	7797
744.440	8221
744.552	9990
744.664	7992
744.777	7858
744.889	9739
745.001	7801
745.113	6835
745.226	8969
745.338	6922
745.450	7675
745.562	9930
745.674	7016
745.786	8004
745.898	8395
746.010	8255
746.122	7188
746.234	9384
746.347	7850
746.459	8029
746.570	7107
746.682	6673
746.794	8919
746.906	8193
747.018	7784
747.130	7641
747.242	7269
747.354	6603
747.466	8425
747.577	7873
747.689	6518
747.801	7565
747.913	7344
748.024	6283
748.136	6176
748.248	7561
748.359	6125
748.471	7087
748.583	6792
748.694	5777
748.806	5843
748.918	6873
749.029	5331
749.141	6793
749.252	6884
749.364	6648
749.475	6583
749.587	6152
749.698	5010
749.809	6905
749.921	5924
750.032	6780
750.144	5377
750.255	6620
750.366	5679
750.478	6847
750.589	5203
750.700	5441
750.811	4912
750.923	6171
751.034	5349
751.145	5664
751.256	5172
751.367	5755
751.479	5212
751.590	5900
751.701	6101
751.812	5475
751.923	4530
752.034	5198
752.145	5852
752.256	5654
752.367	5612
752.478	5650
752.589	5132
752.700	5218
752.811	5141
752.922	5240
753.032	5397
753.143	6512
753.254	5307
753.365	5356
753.476	5394
753.586	5800
753.697	5189
753.808	5776
753.919	4140
754.029	5104
754.140	3952
754.251	5015
754.361	3330
754.472	5121
754.582	5269
754.693	4296
754.804	5210
754.914	6098
755.025	4288
755.135	5026
755.246	4933
755.356	5840
755.466	4337
755.577	4149
755.687	4473
755.798	5237
755.908	4182
756.018	4653
756.129	4795
756.239	5158
756.349	4844
756.460	4581
756.570	4956
756.680	5417
756.790	4050
756.900	4917
757.011	4510
757.121	4972
757.231	3927
757.341	4369
757.451	3692
757.561	3772
757.671	3235
757.781	4554
757.891	5131
758.001	3758
758.111	3779
758.221	4602
758.331	4175
758.441	5682
758.551	4106
758.661	5046
758.771	4873
758.880	5148
758.990	4690
759.100	4353
759.210	4689
759.320	4667
759.429	4477
759.539	4492
759.649	5400
759.758	4907
759.868	5890
759.978	5737
760.087	6156
760.197	7016
760.307	6249
760.416	6951
760.526	5293
760.635	5297
760.745	4937
760.854	6657
760.964	6628
761.073	7679
761.182	6977
761.292	7248
761.401	5364
761.511	5614
761.620	4207
761.729	4735
761.839	4190
761.948	4119
762.057	2913
762.166	4052
762.276	4258
762.385	4701
762.494	3831
762.603	4014
762.712	3502
762.822	4443
762.931	4211
763.040	3742
763.149	3698
763.258	4132
763.367	3339
763.476	3994
763.585	3570
763.694	4028
763.803	3339
763.912	4495
764.021	4189
764.130	3461
764.238	4238
764.347	4124
764.456	4394
764.565	5990
764.674	4065
764.783	4274
764.891	3937
765.000	4980
765.109	4527
765.217	5402
765.326	5759
765.435	5736
765.543	6715
765.652	7565
765.761	8115
765.869	10932
765.978	13832
766.086	20803
766.195	35697
766.303	68497
766.412	151571
766.520	222494
766.629	175873
766.737	83507
766.846	39199
766.954	23366
767.062	16093
767.171	12064
767.279	10317
767.387	8939
767.496	6355
767.604	7243
767.712	5953
767.820	5611
767.928	5117
768.037	4586
768.145	5233
768.253	5493
768.361	3451
768.469	5174
768.577	4319
768.685	4673
768.793	4386
768.901	5469
769.009	5028
769.117	6098
769.225	6015
769.333	7295
769.441	10050
769.549	16311
769.657	26641
769.765	61534
769.873	153507
769.981	174410
770.088	81800
770.196	29264
770.304	17036
770.412	12679
770.519	9232
770.627	9072
770.735	7793
770.842	7213
770.950	5854
771.058	6826
771.165	6616
771.273	8532
771.380	7907
771.488	8108
771.595	11938
771.703	12273
771.810	10092
771.918	9860
772.025	10666
772.133	13590
772.240	13276
772.348	13519
772.455	15532
772.562	14147
772.670	12980
772.777	12347
772.884	12570
772.991	12926
773.099	12150
773.206	13399
773.313	12478
773.420	12617
773.528	11249
773.635	12514
773.742	12067
773.849	12510
773.956	11216
774.063	12366
774.170	10986
774.277	11838
774.384	11659
774.491	10622
774.598	11422
774.705	12303
774.812	11012
774.919	11817
775.026	10397
775.133	10911
775.239	11115
775.346	10436
775.453	10073
775.560	10917
775.667	9012
775.773	12063
775.880	9634
775.987	10176
776.093	9108
776.200	10719
776.307	10656
776.413	8241
776.520	8284
776.627	11092
776.733	8581
776.840	8094
776.946	9116
777.053	11334
777.159	8870
777.266	8839
777.372	8282
777.478	8061
777.585	9688
777.691	8947
777.798	7184
777.904	10496
778.010	7326
778.117	8536
778.223	8551
778.329	8320
778.435	8421
778.542	8097
778.648	9168
778.754	8685
778.860	7177
778.966	7828
779.072	7282
779.178	7162
779.284	6938
779.391	6769
779.497	7400
779.603	9423
779.708	7392
779.815	7967
779.920	7197
780.026	13637
780.132	13411
780.238	8128
780.344	5567
780.450	7746
780.556	8329
780.661	5690
780.767	7263
780.873	7872
780.979	4500
781.085	6652
781.190	8084
781.296	6388
781.402	5659
781.507	7641
781.613	6980
781.719	5451
781.824	6914
781.930	7367
782.035	5827
782.141	7621
782.246	7242
782.352	5059
782.457	5744
782.563	6563
782.668	5714
782.773	6479
782.879	4397
782.984	5803
783.090	5825
783.195	5575
783.300	6162
783.405	7059
783.511	5322
783.616	5728
783.721	5445
783.826	6179
783.932	4546
784.037	5622
784.142	5671
784.247	6345
784.352	5100
784.457	5803
784.562	4475
784.667	6606
784.772	4813
784.877	3671
784.982	4059
785.087	6935
785.192	5350
785.297	4375
785.402	4250
785.507	5796
785.611	5495
785.716	4472
785.821	3729
785.926	5202
786.031	5310
786.135	5455
786.240	5182
786.345	5177
786.450	4454
786.554	4741
786.659	4408
786.763	5326
786.868	4916
786.973	4878
787.077	4762
787.182	4458
787.286	3199
787.391	5328
787.495	5601
787.600	3584
787.704	2561
787.809	5236
787.913	3858
788.017	4234
788.122	3741
788.226	4961
788.330	3250
788.435	3506
788.539	3954
788.643	4781
788.747	3627
788.852	3175
788.956	4077
789.060	3662
789.164	4341
789.268	4634
789.372	4192
789.476	3780
789.580	3953
789.684	3258
789.788	3501
789.892	5429
789.996	4201
790.100	3211
790.204	2040
790.308	4819
790.412	3739
790.516	3243
790.620	2050
790.724	4141
790.828	4853
790.931	3369
791.035	2881
791.139	3507
791.242	3720
791.346	4431
791.450	2854
791.554	4875
791.657	2212
791.761	2907
791.864	3347
791.968	4000
792.072	3689
792.175	2998
792.279	2457
792.382	2976
792.486	2745
792.589	2940
792.693	3186
792.796	4045
792.899	2511
793.003	3030
793.106	2676
793.209	3411
793.313	3026
793.416	1874
793.519	2669
793.623	2902
793.726	3429
793.829	3719
793.932	1915
794.035	1613
794.138	2894
794.242	4216
794.345	3538
794.448	2365
794.551	1847
794.654	3797
794.757	5181
794.860	7155
794.963	2980
795.066	2754
795.169	2735
795.272	3246
795.375	2855
795.477	3148
795.580	2040
795.683	1314
795.786	2448
795.889	3002
795.991	2855
796.094	2678
796.197	2125
796.300	3134
796.402	3041
796.505	2987
796.608	1269
796.710	2429
796.813	2079
796.915	3153
797.018	3368
797.120	2416
797.223	2303
797.326	2967
797.428	2862
797.530	2654
797.633	1569
797.735	2645
797.838	2054
797.940	3031
798.042	3078
798.145	2308
798.247	1727
798.349	1652
798.452	1525
798.554	2105
798.656	2043
798.758	3766
798.860	3255
798.962	2118
799.065	1902
799.167	1932
799.269	1783
799.371	2407
799.473	2368
799.575	3619
799.677	2704
799.779	2109
799.881	1676
799.983	2799
800.085	2170
800.187	2164
800.289	1189
800.390	1560
800.492	1976
800.594	3846
800.696	1899
800.798	1706
800.899	1819
801.001	2391
801.103	2412
801.205	2113
801.306	1502
801.408	2845
801.509	2295
801.611	2513
801.713	1562
801.814	1930
801.916	2141
802.017	1831
802.119	1417
802.220	2185
802.322	571
802.423	2856
802.525	2082
802.626	2072
802.727	1624
802.829	2585
802.930	1741
803.031	1862
803.133	1081
803.234	2018
803.335	1210
803.436	2412
803.538	1521
803.639	1443
803.740	2062
803.841	2497
803.942	2095
804.043	3147
804.144	790
804.245	2233
804.346	1449
804.447	1814
804.548	1714
804.649	1873
804.750	1657
804.851	1383
804.952	1476
805.053	2009
805.154	1117
805.255	2348
805.355	1930
805.456	2069
805.557	1214
805.658	919
805.758	1377
805.859	1899
805.960	1540
806.061	2076
806.161	1564
806.262	2047
806.362	1161
806.463	1346
806.564	1664
806.664	2458
806.765	1309
806.865	1734
806.966	1619
807.066	1697
807.166	1115
807.267	2104
807.367	1286
807.468	1846
807.568	1635
807.668	1230
807.769	740
807.869	1983
807.969	1316
808.069	1855
808.170	1615
808.270	1667
808.370	819
808.470	2027
808.570	1811
808.670	1870
808.770	1179
808.870	1213
808.970	1697
809.070	1866
809.170	-251
809.271	1110
809.370	1865
809.470	2113
809.570	1131
809.670	1281
809.770	263
809.870	1620
809.970	1124
810.070	1876
810.169	1458
810.269	781
810.369	2098
810.469	1467
810.568	1864
810.668	1238
810.768	610
810.867	1199
810.967	840
811.066	1508
811.166	811
811.265	1397
811.365	1056
811.464	1533
811.564	1269
811.663	1906
811.763	1175
811.862	1880
811.962	1778
812.061	821
812.160	809
812.260	2529
812.359	1010
812.458	1709
812.557	1228
812.657	2107
812.756	1399
812.855	1486
812.954	1195
813.053	1581
813.153	1100
813.252	1296
813.351	1102
813.450	1569
813.549	1236
813.648	1564
813.747	1144
813.846	1270
813.945	1590
814.044	2343
814.143	2444
814.242	1692
814.341	1977
814.439	2203
814.538	1831
814.637	2392
814.736	1801
814.835	2997
814.933	2014
815.032	2428
815.131	2872
815.229	4982
815.328	9084
815.427	12191
815.525	7969
815.624	7035
815.722	6756
815.821	8130
815.919	7521
816.018	7996
816.116	7596
816.215	8259
816.313	7472
816.412	8398
816.510	10078
816.609	10825
816.707	9659
816.805	12759
816.904	9364
817.002	10490
817.100	9850
817.198	10465
817.296	10013
817.395	9376
817.493	9682
817.591	8533
817.689	8915
817.787	9433
817.885	9807
817.983	8265
818.081	7848
818.179	8842
818.277	9016
818.375	10656
818.473	7554
818.571	8830
818.669	6891
818.767	9329
818.865	8753
818.963	7179
819.061	6269
819.158	9089
819.256	8533
819.354	9085
819.452	7343
819.549	8376
819.647	7531
819.745	9196
819.842	6969
819.940	7901
820.038	8454
820.135	7614
820.233	6921
820.330	8233
820.428	7041
820.525	7458
820.623	8022
820.720	6770
820.818	7239
820.915	7327
821.012	7439
821.110	6742
821.207	6376
821.304	7460
821.402	5898
821.499	7402
821.596	6736
821.693	5459
821.791	6352
821.888	6433
821.985	6679
822.082	7468
822.179	5050
822.276	6909
822.373	6942
822.470	5943
822.567	6567
822.664	6863
822.761	5433
822.858	7121
822.955	6821
823.052	6091
823.149	5195
823.246	6981
823.343	6387
823.440	4511
823.536	4338
823.633	6938
823.730	5718
823.827	5255
823.923	6052
824.020	6259
824.117	3774
824.213	6624
824.310	6771
824.407	4912
824.503	4022
824.600	6935
824.696	4794
824.793	5637
824.889	6094
824.986	6978
825.082	4968
825.179	4770
825.275	3918
825.371	6818
825.468	7630
825.564	3742
825.660	2583
825.757	6685
825.853	6839
825.949	4801
826.045	3484
826.142	4015
826.238	5101
826.334	5826
826.430	4100
826.526	5966
826.622	2008
826.718	3252
826.814	5236
826.910	7083
827.006	4065
827.102	3702
827.198	3267
827.294	5194
827.390	5738
827.486	5676
827.582	3226
827.678	2972
827.774	4219
827.869	5543
827.965	3803
828.061	3632
828.157	3379
828.252	6786
828.348	4900
828.444	4686
828.539	3205
828.635	4461
828.731	4598
828.826	4172
828.922	3864
829.017	4041
829.113	4945
829.208	4300
829.304	3078
829.399	5045
829.495	5826
829.590	4395
829.685	3218
829.781	4532
829.876	4153
829.971	4785
830.066	1253
830.162	2631
830.257	3576
830.352	6649
830.447	4220
830.543	1925
830.638	2939
830.733	5299
830.828	3888
830.923	3743
831.018	4089
831.113	4743
831.208	4883
831.303	3190
831.398	2309
831.493	2336
831.588	3724
831.683	5711
831.778	3103
831.873	2324
831.967	2958
832.062	3567
832.157	4627
832.252	3880
832.346	2023
832.441	3174
832.536	3735
832.631	3613
832.725	2344
832.820	2619
832.914	2623
833.009	3846
833.104	3064
833.198	2837
833.293	2098
833.387	3787
833.482	4162
833.576	3281
833.670	3086
833.765	2176
833.859	2713
833.954	4282
834.048	3071
834.142	3560
834.237	2033
834.331	3014
834.425	2044
834.519	2575
834.613	3047
834.708	2364
834.802	2334
834.896	2064
834.990	3050
835.084	3946
835.178	1237
835.272	2270
835.366	2768
835.460	4165
835.554	3923
835.648	2741
835.742	1213
835.836	1338
835.930	1534
836.024	2830
836.117	2797
836.211	2541
836.305	2777
836.399	2661
836.493	906
836.586	3304
836.680	2763
836.774	2908
836.867	1681
836.961	1275
837.055	1582
837.148	1360
837.242	1275
837.335	2336
837.429	1928
837.522	1774
837.616	1403
837.709	2679
837.803	1380
837.896	2645
837.989	2857
838.083	3313
838.176	1439
838.269	929
838.363	1233
838.456	1804
838.549	1385
838.642	2679
838.735	1140
838.829	2354
838.922	1465
839.015	2490
839.108	1658
839.201	1857
839.294	1768
839.387	3510
839.480	1312
839.573	1467
839.666	1351
839.759	1319
839.852	994
839.945	2318
840.038	1802
840.131	2825
840.223	608
840.316	2590
840.409	1190
840.502	2487
840.594	3016
840.687	1022
840.780	848
840.873	1415
840.965	1190
841.058	992
841.150	1526
841.243	2158
841.336	582
841.428	1226
841.521	461
841.613	1081
841.706	1603
841.798	1391
841.890	933
841.983	2263
842.075	1197
842.167	1007
842.260	1144
842.352	2818
842.444	1979
842.537	2523
842.629	644
842.721	990
842.813	805
842.905	1103
842.997	740
843.090	1456
843.182	1965
843.274	1064
843.366	978
843.458	1524
843.550	1033
843.642	1293
843.734	1293
843.826	1666
843.918	694
844.009	630
844.101	596
844.193	1394
844.285	925
844.377	2223
844.469	2002
844.560	1125
844.652	1246
844.744	599
844.835	428
844.927	1087
845.019	1774
845.110	1925
845.202	878
845.293	1442
845.385	824
845.476	735
845.568	1377
845.659	1503
845.751	1303
845.842	805
845.934	439
846.025	985
846.116	690
846.208	1678
846.299	909
846.390	1023
846.482	1068
846.573	1136
846.664	985
846.755	971
846.846	1411
846.937	527
847.029	607
847.120	263
847.211	879
847.302	1728
847.393	641
847.484	2203
847.575	-165
847.666	1269
847.757	268
847.847	1208
847.938	1334
848.029	572
848.120	1673
848.211	1025
848.302	1022
848.392	119
848.483	152
848.574	485
848.664	444
848.755	1495
848.846	457
848.936	320
849.027	770
849.118	1196
849.208	838
849.299	1471
849.389	1414
849.480	3208
849.570	4677
849.661	9140
849.751	16371
849.841	24431
849.932	6615
850.022	2422
850.112	1011
850.203	1441
850.293	860
850.383	1524
850.474	821
850.564	1607
850.654	763
850.744	95
850.834	570
850.924	758
851.014	1353
851.104	1441
851.194	4
851.284	1185
851.374	980
851.464	1024
851.554	722
851.644	894
851.734	471
851.824	1238
851.914	799
852.004	1259
852.094	-12
852.183	340
852.273	1040
852.363	1043
852.452	848
852.542	1119
852.632	93
852.721	572
852.811	-217
852.901	753
852.990	680
853.080	1811
853.169	186
853.259	1420
853.348	1053
853.438	912
853.527	1437
853.617	2322
853.706	3667
853.795	4912
853.885	9441
853.974	18796
854.063	33392
854.152	60089
854.242	72867
854.331	27979
854.420	7898
854.509	4093
854.598	3062
854.687	2696
854.777	1786
854.866	1120
854.955	1272
855.044	1512
855.133	423
855.222	970
855.311	10
855.400	534
855.488	313
855.577	1257
855.666	1047
855.755	1355
855.844	127
855.933	477
856.021	860
856.110	1254
856.199	377
856.288	333
856.376	365
856.465	6
856.554	561
856.642	284
856.731	1421
856.819	948
856.908	486
856.996	676
857.085	-281
857.173	780
857.262	-256
857.350	337
857.438	121
857.527	917
857.615	349
857.703	1184
857.792	588
857.880	800
857.968	227
858.056	699
858.145	-42
858.233	937
858.321	695
858.409	1057
858.497	-54
858.585	767
858.673	495
858.761	1197
858.849	-114
858.937	1087
859.025	291
859.113	606
859.201	-122
859.289	1932
859.377	475
859.465	1249
859.552	-398
859.640	909
859.728	435
859.816	273
859.903	-17
859.991	375
860.079	334
860.166	656
860.254	-228
860.342	1245
860.429	329
860.517	198
860.604	354
860.692	1427
860.779	71
860.867	274
860.954	386
861.042	1058
861.129	321
861.216	1453
861.304	655
861.391	1681
861.478	-12
861.565	1074
861.653	578
861.740	713
861.827	-364
861.914	614
862.001	691
862.089	729
862.176	987
862.263	1289
862.350	-41
862.437	1234
862.524	157
862.611	1102
862.698	787
862.785	1422
862.871	515
862.958	1757
863.045	1139
863.132	1171
863.219	483
863.306	326
863.392	193
863.479	1293
863.566	667
863.652	1091
863.739	86
863.826	1234
863.912	1688
863.999	931
864.086	969
864.172	1178
864.259	562
864.345	1655
864.432	2144
864.518	2383
864.604	1663
864.691	2195
864.777	1257
864.863	2196
864.950	3275
865.036	4810
865.122	5976
865.209	12075
865.295	10824
865.381	10090
865.467	9087
865.553	9442
865.639	8659
865.726	10437
865.812	11839
865.898	17487
865.984	25127
866.070	33080
866.156	53663
866.242	50000
866.328	20910
866.414	12273
866.499	8198
866.585	8993
866.671	8194
866.757	8601
866.843	8460
866.928	7777
867.014	6892
867.100	8424
867.186	7180
867.271	9120
867.357	6990
867.442	7652
867.528	6995
867.614	7424
867.699	6995
867.785	8138
867.870	7148
867.956	7333
868.041	7222
868.127	6569
868.212	6116
868.297	7174
868.383	6834
868.468	6991
868.553	6713
868.639	8047
868.724	6281
868.809	7285
868.894	7649
868.979	6588
869.065	6335
869.150	6454
869.235	5728
869.320	6278
869.405	7017
869.490	5070
869.575	6927
869.660	7049
869.745	4872
869.830	6588
869.915	7080
870.000	5869
870.085	5655
870.169	5866
870.254	6963
870.339	7203
870.424	4341
870.509	5725
870.593	6112
870.678	7724
870.763	6364
870.847	5987
870.932	3812
871.016	6237
871.101	6112
871.186	3567
871.270	5909
871.355	7244
871.439	3979
871.523	5306
871.608	6310
871.692	4605
871.777	5169
871.861	6759
871.945	5423
872.030	5930
872.114	5382
872.198	5728
872.282	4021
872.367	5952
872.451	4641
872.535	5537
872.619	3921
872.703	5483
872.787	3796
872.871	6213
872.955	4805
873.039	3817
873.123	3142
873.207	5726
873.291	5630
873.375	3889
873.459	5050
873.543	5558
873.627	3783
873.711	4833
873.794	3354
873.878	5165
873.962	4067
874.045	4341
874.129	3781
874.137	3863
874.213	4689
874.245	4462
874.296	4102
874.352	4276
874.380	4364
874.460	2670
874.464	2601
874.547	4037
874.568	3905
874.631	3544
874.676	4335
874.714	4977
874.784	4470
874.798	4371
874.881	4830
874.892	4609
874.965	3122
874.999	3126
875.048	3144
875.107	4122
875.131	4492
875.215	4780
875.215	4778
875.298	2518
875.323	2677
875.381	3164
875.430	3747
875.465	4142
875.538	5672
875.548	5863
875.631	3816
875.646	3630
875.714	2801
875.753	2554
875.798	2324
875.861	3425
875.881	3764
875.964	4528
875.968	4448
876.047	2937
876.076	3024
876.130	3214
876.183	3691
876.213	3994
876.291	3965
876.296	3953
876.379	3761
876.398	3673
876.462	3454
876.506	3415
876.545	3311
876.613	2188
876.628	1981
876.711	2764
876.721	2914
876.794	4121
876.828	4200
876.877	4160
876.935	4051
876.960	3980
877.043	2848
877.043	2847
877.125	2662
877.150	2831
877.208	3461
877.258	3951
877.291	4036
877.365	2629
877.374	2491
877.456	2298
877.472	2421
877.539	2876
877.579	2685
877.622	2596
877.687	3842
877.704	4128
877.787	3243
877.794	3226
877.869	3225
877.901	3577
877.952	4045
878.008	3802
878.034	3585
878.115	1618
878.117	1588
878.199	2519
878.222	2553
878.282	2681
878.329	3076
878.364	3340
878.437	3596
878.447	3610
878.529	3390
878.544	3227
878.611	2404
878.651	2392
878.694	2473
878.758	3130
878.776	3329
878.858	2929
878.865	2968
878.941	3240
878.972	3092
879.023	2837
879.078	2001
879.105	1660
879.185	3190
879.187	3221
879.269	2750
879.292	2838
879.351	3120
879.399	3109
879.433	2954
879.506	2931
879.516	2940
879.598	1898
879.613	2092
879.680	2910
879.720	2456
879.762	2234
879.827	2963
879.844	3024
879.926	2343
879.933	2374
880.007	2737
880.040	2377
880.089	2010
880.147	2024
880.171	2041
880.253	3082
880.254	3083
880.335	2882
880.360	2507
880.417	2140
880.467	3086
880.499	3473
880.574	2529
880.580	2490
880.662	2860
880.680	3076
880.744	3254
880.787	2647
880.825	2230
880.893	2082
880.907	2088
880.989	2958
881.000	2855
881.070	2064
881.106	2306
881.152	2748
881.213	2714
881.233	2586
881.315	1840
881.319	1832
881.396	2038
881.426	2260
881.478	2504
881.532	2118
881.559	2180
881.639	3153
881.641	3160
881.722	2807
881.745	2630
881.803	2120
881.852	1980
881.885	1966
881.958	2430
881.966	2462
882.047	1588
882.064	1591
882.129	2240
882.171	2415
882.210	2102
882.277	1409
882.291	1335
882.372	1591
882.383	1650
882.454	2420
882.489	2780
882.535	3051
882.596	2858
882.616	2770
882.697	2920
882.702	2902
882.778	2534
882.808	2262
882.859	1458
882.914	1307
882.940	1581
883.020	1976
883.021	1979
883.102	2450
883.127	2415
883.183	2581
883.233	3103
883.264	3074
883.339	2340
883.345	2294
883.426	1916
883.445	1773
883.507	1585
883.551	1907
883.587	2164
883.657	2032
883.668	2108
883.749	3142
883.763	3217
883.830	2270
883.869	1861
883.910	1750
883.975	1171
883.991	1198
884.072	2514
884.081	2556
884.152	1863
884.187	1745
884.233	2382
884.292	3159
884.314	3124
884.394	2272
884.398	2227
884.475	1119
884.504	956
884.555	1391
884.610	1578
884.636	1464
884.716	1534
884.716	1540
884.797	2069
884.821	2447
884.877	2882
884.927	2650
884.958	2513
885.033	2596
885.038	2595
885.118	1807
885.139	1844
885.199	1560
885.244	1180
885.279	1401
885.350	2281
885.359	2361
885.439	2767
885.456	2838
885.520	3518
885.561	3558
885.600	2598
885.667	1683
885.680	1742
885.760	1831
885.773	1852
885.840	1974
885.878	1925
885.920	1578
885.984	1276
886.000	1386
886.080	1813
886.089	1870
886.160	2303
886.195	2483
886.240	2646
886.300	2689
886.320	2530
886.400	2085
886.406	2058
886.480	2139
886.511	2054
886.560	1821
886.616	1745
886.640	1853
886.720	1967
886.722	1971
886.800	1978
886.827	1953
886.879	1996
886.932	2060
886.959	2229
887.038	2479
887.039	2484
887.119	2762
887.143	2782
887.198	2441
887.248	2222
887.278	2245
887.354	2085
887.358	2109
887.437	2822
887.459	2952
887.517	2186
887.564	1642
887.596	1947
887.669	2332
887.676	2262
887.755	1598
887.774	1393
887.835	1421
887.880	1638
887.914	1561
887.985	1142
887.994	1243
888.073	2213
888.090	2441
888.153	3132
888.195	3463
888.232	3375
888.300	3225
888.311	3046
888.391	1814
888.405	1568
888.470	2001
888.510	2316
888.549	2051
888.615	1611
888.628	1761
888.708	2676
888.720	2802
888.787	3064
888.825	3201
888.866	2498
888.930	1366
888.945	1279
889.024	904
889.035	855
889.103	2256
889.140	2986
889.182	2745
889.245	2340
889.261	2355
889.340	2480
889.349	2484
889.419	2155
889.454	2013
889.498	2119
889.559	2236
889.577	2115
889.656	1597
889.664	1548
889.735	2123
889.768	2393
889.814	2193
889.873	1921
889.978	2794
890.083	1612
890.187	2264
890.292	2479
890.397	2408
890.501	1701
890.606	1625
890.710	2081
890.815	2626
890.919	3103
891.024	2723
891.128	2093
891.233	1701
891.337	1475
891.442	2902
891.546	2361
891.650	1813
891.755	1679
891.859	1598
891.963	1733
892.068	2717
892.172	2132
892.276	1845
892.380	1393
892.484	1947
892.589	3019
892.693	2974
892.797	1779
892.901	1506
893.005	1629
893.109	2221
893.213	3562
893.317	2648
893.421	1925
893.525	1934
893.629	1162
893.733	2001
893.837	2472
893.941	1772
894.045	1827
894.148	1149
894.252	1038
894.356	2172
894.460	3284
894.564	2798
894.667	2230
894.771	1709
894.875	924
894.978	2071
895.082	2106
895.186	2301
895.289	2067
895.393	1470
895.496	1760
895.600	2469
895.703	1088
895.807	1844
895.910	1684
896.014	2486
896.117	1608
896.221	2088
896.324	2786
896.427	2127
896.531	1402
896.634	2111
896.737	2053
896.840	1890
896.944	2058
897.047	3013
897.150	2806
897.253	3011
897.356	1499
897.460	1521
897.563	1422
897.666	954
897.769	2653
897.872	2694
897.975	1492
898.078	2118
898.181	1331
898.284	608
898.387	1876
898.490	3012
898.593	1624
898.695	2121
898.798	2026
898.901	1937
899.004	1102
899.107	2244
899.209	1131
899.312	2362
899.415	2456
899.518	1759
899.620	806
899.723	1267
899.826	1139
899.928	1975
900.031	1952
900.133	1704
900.236	2454
900.338	1323
900.441	1959
900.543	1862
900.646	2142
900.748	1619
900.851	2122
900.953	2441
901.055	1268
901.158	807
901.260	1933
901.362	1656
901.465	1220
901.567	1434
901.669	2118
901.771	2074
901.873	1400
901.976	1697
902.078	898
902.180	1451
902.282	1189
902.384	1605
902.486	2143
902.588	2931
902.690	2675
902.792	750
902.894	1053
902.996	2040
903.098	2214
903.200	1883
903.302	1279
903.404	1977
903.505	942
903.607	1724
903.709	1399
903.811	2257
903.913	2028
904.014	2548
904.116	730
904.218	993
904.319	1392
904.421	2279
904.523	2354
904.624	1787
904.726	1322
904.827	476
904.929	1366
905.030	839
905.132	2024
905.233	3213
905.335	1084
905.436	796
905.537	1417
905.639	1359
905.740	1211
905.841	1409
905.943	2206
906.044	1315
906.145	1792
906.247	1501
906.348	1457
906.449	2423
906.550	1540
906.651	2005
906.752	669
906.854	453
906.955	1263
907.056	1228
907.157	1735
907.258	2357
907.359	1538
907.460	1053
907.561	921
907.662	1636
907.762	1218
907.863	2301
907.964	1237
908.065	1684
908.166	1693
908.267	1242
908.367	817
908.468	1041
908.569	1528
908.670	1977
908.770	1581
908.871	1862
908.971	1004
909.072	1699
909.173	1972
909.273	709
909.374	1124
909.474	1366
909.575	1348
909.675	1074
909.776	1712
909.876	506
909.977	1203
910.077	1314
910.177	1887
910.278	2852
910.378	954
910.478	1331
910.579	1391
910.679	1510
910.779	1208
910.879	2210
910.980	2504
911.080	1436
911.180	1399
911.280	1348
911.380	880
911.480	745
911.580	489
911.680	1920
911.780	1707
911.880	1442
911.980	1302
912.080	1582
912.180	961
912.280	1664
912.380	1007
912.480	991
912.580	1366
912.679	982
912.779	2371
912.879	2644
912.979	519
913.078	877
913.178	924
913.278	1182
913.377	1237
913.477	2000
913.577	868
913.676	470
913.776	1805
913.875	1122
913.975	938
914.074	1709
914.174	862
914.273	1285
914.373	753
914.472	1058
914.572	1133
914.671	1218
914.770	644
914.870	1603
914.969	1050
915.068	912
915.167	1443
915.267	1926
915.366	1596
915.465	1119
915.564	1094
915.663	2576
915.763	1472
915.862	1809
915.961	1299
916.060	1618
916.159	1366
916.258	1108
916.357	1080
916.456	2251
916.555	1996
916.654	1450
916.752	678
916.851	1607
916.950	1694
917.049	1538
917.148	1480
917.247	1174
917.345	946
917.444	1144
917.543	738
917.642	1546
917.740	1742
917.839	2800
917.937	2679
918.036	2401
918.135	2251
918.233	1374
918.332	1201
918.430	751
918.529	782
918.627	177
918.726	1756
918.824	3074
918.923	887
919.021	1473
919.119	352
919.218	724
919.316	887
919.414	1624
919.512	1212
919.611	2364
919.709	1126
919.807	1388
919.905	2448
920.003	2546
920.102	1265
920.200	2445
920.298	2737
920.396	2427
920.494	1858
920.592	1680
920.690	1014
920.788	2468
920.886	2187
920.984	2516
921.082	2184
921.180	2893
921.277	2520
921.375	1949
921.473	3094
921.571	4040
921.669	3890
921.766	3387
921.864	3448
921.962	4374
922.060	4098
922.157	3986
922.255	3843
922.352	4497
922.450	4183
922.548	4410
922.645	4279
922.743	4473
922.840	6753
922.938	10474
923.035	10423
923.133	9288
923.230	9638
923.327	11190
923.425	13020
923.522	11243
923.619	11045
923.717	10178
923.814	9979
923.911	9865
924.008	9296
924.106	9928
924.203	8783
924.300	9296
924.397	9821
924.494	9315
924.591	8979
924.688	9241
924.786	9668
924.883	8648
924.979	9653
925.077	9601
925.173	8774
925.270	8707
925.367	9174
925.464	9037
925.561	9032
925.658	10261
925.755	9729
925.852	8232
925.948	8966
926.045	8502
926.142	9412
926.239	9367
926.335	8816
926.432	7888
926.529	8851
926.625	9856
926.722	9401
926.818	7518
926.915	7849
927.011	8143
927.108	7648
927.204	8061
927.301	8330
927.397	7506
927.494	8813
927.590	9929
927.687	6281
927.783	7815
927.879	9466
927.976	8760
928.072	6677
928.168	7239
928.264	7942
928.361	7465
928.457	8386
928.553	9086
928.649	6408
928.745	8134
928.841	7467
928.937	7375
929.033	7509
929.129	8222
929.225	7580
929.321	8616
929.417	6447
929.513	7130
929.609	7954
929.705	6593
929.801	6415
929.897	6898
929.993	6263
930.089	6931
930.184	7498
930.280	6057
930.376	8054
930.471	9090
930.567	6681
930.663	6208
930.758	6867
930.854	5792
930.950	6483
931.045	6667
931.141	5813
931.236	7091
931.332	8273
931.427	6355
931.523	5363
931.618	8554
931.714	6610
931.809	4654
931.905	5987
932.000	7674
932.095	4596
932.191	5802
932.286	8314
932.381	9184
932.476	6083
932.572	6226
932.667	7532
932.762	5222
932.857	6405
932.952	7273
933.047	8293
933.142	5874
933.237	5247
933.332	6982
933.427	6216
933.522	7376
933.617	5910
933.712	6123
933.807	5891
933.902	7977
933.997	7359
934.092	7522
934.187	4322
934.282	6287
934.376	6438
934.471	7046
934.566	5941
934.661	5212
934.755	5734
934.850	6593
934.945	6611
935.039	5659
935.134	5379
935.228	4023
935.323	6910
935.417	7901
935.512	3972
935.606	3993
935.701	5148
935.795	6179
935.890	6285
935.984	5719
936.079	4864
936.173	4423
936.267	5341
936.362	4858
936.456	4142
936.550	5474
936.644	7926
936.738	5348
936.833	3818
936.927	3760
937.021	4057
937.115	4587
937.209	5462
937.303	6716
937.397	4667
937.491	4984
937.585	5417
937.679	5489
937.773	4717
937.867	3883
937.961	3310
938.055	4755
938.149	6641
938.243	4336
938.337	3004
938.430	3220
938.524	4295
938.618	6395
938.712	4172
938.805	3410
938.899	4360
938.993	5982
939.086	4883
939.180	3277
939.274	2820
939.367	4147
939.461	5612
939.554	5030
939.648	4285
939.741	4514
939.835	4687
939.928	5610
940.022	5601
940.115	4090
940.208	4862
940.302	4664
940.395	5889
940.488	6293
940.582	5089
940.675	4501
940.768	3186
940.861	3821
940.954	5209
941.048	4892
941.141	2465
941.234	3015
941.327	4422
941.420	3600
941.513	4619
941.606	4440
941.699	3308
941.792	3820
941.885	5327
941.978	3953
942.071	4235
942.164	4827
942.257	3178
942.349	3135
942.442	3821
942.535	3811
942.628	3429
942.721	3742
942.813	3923
942.906	3954
942.999	3554
943.091	4144
943.184	3080
943.277	4070
943.369	4194
943.462	2567
943.554	2424
943.647	3922
943.739	3796
943.832	4923
943.924	3753
944.017	2489
944.109	2407
944.201	3546
944.294	3615
944.386	3658
944.478	3194
944.571	2789
944.663	2980
944.755	2821
944.847	4140
944.940	3925
945.032	3542
945.124	2073
945.216	3496
945.308	3478
945.400	4132
945.492	2255
945.584	3566
945.676	5120
945.768	4135
945.860	4253
945.952	3507
946.044	4939
946.136	2574
946.228	3661
946.320	2344
946.412	3071
946.503	2882
946.595	4680
946.687	3928
946.779	2967
946.870	1993
946.962	3071
947.054	3315
947.145	2729
947.237	3859
947.329	2640
947.420	3057
947.512	4083
947.603	2184
947.695	2398
947.786	2172
947.878	2717
947.969	2879
948.061	3530
948.152	4413
948.243	2702
948.335	1511
948.426	2973
948.517	2549
948.609	3664
948.700	3577
948.791	3103
948.882	2915
948.973	1207
949.065	1750
949.156	2868
949.247	2462
949.338	2681
949.429	2574
949.520	1792
949.611	1644
949.702	2973
949.793	3289
949.884	1995
949.975	2589
950.066	2188
950.157	1606
950.247	2017
950.338	1609
950.429	1550
950.520	2485
950.611	2223
950.701	1388
950.792	2692
950.883	3649
950.973	2858
951.064	1835
951.155	3933
951.245	2441
951.336	3423
951.427	2448
951.517	3880
951.608	4361
951.698	2807
951.788	2823
951.879	2365
951.969	1532
952.060	1917
952.150	1735
952.240	2172
952.331	2915
952.421	3674
952.511	2144
952.602	2304
952.692	1670
952.782	1739
952.872	648
952.962	2574
953.052	2493
953.143	1820
953.233	2089
953.323	2042
953.413	2381
953.503	3605
953.593	2446
953.683	3431
953.773	2575
953.863	2312
953.953	1615
954.042	2358
954.132	1764
954.222	2792
954.312	1956
954.402	2535
954.492	2342
954.581	1969
954.671	2312
954.761	2487
954.850	2620
954.940	1718
955.030	960
955.119	1082
955.209	1301
955.298	2511
955.388	1943
955.477	3230
955.567	2400
955.656	2004
955.746	1472
955.835	1690
955.925	1758
956.014	1693
956.103	2094
956.193	2991
956.282	3360
956.371	2803
956.461	1960
956.550	2483
956.639	1703
956.728	1123
956.817	1861
956.906	2376
956.995	2211
957.085	2504
957.174	2187
957.263	2113
957.352	1605
957.441	1385
957.530	2289
957.619	2051
957.708	1098
957.796	2342
957.885	2362
957.974	2273
958.063	1894
958.152	987
958.241	1193
958.329	1749
958.418	1095
958.507	1985
958.596	1556
958.684	2365
958.773	2084
958.861	1785
958.950	1632
959.039	1797
959.127	1071
959.216	1740
959.304	1215
959.393	1302
959.481	1950
959.570	1640
959.658	1297
959.746	1083
959.835	987
959.923	1341
960.011	1280
960.100	1265
960.188	1010
960.276	2801
960.365	916
960.453	1640
960.541	651
960.629	1080
960.717	1621
960.805	879
960.893	1257
960.981	1203
961.069	2616
961.158	1582
961.245	2280
961.333	2823
961.421	1828
961.509	1823
961.597	1803
961.685	1307
961.773	1833
961.861	2102
961.949	1309
962.036	2586
962.124	1187
962.212	1427
962.299	1445
962.387	2076
962.475	962
962.562	1948
962.650	1415
962.738	2154
962.825	1793
962.913	902
963.000	741
963.088	1409
963.175	2641
963.263	2037
963.350	1242
963.438	1757
963.525	1222
963.612	1173
963.700	1316
963.787	1115
963.874	1560
963.962	1979
964.049	1653
964.136	1074
964.223	1207
964.310	1393
964.398	1287
964.485	1611
964.572	1239
964.659	2048
964.746	969
964.833	611
964.920	329
965.007	1528
965.094	1587
965.181	1924
965.268	2409
965.355	2096
965.441	2199
965.528	1481
965.615	1149
965.702	1621
965.789	1217
965.875	1659
965.962	1834
966.049	1476
966.136	1914
966.222	2572
966.309	1643
966.395	2012
966.482	2250
966.569	1523
966.655	1622
966.742	1244
966.828	1341
966.915	1135
967.001	764
967.087	1055
967.174	181
967.260	1063
967.347	1411
967.433	1530
967.519	973
967.605	866
967.692	1864
967.778	1620
967.864	927
967.950	1641
968.036	1681
968.123	1650
968.209	2229
968.295	1362
968.381	1322
968.467	1864
968.553	62
968.639	1272
968.725	1186
968.811	1917
968.897	1260
968.983	2070
969.069	1540
969.154	1231
969.240	1582
969.326	1111
969.412	384
969.497	1673
969.583	1360
969.669	1245
969.755	1645
969.840	1877
969.926	1991
970.012	2449
970.097	2924
970.183	4135
970.268	2820
970.354	2439
970.439	1642
970.525	1306
970.610	1320
970.696	2003
970.781	864
970.866	1146
970.952	1029
971.037	507
971.122	954
971.208	1055
971.293	2631
971.378	1251
971.463	1933
971.549	1283
971.634	360
971.719	1359
971.804	962
971.889	1416
971.974	723
972.059	1258
972.144	1157
972.229	2033
972.314	893
972.399	1356
972.484	947
972.569	1485
972.654	612
972.739	784
972.824	948
972.908	1387
972.993	950
973.078	876
973.163	730
973.247	1439
973.332	1002
973.417	2134
973.501	1365
973.586	1138
973.671	1003
973.755	1540
973.840	1218
973.924	612
974.009	1643
974.093	2564
974.178	3119
974.262	1953
974.346	1764
974.431	1366
974.515	1626
974.600	791
974.684	1913
974.768	1813
974.852	1168
974.937	2382
975.021	1309
975.105	1311
975.189	1762
975.273	1462
975.358	1218
975.442	962
975.526	799
975.610	1293
975.694	820
975.778	1713
975.862	1027
975.946	1032
976.030	1553
976.114	1088
976.198	1106
976.281	1023
976.365	1147
976.449	1495
976.533	649
976.617	1919
976.700	639
976.784	1827
976.868	1600
976.951	1473
977.035	1892
977.119	1189
977.202	1391
977.286	1476
977.369	1547
977.453	2569
977.536	3394
977.620	2858
977.703	2724
977.787	1220
977.870	2856
977.953	1939
978.037	1368
978.120	2006
978.203	1173
978.287	1823
978.370	2638
978.453	1800
978.536	1228
978.620	2042
978.703	1445
978.786	1290
978.869	1293
978.952	599
979.035	1818
979.118	1628
979.201	1324
979.284	1854
979.367	1996
979.450	1675
979.533	1293
979.616	802
979.699	1140
979.782	2009
979.865	1248
979.948	1248
980.030	1104
980.113	1569
980.196	1066
980.279	1629
980.361	1681
980.444	1960
980.526	1011
980.609	2940
980.692	3165
980.774	3472
980.857	2488
980.939	2871
981.022	1809
981.104	1898
981.187	1364
981.269	2243
981.352	1627
981.434	1864
981.516	1835
981.599	3232
981.681	1472
981.763	1858
981.846	2263
981.928	1499
982.010	1432
982.092	1133
982.174	1392
982.256	1748
982.339	992
982.421	1889
982.503	357
982.585	1313
982.667	1100
982.749	1716
982.831	919
982.913	1296
982.995	1877
983.077	1426
983.158	1739
983.240	1310
983.322	1618
983.404	2969
983.486	3510
983.568	3565
983.649	2737
983.731	3271
983.813	2554
983.894	1784
983.976	2239
984.058	2220
984.139	2247
984.221	1525
984.302	2615
984.384	2241
984.465	1697
984.547	2349
984.628	1994
984.710	2486
984.791	2169
984.872	1307
984.954	1545
985.035	2085
985.116	1590
985.198	2566
985.279	2276
985.360	2539
985.441	2250
985.522	2769
985.604	2439
985.685	1957
985.766	2494
985.847	2050
985.928	2101
986.009	2124
986.090	1963
986.171	2558
986.252	2236
986.333	2612
986.414	2297
986.495	2285
986.576	1488
986.656	2487
986.737	2703
986.818	2932
986.899	3181
986.980	2785
987.060	2625
987.141	2437
987.222	2926
987.302	3367
987.383	3424
987.464	3119
987.544	4277
987.625	3569
987.705	3604
987.786	3580
987.866	3827
987.947	3029
988.027	2492
988.108	3887
988.188	3499
988.268	2917
988.349	2472
988.429	2980
988.509	3592
988.589	2284
988.670	2230
988.750	3902
988.830	3133
988.910	2832
988.990	2525
989.070	2896
989.151	2549
989.231	3097
989.311	3228
989.391	2591
989.471	2913
989.551	2071
989.631	2594
989.711	3213
989.791	2264
989.870	2762
989.950	2750
990.030	2265
990.110	2655
990.190	1923
990.269	1749
990.349	2458
990.429	2766
990.509	3478
990.588	1915
990.668	1754
990.747	2419
990.827	2811
990.907	1903
990.986	2576
991.066	3078
991.145	1334
991.225	2280
991.304	2201
991.383	2275
991.463	2504
991.542	2175
991.622	2788
991.701	1763
991.780	1863
991.859	1915
991.939	2175
992.018	1128
992.097	2609
992.176	2273
992.256	1621
992.335	1035
992.414	2194
992.493	1677
992.572	1790
992.651	1457
992.730	2119
992.809	1891
992.888	1411
992.967	1734
993.046	2249
993.125	1491
993.203	1956
993.282	1606
993.361	2155
993.440	1247
993.519	1140
993.597	1351
993.676	1754
993.755	1785
993.834	1824
993.912	1730
993.991	1155
994.069	1166
994.148	1811
994.226	1458
994.305	639
994.384	1165
994.462	1658
994.540	1691
994.619	1986
994.697	951
994.776	836
994.854	1158
994.932	1582
995.011	1135
995.089	1418
995.167	727
995.245	1114
995.324	196
995.402	1775
995.480	1631
995.558	621
995.636	498
995.714	1034
995.792	1634
995.870	923
995.948	299
996.026	1307
996.104	262
996.182	1370
996.260	580
996.338	103
996.416	323
996.494	967
996.572	1698
996.649	1073
996.727	21
996.805	336
996.883	885
996.960	337
997.038	124
997.116	1320
997.193	587
997.271	2011
997.348	221
997.426	493
997.504	289
997.581	1243
997.658	769
997.736	113
997.813	-435
997.891	1089
997.968	971
998.046	1513
998.123	1031
998.200	611
998.277	-1
998.355	1056
998.432	-250
998.509	290
998.586	174
998.663	1132
998.741	-76
998.818	1201
998.895	234
998.972	1413
999.049	1155
999.126	832
999.203	1358
999.280	92
999.357	-598
999.434	134
999.511	1608
999.587	604
999.664	-336
999.741	602
999.818	126
999.895	922
999.971	522
1000.048	903
1000.125	679
1000.202	141
1000.278	14
1000.355	444
1000.431	96
1000.508	329
1000.584	300
1000.661	763
1000.738	-200
1000.814	388
1000.890	281
1000.967	511
1001.043	482
1001.120	624
1001.196	346
1001.272	76
1001.349	360
1001.425	328
1001.501	748
1001.577	-242
1001.654	632
1001.730	269
1001.806	111
1001.882	-87
1001.958	293
1002.034	409
1002.110	283
1002.186	-435
1002.262	-68
1002.338	-473
1002.414	-23
1002.490	68
1002.566	160
1002.642	283
1002.718	224
1002.794	185
1002.870	171
1002.945	-58
1003.021	442
1003.097	388
1003.173	-110
1003.248	454
1003.324	-12
1003.400	531
1003.475	67
1003.551	323
1003.626	-124
1003.702	-30
1003.777	-4
1003.853	-630
1003.928	-571
1004.004	80
1004.079	520
1004.155	788
1004.230	-585
1004.305	286
1004.381	-420
1004.456	161
1004.531	-272
1004.607	-1098
1004.682	91
1004.757	65
1004.832	-374
1004.907	164
1004.982	78
1005.057	343
1005.133	-199
1005.208	-479
1005.283	-307
1005.358	489
1005.433	-385
1005.508	-608
1005.583	-617
1005.657	-248
1005.732	-490
1005.807	-13
1005.882	-811
1005.957	-8
1006.032	530
1006.106	150
1006.181	-344
1006.256	484
1006.331	-586
1006.405	-153
1006.480	-886
1006.554	-237
1006.629	-447
1006.704	277
1006.778	227
1006.853	651
1006.927	128
1007.002	-246
1007.076	-472
1007.150	-119
1007.225	-870
1007.299	-1065
1007.373	-394
1007.448	-276
1007.522	57
1007.596	12
1007.671	-431
1007.745	-557
1007.819	-360
1007.893	-1262
1007.967	-188
1008.041	-421
1008.115	-136
1008.190	-1223
1008.264	-356
1008.338	-461
1008.412	416
1008.486	-690
1008.560	-717
1008.633	-253
1008.707	-299
1008.781	-381
1008.855	44
1008.929	-271
1009.003	-109
1009.076	-172
1009.150	-904
1009.224	-248
1009.298	-631
1009.371	-486
1009.445	-288
1009.519	-605
1009.592	-369
1009.666	-845
1009.739	-660
1009.813	-245
1009.886	315
1009.960	-783
1010.033	-469
1010.107	236
1010.180	-614
1010.253	321
1010.327	-1047
1010.400	-906
1010.473	-353
1010.547	1002
1010.620	-698
1010.693	-252
1010.766	-795
1010.840	133
1010.913	-965
1010.986	-354
1011.059	186
1011.132	-1308
1011.205	-595
1011.278	-513
1011.351	-571
1011.424	-110
1011.497	-1188
1011.570	-869
1011.643	-506
1011.716	-751
1011.789	-117
1011.862	26
1011.934	-599
1012.007	-1730
1012.080	-1184
1012.153	-1035
1012.225	-852
1012.298	-345
1012.371	-1135
1012.443	-785
1012.516	-547
1012.588	-717
1012.661	-201
1012.733	-681
1012.806	-1287
1012.879	-1333
1012.951	-269
1013.023	-1115
1013.096	-391
1013.168	-8
1013.241	-854
1013.313	47
1013.385	-1058
1013.458	-856
1013.530	-306
1013.602	-319
1013.674	-828
1013.746	-1060
1013.819	-716
1013.891	-853
1013.963	-1356
1014.035	-547
1014.107	-756
1014.179	-950
1014.251	-1074
1014.323	-1154
1014.395	-1510
1014.467	-1074
1014.539	-834
1014.611	-996
1014.683	-1344
1014.754	-1485
1014.826	-1261
1014.898	-338
1014.970	-1066
1015.042	232
1015.113	-1255
1015.185	-243
1015.257	-1344
1015.328	-1140
1015.400	-1671
1015.471	-1519
1015.543	-1056
1015.615	-967
1015.686	-929
1015.757	-486
1015.829	-1233
1015.901	-1448
1015.972	-1328
1016.043	-758
1016.115	-1324
1016.186	-462
1016.257	-1662
1016.328	-467
1016.400	-921
1016.471	-944
1016.542	-1519
1016.613	-967
1016.685	-735
1016.756	-73
1016.827	-972
1016.898	-1017
1016.969	-654
1017.040	-1601
1017.111	-884
1017.182	-1768
1017.253	-682
1017.324	-1030
1017.395	-1320
1017.466	-735
1017.537	-1984
1017.608	-1135
1017.678	-1198
1017.749	-1438
1017.820	-1210
1017.891	-1397
1017.961	-1277
1018.032	-1262
1018.103	-938
1018.173	-396
1018.244	-999
1018.315	-1716
1018.385	-327
1018.456	-1552
1018.526	-1365
1018.597	-985
1018.667	-1329
1018.738	-1218
1018.808	-873
1018.878	-1072
1018.949	-2236
1019.019	-935
1019.089	-1294
1019.160	-949
1019.230	-2479
1019.300	-988
1019.371	-909
1019.441	-941
1019.511	-681
1019.581	-866
1019.651	-1197
1019.721	-1311
1019.791	-1403
1019.861	-1104
1019.931	-1287
1020.001	-561
1020.071	-827
1020.141	-864
1020.211	-1443
1020.281	-1531
1020.351	-1296
1020.421	-889
1020.491	-1114
1020.560	-1014
1020.630	-1244
1020.700	-985
1020.770	-1132
1020.839	-454
1020.909	-974
1020.979	-1442
1021.048	-995
1021.118	-1489
1021.187	-1288
1021.257	-130
1021.326	-1261
1021.396	-1687
1021.465	-1400
1021.535	-1036
1021.604	-1161
1021.674	-775
1021.743	-946
1021.812	-942
1021.882	-1084
1021.951	-1250
1022.020	-1953
1022.089	-1008
1022.159	-1669
1022.228	-1065
1022.297	-1546
1022.366	-1338
1022.435	-2449
1022.504	-1090
1022.573	-2181
1022.642	-1317
1022.711	-1704
1022.781	-691
1022.849	-2328
1022.918	-1571
1022.987	-1032
1023.056	-949
1023.125	-968
1023.194	-1413
1023.263	-1378
1023.331	-1121
1023.400	-2283
1023.469	-1518
1023.538	-1267
1023.606	-1400
1023.675	-1027
1023.744	-1656
1023.812	-1626
1023.881	-1445
1023.949	-80
1024.018	-2014
1024.086	-1153
1024.155	-694
1024.223	-1278
1024.292	-848
1024.360	-1893
1024.429	-1303
1024.497	-1405
1024.565	-1103
1024.634	-2133
1024.702	-1405
1024.770	-803
1024.838	-1385
1024.907	-1788
1024.975	-1248
1025.043	-1068
1025.111	-1985
1025.179	-1553
1025.247	-1765
1025.315	-1612
1025.383	-974
1025.451	-1294
1025.519	-2274
1025.587	-2578
1025.655	-708
1025.723	-2430
1025.791	-1895
1025.859	-1185
1025.927	-917
1025.995	-1823
1026.062	-1210
1026.130	-1974
1026.198	-1254
1026.266	-1826
1026.333	-1402
1026.401	-1539
1026.469	-1313
1026.536	-1471
1026.604	-367
1026.671	-1233
1026.739	-1503
1026.806	-1599
1026.874	-2167
1026.941	-795
1027.009	-2024
1027.076	-802
1027.144	-1292
1027.211	-1856
1027.278	-1847
1027.345	-1247
1027.413	-1495
1027.480	-1740
1027.547	-1901
1027.614	-1719
1027.682	-949
1027.749	-2092
1027.816	-1234
1027.883	-1441
1027.950	-2383
1028.017	-1341
1028.084	-978
1028.151	-2456
1028.218	-1778
1028.285	-1218
1028.352	-1208
1028.419	-1548
1028.486	-1013
1028.553	-1003
1028.619	-1379
1028.686	-1516
1028.753	-2399
1028.820	-1297
1028.886	-735
1028.953	-1247
1029.020	-1872
1029.086	-1502
1029.153	-1777
1029.220	-1857
1029.286	-2087
1029.353	-1750
1029.419	-1103
1029.486	-1943
1029.552	-1411
1029.619	-1991
1029.685	-1077
1029.751	-2152
1029.818	-1188
1029.884	-1894
1029.951	-1031
1030.017	-1179
1030.083	-1507
1030.149	-1289
1030.216	-1780
1030.282	-1992
1030.348	-919
1030.414	-1950
1030.480	-1155
1030.546	-1383
1030.612	-1572
1030.678	-1597
1030.744	-1881
1030.810	-1477
1030.876	-1712
1030.942	-1970
1031.008	-1235
1031.074	-2392
1031.140	-1660
1031.206	-1875
1031.272	-2445
1031.337	-2093
1031.403	-2167
1031.469	-1287
1031.534	-1321
1031.600	-1874
1031.666	-1815
1031.731	-1979
1031.797	-836
1031.863	-1642
1031.928	-1685
1031.994	-1922
1032.059	-1420
1032.125	-1672
1032.190	-1586
1032.256	-1517
1032.321	-1687
1032.386	-1941
1032.452	-1758
1032.517	-2446
1032.582	-1574
1032.647	-1706
1032.713	-2159
1032.778	-1179
1032.843	-1502
1032.908	-1642
1032.974	-1892
1033.039	-1567
1033.104	-1440
1033.169	-1632
1033.234	-1920
1033.299	-1757
1033.364	-2110
1033.429	-2090
1033.494	-1474
1033.559	-1999
1033.624	-1548
1033.688	-2095
1033.753	-2307
1033.818	-1509
1033.883	-1185
1033.948	-1301
1034.013	-1487
1034.077	-480
1034.142	-1259
1034.207	-835
1034.271	-576
1034.336	-289
1034.400	293
1034.465	-81
1034.530	-500
1034.594	-1978
1034.658	-969
1034.723	-1701
1034.787	-1936
1034.852	-2336
1034.916	-2195
1034.981	-2307
1035.045	-1770
1035.109	-1705
1035.173	-1854
1035.238	-2345
1035.302	-1830
1035.366	-2118
1035.430	-1258
1035.495	-2107
1035.559	-1748
1035.623	-1572
1035.687	-1738
1035.751	-1762
1035.815	-788
1035.879	-2087
1035.943	-1637
1036.007	-2139
1036.071	-1776
1036.135	-1517
1036.198	-1302
1036.262	-1623
1036.326	-1856
1036.390	-2141
1036.454	-1084
1036.517	-1808
1036.581	-1095
1036.645	-1813
1036.709	-1737
1036.772	-1396
1036.836	-1673
1036.900	-1725
1036.963	-1834
1037.026	-2254
1037.090	-1089
1037.154	-1572
1037.217	-644
1037.280	-1931
1037.344	-2003
1037.407	-1669
1037.471	-1627
1037.534	-1708
1037.597	-1521
1037.661	-1573
1037.724	-1903
1037.787	-2051
1037.850	-1729
1037.913	-1784
1037.977	-590
1038.040	-2161
1038.103	-1475
1038.166	-1535
1038.229	-1268
1038.292	-2276
1038.355	-1488
1038.418	-1695
1038.481	-2056
1038.544	-2280
1038.607	-2178
1038.670	-1266
1038.732	-1809
1038.795	-2031
1038.858	-1674
1038.921	-1349
1038.984	-1498
1039.046	-2268
1039.109	-1927
1039.172	-1426
1039.234	-1392
1039.297	-2039
1039.360	-1773
1039.422	-1166
1039.485	-1935
1039.547	-2129
1039.610	-1625
1039.672	-2203
1039.734	-1317
1039.797	-2223
1039.859	-1352
1039.922	-1328
1039.984	-1369
1040.046	-1436
1040.109	-1901
1040.171	-2033
1040.233	-1948
1040.295	-2258
1040.358	-1235
1040.420	-1604
1040.482	-2056
1040.544	-1092
1040.606	-1224
1040.668	-1620
1040.730	-1537
1040.792	-2158
1040.854	-2446
1040.916	-2256
1040.978	-2255
1041.040	-1638
1041.102	-1704
1041.164	-1538
1041.225	-1837
1041.287	-2617
1041.349	-1938
1041.411	-2176
1041.472	-2091
1041.534	-1544
1041.596	-2518
1041.657	-1509
1041.719	-1286
1041.781	-1864
1041.842	-1630
1041.904	-1917
1041.965	-1796
1042.027	-2088
1042.088	-1149
1042.150	-1558
1042.211	-1956
1042.272	-1787
1042.334	-1633
1042.395	-2278
1042.456	-2324
1042.518	-2293
1042.579	-1839
1042.640	-2913
1042.701	-1654
1042.763	-2121
1042.824	-1464
1042.885	-1986
1042.946	-1564
1043.007	-2338
1043.068	-1334
1043.129	-1948
1043.190	-2313
1043.251	-1117
1043.312	-2156
1043.373	-2620
1043.434	-1982
1043.495	-2604
1043.556	-1738
1043.616	-2592
1043.677	-1559
1043.738	-1726
1043.799	-2201
1043.859	-2294
1043.920	-1925
1043.981	-2537
1044.041	-1833
1044.102	-2028
1044.162	-1983
1044.223	-2446
1044.284	-2095
1044.344	-2124
1044.405	-1884
1044.465	-1676
1044.525	-1283
1044.586	-2023
1044.646	-888
1044.707	-1521
1044.767	-1477
1044.827	-1744
1044.887	-1414
1044.948	-1930
1045.008	-2087
1045.068	-1944
1045.128	-1629
1045.188	-1311
1045.249	-1331
1045.309	-1530
1045.369	-1225
1045.429	-1377
1045.489	-1682
1045.549	-1817
1045.609	-1365
1045.669	-2047
1045.729	-1548
1045.789	-2139
1045.848	-1437
1045.908	-2265
1045.968	-2026
1046.028	-1086
1046.088	-2074
1046.147	-1448
1046.207	-639
1046.267	-835
1046.326	-1099
1046.386	-2440
1046.446	-1281
1046.505	-1394
1046.565	-741
1046.624	-749
1046.684	-684
1046.743	-928
1046.803	-344
1046.862	-72
1046.922	0
