'Start Wavelength	183.907
'End Wavelength	1046.922
'Gate Delay	5.000
'Gate Width (ms)	1.050
'Laser Output Level	0.000
'X Position	0.000
'Y Position	0.000
'Z Position	0.000
'Grid Point Number	1.000
'Shot Number	100.000
183.907	350.000
183.977	220.000
184.047	-44
184.116	567
184.186	861
184.256	384
184.325	-5
184.395	293
184.465	-37
184.534	1094
184.604	500
184.674	-304
184.743	566
184.813	102
184.883	94
184.952	-63
185.022	-57
185.092	374
185.161	727
185.231	5
185.301	-144
185.370	1237
185.440	-545
185.509	450
185.579	-57
185.649	1299
185.718	88
185.788	504
185.857	-409
185.927	572
185.996	266
186.066	261
186.136	644
186.205	-127
186.275	-109
186.344	842
186.414	329
186.483	1223
186.553	1026
186.622	1232
186.692	667
186.761	134
186.831	349
186.900	574
186.970	133
187.039	534
187.109	833
187.178	70
187.248	325
187.317	1623
187.387	719
187.456	1238
187.526	-191
187.595	802
187.664	779
187.734	751
187.803	529
187.873	920
187.942	603
188.012	990
188.081	141
188.150	377
188.220	1217
188.289	1398
188.358	166
188.428	1341
188.497	266
188.567	1075
188.636	344
188.705	187
188.775	572
188.844	590
188.913	384
188.983	1309
189.052	689
189.121	713
189.191	10
189.260	1288
189.329	-190
189.399	1083
189.468	791
189.537	63
189.606	-158
189.676	874
189.745	474
189.814	811
189.883	494
189.953	824
190.022	1019
190.091	1183
190.161	422
190.230	1043
190.299	406
190.368	1004
190.437	254
190.507	965
190.576	100
190.645	729
190.714	-684
190.783	1053
190.853	444
190.922	463
190.991	384
191.060	895
191.129	316
191.198	497
191.268	964
191.337	395
191.406	971
191.475	410
191.544	327
191.613	1903
191.682	-373
191.752	396
191.821	830
191.890	1028
191.959	94
192.028	383
192.097	549
192.166	649
192.235	406
192.304	1259
192.373	-172
192.442	343
192.511	500
192.580	835
192.650	54
192.719	291
192.788	628
192.857	405
192.926	-49
192.995	636
193.064	1055
193.133	396
193.202	434
193.271	899
193.340	952
193.409	975
193.478	29
193.547	885
193.615	766
193.684	1109
193.753	394
193.822	794
193.891	274
193.960	795
194.029	-54
194.098	487
194.167	-20
194.236	671
194.305	30
194.374	1015
194.443	681
194.512	510
194.580	333
194.649	557
194.718	523
194.787	798
194.856	271
194.925	633
194.994	147
195.062	273
195.131	-142
195.200	964
195.269	304
195.338	656
195.407	506
195.475	533
195.544	69
195.613	919
195.682	826
195.751	779
195.819	180
195.888	903
195.957	1097
196.026	958
196.094	299
196.163	208
196.232	914
196.301	321
196.369	69
196.438	726
196.507	430
196.576	892
196.644	544
196.713	1369
196.782	-104
196.850	784
196.919	95
196.988	373
197.056	668
197.125	641
197.194	-46
197.262	290
197.331	136
197.400	747
197.468	183
197.537	962
197.606	285
197.674	1317
197.743	497
197.812	662
197.880	374
197.949	934
198.017	314
198.086	311
198.155	881
198.223	1251
198.292	203
198.360	450
198.429	-63
198.497	865
198.566	41
198.635	-166
198.703	730
198.772	314
198.840	480
198.909	695
198.977	280
199.046	678
199.114	217
199.183	1374
199.251	0
199.320	479
199.388	762
199.457	143
199.525	343
199.594	453
199.662	126
199.731	429
199.799	559
199.867	1207
199.936	507
200.004	926
200.073	854
200.141	525
200.210	-156
200.278	1459
200.346	1013
200.415	727
200.483	375
200.552	822
200.620	1185
200.688	32
200.757	-65
200.825	254
200.893	69
200.962	959
201.030	499
201.098	697
201.167	24
201.235	210
201.303	467
201.372	851
201.440	291
201.508	527
201.577	-190
201.645	536
201.713	-195
201.781	1563
201.850	385
201.918	123
201.986	-121
202.055	953
202.123	-61
202.191	1355
202.259	664
202.327	549
202.396	244
202.464	854
202.532	332
202.600	912
202.669	482
202.737	549
202.805	-789
202.873	329
202.941	798
203.009	818
203.078	256
203.146	829
203.214	433
203.282	259
203.350	74
203.418	1130
203.487	737
203.555	828
203.623	521
203.691	1082
203.759	-56
203.827	828
203.895	1308
203.963	1096
204.031	240
204.099	976
204.168	633
204.236	293
204.304	664
204.372	523
204.440	208
204.508	61
204.576	146
204.644	15
204.712	418
204.780	833
204.848	708
204.916	655
204.984	489
205.052	654
205.120	184
205.188	1201
205.256	703
205.324	391
205.392	935
205.460	1082
205.528	835
205.596	1022
205.664	288
205.732	985
205.799	587
205.867	1124
205.935	-238
206.003	921
206.071	-176
206.139	507
206.207	96
206.275	827
206.343	-148
206.411	173
206.478	99
206.546	1194
206.614	580
206.682	992
206.750	1172
206.818	1261
206.885	699
206.953	225
207.021	133
207.089	913
207.157	9
207.225	700
207.292	-366
207.360	760
207.428	476
207.496	648
207.563	519
207.631	651
207.699	46
207.767	691
207.834	50
207.902	609
207.970	763
208.038	602
208.105	862
208.173	263
208.241	307
208.309	917
208.376	728
208.444	1377
208.512	159
208.579	616
208.647	1229
208.715	811
208.782	284
208.850	175
208.918	467
208.985	1272
209.053	244
209.120	1107
209.188	143
209.256	1370
209.323	344
209.391	431
209.459	831
209.526	526
209.594	252
209.661	256
209.729	162
209.796	1709
209.864	68
209.932	270
209.999	627
210.067	718
210.134	1249
210.202	1312
210.269	1853
210.337	2142
210.404	639
210.472	546
210.539	-398
210.607	296
210.674	-104
210.742	246
210.809	830
210.877	996
210.944	530
211.012	1220
211.079	448
211.146	575
211.214	945
211.281	2285
211.349	1381
211.416	1166
211.484	1049
211.551	578
211.618	310
211.686	1531
211.753	354
211.821	701
211.888	444
211.955	1773
212.023	851
212.090	481
212.157	17
212.225	844
212.292	-187
212.359	1916
212.427	2277
212.494	1030
212.561	613
212.629	485
212.696	554
212.763	165
212.831	-37
212.898	89
212.965	237
213.032	587
213.100	633
213.167	676
213.234	413
213.301	741
213.369	666
213.436	491
213.503	949
213.570	-233
213.638	-35
213.705	1189
213.772	-17
213.839	369
213.906	-220
213.973	669
214.041	-502
214.108	702
214.175	-483
214.242	872
214.309	445
214.376	283
214.444	761
214.511	1026
214.578	897
214.645	1471
214.712	1011
214.779	786
214.846	835
214.913	1550
214.980	1415
215.048	1599
215.115	1971
215.182	1758
215.249	669
215.316	1320
215.383	740
215.450	796
215.517	72
215.584	588
215.651	445
215.718	898
215.785	186
215.852	80
215.919	-116
215.986	1137
216.053	-305
216.120	662
216.187	476
216.254	511
216.321	769
216.388	923
216.455	38
216.522	1084
216.589	284
216.656	1577
216.722	261
216.789	387
216.856	217
216.923	915
216.990	1209
217.057	692
217.124	212
217.191	476
217.258	419
217.324	467
217.391	523
217.458	799
217.525	594
217.592	584
217.659	284
217.725	340
217.792	602
217.859	947
217.926	408
217.993	833
218.059	136
218.126	859
218.193	706
218.260	993
218.327	-287
218.393	762
218.460	503
218.527	507
218.594	616
218.660	403
218.727	246
218.794	475
218.860	4
218.927	870
218.994	318
219.061	539
219.127	40
219.194	724
219.261	677
219.327	229
219.394	689
219.461	617
219.527	32
219.594	1045
219.661	944
219.727	585
219.794	1243
219.860	1382
219.927	2083
219.994	3048
220.060	2973
220.127	3808
220.193	2202
220.260	1535
220.326	712
220.393	1176
220.460	348
220.526	-15
220.593	685
220.659	962
220.726	527
220.792	1549
220.859	1020
220.925	882
220.992	384
221.058	1568
221.125	1384
221.191	987
221.258	711
221.324	778
221.391	275
221.457	199
221.524	986
221.590	865
221.657	1919
221.723	564
221.789	599
221.856	1140
221.922	488
221.989	1645
222.055	1358
222.121	474
222.188	1047
222.254	698
222.321	587
222.387	573
222.453	-324
222.520	1152
222.586	-555
222.652	697
222.719	362
222.785	-90
222.851	637
222.918	956
222.984	619
223.050	-316
223.116	189
223.183	640
223.249	-317
223.315	889
223.382	799
223.448	300
223.514	31
223.580	1066
223.647	-331
223.713	266
223.779	306
223.845	646
223.911	543
223.978	249
224.044	-171
224.110	153
224.176	-127
224.242	833
224.309	391
224.375	346
224.441	522
224.507	519
224.573	24
224.639	639
224.705	52
224.772	648
224.838	402
224.904	211
224.970	1
225.036	475
225.102	508
225.168	1307
225.234	891
225.300	1473
225.366	-100
225.432	1239
225.499	-178
225.565	202
225.631	593
225.697	844
225.763	315
225.829	477
225.895	-50
225.961	924
226.027	595
226.093	455
226.159	628
226.225	1210
226.291	1348
226.357	1745
226.423	718
226.489	1255
226.554	208
226.620	1218
226.686	151
226.752	883
226.818	1436
226.884	3496
226.950	1462
227.016	1618
227.082	1331
227.148	1828
227.214	1394
227.279	2196
227.345	1277
227.411	3973
227.477	4733
227.543	4489
227.609	6669
227.674	5305
227.740	3200
227.806	1833
227.872	2073
227.938	1059
228.003	1220
228.069	1658
228.135	1011
228.201	1031
228.267	431
228.332	789
228.398	256
228.464	446
228.530	896
228.595	782
228.661	461
228.727	1461
228.792	988
228.858	127
228.924	178
228.990	1588
229.055	23
229.121	1100
229.187	-872
229.252	568
229.318	171
229.384	377
229.449	-110
229.515	135
229.581	-483
229.646	1637
229.712	98
229.777	364
229.843	504
229.909	1039
229.974	396
230.040	278
230.105	510
230.171	489
230.236	-13
230.302	968
230.368	380
230.433	538
230.499	765
230.564	1034
230.630	467
230.695	1015
230.761	500
230.826	1039
230.892	355
230.957	246
231.023	285
231.088	755
231.154	670
231.219	867
231.284	318
231.350	1117
231.415	581
231.481	640
231.546	468
231.612	565
231.677	94
231.742	142
231.808	348
231.873	321
231.939	-210
232.004	712
232.069	210
232.135	176
232.200	391
232.265	76
232.331	393
232.396	656
232.461	421
232.527	636
232.592	-395
232.657	1312
232.723	-484
232.788	399
232.853	751
232.918	1558
232.984	202
233.049	1222
233.114	229
233.179	1894
233.245	526
233.310	493
233.375	153
233.440	490
233.506	28
233.571	134
233.636	474
233.701	260
233.766	130
233.832	641
233.897	998
233.962	-409
234.027	-102
234.092	767
234.157	87
234.222	1970
234.288	1292
234.353	1628
234.418	594
234.483	1057
234.548	730
234.613	606
234.678	409
234.743	794
234.808	504
234.873	434
234.938	782
235.004	291
235.069	245
235.134	158
235.199	491
235.264	1011
235.329	347
235.394	715
235.459	776
235.524	771
235.589	147
235.654	474
235.719	-246
235.784	577
235.849	435
235.913	1223
235.978	493
236.043	1208
236.108	449
236.173	574
236.238	451
236.303	695
236.368	539
236.433	971
236.498	1030
236.563	452
236.627	729
236.692	4626
236.757	1796
236.822	1296
236.887	452
236.952	920
237.017	5
237.081	920
237.146	-40
237.211	1816
237.276	4386
237.341	5897
237.405	1325
237.470	1955
237.535	553
237.600	731
237.664	138
237.729	370
237.794	500
237.859	912
237.923	0
237.988	417
238.053	73
238.118	466
238.182	747
238.247	1687
238.312	179
238.376	986
238.441	466
238.506	1410
238.570	-83
238.635	813
238.700	685
238.764	379
238.829	432
238.893	1181
238.958	255
239.023	1470
239.087	1426
239.152	1585
239.216	1082
239.281	1490
239.346	541
239.410	1289
239.475	1032
239.539	2074
239.604	2133
239.668	4114
239.733	5030
239.797	9647
239.862	10868
239.926	10323
239.991	6192
240.055	3827
240.120	2248
240.184	2170
240.249	910
240.313	1782
240.378	1029
240.442	1952
240.507	1054
240.571	928
240.635	469
240.700	554
240.764	821
240.829	1197
240.893	1161
240.957	1131
241.022	1697
241.086	1520
241.151	583
241.215	968
241.279	123
241.344	427
241.408	404
241.472	247
241.537	526
241.601	630
241.665	366
241.730	646
241.794	530
241.858	844
241.922	1083
241.987	-27
242.051	58
242.115	554
242.179	618
242.244	222
242.308	838
242.372	-78
242.436	121
242.501	1063
242.565	155
242.629	673
242.693	492
242.757	516
242.822	-259
242.886	1346
242.950	596
243.014	278
243.078	114
243.142	504
243.206	229
243.271	776
243.335	674
243.399	259
243.463	2751
243.527	4169
243.591	342
243.655	1020
243.719	451
243.783	1048
243.847	496
243.911	1481
243.975	996
244.040	820
244.104	986
244.168	1393
244.232	839
244.296	802
244.360	289
244.424	303
244.488	633
244.552	1436
244.615	298
244.679	1070
244.743	651
244.807	552
244.871	456
244.935	1509
244.999	6
245.063	507
245.127	571
245.191	974
245.255	-51
245.319	984
245.383	-311
245.446	1466
245.510	164
245.574	199
245.638	640
245.702	716
245.766	441
245.829	1128
245.893	500
245.957	851
246.021	958
246.085	1495
246.149	942
246.212	1240
246.276	41
246.340	758
246.404	959
246.467	757
246.531	-141
246.595	1518
246.659	75
246.722	851
246.786	582
246.850	1893
246.913	265
246.977	574
247.041	425
247.104	1562
247.168	623
247.232	1494
247.295	749
247.359	942
247.423	-91
247.486	217
247.550	694
247.614	528
247.677	557
247.741	1008
247.804	1242
247.868	2068
247.932	960
247.995	2659
248.059	823
248.122	766
248.186	1645
248.249	1876
248.313	3393
248.376	2392
248.440	429
248.503	881
248.567	994
248.630	1439
248.694	862
248.757	2153
248.821	2628
248.884	2242
248.948	1869
249.011	1927
249.075	3167
249.138	1902
249.202	749
249.265	1499
249.328	1095
249.392	655
249.455	480
249.519	1412
249.582	1153
249.645	1829
249.709	1054
249.772	201
249.835	1236
249.899	946
249.962	1865
250.025	196
250.089	1716
250.152	1749
250.215	1066
250.279	1302
250.342	821
250.405	1387
250.468	484
250.532	747
250.595	1743
250.658	8856
250.721	6826
250.785	1864
250.848	1876
250.911	489
250.974	797
251.038	1795
251.101	1935
251.164	1376
251.227	1194
251.290	1418
251.354	2487
251.417	10982
251.480	4477
251.543	6694
251.606	17473
251.669	6880
251.732	2113
251.795	2625
251.859	4399
251.922	10144
251.985	2315
252.048	2206
252.111	1258
252.174	1021
252.237	1249
252.300	3391
252.363	6636
252.426	10839
252.489	1249
252.552	1889
252.615	1362
252.678	1691
252.741	2608
252.804	7592
252.867	10906
252.930	4255
252.993	1108
253.056	1477
253.119	1248
253.182	1784
253.245	1424
253.308	2051
253.371	423
253.434	1081
253.497	1471
253.559	1794
253.622	786
253.685	1351
253.748	628
253.811	562
253.874	889
253.937	1257
254.000	1188
254.062	2102
254.125	1448
254.188	2168
254.251	510
254.314	1215
254.376	511
254.439	1817
254.502	1154
254.565	1258
254.628	2058
254.690	1019
254.753	788
254.816	799
254.878	1303
254.941	2515
255.004	1756
255.067	2026
255.129	711
255.192	1236
255.255	63
255.317	1831
255.380	1253
255.443	2081
255.505	1302
255.568	826
255.631	1017
255.693	2349
255.756	1780
255.819	3117
255.881	1900
255.944	1439
256.006	812
256.069	555
256.132	561
256.194	1959
256.257	1315
256.319	1735
256.382	3586
256.444	3833
256.507	2581
256.569	2108
256.632	1214
256.694	1072
256.757	3004
256.819	5702
256.882	1706
256.944	2031
257.007	1605
257.069	1131
257.132	839
257.194	1490
257.257	602
257.319	1215
257.381	1100
257.444	3497
257.506	8023
257.569	5701
257.631	2273
257.693	1870
257.756	662
257.818	1422
257.880	1175
257.943	1002
258.005	812
258.067	597
258.130	1121
258.192	1078
258.254	671
258.317	479
258.379	1604
258.441	1509
258.503	1437
258.566	875
258.628	1560
258.690	1292
258.753	1333
258.815	1403
258.877	553
258.939	1827
259.001	1413
259.064	871
259.126	1138
259.188	1427
259.250	656
259.312	1444
259.375	1733
259.437	1024
259.499	472
259.561	742
259.623	1517
259.685	1104
259.747	1413
259.809	2642
259.872	1843
259.934	1963
259.996	2070
260.058	1713
260.120	1423
260.182	1553
260.244	374
260.306	1130
260.368	2095
260.430	438
260.492	1840
260.554	1636
260.616	830
260.678	1392
260.740	947
260.802	1212
260.864	2453
260.926	1401
260.988	1872
261.050	2084
261.112	1334
261.174	2041
261.236	2266
261.298	1558
261.359	1047
261.421	2282
261.483	633
261.545	2099
261.607	1926
261.669	1907
261.731	2159
261.793	2008
261.854	773
261.916	1797
261.978	895
262.040	1540
262.102	2260
262.164	1678
262.225	1772
262.287	2134
262.349	847
262.411	1445
262.472	1580
262.534	1985
262.596	1733
262.658	2508
262.719	1355
262.781	2492
262.843	1100
262.904	2088
262.966	1825
263.028	1754
263.090	3315
263.151	4162
263.213	1433
263.275	1734
263.336	1688
263.398	2373
263.459	776
263.521	2203
263.583	1539
263.644	1682
263.706	1532
263.767	1739
263.829	1841
263.891	1706
263.952	951
264.014	1304
264.075	1201
264.137	1969
264.198	1105
264.260	1835
264.321	1064
264.383	2122
264.444	1358
264.506	1095
264.567	988
264.629	2963
264.690	1151
264.752	1850
264.813	1655
264.875	1641
264.936	2361
264.998	2458
265.059	2024
265.120	2620
265.182	1878
265.243	4134
265.305	3211
265.366	2083
265.427	1752
265.489	2172
265.550	1242
265.611	1962
265.673	1126
265.734	2341
265.795	1450
265.857	1867
265.918	1877
265.979	3275
266.040	5337
266.102	3522
266.163	2609
266.224	1890
266.286	1074
266.347	1487
266.408	1546
266.469	1913
266.530	1957
266.592	2864
266.653	2128
266.714	1497
266.775	1881
266.836	1761
266.898	1180
266.959	1660
267.020	1493
267.081	1997
267.142	1263
267.203	1787
267.264	1129
267.326	2703
267.387	1371
267.448	1471
267.509	1285
267.570	1685
267.631	1305
267.692	2050
267.753	1893
267.814	1709
267.875	1859
267.936	1582
267.997	1592
268.058	1900
268.119	1328
268.180	2331
268.241	564
268.302	1811
268.363	1355
268.424	1603
268.485	1328
268.546	1656
268.607	1369
268.668	1630
268.729	1545
268.790	2052
268.851	1577
268.912	1692
268.972	1623
269.033	1985
269.094	729
269.155	2448
269.216	1560
269.277	2137
269.338	2244
269.398	2417
269.459	685
269.520	1899
269.581	1419
269.642	2001
269.702	1209
269.763	2023
269.824	972
269.885	1701
269.945	1775
270.006	1764
270.067	144
270.128	2419
270.188	1058
270.249	2155
270.310	624
270.370	2144
270.431	1302
270.492	1885
270.553	1800
270.613	2842
270.674	1979
270.734	1759
270.795	1927
270.856	1697
270.916	1321
270.977	2530
271.038	1061
271.098	1388
271.159	1734
271.219	1992
271.280	2039
271.340	2390
271.401	1566
271.462	2502
271.522	2509
271.583	2473
271.643	1746
271.704	1710
271.764	2532
271.825	1353
271.885	3877
271.946	3498
272.006	2689
272.066	4227
272.127	6724
272.187	11452
272.248	4581
272.308	2993
272.369	3653
272.429	2173
272.489	1395
272.550	1423
272.610	1718
272.671	2926
272.731	2639
272.791	2089
272.852	2332
272.912	2691
272.972	2165
273.033	2973
273.093	1270
273.153	2409
273.214	2302
273.274	2114
273.334	3063
273.394	2370
273.455	2001
273.515	2261
273.575	2115
273.635	2721
273.696	3124
273.756	3522
273.816	2163
273.876	2738
273.936	1666
273.997	2769
274.057	1257
274.117	2683
274.177	2475
274.237	4376
274.297	3029
274.358	3079
274.418	2844
274.478	2606
274.538	2220
274.598	2180
274.658	2853
274.718	2176
274.778	2114
274.838	2750
274.898	2346
274.958	3172
275.018	3940
275.078	3329
275.138	2063
275.198	2804
275.258	1707
275.318	2840
275.378	2082
275.438	2801
275.498	2239
275.558	3227
275.618	3003
275.678	3506
275.738	3785
275.798	3587
275.858	1802
275.918	2530
275.978	2286
276.038	3580
276.098	3103
276.157	3109
276.217	2947
276.277	3032
276.337	2671
276.397	3077
276.457	3466
276.517	3522
276.576	2231
276.636	2869
276.696	2441
276.756	2962
276.815	2792
276.875	3251
276.935	2599
276.995	3499
277.055	4079
277.114	4438
277.174	2029
277.234	2975
277.293	1736
277.353	2668
277.413	2500
277.472	2651
277.532	1580
277.592	3131
277.651	4865
277.711	5026
277.771	3389
277.830	7239
277.890	4545
277.950	6691
278.009	11396
278.069	4707
278.128	6960
278.188	6316
278.248	4518
278.307	8479
278.367	4323
278.426	3493
278.486	2549
278.545	2594
278.605	3007
278.664	2857
278.724	2502
278.783	3281
278.843	4577
278.902	3105
278.962	1951
279.021	3690
279.081	2875
279.140	3192
279.199	2334
279.259	3384
279.318	3178
279.378	3320
279.437	5302
279.496	12158
279.556	33020
279.615	15039
279.675	5368
279.734	5109
279.793	5809
279.853	6673
279.912	3867
279.971	3488
280.031	2775
280.090	5338
280.149	5225
280.208	6423
280.268	23797
280.327	13113
280.386	5233
280.445	3909
280.505	2743
280.564	3857
280.623	2965
280.682	3120
280.742	3269
280.801	2380
280.860	1843
280.919	3329
280.978	2683
281.037	3035
281.097	1919
281.156	3633
281.215	2919
281.274	3063
281.333	3981
281.392	2787
281.451	1708
281.510	4014
281.569	2514
281.628	2952
281.688	2941
281.747	3216
281.806	2077
281.865	2732
281.924	2613
281.983	2967
282.042	2893
282.101	3199
282.160	2990
282.219	2820
282.278	2246
282.337	2976
282.396	2915
282.454	3744
282.513	2295
282.572	3504
282.631	2487
282.690	3168
282.749	2650
282.808	3455
282.867	2698
282.926	2766
282.985	2858
283.043	3186
283.102	2908
283.161	3671
283.220	2814
283.279	3120
283.338	2676
283.396	3912
283.455	3592
283.514	3359
283.573	2672
283.631	3550
283.690	3228
283.749	2560
283.808	3452
283.866	3249
283.925	2684
283.984	3811
284.043	3323
284.101	2990
284.160	2305
284.219	3598
284.277	3114
284.336	3984
284.395	3625
284.453	3563
284.512	2991
284.570	4366
284.629	3366
284.688	3738
284.746	3045
284.805	3997
284.863	4459
284.922	4828
284.981	5626
285.039	7712
285.098	12051
285.156	27779
285.215	44529
285.273	37355
285.332	18123
285.390	10574
285.449	8977
285.507	6925
285.566	5609
285.624	4777
285.683	4130
285.741	4179
285.799	3772
285.858	2645
285.916	3734
285.975	3847
286.033	3628
286.091	3931
286.150	3578
286.208	3713
286.267	3484
286.325	3515
286.383	3630
286.442	3717
286.500	3776
286.558	3406
286.616	2751
286.675	4275
286.733	3329
286.791	2708
286.850	3282
286.908	3748
286.966	3116
287.024	3836
287.083	3156
287.141	3441
287.199	3062
287.257	4137
287.315	3800
287.374	4145
287.432	3914
287.490	3463
287.548	4010
287.606	3733
287.664	4060
287.723	4381
287.781	3002
287.839	3306
287.897	3049
287.955	3403
288.013	4452
288.071	5469
288.129	20648
288.187	33437
288.245	10953
288.303	6196
288.361	4523
288.419	4263
288.477	4729
288.535	4167
288.593	3730
288.651	4147
288.709	3560
288.767	4083
288.825	3280
288.883	3777
288.941	3218
288.999	3893
289.057	3634
289.115	3574
289.173	3711
289.231	3727
289.289	2939
289.346	4104
289.404	4124
289.462	4317
289.520	3741
289.578	3984
289.636	3687
289.694	3646
289.751	4160
289.809	4146
289.867	4048
289.925	4274
289.983	3714
290.040	4371
290.098	3654
290.156	2991
290.214	3936
290.271	3803
290.329	4572
290.387	4102
290.444	3227
290.502	3623
290.560	2970
290.617	3781
290.675	3100
290.733	4146
290.790	3802
290.848	3842
290.906	3805
290.963	3767
291.021	3111
291.078	3999
291.136	3403
291.194	4354
291.251	3497
291.309	4183
291.366	3837
291.424	3387
291.481	3474
291.539	4387
291.596	4650
291.654	4338
291.711	4245
291.769	4483
291.826	3461
291.884	3798
291.941	3762
291.999	3162
292.056	3702
292.114	3784
292.171	3030
292.228	4261
292.286	3902
292.343	3840
292.401	4073
292.458	4181
292.515	3621
292.573	4884
292.630	4162
292.687	3280
292.745	3404
292.802	3876
292.859	3894
292.917	4168
292.974	4629
293.031	3543
293.089	3446
293.146	4395
293.203	3300
293.260	3951
293.318	2713
293.375	3420
293.432	3561
293.489	3651
293.546	3133
293.604	4842
293.661	3869
293.718	5545
293.775	4034
293.832	4593
293.889	3642
293.947	4049
294.004	3453
294.061	3936
294.118	4003
294.175	4468
294.232	4644
294.289	4569
294.346	3141
294.403	4352
294.460	3974
294.517	4449
294.574	4163
294.631	3952
294.688	4411
294.745	5018
294.802	5906
294.859	5163
294.916	4019
294.973	3940
295.030	3845
295.087	3958
295.144	3526
295.201	3311
295.258	3151
295.315	3520
295.372	3891
295.429	4811
295.486	3519
295.542	3720
295.599	4038
295.656	5158
295.713	3832
295.770	4124
295.827	3648
295.883	4032
295.940	3479
295.997	3231
296.054	3273
296.111	4004
296.167	3410
296.224	3598
296.281	3631
296.338	3723
296.394	3355
296.451	3874
296.508	2954
296.564	4072
296.621	4281
296.678	6134
296.734	5544
296.791	4191
296.848	3566
296.904	3715
296.961	4491
297.018	4988
297.074	4175
297.131	3746
297.187	3120
297.244	3983
297.301	6216
297.357	5803
297.414	3276
297.470	4581
297.527	3104
297.583	3959
297.640	3766
297.696	3587
297.753	3350
297.809	3349
297.866	3268
297.922	4036
297.979	3273
298.035	3540
298.092	3585
298.148	4579
298.204	4195
298.261	3856
298.317	4515
298.374	6283
298.430	4653
298.486	4040
298.543	3153
298.599	4005
298.656	4012
298.712	3839
298.768	4660
298.824	4327
298.881	2790
298.937	3781
298.993	4584
299.050	3263
299.106	3404
299.162	3262
299.218	4113
299.275	4018
299.331	3906
299.387	6134
299.443	12350
299.500	23733
299.556	14861
299.612	8556
299.668	10736
299.724	24863
299.780	19669
299.837	9944
299.893	9379
299.949	19970
300.005	20348
300.061	21979
300.117	24286
300.173	11755
300.229	6310
300.285	5631
300.341	5486
300.397	5984
300.453	4813
300.510	5232
300.566	7429
300.622	15057
300.678	36309
300.734	29925
300.790	14666
300.845	12658
300.901	22636
300.957	22714
301.013	10246
301.069	7008
301.125	5389
301.181	5395
301.237	4907
301.293	4560
301.349	4703
301.405	4287
301.461	3010
301.516	4343
301.572	3764
301.628	4044
301.684	3233
301.740	4120
301.796	3936
301.851	4258
301.907	3774
301.963	4660
302.019	6486
302.074	11949
302.130	9478
302.186	6452
302.242	4499
302.297	4182
302.353	3612
302.409	4585
302.464	3958
302.520	4277
302.576	4543
302.631	4980
302.687	4037
302.743	3612
302.798	3418
302.854	3976
302.910	3529
302.965	4404
303.021	3725
303.076	3721
303.132	3751
303.187	3942
303.243	3283
303.299	3567
303.354	2929
303.410	4284
303.465	2673
303.521	3356
303.576	2911
303.632	3578
303.687	3845
303.743	5583
303.798	4657
303.853	4032
303.909	3285
303.964	3801
304.020	3483
304.075	3717
304.130	2678
304.186	4114
304.241	4116
304.297	4312
304.352	3446
304.358	3433
304.407	3329
304.449	3080
304.463	2999
304.518	3842
304.539	3912
304.573	4008
304.629	3627
304.630	3622
304.684	3462
304.720	4383
304.739	4874
304.794	4985
304.811	4881
304.850	4545
304.902	3733
304.905	3680
304.960	3260
304.992	2862
305.015	2585
305.071	3471
305.083	3463
305.126	3412
305.173	3224
305.181	3204
305.236	3366
305.264	3473
305.292	3541
305.347	3104
305.354	3236
305.402	4162
305.445	3592
305.457	3409
305.512	4087
305.535	3588
305.567	2887
305.622	2869
305.626	2916
305.678	3786
305.716	4329
305.733	4527
305.788	4483
305.807	4412
305.843	4451
305.897	4920
305.898	4923
305.953	4853
305.988	4286
306.008	3879
306.063	3855
306.078	3476
306.118	2676
306.168	3485
306.173	3563
306.228	3245
306.259	3254
306.283	3193
306.338	3028
306.349	3040
306.393	3270
306.440	3251
306.448	3198
306.503	3187
306.530	2948
306.558	2861
306.613	3809
306.620	3733
306.668	3300
306.711	3977
306.723	4085
306.778	3249
306.801	3161
306.833	3095
306.888	3296
306.892	3297
306.943	3536
306.982	3275
306.997	3157
307.052	3684
307.072	3460
307.107	2889
307.162	3160
307.163	3152
307.217	2718
307.253	3062
307.272	3310
307.327	3196
307.343	3356
307.381	3441
307.434	3187
307.436	3184
307.491	2979
307.524	3274
307.546	3509
307.600	3906
307.614	3794
307.655	3289
307.704	3612
307.710	3653
307.765	2896
307.795	3162
307.819	3469
307.874	3659
307.885	3734
307.929	3986
307.975	4064
307.984	4160
308.038	5039
308.065	5806
308.093	7766
308.148	14373
308.156	16215
308.202	32357
308.246	39053
308.257	36554
308.312	17978
308.336	11143
308.366	8250
308.421	5201
308.426	4996
308.475	4473
308.517	3754
308.530	3533
308.585	3291
308.607	3105
308.639	3047
308.694	2906
308.697	2909
308.748	3280
308.787	3701
308.803	3705
308.857	3309
308.877	3302
308.912	3502
308.967	3571
308.967	3573
309.021	4435
309.058	5079
309.076	5732
309.130	9048
309.148	10496
309.185	20555
309.238	40412
309.239	40788
309.293	54651
309.328	55030
309.348	44930
309.402	18997
309.418	12422
309.457	9042
309.508	6116
309.511	6074
309.566	5556
309.598	5476
309.620	5750
309.674	6643
309.688	6767
309.729	6472
309.778	6229
309.783	6180
309.837	5283
309.868	4995
309.892	5014
309.946	5014
309.959	5064
310.001	5288
310.049	5103
310.055	5052
310.109	4764
310.139	4568
310.163	4367
310.218	4048
310.229	3948
310.272	4008
310.319	4336
310.326	4298
310.381	3733
310.409	3518
310.435	3563
310.489	3453
310.499	3489
310.543	3603
310.589	3425
310.598	3454
310.652	3817
310.679	4014
310.706	4123
310.760	4152
310.769	4157
310.814	3857
310.859	3781
310.868	3839
310.923	3816
310.948	3857
310.977	3978
311.031	4228
311.038	4273
311.085	4154
311.128	3850
311.139	3856
311.193	4065
311.218	4072
311.247	3903
311.301	3754
311.308	3719
311.356	3910
311.398	4181
311.410	4181
311.464	4045
311.488	4049
311.518	4245
311.572	4387
311.578	4417
311.626	4340
311.668	4210
311.680	4251
311.734	4466
311.758	4528
311.788	4511
311.842	4503
311.847	4500
311.896	4578
311.937	4648
311.950	4668
312.004	4706
312.027	4746
312.058	4588
312.112	4271
312.117	4236
312.165	4814
312.207	5303
312.297	4556
312.386	4766
312.476	4606
312.566	4829
312.656	4288
312.745	4689
312.835	5152
312.925	5268
313.015	5309
313.104	5959
313.194	6280
313.284	6476
313.374	6406
313.463	7598
313.553	8069
313.643	7517
313.732	7614
313.822	8516
313.912	8799
314.001	9173
314.091	9973
314.180	9361
314.270	9696
314.360	9426
314.449	9498
314.539	9617
314.628	9441
314.718	9539
314.808	10016
314.897	10876
314.987	11961
315.076	13039
315.166	12495
315.255	11157
315.345	10984
315.434	11226
315.524	11268
315.613	12453
315.703	15863
315.792	33003
315.881	120993
315.971	79559
316.060	19188
316.150	12190
316.239	10730
316.328	10753
316.418	11028
316.507	12149
316.597	14280
316.686	14313
316.775	13618
316.865	12961
316.954	11097
317.043	10575
317.133	9180
317.222	9082
317.311	8436
317.400	8957
317.490	9734
317.579	10735
317.668	12728
317.757	21047
317.847	50617
317.936	173474
318.025	101296
318.114	60509
318.203	44522
318.293	15121
318.382	16085
318.471	21411
318.560	17304
318.649	14075
318.738	9650
318.828	9183
318.917	6989
319.006	6541
319.095	6764
319.184	8547
319.273	7828
319.362	7691
319.451	6339
319.540	7521
319.629	6374
319.718	7445
319.807	7413
319.896	7756
319.985	9532
320.074	8928
320.163	8151
320.252	8575
320.341	8675
320.430	8687
320.519	9758
320.608	10642
320.697	11904
320.786	13113
320.875	14859
320.964	16345
321.053	16430
321.142	18326
321.230	19770
321.319	20173
321.408	23221
321.497	22707
321.586	21404
321.675	18380
321.764	17687
321.852	16956
321.941	17214
322.030	19317
322.119	20774
322.207	22625
322.296	24960
322.385	26198
322.474	29506
322.562	31027
322.651	26488
322.740	21245
322.829	18586
322.917	16507
323.006	14978
323.095	14017
323.183	13250
323.272	12479
323.361	12106
323.449	11463
323.538	10056
323.626	10495
323.715	10331
323.804	8606
323.892	10191
323.981	8878
324.069	8795
324.158	8737
324.246	8274
324.335	8570
324.424	8380
324.512	8433
324.601	7945
324.689	8227
324.778	7464
324.866	6955
324.954	7238
325.043	7681
325.131	6900
325.220	7371
325.308	7736
325.397	7003
325.485	6914
325.574	6231
325.662	6851
325.750	6430
325.839	6739
325.927	5871
326.015	6900
326.104	6272
326.192	6437
326.280	6807
326.369	5786
326.457	5889
326.545	6110
326.634	6719
326.722	6610
326.810	6968
326.898	7970
326.987	9053
327.075	8094
327.163	7619
327.251	7122
327.340	7867
327.428	9562
327.516	13127
327.604	11357
327.692	9108
327.781	7523
327.869	6680
327.957	5785
328.045	5717
328.133	5513
328.221	4999
328.309	5313
328.397	5812
328.485	6354
328.574	9285
328.662	15240
328.750	13066
328.838	8956
328.926	6525
329.014	6047
329.102	6509
329.190	6492
329.278	6517
329.366	5858
329.454	5279
329.542	5425
329.630	5172
329.718	5091
329.806	5877
329.893	6162
329.981	5416
330.069	5372
330.157	5536
330.245	6111
330.333	6179
330.421	5544
330.509	5566
330.597	5319
330.684	5840
330.772	5300
330.860	5947
330.948	6102
331.036	5259
331.123	5070
331.211	5216
331.299	5430
331.387	6157
331.475	6377
331.562	5858
331.650	5907
331.738	5742
331.825	6445
331.913	6175
332.001	6144
332.089	5832
332.176	5936
332.264	5919
332.352	6437
332.439	6481
332.527	5695
332.614	6088
332.702	5985
332.790	6600
332.877	6839
332.965	6253
333.052	7524
333.140	7014
333.228	8456
333.315	7583
333.403	7758
333.490	7880
333.578	8425
333.665	10611
333.753	11626
333.840	10854
333.928	12055
334.015	14563
334.103	16792
334.190	21753
334.278	26926
334.365	34227
334.452	38343
334.540	30815
334.627	29583
334.715	34239
334.802	44580
334.889	61496
334.977	78375
335.064	62633
335.151	37214
335.239	26003
335.326	21601
335.413	21848
335.501	23531
335.588	23549
335.675	26213
335.762	32135
335.850	41181
335.937	54665
336.024	77931
336.111	104884
336.199	103412
336.286	63035
336.373	37861
336.460	26959
336.547	20885
336.635	17696
336.722	15794
336.809	13181
336.896	12933
336.983	12215
337.070	12599
337.157	13450
337.245	12473
337.332	12350
337.419	11173
337.506	10858
337.593	9818
337.680	10024
337.767	10187
337.854	9522
337.941	7975
338.028	8329
338.115	8478
338.202	8450
338.289	8968
338.376	8977
338.463	8069
338.550	7655
338.637	8252
338.724	6588
338.811	7268
338.898	6861
338.984	7501
339.071	6917
339.158	7309
339.245	6799
339.332	7612
339.419	7137
339.506	6893
339.593	6535
339.679	6958
339.766	6932
339.853	6156
339.940	7184
340.027	5833
340.113	6333
340.200	6206
340.287	6961
340.374	5750
340.460	5827
340.547	5258
340.634	5371
340.720	6824
340.807	6535
340.894	6116
340.980	6409
341.067	6247
341.154	7072
341.240	5442
341.327	6394
341.414	6913
341.500	7083
341.587	7068
341.674	7253
341.760	6364
341.847	6380
341.933	6312
342.020	5883
342.106	6285
342.193	6410
342.279	6234
342.366	6371
342.452	6630
342.539	5781
342.625	6132
342.712	5691
342.798	6268
342.885	5069
342.971	5451
343.058	6446
343.144	5590
343.230	5443
343.317	6480
343.403	5927
343.490	5625
343.576	5542
343.662	6514
343.749	5760
343.835	5468
343.921	6131
344.008	8752
344.094	17190
344.180	8338
344.267	5894
344.353	7105
344.439	7319
344.525	6254
344.612	6393
344.698	5288
344.784	5581
344.870	5571
344.957	5814
345.043	6086
345.129	5850
345.215	5753
345.301	5801
345.387	5977
345.474	5668
345.560	6132
345.646	5143
345.732	5395
345.818	6025
345.904	5667
345.990	5780
346.076	5642
346.162	5490
346.249	6174
346.335	5593
346.421	6243
346.507	6370
346.593	7504
346.679	7089
346.765	7157
346.851	12292
346.937	12840
347.023	8449
347.108	7392
347.194	6387
347.280	7046
347.366	8611
347.452	17866
347.538	32630
347.624	18704
347.710	10557
347.796	8191
347.882	7343
347.967	6188
348.053	6345
348.139	6441
348.225	6199
348.311	6640
348.397	6834
348.482	6686
348.568	7670
348.654	9452
348.740	25848
348.825	44110
348.911	22520
348.997	12293
349.083	12687
349.168	8086
349.254	7375
349.340	6828
349.425	5944
349.511	6786
349.597	7241
349.682	6816
349.768	8039
349.854	7430
349.939	6248
350.025	6417
350.110	6787
350.196	6644
350.282	6013
350.367	6424
350.453	5998
350.538	6393
350.624	6998
350.709	5875
350.795	6194
350.880	5534
350.966	6771
351.051	5989
351.137	6018
351.222	5744
351.308	6068
351.393	6414
351.479	6067
351.564	6349
351.649	5393
351.735	5416
351.820	5786
351.906	6187
351.991	5745
352.076	5699
352.162	7222
352.247	6290
352.332	5304
352.418	5969
352.503	6062
352.588	6354
352.673	6867
352.759	5519
352.844	5700
352.929	5870
353.014	5418
353.100	5722
353.185	6019
353.270	5857
353.355	5889
353.441	5404
353.526	5697
353.611	5770
353.696	4947
353.781	6859
353.866	5893
353.952	5804
354.037	5595
354.122	5982
354.207	5461
354.292	5708
354.377	5686
354.462	6361
354.547	5826
354.632	6096
354.717	6850
354.802	5458
354.887	5321
354.972	6199
355.057	5789
355.142	5818
355.227	6369
355.312	5978
355.397	6166
355.482	6752
355.567	6971
355.652	6287
355.737	6727
355.822	6856
355.907	8116
355.991	6362
356.076	6497
356.161	6840
356.246	5906
356.331	6215
356.416	7416
356.501	9241
356.585	11157
356.670	7217
356.755	7503
356.840	6198
356.924	8315
357.009	16022
357.094	12316
357.179	6832
357.263	7430
357.348	7160
357.433	6091
357.517	6962
357.602	7039
357.687	6166
357.771	7219
357.856	7436
357.941	7477
358.025	8469
358.110	20384
358.195	18179
358.279	7998
358.364	7142
358.448	7486
358.533	9740
358.617	9534
358.702	8150
358.787	7456
358.871	7540
358.956	7196
359.040	8126
359.125	7704
359.209	7439
359.294	8161
359.378	12593
359.462	15079
359.547	8834
359.631	6605
359.716	7170
359.800	7059
359.885	6953
359.969	6476
360.053	7457
360.138	6409
360.222	6801
360.306	7193
360.391	7101
360.475	6398
360.559	8291
360.644	8106
360.728	8237
360.812	8782
360.896	13203
360.981	10702
361.065	9094
361.149	9043
361.233	8994
361.318	8184
361.402	9962
361.486	9658
361.570	10322
361.654	10513
361.739	10631
361.823	14128
361.907	21115
361.991	16890
362.075	19578
362.159	26654
362.243	41545
362.327	83221
362.411	130403
362.495	73533
362.580	38178
362.664	32489
362.748	39188
362.832	54447
362.916	93641
363.000	188698
363.084	263327
363.168	151236
363.252	63176
363.336	36554
363.420	28351
363.503	24405
363.587	24042
363.671	21294
363.755	21763
363.839	23283
363.923	27423
364.007	33849
364.091	44998
364.175	65871
364.258	117502
364.342	219488
364.426	331460
364.510	247824
364.594	107764
364.677	53257
364.761	37359
364.845	29180
364.929	20183
365.013	17589
365.096	15073
365.180	14345
365.264	12762
365.347	14403
365.431	13095
365.515	10779
365.598	9833
365.682	10877
365.766	10366
365.849	10332
365.933	10170
366.017	10396
366.100	10644
366.184	10502
366.267	11284
366.351	9868
366.435	9911
366.518	9765
366.602	9254
366.685	9138
366.769	9073
366.852	9366
366.936	9792
367.019	10420
367.103	9208
367.186	9488
367.270	10151
367.353	9947
367.436	11073
367.520	11314
367.603	11444
367.687	10925
367.770	11138
367.853	11034
367.937	10299
368.020	10648
368.104	9129
368.187	8698
368.270	8642
368.353	8679
368.437	9021
368.520	8705
368.603	6879
368.687	7642
368.770	9263
368.853	7803
368.936	8073
369.020	7780
369.103	7340
369.186	6933
369.269	7372
369.352	7897
369.436	7842
369.519	7628
369.602	6455
369.685	7778
369.768	6711
369.851	7252
369.934	7684
370.018	7713
370.101	7513
370.184	8836
370.267	7868
370.350	8453
370.433	9169
370.516	16605
370.599	67447
370.682	60108
370.765	15680
370.848	10487
370.931	10558
371.014	8916
371.097	7781
371.180	6967
371.263	7972
371.346	6868
371.429	7015
371.511	7332
371.594	7602
371.677	7701
371.760	7349
371.843	7074
371.926	10022
372.009	21574
372.091	14180
372.174	7540
372.257	10648
372.340	10079
372.423	8157
372.505	8345
372.588	7246
372.671	8392
372.754	8689
372.836	8706
372.919	7681
373.002	9479
373.085	8789
373.167	8545
373.250	9447
373.332	10970
373.415	13543
373.498	27584
373.580	25626
373.663	74384
373.746	133278
373.828	34373
373.911	14349
373.993	10738
374.076	10821
374.159	12091
374.241	9866
374.324	11415
374.406	12186
374.489	11569
374.571	20265
374.654	15390
374.736	10700
374.819	15112
374.901	17852
374.983	23130
375.066	15195
375.148	12041
375.231	12837
375.313	14521
375.395	13361
375.478	13279
375.560	11677
375.643	11877
375.725	12308
375.807	16448
375.890	18777
375.972	11272
376.054	11585
376.136	10410
376.219	10320
376.301	10097
376.383	12985
376.465	11390
376.548	8554
376.630	9067
376.712	10789
376.794	10070
376.877	7648
376.959	7381
377.041	7716
377.123	6880
377.205	7509
377.287	7232
377.369	8503
377.452	8786
377.534	7800
377.616	8459
377.698	7785
377.780	7722
377.862	8088
377.944	8227
378.026	8179
378.108	8046
378.190	7824
378.272	7560
378.354	6756
378.436	7798
378.518	7026
378.600	8088
378.682	6720
378.764	8178
378.846	8913
378.928	7334
379.010	8037
379.091	7780
379.173	7966
379.255	7303
379.337	6819
379.419	7468
379.501	8866
379.583	8138
379.664	7322
379.746	8420
379.828	7460
379.910	7592
379.991	9460
380.073	7665
380.155	7603
380.237	6804
380.318	7235
380.400	7398
380.482	7209
380.564	7096
380.645	6982
380.727	7812
380.809	7448
380.890	6923
380.972	6589
381.053	7464
381.135	7304
381.217	7150
381.298	8952
381.380	7483
381.461	7839
381.543	9394
381.624	13077
381.706	8606
381.787	8253
381.869	8195
381.951	8376
382.032	16696
382.113	18209
382.195	8999
382.276	8204
382.358	8653
382.439	11287
382.521	11807
382.602	16853
382.684	13011
382.765	12944
382.846	15548
382.928	24212
383.009	21271
383.090	15433
383.172	31163
383.253	57608
383.334	27784
383.416	16133
383.497	15269
383.578	13836
383.659	15312
383.741	29261
383.822	77307
383.903	60413
383.984	19935
384.066	17179
384.147	16286
384.228	14625
384.309	15269
384.390	16181
384.471	16526
384.553	15952
384.634	13481
384.715	13444
384.796	13089
384.877	11894
384.958	12121
385.039	13086
385.120	12067
385.201	11871
385.282	12041
385.363	12993
385.444	13859
385.525	15223
385.606	16531
385.687	18464
385.768	16288
385.849	15683
385.930	17609
386.011	24765
386.092	20520
386.173	17486
386.254	15999
386.335	16346
386.416	14914
386.496	14307
386.577	15479
386.658	15502
386.739	15757
386.820	16754
386.901	16685
386.981	17803
387.062	20767
387.143	23253
387.224	23312
387.304	24563
387.385	24684
387.466	24822
387.547	25593
387.627	26181
387.708	27915
387.789	28156
387.869	27127
387.950	24514
388.031	21682
388.111	20099
388.192	21154
388.273	21443
388.353	21185
388.434	17151
388.514	15440
388.595	16652
388.676	18957
388.756	15501
388.837	14619
388.917	15017
388.998	12885
389.078	14079
389.159	13105
389.239	12127
389.320	12824
389.400	11868
389.480	13735
389.561	13018
389.641	14340
389.722	12876
389.802	12048
389.883	12685
389.963	13760
390.043	14568
390.124	13176
390.204	12976
390.284	13065
390.365	13682
390.445	13648
390.525	16138
390.605	17819
390.686	14141
390.766	14264
390.846	13597
390.927	14340
391.007	14217
391.087	14603
391.167	15160
391.247	15004
391.328	16321
391.408	16666
391.488	17178
391.568	17322
391.648	18794
391.728	18998
391.808	21185
391.888	21283
391.969	22501
392.049	23839
392.129	26665
392.209	27554
392.289	31072
392.369	33235
392.449	34992
392.529	37918
392.609	43465
392.689	48995
392.769	58330
392.849	71116
392.929	87017
393.009	115497
393.089	163677
393.169	248240
393.248	398021
393.328	556027
393.408	565777
393.488	506848
393.568	335100
393.648	201903
393.728	134824
393.807	93774
393.887	72199
393.967	58457
394.047	48650
394.127	41276
394.206	37447
394.286	37018
394.366	63989
394.446	102159
394.525	44693
394.605	27289
394.685	25197
394.764	25347
394.844	33618
394.924	58513
395.003	38823
395.083	23842
395.163	21276
395.242	20173
395.322	20778
395.402	20132
395.481	21801
395.561	23044
395.640	40485
395.720	103583
395.799	90227
395.879	38563
395.958	29445
396.038	34100
396.117	77122
396.197	135512
396.276	64156
396.356	48506
396.435	57577
396.515	75484
396.594	108860
396.673	180338
396.753	330071
396.832	514764
396.912	517556
396.991	348280
397.070	182385
397.150	107754
397.229	79435
397.308	83248
397.388	160162
397.467	129552
397.546	52782
397.625	33706
397.705	29717
397.784	25581
397.863	22286
397.942	20251
398.022	19153
398.101	18208
398.180	18934
398.259	17068
398.338	16203
398.417	14517
398.497	14086
398.576	14134
398.655	12871
398.734	12493
398.813	11376
398.892	12256
398.971	12396
399.050	12601
399.129	10211
399.208	10097
399.287	10729
399.366	9800
399.445	8760
399.524	9935
399.603	8443
399.682	9362
399.761	9507
399.840	10548
399.919	11040
399.998	8303
400.077	7978
400.156	8345
400.235	8885
400.313	7389
400.392	7241
400.471	8481
400.550	8335
400.629	7115
400.708	7780
400.786	7025
400.865	7026
400.944	6513
401.023	7329
401.102	7261
401.180	7278
401.259	6752
401.338	6854
401.416	6682
401.495	6873
401.574	7009
401.652	6397
401.731	6740
401.810	5993
401.888	5993
401.967	5905
402.046	6157
402.124	6159
402.203	5850
402.281	6057
402.360	5740
402.438	6484
402.517	5322
402.596	6442
402.674	5683
402.753	6737
402.831	6373
402.910	7110
402.988	5909
403.066	8748
403.145	9710
403.223	7600
403.302	9177
403.380	10240
403.459	9169
403.537	9207
403.615	9188
403.694	8014
403.772	8288
403.850	8037
403.929	7231
404.007	6159
404.085	7189
404.164	7501
404.242	7307
404.320	7439
404.398	10631
404.477	11764
404.555	10977
404.633	12544
404.711	9856
404.789	10046
404.868	7604
404.946	6610
405.024	6379
405.102	5861
405.180	5437
405.258	5577
405.336	5850
405.415	4852
405.493	6887
405.571	6420
405.649	5793
405.727	5944
405.805	7012
405.883	7379
405.961	7754
406.039	6389
406.117	5684
406.195	5850
406.273	5142
406.351	7908
406.429	8922
406.507	5800
406.585	5668
406.663	5311
406.740	5353
406.818	5862
406.896	4597
406.974	5429
407.052	4967
407.130	6480
407.208	7984
407.285	6939
407.363	5115
407.441	5868
407.519	6252
407.596	6263
407.674	9954
407.752	41190
407.830	58255
407.907	15339
407.985	6887
408.063	5859
408.141	5318
408.218	5895
408.296	5498
408.373	6852
408.451	7231
408.529	8267
408.606	7392
408.684	9167
408.762	8343
408.839	8792
408.917	9463
408.994	11087
409.072	11869
409.149	13579
409.227	18401
409.304	28051
409.382	35254
409.459	36915
409.537	47032
409.614	48936
409.692	42975
409.769	39177
409.846	46411
409.924	58353
410.001	53057
410.079	42547
410.156	32908
410.233	27096
410.311	21230
410.388	18693
410.465	16880
410.543	15189
410.620	14626
410.697	13229
410.775	13391
410.852	12013
410.929	12872
411.006	13267
411.083	11835
411.161	11551
411.238	12223
411.315	10471
411.392	10452
411.469	10078
411.547	9463
411.624	8269
411.701	7794
411.778	8011
411.855	7577
411.932	7322
412.009	7299
412.086	7038
412.163	7222
412.240	6268
412.317	7387
412.394	6736
412.471	6638
412.548	5536
412.625	6217
412.702	6183
412.779	6364
412.856	6106
412.933	5896
413.010	5745
413.087	6101
413.164	5688
413.241	6564
413.318	5232
413.395	5590
413.471	4591
413.548	4938
413.625	5301
413.702	5170
413.779	5360
413.855	5234
413.932	4994
414.009	4281
414.086	5173
414.162	5278
414.239	4912
414.316	4583
414.393	5200
414.469	5200
414.546	4368
414.623	4673
414.699	4748
414.776	4191
414.853	4197
414.929	4157
415.006	4600
415.082	5118
415.159	4798
415.236	4428
415.312	4976
415.389	4029
415.465	4427
415.542	4439
415.618	4043
415.695	4149
415.771	4136
415.848	3916
415.924	4140
416.000	4106
416.077	5023
416.153	3916
416.230	4052
416.306	4489
416.383	4245
416.459	4603
416.535	4323
416.612	3895
416.688	4218
416.764	4141
416.841	3984
416.917	4112
416.993	4427
417.069	3803
417.146	3704
417.222	3771
417.298	4415
417.374	4252
417.451	4462
417.527	3959
417.603	4190
417.679	4718
417.755	4964
417.831	4202
417.908	4821
417.984	4740
418.060	3868
418.136	4497
418.212	4495
418.288	4800
418.364	5746
418.440	4342
418.516	5066
418.592	4660
418.668	5097
418.744	5375
418.820	5627
418.896	5108
418.972	5521
419.048	4784
419.124	6116
419.200	5696
419.276	5527
419.352	5450
419.428	6760
419.504	6508
419.579	6420
419.655	6406
419.731	6731
419.807	6710
419.883	7114
419.959	7378
420.034	7954
420.110	7823
420.186	9083
420.262	9056
420.337	8866
420.413	9545
420.489	11296
420.565	11321
420.640	11205
420.716	11841
420.792	11853
420.867	13555
420.943	14254
421.019	15254
421.094	15311
421.170	17347
421.245	18305
421.321	19910
421.397	21000
421.472	26330
421.548	46037
421.623	52173
421.699	35145
421.774	35703
421.850	38848
421.925	45350
422.001	53932
422.076	64072
422.152	77017
422.227	93897
422.302	121117
422.378	153497
422.453	192867
422.529	220324
422.604	198684
422.679	124831
422.755	134025
422.830	211247
422.905	224660
422.981	195723
423.056	157772
423.131	127639
423.207	100820
423.282	82303
423.357	68218
423.432	59064
423.508	51850
423.583	42383
423.658	39400
423.733	34708
423.808	30400
423.883	29857
423.959	30010
424.034	32998
424.109	34107
424.184	27843
424.259	22364
424.334	20320
424.409	17716
424.484	15411
424.559	14570
424.634	13692
424.709	13318
424.784	12867
424.859	11334
424.934	11025
425.009	10488
425.084	11210
425.159	10076
425.234	9593
425.309	9027
425.384	9202
425.459	8036
425.534	8245
425.609	8019
425.683	7880
425.758	7317
425.833	8397
425.908	7679
425.983	6933
426.058	7624
426.132	7069
426.207	6595
426.282	7514
426.357	6380
426.431	6423
426.506	6623
426.581	6055
426.655	6546
426.730	6008
426.805	6112
426.879	6045
426.954	5128
427.029	5648
427.103	5654
427.178	7434
427.253	7428
427.327	5958
427.402	5497
427.476	5534
427.551	5448
427.625	6290
427.700	6180
427.774	6172
427.849	6721
427.923	6670
427.998	6646
428.072	7972
428.147	12870
428.221	30481
428.296	117678
428.370	135163
428.444	37970
428.519	13811
428.593	9703
428.667	9210
428.742	10302
428.816	16112
428.890	55351
428.965	146822
429.039	80042
429.113	18900
429.188	9953
429.262	8209
429.336	7827
429.410	6812
429.485	6718
429.559	7334
429.633	8307
429.707	9827
429.781	15733
429.855	51285
429.930	135195
430.004	74909
430.078	30708
430.152	48361
430.226	140193
430.300	222862
430.374	109354
430.448	34041
430.522	18640
430.596	15912
430.670	23369
430.744	75635
430.818	148358
430.892	62029
430.966	14772
431.040	8301
431.114	5904
431.188	5355
431.262	5866
431.336	4883
431.410	5530
431.484	6118
431.557	6011
431.631	6634
431.705	10254
431.779	25376
431.853	105629
431.927	143466
432.000	45868
432.074	11880
432.148	6787
432.222	4820
432.295	3749
432.369	3957
432.443	2301
432.516	4156
432.590	5234
432.664	4103
432.737	2876
432.811	3721
432.885	2382
432.958	2953
433.032	2808
433.106	2528
433.179	2867
433.253	2868
433.326	2423
433.400	3351
433.473	3212
433.547	2554
433.620	2677
433.694	2351
433.767	3644
433.841	2848
433.914	3372
433.988	3642
434.061	3436
434.134	3345
434.208	3422
434.281	3066
434.355	2607
434.428	2485
434.501	3212
434.575	2761
434.648	3382
434.721	2478
434.795	3123
434.868	2910
434.941	2706
435.014	4324
435.088	4501
435.161	4379
435.234	6377
435.307	6285
435.381	7945
435.454	11645
435.527	17996
435.600	23874
435.673	22865
435.746	20487
435.819	16133
435.892	13680
435.966	10345
436.039	8207
436.112	7637
436.185	6004
436.258	5746
436.331	4512
436.404	4793
436.477	4288
436.550	4031
436.623	4191
436.696	3228
436.769	4187
436.842	4138
436.915	3792
436.987	3073
437.060	3486
437.133	2946
437.206	3315
437.279	2985
437.352	2903
437.425	2154
437.498	2767
437.570	2655
437.643	1912
437.716	2588
437.789	2813
437.861	1964
437.934	2151
438.007	2716
438.080	2590
438.152	2734
438.225	1896
438.298	1813
438.370	6464
438.443	6106
438.516	3324
438.588	2641
438.661	2306
438.734	2313
438.806	1976
438.879	2164
438.951	1849
439.024	2544
439.096	2222
439.169	2655
439.241	2388
439.314	1906
439.386	2138
439.459	2413
439.531	2937
439.604	2634
439.676	3070
439.749	2918
439.821	2056
439.893	2238
439.966	2876
440.038	2061
440.110	2387
440.183	2242
440.255	2430
440.327	3332
440.400	3655
440.472	3569
440.544	4968
440.617	3279
440.689	3258
440.761	2723
440.833	3480
440.905	3065
440.978	3345
441.050	2622
441.122	3349
441.194	3481
441.266	3279
441.338	3698
441.411	3658
441.483	3737
441.555	3804
441.627	4724
441.699	3673
441.771	3779
441.843	5017
441.915	4626
441.987	5423
442.059	5140
442.131	6476
442.203	7867
442.275	9831
442.347	15154
442.419	27527
442.491	78620
442.563	207080
442.635	183701
442.706	61292
442.778	23445
442.850	14823
442.922	12652
442.994	11635
443.066	12579
443.137	15040
443.209	18683
443.281	27294
443.353	46598
443.425	102013
443.496	243238
443.568	327670
443.640	252388
443.711	103988
443.783	40745
443.855	23041
443.926	15661
443.998	12276
444.070	10360
444.141	8990
444.213	9279
444.285	8386
444.356	7650
444.428	7580
444.499	7443
444.571	7426
444.642	8165
444.714	8190
444.785	8963
444.857	9681
444.928	11387
445.000	12894
445.071	15583
445.143	20986
445.214	29070
445.285	44636
445.357	83572
445.428	179627
445.500	308432
445.571	328575
445.642	297594
445.714	173055
445.785	70870
445.856	32634
445.928	21111
445.999	15245
446.070	11234
446.141	10124
446.213	9322
446.284	7533
446.355	6570
446.426	4830
446.497	5670
446.569	4387
446.640	3683
446.711	4543
446.782	4227
446.853	3225
446.924	3669
446.995	2709
447.066	2759
447.138	2779
447.209	2370
447.280	2195
447.351	2260
447.422	1552
447.493	1493
447.564	2137
447.635	2163
447.706	1725
447.777	2112
447.847	1933
447.918	1495
447.989	1700
448.060	1194
448.131	2125
448.202	988
448.273	1551
448.344	1543
448.414	1750
448.485	1507
448.556	1390
448.627	1535
448.698	1652
448.768	1342
448.839	1326
448.910	1426
448.981	1700
449.051	1365
449.122	1291
449.193	1192
449.263	1884
449.334	1022
449.405	1662
449.475	1843
449.546	2144
449.616	2338
449.687	2702
449.758	1963
449.828	2067
449.899	1077
449.969	1206
450.040	1237
450.110	1853
450.181	1414
450.251	995
450.322	1273
450.392	1247
450.463	661
450.533	770
450.604	1638
450.674	1491
450.744	2335
450.815	2819
450.885	3830
450.955	3274
451.026	3242
451.096	3546
451.166	3153
451.237	3841
451.307	4850
451.377	4993
451.447	3750
451.518	2223
451.588	2285
451.658	2190
451.728	2021
451.799	2642
451.869	2365
451.939	1933
452.009	2179
452.079	2259
452.149	2618
452.219	1780
452.289	2498
452.360	2391
452.430	3706
452.500	5717
452.570	7586
452.640	13552
452.710	32708
452.780	56957
452.850	44947
452.920	24672
452.990	14822
453.060	9495
453.129	5829
453.199	4528
453.269	4569
453.339	4333
453.409	4112
453.479	4006
453.549	3284
453.619	4194
453.688	2582
453.758	2213
453.828	1876
453.898	2003
453.968	1467
454.037	1613
454.087	1478
454.107	1401
454.168	1293
454.177	1249
454.247	1461
454.249	1475
454.316	1277
454.330	1355
454.386	1585
454.411	1406
454.456	1001
454.492	1363
454.525	1638
454.574	1709
454.595	1725
454.655	1369
454.665	1288
454.734	1258
454.736	1308
454.804	2002
454.817	2076
454.873	2286
454.898	2268
454.943	2147
454.979	2240
455.013	2302
455.060	2160
455.082	2058
455.141	1860
455.152	1798
455.221	2651
455.222	2675
455.291	2633
455.303	2882
455.360	3658
455.384	4238
455.430	4853
455.465	5227
455.499	5566
455.546	3983
455.569	3308
455.627	2836
455.638	2709
455.707	2644
455.708	2669
455.777	2320
455.789	2309
455.846	2130
455.869	2339
455.916	2694
455.950	2450
455.985	2199
456.031	2536
456.054	2672
456.112	3236
456.124	3288
456.193	2380
456.193	2350
456.262	3235
456.274	3278
456.332	3157
456.355	3102
456.401	3024
456.436	3094
456.470	3108
456.516	3274
456.540	3289
456.597	3654
456.609	3699
456.678	3639
456.678	3611
456.747	4244
456.759	4194
456.817	3697
456.840	3904
456.886	4276
456.920	4233
456.955	4181
457.001	4533
457.024	4625
457.082	4885
457.093	4925
457.162	5336
457.163	5366
457.232	5936
457.243	6000
457.301	5947
457.324	6018
457.370	6515
457.405	7001
457.439	7251
457.485	8126
457.508	8723
457.566	10115
457.577	10569
457.646	14390
457.647	14485
457.715	28517
457.727	31756
457.784	62423
457.808	79263
457.853	100664
457.889	132093
457.922	133872
457.969	108783
457.991	114570
458.050	108792
458.060	112034
458.129	167832
458.130	170411
458.198	189761
458.211	186701
458.267	146312
458.292	108356
458.336	73395
458.372	57547
458.405	57960
458.453	72641
458.474	93665
458.533	163833
458.543	170889
458.611	259620
458.614	263982
458.680	221198
458.694	193189
458.749	124401
458.775	88701
458.818	52469
458.855	37840
458.887	28806
458.936	21790
458.955	19493
459.016	16172
459.024	15776
459.093	12763
459.097	12666
459.162	11547
459.177	11362
459.230	9956
459.257	9504
459.299	9556
459.338	9585
459.368	9482
459.418	9222
459.437	8987
459.499	8340
459.505	8289
459.574	8584
459.579	8575
459.643	8137
459.659	8070
459.711	7992
459.740	8228
459.780	8515
459.820	8276
459.849	8091
459.900	7965
459.917	7886
459.981	8064
459.986	8025
460.054	7341
460.061	7309
460.123	7745
460.141	7835
460.191	7782
460.222	7840
460.260	7893
460.302	7653
460.328	7750
460.382	8396
460.397	8553
460.462	9328
460.465	9432
460.534	12005
460.543	12374
460.602	29338
460.623	35469
460.671	60595
460.703	80399
460.739	73240
460.783	69676
460.808	61767
460.864	23111
460.876	20881
460.944	10358
460.945	10240
461.013	8107
461.024	7907
461.081	7570
461.104	7790
461.150	8289
461.184	7989
461.218	7729
461.264	8181
461.286	8231
461.345	7777
461.355	7714
461.423	7846
461.425	7840
461.491	7400
461.505	7385
461.559	7504
461.585	7429
461.628	7426
461.665	7764
461.696	8274
461.745	8740
461.764	8594
461.825	8408
461.832	8424
461.901	8335
461.905	8322
461.969	7838
461.985	7705
462.037	7697
462.065	7855
462.105	8010
462.145	7993
462.173	7836
462.225	7866
462.241	7969
462.305	8031
462.310	8083
462.378	9064
462.385	9141
462.446	8694
462.465	8680
462.514	8779
462.545	8808
462.582	8808
462.625	8654
462.650	8649
462.705	8294
462.718	8189
462.785	8066
462.786	8073
462.854	8232
462.865	8222
462.922	7983
462.945	7988
462.990	8112
463.025	8112
463.058	8280
463.104	8594
463.126	8536
463.184	8257
463.194	8215
463.262	7828
463.264	7820
463.330	8766
463.344	8869
463.398	8631
463.424	8545
463.466	8308
463.504	8222
463.533	8460
463.583	8811
463.601	8863
463.663	8481
463.669	8432
463.737	8533
463.743	8491
463.805	8889
463.823	9067
463.873	9082
463.903	9149
463.940	9508
463.982	9477
464.008	9017
464.062	8419
464.076	8475
464.142	8485
464.144	8495
464.211	8597
464.221	8631
464.279	8664
464.301	8537
464.347	8843
464.381	9149
464.414	9135
464.461	9140
464.482	8961
464.540	8264
464.550	8333
464.617	8823
464.620	8831
464.685	9331
464.699	9409
464.753	9337
464.779	9272
464.820	9578
464.859	10014
464.888	9660
464.938	8687
464.956	8860
465.018	9514
465.023	9513
465.091	9422
465.098	9407
465.158	9764
465.177	9812
465.226	9808
465.257	9834
465.293	9585
465.336	9129
465.361	9276
465.416	9761
465.428	9758
465.495	9546
465.496	9564
465.563	9960
465.575	10026
465.631	10072
465.654	10106
465.698	9887
465.734	9677
465.765	9623
465.813	9365
465.833	9443
465.893	9703
465.900	9746
465.968	9957
465.972	9955
466.035	9230
466.052	9008
466.102	9134
466.131	9192
466.170	9643
466.210	10069
466.237	9995
466.290	9818
466.304	9910
466.369	10167
466.372	10172
466.439	9819
466.449	9734
466.506	9969
466.528	10046
466.573	9907
466.607	9767
466.641	10318
466.687	11048
466.708	11237
466.766	11689
466.775	11724
466.842	11796
466.845	11777
466.909	11367
466.925	11235
466.977	11681
467.004	11890
467.044	11786
467.083	11655
467.111	11787
467.163	11942
467.178	12136
467.242	12828
467.245	12856
467.312	12927
467.321	12910
467.379	12491
467.400	12303
467.446	12162
467.480	12016
467.559	12886
467.638	13820
467.717	13242
467.796	14152
467.875	14818
467.955	16150
468.034	17946
468.113	21356
468.192	25220
468.271	31175
468.350	40995
468.429	55470
468.508	60790
468.588	43367
468.667	27182
468.746	21175
468.825	18466
468.904	17227
468.983	14976
469.062	14941
469.141	13990
469.220	12340
469.299	12925
469.378	13483
469.456	12564
469.535	13441
469.614	12538
469.693	13281
469.772	11996
469.851	13047
469.930	13050
470.009	12526
470.088	13083
470.166	13413
470.245	14433
470.324	14297
470.403	14604
470.482	12974
470.560	13207
470.639	12890
470.718	12389
470.797	12976
470.875	12173
470.954	12039
471.033	12660
471.111	12122
471.190	11350
471.269	12039
471.347	11649
471.426	11882
471.505	12397
471.583	11856
471.662	11919
471.740	12431
471.819	11934
471.898	12832
471.976	11705
472.055	12401
472.133	12565
472.212	14830
472.290	13054
472.369	12331
472.447	11763
472.526	11814
472.604	11587
472.683	12015
472.761	11786
472.839	12236
472.918	12627
472.996	13620
473.075	12529
473.153	13465
473.231	13338
473.310	13432
473.388	13283
473.466	12827
473.545	12850
473.623	14008
473.701	13936
473.780	14256
473.858	13013
473.936	13796
474.014	12985
474.093	15269
474.171	15857
474.249	15759
474.327	13462
474.405	13377
474.484	13678
474.562	13308
474.640	12856
474.718	13083
474.796	13397
474.874	12479
474.952	13032
475.030	11950
475.108	11712
475.187	13222
475.265	12578
475.343	13290
475.421	12761
475.499	13561
475.577	12647
475.655	13423
475.733	12235
475.811	14015
475.889	12633
475.966	13435
476.044	11975
476.122	12303
476.200	12395
476.278	11963
476.356	11685
476.434	12100
476.512	12071
476.590	12406
476.667	12677
476.745	12694
476.823	11525
476.901	13035
476.979	12024
477.056	11511
477.134	11667
477.212	11948
477.290	11377
477.367	12291
477.445	11952
477.523	11557
477.601	11838
477.678	12553
477.756	11262
477.834	12007
477.911	11218
477.989	12715
478.066	12312
478.144	13700
478.222	12140
478.299	13310
478.377	13547
478.454	14238
478.532	12733
478.609	11697
478.687	12190
478.764	12227
478.842	12186
478.919	12897
478.997	11996
479.074	11827
479.152	12698
479.229	12909
479.307	12009
479.384	12426
479.461	11609
479.539	12456
479.616	12181
479.694	12926
479.771	12065
479.848	12223
479.926	12219
480.003	13113
480.080	11733
480.157	13039
480.235	13043
480.312	13259
480.389	14108
480.467	14039
480.544	14293
480.621	15690
480.698	15407
480.775	15526
480.853	15147
480.930	14232
481.007	14580
481.084	16569
481.161	22802
481.238	19718
481.315	14105
481.392	14094
481.470	14773
481.547	14747
481.624	15091
481.701	15373
481.778	15674
481.855	17071
481.932	17368
482.009	18515
482.086	19427
482.163	20325
482.240	23614
482.317	24071
482.393	22626
482.470	20934
482.547	20565
482.624	19626
482.701	18772
482.778	19053
482.855	17592
482.932	19923
483.009	18820
483.085	23017
483.162	27481
483.239	29953
483.316	27569
483.393	25527
483.469	22619
483.546	20197
483.623	19851
483.699	18220
483.776	15910
483.853	16420
483.930	16797
484.006	17545
484.083	18819
484.160	18047
484.236	18162
484.313	18301
484.389	19564
484.466	22969
484.543	27746
484.619	33242
484.696	35991
484.772	25984
484.849	20778
484.925	18500
485.002	17188
485.078	16965
485.155	14770
485.231	14725
485.308	14964
485.384	14512
485.461	14843
485.537	15960
485.614	15059
485.690	14200
485.766	14159
485.843	14403
485.919	13693
485.995	14285
486.072	13661
486.148	14848
486.224	14585
486.301	14377
486.377	14330
486.453	14283
486.530	15198
486.606	16804
486.682	14942
486.758	16630
486.835	16042
486.911	18026
486.987	17979
487.063	18775
487.139	21244
487.215	27715
487.292	30197
487.368	33156
487.444	41635
487.520	61171
487.596	95727
487.672	182319
487.748	509784
487.824	967898
487.900	529874
487.976	172229
488.052	83174
488.128	53063
488.204	35629
488.280	30207
488.356	25197
488.432	24669
488.508	22236
488.584	19525
488.660	18375
488.736	17748
488.812	15670
488.888	16239
488.964	15744
489.039	15535
489.115	16004
489.191	16779
489.267	14923
489.343	14399
489.418	14053
489.494	14034
489.570	14209
489.646	15040
489.722	14384
489.797	14294
489.873	15620
489.949	16466
490.024	16334
490.100	15043
490.176	14743
490.251	14215
490.327	14060
490.403	13861
490.478	14459
490.554	14321
490.629	13656
490.705	13938
490.781	13555
490.856	13360
490.932	13914
491.007	13800
491.083	13604
491.158	12760
491.234	12580
491.309	13170
491.385	13476
491.460	11972
491.536	11920
491.611	12549
491.686	11918
491.762	12032
491.837	12207
491.913	13424
491.988	12911
492.063	13791
492.139	12786
492.214	11916
492.289	11003
492.365	11000
492.440	12460
492.515	11033
492.590	11442
492.666	11640
492.741	11200
492.816	12435
492.891	11908
492.967	12469
493.042	11446
493.117	11831
493.192	11272
493.267	12226
493.342	17008
493.418	24421
493.493	13668
493.568	13071
493.643	11323
493.718	10715
493.793	10718
493.868	10892
493.943	10072
494.018	10899
494.093	10948
494.168	11155
494.243	10410
494.318	11215
494.393	10441
494.468	11472
494.543	11354
494.618	10742
494.693	10505
494.768	10712
494.842	11099
494.917	10681
494.992	10791
495.067	10728
495.142	10924
495.217	11636
495.292	9994
495.366	10124
495.441	10157
495.516	10950
495.591	10367
495.665	12418
495.740	14248
495.815	12986
495.890	10371
495.964	10890
496.039	11398
496.114	13295
496.188	17795
496.263	18174
496.338	11425
496.412	10817
496.487	10791
496.561	10547
496.636	11105
496.710	10902
496.785	11875
496.860	10636
496.934	10202
497.009	9803
497.083	10621
497.158	10745
497.232	10311
497.307	9676
497.381	10116
497.455	10766
497.530	10685
497.604	9771
497.679	10996
497.753	11269
497.827	9887
497.902	10699
497.976	10130
498.050	11723
498.125	18693
498.199	22919
498.273	11888
498.348	11002
498.422	9744
498.496	10532
498.570	10628
498.645	11139
498.719	9763
498.793	11056
498.867	9980
498.941	11000
499.016	12887
499.090	20876
499.164	16613
499.238	11388
499.312	10856
499.386	11679
499.460	11242
499.534	11212
499.609	11121
499.683	11927
499.757	11256
499.831	12312
499.905	16269
499.979	17904
500.053	11825
500.127	11921
500.201	11296
500.275	11196
500.349	11177
500.422	10923
500.496	11821
500.570	12158
500.644	13393
500.718	18813
500.792	14475
500.866	12842
500.940	12136
501.013	12703
501.087	11696
501.161	11817
501.235	12192
501.309	13754
501.382	16592
501.456	17418
501.530	13284
501.603	12797
501.677	11871
501.751	10853
501.825	12134
501.898	12328
501.972	13344
502.046	13188
502.119	11081
502.193	11914
502.266	13278
502.340	12493
502.413	11093
502.487	13234
502.561	12849
502.634	13117
502.708	12260
502.781	13016
502.855	12113
502.928	12341
503.002	12521
503.075	12383
503.149	12568
503.222	13532
503.295	12953
503.369	13418
503.442	14749
503.516	17472
503.589	20501
503.662	23331
503.736	26165
503.809	33973
503.882	46850
503.956	69507
504.029	124025
504.102	302703
504.175	550810
504.249	315179
504.322	128140
504.395	69392
504.468	43676
504.542	31850
504.615	23989
504.688	21063
504.761	17959
504.834	16856
504.907	15458
504.980	14393
505.053	13573
505.127	12272
505.200	12501
505.273	11619
505.346	11431
505.419	11477
505.492	11543
505.565	11339
505.638	11164
505.711	10308
505.784	9613
505.857	9633
505.930	10177
506.003	9261
506.076	9757
506.149	8865
506.221	9947
506.294	9464
506.367	9535
506.440	11352
506.513	10009
506.586	9597
506.659	9371
506.731	9791
506.804	8246
506.877	8625
506.950	8339
507.022	8779
507.095	8740
507.168	9269
507.241	8931
507.313	9112
507.386	8344
507.459	9126
507.531	9217
507.604	8619
507.677	8560
507.749	8841
507.822	8856
507.894	8220
507.967	8832
508.040	8624
508.112	8071
508.185	9103
508.257	8193
508.330	8279
508.402	8947
508.475	9727
508.547	7744
508.620	8898
508.692	8347
508.765	8553
508.837	8234
508.909	9541
508.982	8327
509.054	8604
509.127	8213
509.199	9148
509.271	8678
509.344	8363
509.416	8349
509.488	9099
509.560	8007
509.633	8089
509.705	8685
509.777	9160
509.849	8255
509.922	7369
509.994	8410
510.066	8725
510.138	8665
510.210	8652
510.283	9310
510.355	9140
510.427	9344
510.499	8475
510.571	8502
510.643	8351
510.715	8830
510.787	8138
510.859	8200
510.931	9009
511.003	8699
511.076	9378
511.148	8308
511.219	9033
511.291	8256
511.363	9522
511.435	8876
511.507	8255
511.579	8286
511.651	8961
511.723	8854
511.795	8445
511.867	7727
511.939	8248
512.010	8384
512.082	8782
512.154	7588
512.226	9050
512.298	9375
512.369	8989
512.441	8469
512.513	8820
512.585	8413
512.656	8781
512.728	8033
512.800	9083
512.871	8194
512.943	8737
513.015	8577
513.086	8780
513.158	8402
513.230	9402
513.301	8115
513.373	9874
513.444	9280
513.516	8509
513.588	8641
513.659	8866
513.731	8138
513.802	8707
513.874	9647
513.945	9280
514.016	9481
514.088	9444
514.159	8734
514.231	9047
514.302	9105
514.374	9273
514.445	8009
514.516	10257
514.588	8532
514.659	9157
514.730	8621
514.802	9424
514.873	8073
514.944	10099
515.016	9244
515.087	8769
515.158	9053
515.229	9653
515.301	8897
515.372	9473
515.443	8721
515.514	9441
515.585	9780
515.656	9572
515.728	8744
515.799	9675
515.870	9425
515.941	9826
516.012	9502
516.083	8997
516.154	9377
516.225	9847
516.296	9998
516.367	10749
516.438	9360
516.509	11663
516.580	11238
516.651	14743
516.722	34428
516.793	28518
516.864	12208
516.935	12129
517.006	12578
517.077	13431
517.148	18851
517.219	39978
517.289	93389
517.360	31418
517.431	14983
517.502	12381
517.573	11451
517.643	12031
517.714	12149
517.785	12750
517.856	13741
517.926	14635
517.997	16067
518.068	18520
518.138	21593
518.209	26478
518.280	43153
518.350	134163
518.421	112017
518.492	52204
518.562	62948
518.633	87934
518.703	132136
518.774	252839
518.845	566612
518.915	696172
518.986	285317
519.056	120645
519.127	67625
519.197	48395
519.268	35920
519.338	28828
519.408	23122
519.479	20125
519.549	18309
519.620	16972
519.690	14916
519.760	14062
519.831	13889
519.901	13207
519.971	12117
520.042	12142
520.112	11101
520.182	11612
520.253	11434
520.323	10558
520.393	10246
520.463	11453
520.534	9884
520.604	12076
520.674	9985
520.744	11069
520.814	10583
520.885	11578
520.955	10395
521.025	13010
521.095	11649
521.165	10385
521.235	10105
521.305	10138
521.375	10015
521.445	10026
521.515	9921
521.585	10952
521.655	9296
521.725	10578
521.795	9972
521.865	9508
521.935	10902
522.005	10650
522.075	10052
522.145	11255
522.215	10728
522.285	12132
522.355	10873
522.424	10994
522.494	11734
522.564	11894
522.634	10409
522.704	11887
522.774	11459
522.843	11540
522.913	11616
522.983	11104
523.053	11143
523.122	11312
523.192	10176
523.262	11544
523.331	11466
523.401	11833
523.471	11026
523.540	12211
523.610	11496
523.680	12810
523.749	11938
523.819	13665
523.888	14292
523.958	11941
524.027	12288
524.097	12560
524.166	12819
524.236	12554
524.305	12661
524.375	12126
524.444	11205
524.514	13766
524.583	13183
524.653	12865
524.722	13200
524.791	13382
524.861	13976
524.930	15014
524.999	14668
525.069	15434
525.138	15007
525.207	15289
525.277	16627
525.346	17158
525.415	17342
525.484	19118
525.554	20877
525.623	24785
525.692	32094
525.761	38881
525.830	48123
525.900	65362
525.969	99791
526.038	203524
526.107	328357
526.176	902489
526.245	980745
526.314	364914
526.383	445635
526.452	801307
526.522	774240
526.591	994447
526.660	285215
526.729	132282
526.797	125045
526.867	162230
526.935	327603
527.004	986325
527.073	1037931
527.142	271184
527.211	100510
527.280	59391
527.349	43090
527.418	32775
527.487	27452
527.555	23748
527.624	21683
527.693	19429
527.762	18676
527.831	18786
527.899	17786
527.968	16888
528.037	15528
528.106	15605
528.174	14866
528.243	14805
528.312	14142
528.380	14256
528.449	13357
528.518	14868
528.586	12681
528.655	14342
528.723	12836
528.792	13447
528.861	13724
528.929	12878
528.998	13341
529.066	12925
529.135	12958
529.203	12662
529.272	12620
529.340	13468
529.409	13781
529.477	12519
529.545	12402
529.614	14392
529.682	13234
529.751	14182
529.819	14037
529.887	14353
529.956	13776
530.024	14533
530.092	13935
530.161	15072
530.229	12918
530.297	13807
530.365	14374
530.434	14171
530.502	13818
530.570	14998
530.638	12326
530.707	14796
530.775	14605
530.843	14565
530.911	14641
530.979	14896
531.047	14426
531.115	15186
531.183	13411
531.252	14929
531.320	14147
531.388	13548
531.456	15044
531.524	15159
531.592	15238
531.660	16121
531.728	14537
531.796	14419
531.864	14008
531.932	15846
532.000	14465
532.067	15661
532.135	15339
532.203	17453
532.271	16781
532.339	19082
532.407	19103
532.475	19290
532.542	17635
532.610	18244
532.678	16689
532.746	19526
532.814	21517
532.881	18804
532.949	18633
533.017	18615
533.084	17092
533.152	17058
533.220	15592
533.287	17566
533.355	16955
533.423	17878
533.490	16868
533.558	17530
533.625	18075
533.693	18793
533.761	17250
533.828	18754
533.896	17650
533.963	19386
534.031	20753
534.098	23084
534.166	28609
534.233	27682
534.300	29321
534.368	30978
534.435	30201
534.503	32177
534.570	34624
534.637	41594
534.705	50039
534.772	62529
534.840	98113
534.907	319751
534.974	661310
535.041	159540
535.109	50421
535.176	36114
535.243	32646
535.310	30060
535.378	28637
535.445	27943
535.512	29539
535.579	28383
535.646	27137
535.714	28446
535.781	29127
535.848	31052
535.915	28751
535.982	28873
536.049	28132
536.116	28492
536.183	28808
536.250	26466
536.317	27701
536.384	28781
536.451	30641
536.518	30098
536.585	28824
536.652	30931
536.719	30124
536.786	28852
536.853	28633
536.920	28998
536.987	27783
537.053	27895
537.120	31094
537.187	30340
537.254	33682
537.321	32128
537.388	32635
537.454	31705
537.521	31424
537.588	31408
537.654	31751
537.721	33125
537.788	34089
537.855	32466
537.921	31771
537.988	32004
538.055	28809
538.121	28831
538.188	28728
538.254	27479
538.321	27182
538.388	29773
538.454	33233
538.521	35231
538.587	34424
538.654	33622
538.720	33127
538.787	33481
538.853	32413
538.920	31854
538.986	29082
539.053	28468
539.119	29098
539.185	32022
539.252	30659
539.318	32946
539.385	35032
539.451	34900
539.517	33017
539.583	32893
539.650	32488
539.716	32511
539.782	30461
539.849	30884
539.915	30798
539.981	30810
540.047	30741
540.114	30336
540.180	31802
540.246	33198
540.312	35221
540.378	34734
540.444	34771
540.510	33928
540.576	34246
540.643	32875
540.709	31327
540.775	31249
540.841	31786
540.907	32296
540.973	31551
541.039	31024
541.105	32460
541.171	33299
541.237	35834
541.303	35263
541.369	33769
541.435	33554
541.500	33097
541.566	31455
541.632	30526
541.698	31296
541.764	33195
541.830	33435
541.896	33971
541.961	33466
542.027	32530
542.093	35413
542.159	35777
542.224	33588
542.290	33549
542.356	32900
542.421	33220
542.487	30299
542.553	30808
542.618	32775
542.684	31326
542.750	32582
542.815	32914
542.881	33931
542.947	32890
543.012	35259
543.078	33212
543.143	30708
543.209	32710
543.274	31554
543.340	31563
543.405	32742
543.471	32809
543.536	34025
543.602	34741
543.667	32883
543.732	34166
543.798	34072
543.863	35188
543.928	35261
543.994	34670
544.059	34780
544.124	35881
544.190	35969
544.255	36657
544.320	37574
544.386	36808
544.451	37018
544.516	37255
544.581	36851
544.646	37365
544.712	39381
544.777	37525
544.842	39405
544.907	37533
544.972	38771
545.037	40087
545.102	40537
545.168	41699
545.233	42574
545.298	42121
545.363	42978
545.428	43398
545.493	44673
545.558	44188
545.623	44542
545.688	44601
545.753	46026
545.818	47405
545.883	49380
545.947	50805
546.012	52732
546.077	53909
546.142	57747
546.207	58960
546.272	60829
546.337	63910
546.401	65099
546.466	68626
546.531	69445
546.596	74480
546.661	77470
546.725	82316
546.790	86800
546.855	92482
546.919	101321
546.984	112982
547.049	121109
547.113	134084
547.178	150449
547.243	167237
547.307	189890
547.372	215457
547.436	219526
547.501	224781
547.565	242797
547.630	233366
547.695	217871
547.759	218321
547.823	222214
547.888	226279
547.952	232100
548.017	236911
548.081	249203
548.146	244115
548.210	245251
548.274	259282
548.339	267860
548.403	245082
548.468	229822
548.532	225019
548.596	230194
548.660	231946
548.725	244479
548.789	264566
548.853	266178
548.917	252947
548.982	249343
549.046	230356
549.110	208249
549.174	203782
549.238	232115
549.303	258266
549.367	266574
549.431	262047
549.495	246431
549.559	240025
549.623	262451
549.687	300375
549.751	291270
549.815	324807
549.879	353665
549.943	336843
550.007	342397
550.071	349250
550.135	324149
550.199	301064
550.263	301101
550.327	283834
550.391	284150
550.455	310644
550.519	330209
550.582	342657
550.646	376440
550.710	393141
550.774	391615
550.838	392548
550.901	405394
550.965	428575
551.029	443723
551.093	470766
551.156	507164
551.220	548358
551.284	590977
551.347	519095
551.411	442169
551.475	409401
551.538	414003
551.602	405221
551.666	376672
551.729	361557
551.793	346025
551.856	344821
551.920	337476
551.983	335315
552.047	331521
552.110	329000
552.174	333393
552.237	342364
552.301	326168
552.364	310882
552.428	303582
552.491	302210
552.554	315194
552.618	310589
552.681	317374
552.745	310401
552.808	307836
552.871	323976
552.934	323225
552.998	315428
553.061	308554
553.124	299582
553.187	293145
553.251	302085
553.314	303848
553.377	302964
553.440	316793
553.503	330750
553.567	339533
553.630	324347
553.693	325105
553.756	323773
553.819	319637
553.882	310238
553.945	306843
554.008	312147
554.071	313017
554.134	318905
554.197	305316
554.260	293004
554.323	293327
554.386	298822
554.449	305959
554.512	312671
554.575	302296
554.638	296879
554.701	296147
554.764	295639
554.827	285583
554.889	279184
554.952	263704
555.015	255540
555.078	257904
555.141	262944
555.203	260731
555.266	255707
555.329	256155
555.391	246742
555.454	243890
555.517	238042
555.580	229930
555.642	221659
555.705	220057
555.768	216144
555.830	213018
555.893	202624
555.955	195383
556.018	191900
556.080	192187
556.143	198969
556.206	198235
556.268	191821
556.330	186696
556.393	181153
556.455	178391
556.518	173066
556.580	168756
556.643	163959
556.705	160710
556.767	158089
556.830	155226
556.892	152461
556.955	148923
557.017	147841
557.079	146308
557.142	140844
557.204	139366
557.266	140327
557.328	134354
557.391	125544
557.453	121784
557.515	121046
557.577	120512
557.639	122194
557.701	121954
557.764	120066
557.826	122981
557.888	127174
557.950	133780
558.012	142614
558.074	166719
558.136	248689
558.198	607690
558.260	435841
558.322	153097
558.384	133909
558.446	135722
558.508	143647
558.570	161080
558.632	185809
558.694	229597
558.756	323808
558.818	610952
558.880	1240169
558.942	929321
559.003	709152
559.065	560123
559.127	217632
559.189	178258
559.251	185462
559.312	228505
559.374	375155
559.436	903858
559.498	869700
559.559	298067
559.621	190240
559.683	189371
559.744	241777
559.806	489466
559.868	940790
559.929	454596
559.991	210553
560.052	239443
560.114	535120
560.176	588480
560.237	332917
560.299	621042
560.360	295620
560.422	96278
560.483	75283
560.545	68117
560.606	61549
560.667	59990
560.729	57805
560.790	53997
560.852	52678
560.913	53133
560.974	51556
561.036	49117
561.097	49034
561.158	49393
561.220	47543
561.281	48166
561.342	45217
561.403	46298
561.465	44910
561.526	44840
561.587	43732
561.648	42467
561.709	42110
561.771	41478
561.832	40875
561.893	39966
561.954	40153
562.015	39252
562.076	39542
562.137	38863
562.198	37484
562.259	39423
562.320	37965
562.381	39458
562.442	38759
562.503	38204
562.564	36164
562.625	36693
562.686	34926
562.747	35606
562.808	35004
562.869	35044
562.930	34246
562.991	35970
563.051	34048
563.112	33121
563.173	33968
563.234	34083
563.294	32923
563.355	31764
563.416	31254
563.477	31653
563.537	32486
563.598	32724
563.659	32118
563.720	30383
563.780	30454
563.841	31748
563.901	31520
563.962	31547
564.023	31364
564.083	31311
564.144	30655
564.204	30165
564.265	29464
564.325	30721
564.386	29438
564.446	30878
564.507	29000
564.567	29206
564.628	29054
564.688	28689
564.749	28295
564.809	29213
564.869	28410
564.930	29871
564.990	28031
565.050	28136
565.111	27506
565.171	28667
565.231	29005
565.292	29448
565.352	27746
565.412	28216
565.472	28794
565.532	29130
565.593	28063
565.653	27269
565.713	27617
565.773	28607
565.833	28347
565.893	29919
565.953	27516
566.013	26524
566.074	25633
566.134	26572
566.194	25159
566.254	26533
566.314	25290
566.374	26143
566.434	26103
566.494	27397
566.554	26349
566.614	28359
566.673	28367
566.733	28374
566.793	28028
566.853	27243
566.913	27555
566.973	27302
567.033	27513
567.092	28221
567.152	27802
567.212	28295
567.272	27483
567.331	29502
567.391	27434
567.451	29165
567.511	29713
567.570	29709
567.630	28612
567.690	29077
567.749	27076
567.809	28780
567.868	27188
567.928	26937
567.988	28176
568.047	28424
568.107	28027
568.166	28563
568.226	27935
568.285	28261
568.345	28478
568.404	29853
568.464	28216
568.523	28255
568.582	27064
568.642	28861
568.701	27481
568.761	26751
568.820	25579
568.879	26280
568.939	26901
568.998	27595
569.057	27155
569.116	26901
569.176	26971
569.235	27362
569.294	27442
569.353	26113
569.413	27028
569.472	25842
569.531	25909
569.590	25633
569.649	25409
569.708	26111
569.767	26127
569.827	26122
569.886	25827
569.945	26840
570.004	25694
570.063	26902
570.122	26448
570.181	27838
570.240	27588
570.299	28257
570.358	28345
570.417	27541
570.475	27260
570.534	28794
570.593	27807
570.652	28371
570.711	28392
570.770	28235
570.829	26420
570.887	27898
570.946	27635
571.005	28721
571.064	28398
571.122	28166
571.181	27110
571.240	27316
571.299	27084
571.357	27136
571.416	25752
571.475	25903
571.533	27840
571.592	29184
571.650	29909
571.709	30068
571.768	31811
571.826	35502
571.885	33016
571.943	31178
572.002	28654
572.060	28953
572.119	27733
572.177	27757
572.236	27186
572.294	28180
572.352	29434
572.411	28862
572.469	29021
572.528	27621
572.586	27164
572.644	26981
572.703	27004
572.761	24836
572.819	25412
572.877	25115
572.936	23760
572.994	24337
573.052	24483
573.110	25390
573.169	26140
573.227	27706
573.285	26942
573.343	25844
573.401	25691
573.459	26426
573.517	26193
573.576	26614
573.634	27531
573.692	27333
573.750	26055
573.808	27910
573.866	25774
573.924	24977
573.982	25525
574.040	25355
574.098	25357
574.155	24682
574.213	24066
574.271	24794
574.329	26880
574.387	26917
574.445	24627
574.503	23866
574.560	24072
574.618	24687
574.676	23563
574.734	23567
574.792	22539
574.849	22594
574.907	21589
574.965	20571
575.022	20321
575.080	19804
575.138	19455
575.195	19677
575.253	18913
575.311	19746
575.368	19758
575.426	19474
575.483	19487
575.541	21602
575.598	20588
575.656	20586
575.713	20149
575.771	22089
575.828	21527
575.886	20571
575.943	18973
576.001	19218
576.058	18408
576.115	19014
576.173	20064
576.230	20513
576.287	20319
576.345	19442
576.402	19812
576.459	20597
576.517	20087
576.574	19738
576.631	18927
576.688	18544
576.746	18205
576.803	19085
576.860	18786
576.917	18704
576.974	18471
577.031	19912
577.089	18607
577.146	17225
577.203	17280
577.260	17396
577.317	16937
577.374	17894
577.431	17770
577.488	17496
577.545	17353
577.602	17985
577.659	17451
577.716	17843
577.773	18425
577.830	18059
577.886	17120
577.943	17278
578.000	16949
578.057	16645
578.114	17644
578.171	17872
578.227	17070
578.284	17465
578.341	16379
578.398	18063
578.454	17638
578.511	17188
578.568	18306
578.625	17099
578.681	17704
578.738	18472
578.794	16533
578.851	16982
578.908	17705
578.964	17335
579.021	17900
579.077	17421
579.134	17485
579.190	17930
579.247	17264
579.303	17396
579.360	16604
579.416	18002
579.473	17365
579.529	18052
579.586	17917
579.642	17876
579.698	17507
579.755	18282
579.811	17669
579.867	18054
579.924	18120
579.980	18227
580.036	18532
580.093	19075
580.149	18215
580.205	20023
580.261	20020
580.317	18857
580.374	19208
580.430	19739
580.486	19653
580.542	19118
580.598	18558
580.619	18977
580.654	19727
580.692	19166
580.710	18917
580.765	20229
580.767	20292
580.823	19859
580.838	20190
580.879	21142
580.911	20479
580.935	20019
580.984	19843
580.991	19842
581.047	19030
581.057	19111
581.103	19563
581.130	19471
581.159	19420
581.203	19660
581.215	19738
581.270	19385
581.276	19371
581.326	19366
581.349	19096
581.382	18764
581.422	18550
581.438	18461
581.494	18671
581.494	18662
581.550	19193
581.567	18810
581.606	18031
581.640	18270
581.661	18425
581.713	19051
581.717	19113
581.773	18279
581.786	18356
581.829	18670
581.859	18594
581.885	18513
581.932	18861
581.940	18952
581.996	19144
582.004	19099
582.052	18834
582.077	18930
582.107	19041
582.150	18684
582.163	18586
582.219	18087
582.223	18012
582.274	17253
582.296	17544
582.330	17929
582.368	17651
582.386	17635
582.441	18512
582.441	18517
582.497	18076
582.514	18095
582.552	18341
582.587	18131
582.608	17932
582.659	18035
582.663	18054
582.719	18253
582.732	18244
582.774	18217
582.805	18283
582.830	18300
582.877	18313
582.885	18347
582.941	18102
582.950	18247
582.996	18844
583.023	18516
583.052	18175
583.095	18488
583.107	18558
583.162	18877
583.168	18904
583.218	19211
583.240	18645
583.273	17883
583.313	17822
583.328	17751
583.384	18294
583.385	18251
583.439	17198
583.458	17496
583.494	17894
583.531	17763
583.549	17840
583.603	17644
583.605	17632
583.660	18672
583.676	18711
583.715	18682
583.748	18539
583.770	18476
583.820	18592
583.825	18602
583.881	19134
583.893	19006
583.936	18491
583.965	18450
583.991	18421
584.038	18253
584.046	18260
584.101	18939
584.110	18946
584.156	18872
584.183	19123
584.211	19416
584.255	19115
584.266	18995
584.321	20154
584.328	20079
584.376	19662
584.400	19666
584.431	19659
584.472	19782
584.486	19790
584.541	20381
584.545	20406
584.596	21140
584.617	21256
584.651	21100
584.689	21238
584.706	21474
584.761	22544
584.762	22547
584.816	22729
584.834	23542
584.871	25256
584.906	25208
584.926	25047
584.978	26582
584.980	26667
585.035	29228
585.051	29845
585.090	31762
585.123	33907
585.145	35446
585.195	39541
585.200	39984
585.254	47432
585.267	49339
585.309	56187
585.340	62614
585.364	68561
585.412	82258
585.419	84340
585.473	103368
585.484	108328
585.528	133795
585.556	157128
585.583	192107
585.628	274919
585.637	307296
585.692	569143
585.700	623738
585.747	973640
585.772	1037026
585.801	911383
585.845	575519
585.856	488371
585.910	207710
585.917	181719
585.965	120171
585.989	95231
586.019	79157
586.061	63430
586.074	60401
586.128	51319
586.133	50655
586.183	45541
586.205	43771
586.237	42379
586.277	41322
586.292	41027
586.346	39605
586.349	39512
586.401	37893
586.421	37552
586.455	37468
586.493	37813
586.509	37901
586.564	37162
586.565	37156
586.618	38445
586.637	39344
586.672	42286
586.709	46230
586.727	49484
586.781	60798
586.781	60838
586.835	58068
586.853	56315
586.889	48700
586.925	42192
586.944	40234
586.996	37273
586.998	37253
587.052	36447
587.068	36221
587.106	36297
587.140	36410
587.161	36641
587.212	37210
587.215	37195
587.269	36412
587.284	36413
587.323	37257
587.356	37536
587.377	37717
587.427	38548
587.431	38612
587.485	39109
587.499	39259
587.539	39789
587.571	40568
587.593	41283
587.643	42477
587.648	42605
587.702	43648
587.715	43755
587.755	44036
587.786	44770
587.810	45019
587.858	44961
587.864	44999
587.917	45075
587.930	45096
587.971	45437
588.001	45397
588.025	45251
588.073	45394
588.079	45403
588.133	44936
588.145	44840
588.187	44559
588.217	44352
588.241	44450
588.288	44835
588.295	44957
588.348	45671
588.360	45866
588.402	46604
588.431	46634
588.456	46412
588.503	46760
588.510	47053
588.564	49458
588.575	49914
588.617	51871
588.646	53392
588.671	53960
588.718	54458
588.725	54739
588.778	58394
588.789	59059
588.832	64363
588.861	70191
588.886	86477
588.932	122728
588.939	133201
588.993	230317
589.004	240617
589.047	181738
589.075	136304
589.100	102183
589.147	57404
589.154	56472
589.207	52575
589.218	51751
589.261	51650
589.290	51841
589.314	52524
589.361	54293
589.368	54608
589.421	57533
589.433	58428
589.475	71255
589.504	82080
589.528	105421
589.576	160863
589.582	163858
589.635	169096
589.647	166033
589.689	98553
589.718	60138
589.742	55955
589.790	49151
589.795	49180
589.849	50241
589.861	50365
589.902	50013
589.932	49798
589.955	49900
590.004	49922
590.009	49952
590.062	49972
590.075	49809
590.115	48958
590.146	48595
590.168	48942
590.218	49178
590.222	49199
590.275	49345
590.289	49340
590.328	50852
590.360	51938
590.381	52285
590.431	52866
590.435	52977
590.488	54052
590.503	54382
590.541	54264
590.574	53916
590.594	54239
590.645	54958
590.647	55108
590.700	58157
590.716	58958
590.753	59917
590.787	60787
590.806	61558
590.859	63419
590.859	63482
590.912	63614
590.930	63532
590.965	64340
591.001	65108
591.018	65285
591.071	65501
591.072	65437
591.124	64923
591.143	64580
591.177	63924
591.214	63423
591.230	63910
591.283	65032
591.285	65017
591.336	65693
591.356	65799
591.389	65673
591.427	65521
591.442	65454
591.495	64699
591.498	64591
591.547	64433
591.569	64332
591.600	65333
591.640	66292
591.653	66645
591.706	67981
591.711	68055
591.759	68762
591.782	69028
591.811	70543
591.853	72613
591.864	72812
591.917	73182
591.924	73172
591.969	73539
591.995	73594
592.022	73618
592.066	73534
592.075	73958
592.127	76090
592.137	76396
592.180	77771
592.208	78561
592.233	79094
592.279	79846
592.285	80376
592.338	84119
592.350	84868
592.390	84711
592.421	84412
592.443	84698
592.491	85021
592.495	85200
592.548	86330
592.562	86544
592.600	87628
592.633	88367
592.653	88115
592.704	86701
592.705	87209
592.775	87835
592.846	91343
592.916	93378
592.987	93649
593.058	93823
593.128	96086
593.199	95503
593.270	95207
593.341	96912
593.411	100189
593.482	103443
593.553	105753
593.623	106974
593.694	111009
593.764	115299
593.835	113840
593.906	114447
593.976	116568
594.047	119364
594.117	123666
594.188	127084
594.258	131486
594.329	128329
594.399	129943
594.470	135758
594.540	139311
594.611	143499
594.681	143921
594.751	142679
594.822	146053
594.892	151605
594.963	154959
595.033	160301
595.103	164490
595.174	166918
595.244	169699
595.314	175915
595.384	179161
595.455	183613
595.525	189490
595.595	196695
595.665	201068
595.736	196311
595.806	196517
595.876	200872
595.946	198894
596.016	205591
596.087	214513
596.157	217849
596.227	216072
596.297	223295
596.367	236155
596.437	253727
596.507	258617
596.577	253293
596.647	258968
596.717	270036
596.787	280879
596.857	280644
596.927	280386
596.997	281271
597.067	284082
597.137	287519
597.207	290080
597.277	294360
597.347	289521
597.417	277353
597.487	271864
597.557	273215
597.626	283438
597.696	287402
597.766	287510
597.836	278695
597.906	262387
597.975	253872
598.045	256103
598.115	262175
598.185	274164
598.254	301110
598.324	333107
598.394	344583
598.464	344099
598.533	334037
598.603	324129
598.672	301620
598.742	302806
598.812	308509
598.881	315451
598.951	315992
599.020	316745
599.090	324631
599.159	336948
599.229	330401
599.299	315648
599.368	321992
599.437	326814
599.507	308251
599.576	287589
599.646	285125
599.715	276775
599.785	277834
599.854	272377
599.924	265286
599.993	260890
600.062	264695
600.132	272545
600.201	276198
600.270	310302
600.340	348167
600.409	344936
600.478	342441
600.547	341269
600.617	344109
600.686	278273
600.755	239363
600.824	223314
600.894	214821
600.963	212870
601.032	214608
601.101	206974
601.170	198052
601.239	189973
601.308	185522
601.378	184617
601.447	186958
601.516	188809
601.585	188801
601.654	188054
601.723	192425
601.792	193276
601.861	201829
601.930	206791
601.999	211876
602.068	210987
602.137	211860
602.206	215219
602.275	219239
602.343	222746
602.412	222509
602.481	223814
602.550	227239
602.619	231262
602.688	235065
602.756	237564
602.825	240559
602.894	240678
602.963	250846
603.032	254572
603.100	256223
603.169	255105
603.238	258249
603.307	259222
603.375	261606
603.444	264993
603.513	272169
603.581	275211
603.650	279218
603.719	279192
603.787	279799
603.856	289733
603.924	296593
603.993	305444
604.061	315630
604.130	327866
604.198	337006
604.267	344092
604.335	348388
604.404	350914
604.472	357041
604.541	359708
604.609	366290
604.678	366810
604.746	365852
604.815	368638
604.883	381948
604.951	384055
605.020	386784
605.088	391918
605.156	401482
605.225	410590
605.293	411779
605.361	412298
605.429	415582
605.498	419260
605.566	429356
605.634	444172
605.702	459195
605.771	474547
605.839	483747
605.907	480107
605.975	469828
606.043	451679
606.111	450243
606.180	450538
606.248	450009
606.316	443069
606.384	441269
606.452	442054
606.520	448609
606.588	464331
606.656	471614
606.724	472479
606.792	457312
606.860	426479
606.928	386889
606.996	366874
607.064	355179
607.132	356129
607.200	368860
607.267	391792
607.335	394208
607.403	409165
607.471	406402
607.539	383441
607.607	390935
607.674	363315
607.742	341671
607.810	342327
607.878	342558
607.946	346020
608.013	355997
608.081	370869
608.149	370497
608.216	374903
608.284	395080
608.352	396954
608.419	399121
608.487	387283
608.555	378817
608.622	385991
608.690	394895
608.757	429650
608.825	461706
608.893	452856
608.960	437669
609.028	410286
609.095	407767
609.163	409256
609.230	391431
609.298	344187
609.365	342702
609.432	370082
609.500	393497
609.567	432300
609.635	485524
609.702	530189
609.769	527210
609.837	473246
609.904	374813
609.971	368910
610.039	390328
610.106	437643
610.173	586941
610.241	1052774
610.308	1395485
610.375	667100
610.442	444394
610.509	399495
610.577	383624
610.644	382766
610.711	389070
610.778	401475
610.845	407343
610.912	428064
610.980	449221
611.047	455627
611.114	451819
611.181	442841
611.248	432901
611.315	440323
611.382	463907
611.449	474263
611.516	486169
611.583	484115
611.650	480564
611.717	488611
611.784	494454
611.851	504740
611.918	525651
611.984	562560
612.051	659045
612.118	879615
612.185	1427778
612.252	1833049
612.319	1105580
612.386	715435
612.452	619625
612.519	567803
612.586	539134
612.653	537251
612.719	548369
612.786	552463
612.853	522481
612.919	494879
612.986	499799
613.053	488581
613.120	468116
613.186	441489
613.253	440350
613.319	435823
613.386	440607
613.453	443979
613.519	447356
613.586	442961
613.652	444433
613.719	444042
613.785	441450
613.852	451812
613.918	450882
613.985	448524
614.051	462474
614.118	466195
614.184	458549
614.250	441426
614.317	455939
614.383	450977
614.449	456557
614.516	456675
614.582	458110
614.648	452599
614.715	449136
614.781	446668
614.847	433437
614.914	438718
614.980	431176
615.046	423875
615.112	432959
615.179	441231
615.245	443828
615.311	444048
615.377	440467
615.443	452061
615.509	450371
615.575	466606
615.642	473024
615.708	472795
615.774	487459
615.840	510893
615.906	532762
615.972	575441
616.038	697010
616.104	1003405
616.170	1580147
616.236	2000612
616.302	1420397
616.368	949319
616.434	771539
616.500	615185
616.565	594834
616.631	701274
616.697	753406
616.763	646626
616.829	726321
616.895	1110490
616.961	1486617
617.026	1111904
617.092	646382
617.158	522797
617.224	486504
617.289	456956
617.355	427102
617.421	413405
617.487	410180
617.552	397878
617.618	382178
617.684	385222
617.749	383351
617.815	377088
617.880	364685
617.946	360723
618.012	362750
618.077	372458
618.143	368922
618.208	356279
618.274	371618
618.339	393937
618.405	356053
618.470	320854
618.536	327113
618.601	321944
618.667	312067
618.732	290947
618.798	284338
618.863	281642
618.928	278007
618.994	278465
619.059	278442
619.124	279673
619.190	279716
619.255	276287
619.320	278374
619.386	278219
619.451	279465
619.516	272424
619.581	270628
619.647	277642
619.712	284945
619.777	274302
619.842	267067
619.907	272153
619.972	275293
620.038	281054
620.103	274128
620.168	271789
620.233	272729
620.298	273882
620.363	275369
620.428	282030
620.493	289909
620.558	295151
620.623	297094
620.688	301264
620.753	296460
620.818	299020
620.883	302187
620.948	303645
621.013	299578
621.078	295050
621.143	295172
621.207	302195
621.272	299188
621.337	292249
621.402	283858
621.467	286544
621.532	279464
621.596	284489
621.661	278844
621.726	272595
621.791	274587
621.855	277700
621.920	273340
621.985	276439
622.049	279411
622.114	282788
622.179	286086
622.243	286483
622.308	297714
622.373	307882
622.437	309185
622.502	296900
622.566	288648
622.631	287038
622.695	288633
622.760	292078
622.824	289064
622.889	289935
622.953	290146
623.018	295312
623.082	311043
623.147	305842
623.211	304073
623.276	300419
623.340	299756
623.404	285279
623.469	282706
623.533	283991
623.597	284966
623.662	278251
623.726	273759
623.790	253897
623.854	242981
623.919	239997
623.983	245473
624.047	250130
624.111	252114
624.176	257117
624.240	258161
624.304	264445
624.368	262741
624.432	255881
624.496	259997
624.560	270429
624.625	282072
624.689	276549
624.753	282005
624.817	286065
624.881	271212
624.945	262108
625.009	239760
625.073	241544
625.137	246119
625.201	253814
625.265	265593
625.329	256481
625.393	252115
625.456	258466
625.520	259890
625.584	264491
625.648	271740
625.712	274964
625.776	281769
625.839	271765
625.903	248263
625.967	216195
626.031	216682
626.095	235931
626.158	265793
626.222	224490
626.286	191330
626.349	183174
626.413	175888
626.477	165355
626.540	168200
626.604	171317
626.668	169644
626.731	163701
626.795	163004
626.858	164896
626.922	160930
626.986	161857
627.049	158727
627.113	166565
627.176	165799
627.240	159396
627.303	156694
627.366	159219
627.430	157348
627.493	160609
627.557	155527
627.620	152911
627.684	158902
627.747	166690
627.810	161969
627.874	143738
627.937	133829
628.000	135686
628.064	136532
628.127	127680
628.190	119766
628.253	115213
628.317	114920
628.380	108412
628.443	104896
628.506	103258
628.569	101425
628.632	97088
628.696	94548
628.759	94623
628.822	92381
628.885	89102
628.948	87385
629.011	87998
629.074	83874
629.137	82898
629.200	81051
629.263	78139
629.326	77142
629.389	77692
629.452	77435
629.515	74822
629.578	74275
629.641	74908
629.704	77115
629.767	76445
629.830	74284
629.892	70907
629.955	71730
630.018	71691
630.081	73109
630.144	71617
630.207	69584
630.269	70365
630.332	71123
630.395	68434
630.458	67399
630.520	64976
630.583	64824
630.646	64358
630.708	66159
630.771	67458
630.834	70167
630.896	70489
630.959	69532
631.021	69484
631.084	68884
631.146	69779
631.209	69353
631.272	70247
631.334	71864
631.397	72398
631.459	72927
631.522	76202
631.584	78578
631.646	82437
631.709	87935
631.771	89941
631.834	87777
631.896	84254
631.958	79523
632.021	74816
632.083	71584
632.145	69819
632.208	67024
632.270	66281
632.332	64855
632.395	65532
632.457	65768
632.519	65140
632.581	64238
632.643	63276
632.706	63490
632.768	62736
632.830	63203
632.892	63815
632.954	65857
633.016	66055
633.078	65070
633.141	65510
633.203	64871
633.265	64084
633.327	64817
633.389	63870
633.451	65981
633.513	64543
633.575	67117
633.637	67592
633.698	67733
633.760	70599
633.822	74810
633.884	76098
633.946	78483
634.008	81211
634.070	85169
634.132	88723
634.193	96088
634.255	105528
634.317	110554
634.379	112135
634.441	104232
634.502	94826
634.564	86891
634.626	77823
634.687	73354
634.749	69178
634.811	66542
634.873	66675
634.934	65376
634.996	66416
635.057	66145
635.119	66139
635.181	68913
635.242	69344
635.304	68129
635.365	69764
635.427	69000
635.488	68541
635.550	68840
635.611	68028
635.673	68942
635.734	73190
635.796	77859
635.857	84923
635.918	91997
635.980	100344
636.041	109015
636.102	116642
636.164	120860
636.225	119776
636.286	111085
636.348	96769
636.409	86503
636.470	78112
636.531	74268
636.593	69868
636.654	66301
636.715	63616
636.776	60681
636.838	60071
636.899	57981
636.960	57501
637.021	56662
637.082	54471
637.143	53594
637.204	52518
637.265	51256
637.326	52592
637.387	53127
637.448	55770
637.509	54153
637.570	53666
637.631	52874
637.692	51380
637.753	49918
637.814	48064
637.875	49402
637.936	48394
637.997	48044
638.058	47729
638.119	48496
638.179	47391
638.240	47844
638.301	47825
638.362	48020
638.423	46115
638.483	44434
638.544	43981
638.605	43292
638.666	43627
638.726	45750
638.787	43897
638.848	43890
638.908	44790
638.969	42011
639.030	42670
639.090	42101
639.151	41439
639.211	43021
639.272	43311
639.332	43177
639.393	44868
639.453	46947
639.514	51842
639.574	48440
639.635	43122
639.695	41164
639.756	40272
639.816	39524
639.877	37998
639.937	39470
639.997	40134
640.058	39064
640.118	39878
640.178	39550
640.239	39825
640.299	39455
640.359	41603
640.420	42420
640.480	46559
640.540	52566
640.600	60829
640.661	58719
640.721	50104
640.781	51761
640.841	49658
640.901	44533
640.961	41982
641.021	43471
641.082	46229
641.142	47141
641.202	40367
641.262	38135
641.322	39125
641.382	38461
641.442	37171
641.502	37445
641.562	36866
641.622	39030
641.682	40852
641.742	45438
641.802	52475
641.861	42646
641.921	38016
641.981	36421
642.041	34759
642.101	34513
642.161	34662
642.221	34544
642.280	34852
642.340	35436
642.400	34497
642.460	35948
642.519	36347
642.579	36375
642.639	37575
642.698	36331
642.758	38649
642.818	37249
642.877	37600
642.937	37496
642.997	37396
643.056	37189
643.116	37190
643.175	37349
643.235	36911
643.294	39007
643.354	40454
643.414	42778
643.473	47542
643.532	55174
643.592	65822
643.651	89875
643.711	134956
643.770	225995
643.830	425532
643.889	914817
643.948	914468
644.008	272349
644.067	111829
644.126	74147
644.186	59048
644.245	50028
644.304	43380
644.363	42268
644.423	39579
644.482	39474
644.541	40219
644.600	43226
644.659	48810
644.719	55466
644.778	74108
644.837	109581
644.896	187739
644.955	402262
645.014	507995
645.073	124818
645.132	61020
645.191	50340
645.250	45836
645.309	45822
645.368	47271
645.427	56614
645.486	78526
645.545	164228
645.604	154360
645.663	47449
645.722	40394
645.781	40877
645.840	42674
645.898	48870
645.957	60681
646.016	80840
646.075	126439
646.134	212986
646.192	406834
646.251	871505
646.310	634219
646.369	165744
646.427	85171
646.486	72252
646.545	51287
646.603	41935
646.662	39402
646.721	35669
646.779	35147
646.838	35548
646.896	38953
646.955	50040
647.014	69045
647.072	112236
647.131	241758
647.189	432697
647.248	110533
647.306	40897
647.365	32882
647.423	29860
647.481	29751
647.540	27197
647.598	27418
647.657	27129
647.715	26899
647.773	26342
647.832	26154
647.890	23957
647.948	23869
648.007	24287
648.065	22393
648.123	22511
648.181	23215
648.240	21858
648.298	21724
648.356	22132
648.414	21309
648.472	21939
648.531	21054
648.589	20338
648.647	20984
648.705	21542
648.763	20629
648.821	21204
648.879	22743
648.937	23797
648.995	26781
649.053	32005
649.111	41410
649.169	61231
649.227	99512
649.285	177196
649.343	402003
649.401	675831
649.459	198151
649.516	58830
649.574	38132
649.632	34068
649.690	34232
649.748	39314
649.806	52169
649.863	85038
649.921	167694
649.979	366093
650.037	117690
650.094	31209
650.152	23996
650.210	20333
650.268	20386
650.325	19419
650.383	20364
650.440	19037
650.498	16142
650.556	15473
650.613	15815
650.671	16498
650.728	16288
650.786	17806
650.843	19832
650.901	27352
650.958	17807
651.016	14457
651.073	14198
651.131	14285
651.188	12739
651.246	13763
651.303	12797
651.360	13472
651.418	12150
651.475	12862
651.532	12510
651.590	13528
651.647	12370
651.704	13222
651.762	12568
651.819	12920
651.876	11755
651.933	11115
651.990	11988
652.048	10984
652.105	11305
652.162	11843
652.219	11424
652.276	11436
652.333	11495
652.390	10993
652.448	10973
652.505	11366
652.562	11071
652.619	11480
652.676	11414
652.733	11896
652.790	10813
652.847	9977
652.904	10571
652.961	9919
653.017	10019
653.074	10891
653.131	9616
653.188	9984
653.245	9713
653.302	10832
653.359	10483
653.415	10714
653.472	10983
653.529	10108
653.586	10475
653.642	10542
653.699	10082
653.756	10860
653.813	10839
653.869	10560
653.926	11123
653.983	11198
654.039	10426
654.096	11298
654.152	10496
654.209	9675
654.266	9585
654.322	9131
654.379	9844
654.435	10246
654.492	9895
654.548	9491
654.605	8848
654.661	10736
654.717	9472
654.774	10130
654.830	10081
654.887	10078
654.943	10197
655.000	11130
655.056	10604
655.112	9475
655.168	9524
655.225	10026
655.281	10313
655.337	9706
655.394	10903
655.450	9682
655.506	9288
655.562	9916
655.618	9588
655.675	8820
655.731	9325
655.787	8576
655.843	8499
655.899	8876
655.955	9898
656.011	10537
656.067	9937
656.123	9827
656.179	10298
656.235	9257
656.291	9933
656.347	10941
656.403	9673
656.459	9113
656.515	9985
656.571	9623
656.627	9414
656.683	8892
656.739	9407
656.795	9090
656.850	8861
656.906	9537
656.962	9276
657.018	9375
657.074	10602
657.129	14292
657.185	19199
657.241	32887
657.297	61062
657.352	21778
657.408	9664
657.464	9557
657.519	8103
657.575	7526
657.630	8359
657.686	7559
657.742	8409
657.797	8059
657.853	7132
657.908	8152
657.964	9213
658.019	7001
658.075	7928
658.130	7309
658.186	7753
658.241	8275
658.297	8150
658.352	7467
658.407	8241
658.463	7214
658.518	7525
658.573	7442
658.629	7264
658.684	7936
658.739	7192
658.795	6813
658.850	7841
658.905	7135
658.960	7646
659.016	7647
659.071	7254
659.126	7328
659.181	6731
659.236	7694
659.291	7051
659.346	7073
659.401	7257
659.457	8280
659.512	6900
659.567	7625
659.622	7301
659.677	7051
659.732	6903
659.787	6988
659.842	6441
659.897	6430
659.952	6593
660.007	6540
660.061	7192
660.116	7008
660.171	7262
660.226	7093
660.281	7558
660.336	6673
660.391	6287
660.445	6289
660.500	7072
660.555	6451
660.610	6754
660.664	7026
660.719	6240
660.774	6879
660.828	6376
660.883	6526
660.938	6471
660.992	6666
661.047	6659
661.101	6046
661.156	6162
661.211	6200
661.265	6175
661.320	6048
661.374	6145
661.429	6784
661.483	7181
661.538	5242
661.592	6781
661.647	6628
661.701	7892
661.755	7893
661.810	6386
661.864	5807
661.919	5774
661.973	6854
662.027	5839
662.081	5327
662.136	6087
662.190	6449
662.244	6200
662.299	6376
662.353	6765
662.407	6310
662.461	5864
662.515	6969
662.569	5992
662.624	6382
662.678	5410
662.732	6708
662.786	5542
662.840	5850
662.894	6527
662.948	5885
663.002	6417
663.056	7012
663.110	5642
663.164	5577
663.218	6575
663.272	6608
663.326	6422
663.380	6597
663.434	6814
663.488	6014
663.542	6181
663.595	6061
663.649	5521
663.703	7153
663.757	6437
663.811	5609
663.864	6052
663.918	7425
663.972	5931
664.026	5535
664.079	6162
664.133	7562
664.187	6766
664.240	7122
664.294	6490
664.348	6683
664.401	6438
664.455	6125
664.508	5282
664.562	6763
664.615	6391
664.669	5639
664.722	6229
664.776	5476
664.829	5402
664.883	5897
664.936	5993
664.990	6337
665.043	6278
665.097	6143
665.150	6581
665.203	6654
665.257	6652
665.310	7474
665.363	6410
665.417	6499
665.470	7759
665.523	7204
665.576	7807
665.630	6716
665.683	6562
665.736	6640
665.789	7459
665.842	6668
665.895	6405
665.949	7746
666.002	6158
666.055	7027
666.108	6796
666.161	7644
666.214	6510
666.267	7081
666.320	7121
666.373	7711
666.426	7062
666.479	7162
666.532	7605
666.585	8628
666.638	7862
666.691	8051
666.744	8459
666.796	6646
666.849	7595
666.902	7508
666.955	7712
667.008	6879
667.060	6782
667.113	7106
667.166	7897
667.219	7823
667.271	8411
667.324	7485
667.377	6854
667.430	7650
667.482	7638
667.535	8028
667.587	7236
667.640	6556
667.693	6717
667.745	6851
667.798	7951
667.850	7631
667.903	7056
667.955	7401
668.008	7933
668.060	7850
668.113	7123
668.165	7225
668.218	6955
668.270	7009
668.322	6573
668.375	7520
668.427	7842
668.479	7209
668.532	7274
668.584	7744
668.636	7306
668.689	7471
668.741	5793
668.793	6605
668.845	7092
668.898	6980
668.950	6552
669.002	7301
669.054	6410
669.106	6427
669.158	7121
669.211	7177
669.263	6883
669.315	6835
669.367	6404
669.419	6793
669.471	7319
669.523	6116
669.575	6734
669.627	6431
669.679	6755
669.731	6481
669.783	6632
669.835	6822
669.886	6796
669.938	6112
669.990	6184
670.042	6008
670.094	6078
670.146	6008
670.197	6423
670.249	6414
670.301	5543
670.353	6776
670.404	6285
670.456	6815
670.508	7114
670.560	8037
670.611	8529
670.663	11447
670.715	17008
670.766	31133
670.818	34858
670.869	12164
670.921	7726
670.972	7898
671.024	7582
671.075	7667
671.127	7433
671.178	7587
671.230	8015
671.281	9117
671.333	9980
671.384	10599
671.436	13960
671.487	19676
671.538	25742
671.590	39079
671.641	61139
671.692	97583
671.744	177971
671.795	274800
671.846	178088
671.897	79127
671.949	42066
672.000	28351
672.051	20424
672.102	15305
672.153	12195
672.204	10174
672.256	9406
672.307	8938
672.358	7621
672.409	8109
672.460	6940
672.511	6763
672.562	6380
672.613	5893
672.664	5362
672.715	5260
672.766	5478
672.817	4628
672.868	4631
672.919	5358
672.970	4340
673.021	4663
673.071	5023
673.122	5724
673.173	4346
673.224	5122
673.275	4791
673.326	5367
673.376	4094
673.427	3908
673.478	4458
673.528	5880
673.579	4483
673.630	5071
673.680	5122
673.731	4724
673.782	5116
673.832	4663
673.883	4608
673.934	3721
673.984	4158
674.035	4723
674.085	4625
674.136	4411
674.186	4428
674.237	4899
674.287	5356
674.338	5548
674.388	5494
674.438	5354
674.489	6753
674.539	6020
674.589	6510
674.640	5657
674.690	5628
674.740	5460
674.791	4981
674.841	5012
674.891	5256
674.942	3658
674.992	3855
675.042	4038
675.092	4054
675.142	3310
675.193	4017
675.243	3582
675.293	4402
675.343	4549
675.393	4314
675.443	4213
675.493	4328
675.543	4063
675.593	4758
675.643	4757
675.693	4601
675.743	3919
675.793	3071
675.843	2991
675.893	4193
675.943	3625
675.993	3043
676.043	3700
676.093	3238
676.142	3175
676.192	3647
676.242	3122
676.292	3050
676.341	3773
676.391	3903
676.441	3581
676.491	3577
676.540	3654
676.590	2526
676.640	2678
676.689	2974
676.739	2428
676.789	2809
676.838	2870
676.888	2995
676.937	2037
676.987	3527
677.037	3033
677.086	2541
677.136	2706
677.185	2526
677.235	3005
677.284	2624
677.333	2831
677.383	3238
677.432	3041
677.482	2620
677.531	3416
677.580	3079
677.630	2820
677.679	3274
677.728	2946
677.778	3217
677.827	2901
677.876	2460
677.925	3141
677.975	2848
678.024	3689
678.073	3700
678.122	3557
678.171	2619
678.220	4098
678.269	3898
678.319	5233
678.368	5375
678.417	5366
678.466	4678
678.515	4028
678.564	2696
678.613	2495
678.662	2969
678.711	2031
678.760	2779
678.809	2444
678.857	2590
678.906	3478
678.955	3285
679.004	3597
679.053	2838
679.102	2584
679.151	2884
679.199	3116
679.248	2469
679.297	2719
679.346	2196
679.394	1175
679.443	2254
679.492	2619
679.540	2724
679.589	2198
679.638	2523
679.686	2600
679.735	2618
679.784	3260
679.832	4269
679.881	5836
679.929	4014
679.978	3478
680.026	2894
680.075	2240
680.123	3617
680.172	3094
680.220	2002
680.268	1841
680.317	2386
680.365	2172
680.414	1355
680.462	1153
680.510	2710
680.559	2304
680.607	2624
680.655	2143
680.703	3059
680.752	2523
680.800	3065
680.848	2312
680.896	2484
680.945	2103
680.993	2517
681.041	1894
681.089	2121
681.137	2079
681.185	1822
681.233	1487
681.258	2058
681.281	2563
681.329	2262
681.377	2796
681.380	2809
681.425	2348
681.473	2279
681.502	2301
681.521	2262
681.569	2584
681.617	3070
681.624	3138
681.665	3285
681.713	3109
681.745	2901
681.761	2738
681.809	2464
681.857	3179
681.867	3268
681.904	3414
681.952	3590
681.989	3582
682.000	3534
682.048	3789
682.096	3873
682.111	3722
682.143	3268
682.191	3515
682.233	4000
682.239	4040
682.286	4256
682.334	4037
682.354	4033
682.382	3937
682.430	3932
682.476	3817
682.477	3782
682.525	3910
682.572	3958
682.598	3969
682.620	3916
682.667	4567
682.715	4231
682.720	4297
682.763	4571
682.810	4629
682.841	4707
682.857	4717
682.905	4845
682.952	5073
682.963	5048
683.000	4780
683.047	4630
683.085	5602
683.095	5831
683.142	4502
683.190	5089
683.206	5166
683.237	5256
683.284	5591
683.328	5625
683.332	5592
683.379	5472
683.426	5476
683.449	5621
683.473	5779
683.521	6054
683.568	5803
683.571	5806
683.615	5347
683.662	6467
683.693	6213
683.709	6045
683.757	5777
683.804	6398
683.814	6209
683.851	5335
683.898	5998
683.936	6113
683.945	6156
683.992	5859
684.039	5929
684.057	5929
684.086	5866
684.133	5979
684.179	6419
684.180	6408
684.227	6280
684.274	6593
684.300	6781
684.321	6905
684.368	5887
684.415	6455
684.422	6529
684.462	6958
684.509	6932
684.543	7015
684.556	6991
684.603	6771
684.649	7019
684.665	7231
684.696	7645
684.743	7251
684.786	7568
684.790	7572
684.837	7701
684.883	7498
684.908	7521
684.930	7489
684.977	7744
685.023	8038
685.029	7988
685.070	7632
685.117	8117
685.150	8019
685.164	7915
685.210	7945
685.257	8080
685.272	8217
685.303	8478
685.350	8660
685.393	8740
685.396	8737
685.443	8401
685.490	8691
685.514	8733
685.536	8611
685.583	8514
685.629	7980
685.636	7908
685.675	7587
685.722	7968
685.757	7869
685.768	7873
685.815	8210
685.861	8738
685.878	8778
685.908	8673
685.954	8768
686.000	8690
686.000	8684
686.047	9353
686.093	9353
686.121	9462
686.139	9432
686.185	9121
686.232	9405
686.242	9495
686.278	9796
686.324	9401
686.363	9832
686.370	9885
686.416	9545
686.463	9746
686.484	9609
686.509	9548
686.555	9578
686.601	10015
686.606	9997
686.647	9649
686.693	9889
686.727	9763
686.739	9703
686.785	9923
686.831	9505
686.848	9493
686.877	9601
686.923	9897
686.969	9947
686.969	9944
687.015	10140
687.061	10090
687.090	9907
687.107	10009
687.153	10974
687.199	11646
687.211	11799
687.245	11677
687.291	10679
687.332	11322
687.336	11404
687.382	10551
687.428	11153
687.453	10914
687.474	10842
687.520	11279
687.565	11879
687.574	11796
687.611	11400
687.657	11805
687.695	12587
687.702	12799
687.748	12813
687.794	13992
687.816	14442
687.839	14921
687.885	14668
687.931	15496
687.937	15582
687.976	14659
688.022	13059
688.058	12698
688.067	12823
688.113	12446
688.158	12736
688.179	12610
688.204	12436
688.249	12450
688.295	12538
688.300	12508
688.340	12520
688.386	12703
688.421	12533
688.431	12503
688.477	12493
688.522	12819
688.542	12776
688.567	12784
688.613	13249
688.658	13459
688.663	13448
688.703	13560
688.749	14225
688.784	14306
688.794	14176
688.839	13521
688.884	13873
688.905	13520
688.930	13494
688.975	13493
689.020	13627
689.026	13708
689.065	13993
689.110	13641
689.146	13331
689.155	13330
689.201	13806
689.246	13864
689.267	13928
689.291	14002
689.336	13872
689.381	14042
689.388	14022
689.426	13803
689.471	13764
689.509	13670
689.516	13764
689.561	14056
689.606	14813
689.630	14931
689.651	14679
689.696	14469
689.741	14071
689.750	13938
689.785	13880
689.830	13831
689.871	14081
689.875	14125
689.920	13906
689.965	14201
689.992	14222
690.010	14270
690.054	14142
690.099	14324
690.112	14401
690.144	14429
690.189	13773
690.233	13833
690.233	13853
690.278	14089
690.323	13938
690.354	14186
690.367	14341
690.412	14404
690.457	14713
690.474	14845
690.501	14856
690.546	14605
690.590	14238
690.595	14185
690.635	14005
690.680	14016
690.716	14119
690.724	14217
690.769	14143
690.813	14212
690.836	14334
690.857	14427
690.902	14736
690.946	14429
690.957	14498
690.991	15426
691.035	15972
691.077	16829
691.080	16901
691.124	17784
691.168	18883
691.198	19021
691.213	18593
691.257	17572
691.301	16825
691.318	16517
691.346	16382
691.390	16379
691.434	15676
691.439	15572
691.478	15204
691.522	15256
691.559	15134
691.567	15242
691.611	16101
691.655	16411
691.680	16487
691.699	16382
691.743	16521
691.787	16615
691.800	16596
691.831	16576
691.875	16137
691.919	16519
691.921	16482
691.964	16413
692.008	16500
692.041	16487
692.052	16520
692.096	16289
692.139	16636
692.162	16513
692.183	16429
692.227	16543
692.271	16707
692.282	16658
692.315	16666
692.359	16544
692.402	16682
692.403	16712
692.447	16346
692.490	16008
692.523	15708
692.534	15748
692.578	15901
692.622	16335
692.643	16218
692.666	16043
692.709	16079
692.753	15977
692.763	15942
692.797	16236
692.840	16501
692.884	16546
692.884	16577
692.928	16551
692.971	16434
693.004	16396
693.015	16475
693.059	16552
693.102	16488
693.124	16346
693.146	16294
693.189	16455
693.233	16971
693.245	16924
693.276	16896
693.320	17183
693.363	17020
693.365	16980
693.407	16844
693.450	17042
693.485	17101
693.493	17227
693.537	17478
693.580	17692
693.605	17934
693.624	18097
693.667	18368
693.710	18460
693.725	18496
693.753	18845
693.797	19242
693.840	19714
693.845	19761
693.883	21473
693.926	22917
693.966	24433
693.970	24339
694.013	22699
694.056	21201
694.086	19824
694.099	19534
694.142	18907
694.185	18247
694.206	17885
694.229	17957
694.272	18031
694.315	17758
694.326	17789
694.358	18275
694.401	18271
694.444	18650
694.446	18623
694.487	18134
694.530	17494
694.566	17133
694.573	17232
694.616	17461
694.659	17617
694.686	17774
694.702	18052
694.745	18641
694.787	19222
694.806	19450
694.830	19378
694.873	19089
694.916	18789
694.926	18680
694.959	18893
695.002	19134
695.044	19553
695.046	19515
695.087	20031
695.130	20752
695.166	21119
695.172	21160
695.215	21137
695.258	21056
695.286	21197
695.301	21353
695.343	21247
695.386	21538
695.406	21471
695.428	21700
695.471	22180
695.514	22729
695.526	22806
695.556	24542
695.599	27168
695.641	29627
695.646	29809
695.684	30501
695.726	31408
695.766	31966
695.769	31919
695.811	30425
695.854	28711
695.886	27383
695.896	27348
695.938	27053
695.981	26594
696.005	26368
696.023	26627
696.065	27048
696.108	27387
696.125	27519
696.150	28637
696.192	30325
696.235	32075
696.245	32430
696.277	32843
696.319	33246
696.361	33602
696.365	33556
696.404	33629
696.446	33571
696.485	33519
696.488	33556
696.530	33014
696.572	32424
696.604	31874
696.614	32038
696.656	32511
696.698	32741
696.724	32958
696.740	32989
696.783	32685
696.825	32511
696.844	32325
696.867	32635
696.909	33120
696.951	33519
696.964	33568
696.992	33615
697.034	33581
697.076	33546
697.083	33457
697.118	34164
697.160	34988
697.202	35770
697.203	35706
697.244	36067
697.286	36248
697.323	36364
697.327	36480
697.369	36715
697.411	36952
697.442	37021
697.453	37032
697.494	36711
697.536	36401
697.562	36171
697.578	36238
697.620	35987
697.661	35909
697.682	35708
697.703	36074
697.744	36792
697.786	37469
697.801	37569
697.828	38246
697.869	39328
697.911	40307
697.921	40447
697.952	39903
697.994	39094
698.035	38295
698.040	38093
698.077	38251
698.118	38430
698.160	38501
698.160	38404
698.201	39241
698.243	39953
698.279	40499
698.284	40710
698.325	41744
698.367	42735
698.399	43401
698.408	43711
698.449	44619
698.491	45558
698.518	46059
698.532	46143
698.573	46063
698.614	45934
698.638	45762
698.656	45919
698.697	46010
698.738	46091
698.757	46009
698.779	45988
698.820	45727
698.862	45470
698.877	45256
698.903	45564
698.944	45870
698.985	46186
698.996	46155
699.026	45969
699.067	45548
699.116	44932
699.235	45797
699.354	45347
699.474	44969
699.593	42366
699.713	42408
699.832	41625
699.951	42378
700.070	45597
700.190	42810
700.309	40696
700.428	38582
700.547	39172
700.667	38072
700.786	37708
700.905	38280
701.024	36591
701.143	38930
701.262	35293
701.381	40226
701.500	39437
701.619	39639
701.738	37611
701.857	39506
701.976	39200
702.095	34802
702.214	38876
702.333	38518
702.452	37827
702.571	38799
702.690	39826
702.809	37998
702.928	38691
703.047	35320
703.165	33945
703.284	36355
703.403	34451
703.522	35537
703.640	34126
703.759	32619
703.878	32976
703.997	32294
704.115	33790
704.234	33979
704.353	33996
704.471	34326
704.590	31592
704.708	31094
704.827	29583
704.946	29905
705.064	30020
705.183	31052
705.301	29971
705.420	31234
705.538	29137
705.656	28253
705.775	26370
705.893	27291
706.012	29388
706.130	28295
706.249	27880
706.367	28389
706.485	25682
706.604	27507
706.722	26578
706.840	26546
706.958	31609
707.077	37029
707.195	27092
707.313	26333
707.431	24130
707.549	24728
707.668	24161
707.786	24290
707.904	26891
708.022	24465
708.140	26408
708.258	23455
708.376	23969
708.494	24833
708.612	22702
708.730	26368
708.848	24728
708.966	25320
709.084	24832
709.202	25362
709.320	23480
709.438	21495
709.556	22911
709.674	22678
709.791	20783
709.909	20829
710.027	20492
710.145	21489
710.263	21077
710.380	21461
710.498	22020
710.616	19765
710.733	20635
710.851	18817
710.969	20169
711.086	19484
711.204	19718
711.322	20006
711.439	20334
711.557	19243
711.674	19065
711.792	18401
711.909	20615
712.027	18224
712.144	18662
712.262	18103
712.379	19421
712.497	19227
712.614	18401
712.732	18997
712.849	18971
712.966	18146
713.084	20244
713.201	19161
713.318	17265
713.436	20364
713.553	21013
713.670	20150
713.787	21796
713.905	20646
714.022	19881
714.139	22910
714.256	23620
714.373	30654
714.490	45965
714.608	88878
714.725	264640
714.842	876947
714.959	463002
715.076	70572
715.193	36133
715.310	28577
715.427	23113
715.544	20130
715.661	20192
715.778	19131
715.895	18288
716.011	18813
716.128	18285
716.245	17212
716.362	17629
716.479	15486
716.596	14872
716.713	15881
716.829	16241
716.946	14610
717.063	14570
717.180	14287
717.296	13773
717.413	14797
717.530	14345
717.646	14035
717.763	13675
717.880	13252
717.996	14162
718.113	12036
718.229	13680
718.346	13513
718.462	11943
718.579	13490
718.695	14017
718.812	13977
718.928	13291
719.045	13254
719.161	13307
719.277	13767
719.394	14318
719.510	14739
719.626	14396
719.743	18219
719.859	22554
719.975	39088
720.092	93297
720.208	376681
720.324	459369
720.440	51442
720.557	20892
720.673	16978
720.789	15653
720.905	13420
721.021	13994
721.137	13585
721.253	11741
721.369	10341
721.486	12022
721.602	12282
721.718	11003
721.834	11127
721.950	11721
722.066	10745
722.181	11176
722.297	10446
722.413	11040
722.529	10865
722.645	11915
722.761	11042
722.877	11094
722.993	11728
723.108	15026
723.224	18226
723.340	13782
723.456	11949
723.571	10051
723.687	10271
723.803	10084
723.918	10456
724.034	10796
724.150	9966
724.265	10105
724.381	10104
724.497	8848
724.612	9819
724.728	10208
724.843	9804
724.959	9340
725.074	9764
725.190	8950
725.305	9863
725.421	9276
725.536	9396
725.651	10487
725.767	9321
725.882	10277
725.997	9226
726.113	10780
726.228	9530
726.343	9400
726.459	8846
726.574	10346
726.689	9409
726.804	9518
726.920	10165
727.035	9327
727.150	10305
727.265	9169
727.380	9415
727.495	9402
727.610	9489
727.725	9517
727.841	9028
727.956	9775
728.071	9981
728.186	8635
728.301	8388
728.416	9224
728.531	9196
728.645	9100
728.760	8066
728.875	9161
728.990	9037
729.105	8487
729.220	8640
729.335	8359
729.449	9706
729.564	8663
729.679	8814
729.794	8629
729.908	9249
730.023	9350
730.138	8961
730.253	9789
730.367	10003
730.482	9807
730.596	9345
730.711	9664
730.826	12460
730.940	16036
731.055	15216
731.169	12913
731.284	13777
731.398	13188
731.513	13798
731.627	14770
731.742	17776
731.856	22383
731.970	25474
732.085	28080
732.199	37566
732.313	56018
732.428	110681
732.542	295345
732.656	634625
732.771	244075
732.885	67002
732.999	41509
733.113	35995
733.227	36054
733.342	33582
733.456	31624
733.570	30247
733.684	27808
733.798	28152
733.912	26569
734.026	26586
734.140	26600
734.254	26483
734.368	24410
734.482	25593
734.596	25175
734.710	24988
734.824	23541
734.938	23378
735.052	23704
735.166	24430
735.280	23961
735.393	22676
735.507	22363
735.621	23891
735.735	21969
735.849	21322
735.962	22490
736.076	21318
736.190	22513
736.303	21501
736.417	22031
736.531	20761
736.644	20873
736.758	21025
736.872	20797
736.985	20122
737.099	21575
737.212	18955
737.326	20431
737.439	17952
737.553	20741
737.666	18640
737.780	20170
737.893	19797
738.007	19744
738.120	19219
738.233	20088
738.347	18980
738.460	18756
738.573	17854
738.687	19436
738.800	19150
738.913	18264
739.026	20069
739.140	17163
739.253	17717
739.366	18209
739.479	17882
739.592	17883
739.705	17957
739.818	15420
739.932	19848
740.045	15407
740.158	18264
740.271	16459
740.384	18253
740.497	16363
740.610	16348
740.723	16626
740.836	16397
740.949	16482
741.062	15953
741.174	17111
741.287	14505
741.400	16251
741.513	16002
741.626	14542
741.739	16658
741.851	14649
741.964	15034
742.077	16285
742.189	14461
742.302	14205
742.415	15290
742.527	13921
742.640	15149
742.753	14274
742.865	12161
742.978	15536
743.090	14042
743.203	12590
743.316	14291
743.428	12839
743.541	13376
743.653	13147
743.766	12538
743.878	13671
743.990	13618
744.103	12780
744.215	13752
744.327	12150
744.440	12419
744.552	15968
744.664	11495
744.777	12248
744.889	14566
745.001	12331
745.113	11459
745.226	13859
745.338	11781
745.450	12064
745.562	13907
745.674	11192
745.786	11156
745.898	13714
746.010	12327
746.122	12017
746.234	12666
746.347	12836
746.459	12212
746.570	11925
746.682	10092
746.794	12589
746.906	12854
747.018	9903
747.130	11884
747.242	11320
747.354	10245
747.466	11645
747.577	11354
747.689	10294
747.801	12173
747.913	11578
748.024	9807
748.136	10018
748.248	9871
748.359	10120
748.471	11122
748.583	10812
748.694	9161
748.806	9634
748.918	10794
749.029	9498
749.141	10577
749.252	11100
749.364	9732
749.475	9570
749.587	9406
749.698	8817
749.809	9439
749.921	9958
750.032	9917
750.144	8528
750.255	9501
750.366	9597
750.478	9762
750.589	8918
750.700	9106
750.811	8528
750.923	9735
751.034	8400
751.145	8746
751.256	9461
751.367	8933
751.479	7836
751.590	8206
751.701	8787
751.812	8401
751.923	8156
752.034	8171
752.145	10790
752.256	9434
752.367	8875
752.478	8715
752.589	9272
752.700	8676
752.811	9161
752.922	8783
753.032	8720
753.143	8920
753.254	8779
753.365	8146
753.476	10775
753.586	9693
753.697	9589
753.808	8982
753.919	8589
754.029	8036
754.140	8061
754.251	8176
754.361	7671
754.472	8633
754.582	9120
754.693	7649
754.804	9057
754.914	8766
755.025	7635
755.135	6622
755.246	8319
755.356	9094
755.466	8091
755.577	6986
755.687	7895
755.798	7495
755.908	7638
756.018	7279
756.129	8374
756.239	8000
756.349	7701
756.460	8216
756.570	9132
756.680	9328
756.790	8460
756.900	8769
757.011	8149
757.121	7415
757.231	6121
757.341	7585
757.451	7411
757.561	6762
757.671	6492
757.781	7590
757.891	7858
758.001	6990
758.111	7468
758.221	7827
758.331	8555
758.441	8843
758.551	8628
758.661	8641
758.771	9463
758.880	8923
758.990	9285
759.100	8470
759.210	8225
759.320	8360
759.429	9682
759.539	9158
759.649	9983
759.758	10855
759.868	12455
759.978	12170
760.087	12970
760.197	12854
760.307	12993
760.416	12637
760.526	12083
760.635	11412
760.745	11188
760.854	12570
760.964	13654
761.073	15807
761.182	15393
761.292	13806
761.401	11827
761.511	10702
761.620	8489
761.729	8582
761.839	8657
761.948	6922
762.057	7786
762.166	7674
762.276	7308
762.385	8042
762.494	8086
762.603	7074
762.712	7720
762.822	7038
762.931	7120
763.040	5962
763.149	6460
763.258	6960
763.367	6897
763.476	5942
763.585	5816
763.694	6401
763.803	6043
763.912	6200
764.021	6754
764.130	5568
764.238	6080
764.347	7146
764.456	8379
764.565	8426
764.674	7211
764.783	6399
764.891	6637
765.000	7119
765.109	7151
765.217	7481
765.326	7155
765.435	7941
765.543	9065
765.652	9803
765.761	10852
765.869	13969
765.978	17259
766.086	25581
766.195	42948
766.303	82825
766.412	189380
766.520	312610
766.629	240981
766.737	98433
766.846	44584
766.954	27265
767.062	20264
767.171	15507
767.279	13592
767.387	11027
767.496	10591
767.604	8753
767.712	7403
767.820	7959
767.928	8043
768.037	7855
768.145	7114
768.253	7167
768.361	7075
768.469	7556
768.577	6590
768.685	6627
768.793	7496
768.901	8569
769.009	7905
769.117	7552
769.225	8993
769.333	10029
769.441	14154
769.549	19836
769.657	34028
769.765	75714
769.873	197163
769.981	243802
770.088	103147
770.196	35857
770.304	20399
770.412	16499
770.519	13048
770.627	11871
770.735	10533
770.842	10655
770.950	10412
771.058	10213
771.165	10249
771.273	11332
771.380	11803
771.488	11727
771.595	17977
771.703	18417
771.810	17309
771.918	14980
772.025	16168
772.133	19173
772.240	21528
772.348	19901
772.455	22840
772.562	20981
772.670	19966
772.777	18863
772.884	19392
772.991	19491
773.099	18105
773.206	19554
773.313	18026
773.420	18501
773.528	18119
773.635	18179
773.742	17515
773.849	17873
773.956	16364
774.063	18463
774.170	16831
774.277	18118
774.384	17362
774.491	16357
774.598	16303
774.705	16806
774.812	16380
774.919	17552
775.026	15732
775.133	16866
775.239	17680
775.346	16166
775.453	15679
775.560	15709
775.667	15642
775.773	15659
775.880	15814
775.987	15930
776.093	14923
776.200	15853
776.307	16420
776.413	12891
776.520	13123
776.627	17705
776.733	14072
776.840	13409
776.946	14710
777.053	16853
777.159	13222
777.266	14602
777.372	14391
777.478	13591
777.585	15703
777.691	14809
777.798	12658
777.904	14732
778.010	12069
778.117	13309
778.223	12958
778.329	12671
778.435	13221
778.542	12298
778.648	13997
778.754	11525
778.860	11799
778.966	13922
779.072	12230
779.178	11289
779.284	12190
779.391	10168
779.497	12156
779.603	13749
779.708	12123
779.815	11798
779.920	10942
780.026	16207
780.132	15848
780.238	12386
780.344	10799
780.450	10636
780.556	13493
780.661	8083
780.767	11059
780.873	12239
780.979	8473
781.085	9791
781.190	13288
781.296	9944
781.402	9868
781.507	10641
781.613	10193
781.719	7747
781.824	11318
781.930	11626
782.035	8994
782.141	10427
782.246	11894
782.352	7879
782.457	9795
782.563	9825
782.668	10255
782.773	9621
782.879	8758
782.984	8165
783.090	9544
783.195	9237
783.300	10195
783.405	10609
783.511	8204
783.616	8730
783.721	8578
783.826	9728
783.932	7544
784.037	8498
784.142	8992
784.247	9386
784.352	8432
784.457	8494
784.562	7209
784.667	9600
784.772	8099
784.877	6414
784.982	6983
785.087	9255
785.192	8918
785.297	7285
785.402	7952
785.507	8456
785.611	8443
785.716	6810
785.821	6728
785.926	7850
786.031	8080
786.135	6755
786.240	8809
786.345	7955
786.450	6221
786.554	6559
786.659	7251
786.763	6597
786.868	8050
786.973	7481
787.077	7900
787.182	6660
787.286	6374
787.391	8053
787.495	8305
787.600	5507
787.704	4944
787.809	7957
787.913	7827
788.017	7017
788.122	6583
788.226	7248
788.330	6183
788.435	5024
788.539	7014
788.643	7824
788.747	6579
788.852	4689
788.956	6751
789.060	7053
789.164	6872
789.268	6701
789.372	6522
789.476	7225
789.580	6220
789.684	5102
789.788	5304
789.892	6896
789.996	6198
790.100	3647
790.204	4109
790.308	7256
790.412	7827
790.516	4976
790.620	4487
790.724	6670
790.828	7835
790.931	5916
791.035	4654
791.139	4420
791.242	5928
791.346	7427
791.450	5370
791.554	6533
791.657	4378
791.761	4532
791.864	5966
791.968	5803
792.072	6764
792.175	6025
792.279	4657
792.382	4938
792.486	4980
792.589	5053
792.693	5715
792.796	5454
792.899	4936
793.003	4988
793.106	5222
793.209	5642
793.313	4941
793.416	3790
793.519	4279
793.623	4654
793.726	6751
793.829	4718
793.932	4152
794.035	3191
794.138	4714
794.242	6056
794.345	7237
794.448	4054
794.551	3877
794.654	5449
794.757	6956
794.860	8029
794.963	4914
795.066	5445
795.169	4688
795.272	4604
795.375	5361
795.477	4933
795.580	4250
795.683	2973
795.786	4346
795.889	5338
795.991	4896
796.094	3900
796.197	4591
796.300	4383
796.402	5527
796.505	4653
796.608	3749
796.710	3591
796.813	4300
796.915	6119
797.018	6377
797.120	5069
797.223	4680
797.326	4862
797.428	4928
797.530	4695
797.633	3359
797.735	4296
797.838	5129
797.940	5051
798.042	5840
798.145	4955
798.247	3580
798.349	3209
798.452	3446
798.554	4004
798.656	4922
798.758	6005
798.860	5493
798.962	4845
799.065	4228
799.167	4083
799.269	4329
799.371	3786
799.473	4534
799.575	6974
799.677	6064
799.779	4798
799.881	3216
799.983	4835
800.085	5169
800.187	3861
800.289	4325
800.390	3287
800.492	3732
800.594	5096
800.696	3512
800.798	2913
800.899	2950
801.001	3444
801.103	3912
801.205	3904
801.306	3906
801.408	4019
801.509	3869
801.611	4569
801.713	3652
801.814	3332
801.916	3429
802.017	2635
802.119	2599
802.220	3016
802.322	2494
802.423	3894
802.525	2989
802.626	3355
802.727	3144
802.829	3846
802.930	2704
803.031	3270
803.133	2691
803.234	3411
803.335	3802
803.436	3761
803.538	2921
803.639	2660
803.740	2740
803.841	2706
803.942	4006
804.043	3638
804.144	3293
804.245	2202
804.346	2938
804.447	2738
804.548	3608
804.649	2814
804.750	3660
804.851	2332
804.952	3169
805.053	4200
805.154	3280
805.255	3061
805.355	3612
805.456	3392
805.557	2421
805.658	2569
805.758	2843
805.859	3245
805.960	2954
806.061	2550
806.161	3163
806.262	3477
806.362	2248
806.463	2277
806.564	2633
806.664	3888
806.765	2779
806.865	2107
806.966	2787
807.066	2071
807.166	1802
807.267	3031
807.367	2931
807.468	2067
807.568	2661
807.668	2173
807.769	2859
807.869	3580
807.969	3162
808.069	3445
808.170	2168
808.270	2700
808.370	2873
808.470	3240
808.570	2887
808.670	2701
808.770	1759
808.870	2023
808.970	2333
809.070	2191
809.170	2578
809.271	2927
809.370	3500
809.470	2427
809.570	2175
809.670	1552
809.770	1455
809.870	2633
809.970	2767
810.070	2856
810.169	2914
810.269	1667
810.369	3075
810.469	2617
810.568	2071
810.668	3443
810.768	2754
810.867	2433
810.967	2224
811.066	2221
811.166	2161
811.265	3087
811.365	2434
811.464	2657
811.564	3330
811.663	2348
811.763	3167
811.862	3285
811.962	3109
812.061	2311
812.160	2244
812.260	3136
812.359	2726
812.458	2453
812.557	2310
812.657	2958
812.756	2845
812.855	2727
812.954	2680
813.053	2367
813.153	2720
813.252	2532
813.351	2323
813.450	2896
813.549	2864
813.648	2289
813.747	2916
813.846	1987
813.945	3387
814.044	3340
814.143	2882
814.242	2907
814.341	3500
814.439	3994
814.538	3676
814.637	3464
814.736	3853
814.835	3865
814.933	3865
815.032	4218
815.131	5131
815.229	7897
815.328	13510
815.427	17415
815.525	12403
815.624	10773
815.722	11625
815.821	10991
815.919	11617
816.018	11244
816.116	11963
816.215	10761
816.313	11120
816.412	13173
816.510	15065
816.609	15311
816.707	15438
816.805	18105
816.904	15406
817.002	15368
817.100	15344
817.198	15820
817.296	16133
817.395	14631
817.493	15637
817.591	13533
817.689	14347
817.787	13944
817.885	14951
817.983	13401
818.081	12933
818.179	12632
818.277	14163
818.375	15537
818.473	13087
818.571	12687
818.669	11417
818.767	13760
818.865	14478
818.963	11511
819.061	10148
819.158	12751
819.256	12306
819.354	13605
819.452	12924
819.549	13636
819.647	13136
819.745	12915
819.842	10257
819.940	10896
820.038	11785
820.135	11373
820.233	10944
820.330	11490
820.428	11333
820.525	10635
820.623	11336
820.720	10729
820.818	10561
820.915	10922
821.012	10998
821.110	9431
821.207	10455
821.304	10226
821.402	9610
821.499	11110
821.596	11110
821.693	8511
821.791	10800
821.888	9990
821.985	9856
822.082	10909
822.179	9471
822.276	9923
822.373	11031
822.470	8634
822.567	9409
822.664	9394
822.761	9357
822.858	8433
822.955	10375
823.052	8965
823.149	7830
823.246	10011
823.343	9900
823.440	8177
823.536	7990
823.633	9970
823.730	9057
823.827	8694
823.923	9425
824.020	9651
824.117	7814
824.213	10128
824.310	11562
824.407	7636
824.503	7271
824.600	9652
824.696	7693
824.793	8014
824.889	10310
824.986	10165
825.082	7192
825.179	6529
825.275	7144
825.371	9805
825.468	11356
825.564	5810
825.660	5822
825.757	8931
825.853	10563
825.949	6741
826.045	6688
826.142	6411
826.238	8469
826.334	8332
826.430	7578
826.526	7907
826.622	4370
826.718	4717
826.814	8948
826.910	10564
827.006	6823
827.102	4941
827.198	6069
827.294	7758
827.390	9126
827.486	8218
827.582	5712
827.678	4351
827.774	6464
827.869	9084
827.965	6054
828.061	5160
828.157	5646
828.252	8783
828.348	8261
828.444	7209
828.539	4916
828.635	6261
828.731	8015
828.826	5630
828.922	6172
829.017	7219
829.113	8325
829.208	7608
829.304	5120
829.399	8230
829.495	8566
829.590	7146
829.685	6145
829.781	6714
829.876	7673
829.971	6913
830.066	3676
830.162	3581
830.257	6725
830.352	10780
830.447	5960
830.543	3912
830.638	4528
830.733	8333
830.828	7287
830.923	5897
831.018	6500
831.113	6319
831.208	7728
831.303	4511
831.398	3322
831.493	4276
831.588	6831
831.683	8051
831.778	6226
831.873	4171
831.967	5170
832.062	7037
832.157	6941
832.252	5747
832.346	5223
832.441	5553
832.536	6810
832.631	6012
832.725	5479
832.820	4364
832.914	5138
833.009	5724
833.104	4310
833.198	3689
833.293	3486
833.387	5824
833.482	6116
833.576	5173
833.670	6493
833.765	4826
833.859	6365
833.954	6877
834.048	5672
834.142	5502
834.237	4805
834.331	3166
834.425	5055
834.519	5259
834.613	5188
834.708	3780
834.802	4179
834.896	3991
834.990	4763
835.084	4950
835.178	3549
835.272	3110
835.366	4295
835.460	7167
835.554	6168
835.648	4216
835.742	3306
835.836	3025
835.930	3137
836.024	4523
836.117	5297
836.211	4386
836.305	4251
836.399	2985
836.493	3522
836.586	4729
836.680	4539
836.774	4650
836.867	4503
836.961	2768
837.055	3168
837.148	3406
837.242	3325
837.335	4218
837.429	4722
837.522	3287
837.616	3595
837.709	3768
837.803	3152
837.896	3658
837.989	4998
838.083	5206
838.176	1489
838.269	2268
838.363	2447
838.456	3891
838.549	3697
838.642	4337
838.735	3559
838.829	3413
838.922	3517
839.015	3522
839.108	3637
839.201	2246
839.294	3262
839.387	3877
839.480	2755
839.573	2475
839.666	3340
839.759	2963
839.852	3900
839.945	4006
840.038	3661
840.131	3371
840.223	2638
840.316	3027
840.409	3186
840.502	4337
840.594	4832
840.687	3331
840.780	2583
840.873	1091
840.965	1835
841.058	1876
841.150	3091
841.243	3432
841.336	2139
841.428	2469
841.521	2264
841.613	2158
841.706	3570
841.798	2371
841.890	3024
841.983	3133
842.075	2369
842.167	2316
842.260	1745
842.352	2889
842.444	3050
842.537	3888
842.629	2084
842.721	1262
842.813	1425
842.905	2368
842.997	3475
843.090	3182
843.182	3861
843.274	2272
843.366	2132
843.458	2109
843.550	3013
843.642	3520
843.734	3726
843.826	2842
843.918	2103
844.009	2742
844.101	2965
844.193	3075
844.285	2629
844.377	3097
844.469	3197
844.560	1924
844.652	2342
844.744	1893
844.835	1802
844.927	2239
845.019	3362
845.110	2636
845.202	2236
845.293	2530
845.385	3039
845.476	2287
845.568	2908
845.659	2629
845.751	778
845.842	996
845.934	1972
846.025	2469
846.116	2806
846.208	2473
846.299	2194
846.390	1867
846.482	2165
846.573	1262
846.664	2844
846.755	2051
846.846	2921
846.937	2242
847.029	2068
847.120	781
847.211	2210
847.302	1907
847.393	2846
847.484	2674
847.575	2995
847.666	1663
847.757	1524
847.847	2029
847.938	3190
848.029	2780
848.120	2925
848.211	1918
848.302	1584
848.392	1978
848.483	1175
848.574	1847
848.664	2662
848.755	3567
848.846	2338
848.936	2281
849.027	2126
849.118	2665
849.208	2863
849.299	3664
849.389	4782
849.480	8285
849.570	15951
849.661	30842
849.751	57039
849.841	81083
849.932	29382
850.022	6537
850.112	4067
850.203	3195
850.293	3689
850.383	2454
850.474	1512
850.564	3156
850.654	1597
850.744	1255
850.834	1660
850.924	2118
851.014	2526
851.104	2840
851.194	2927
851.284	2139
851.374	1570
851.464	1689
851.554	2354
851.644	1523
851.734	2153
851.824	1821
851.914	3059
852.004	2971
852.094	1985
852.183	2194
852.273	1447
852.363	2396
852.452	2132
852.542	2698
852.632	3414
852.721	2406
852.811	2059
852.901	2734
852.990	3334
853.080	3619
853.169	2892
853.259	4698
853.348	4307
853.438	4771
853.527	6272
853.617	7126
853.706	12639
853.795	19414
853.885	32843
853.974	61281
854.063	102079
854.152	170012
854.242	201455
854.331	96788
854.420	34145
854.509	17456
854.598	11997
854.687	9163
854.777	7448
854.866	5867
854.955	3901
855.044	3833
855.133	3265
855.222	3705
855.311	3755
855.400	3178
855.488	2549
855.577	1556
855.666	2397
855.755	2345
855.844	2432
855.933	2607
856.021	2660
856.110	2860
856.199	1187
856.288	1496
856.376	1678
856.465	1674
856.554	2476
856.642	1429
856.731	3207
856.819	3183
856.908	3251
856.996	2020
857.085	1765
857.173	1843
857.262	2093
857.350	1814
857.438	1145
857.527	2144
857.615	1194
857.703	2541
857.792	1979
857.880	2497
857.968	1112
858.056	983
858.145	2337
858.233	1121
858.321	1533
858.409	1654
858.497	1581
858.585	2282
858.673	2748
858.761	1358
858.849	1641
858.937	1250
859.025	1309
859.113	2129
859.201	1408
859.289	2706
859.377	2467
859.465	1776
859.552	1573
859.640	1727
859.728	1588
859.816	1666
859.903	1268
859.991	2065
860.079	2323
860.166	2048
860.254	1883
860.342	1262
860.429	1829
860.517	1510
860.604	1965
860.692	1228
860.779	1304
860.867	2141
860.954	2214
861.042	2909
861.129	2383
861.216	2162
861.304	2121
861.391	2155
861.478	2162
861.565	2279
861.653	945
861.740	1260
861.827	1782
861.914	2242
862.001	1990
862.089	1297
862.176	2089
862.263	2100
862.350	1462
862.437	1172
862.524	2136
862.611	2072
862.698	2155
862.785	2351
862.871	2483
862.958	3048
863.045	3071
863.132	2537
863.219	2341
863.306	2125
863.392	1995
863.479	1993
863.566	2563
863.652	2655
863.739	1948
863.826	1816
863.912	2891
863.999	2808
864.086	2864
864.172	2613
864.259	3878
864.345	4310
864.432	4143
864.518	3281
864.604	3346
864.691	3428
864.777	3974
864.863	3942
864.950	5531
865.036	7569
865.122	10428
865.209	18699
865.295	18969
865.381	16841
865.467	16041
865.553	16383
865.639	17310
865.726	20058
865.812	27279
865.898	42341
865.984	66845
866.070	91785
866.156	142715
866.242	138813
866.328	57767
866.414	26890
866.499	20119
866.585	17446
866.671	15080
866.757	13745
866.843	14272
866.928	13816
867.014	13217
867.100	12941
867.186	12853
867.271	12144
867.357	11801
867.442	12415
867.528	12026
867.614	12472
867.699	11203
867.785	12264
867.870	11114
867.956	10737
868.041	12313
868.127	10051
868.212	10807
868.297	10536
868.383	10517
868.468	11560
868.553	11497
868.639	11925
868.724	10473
868.809	10655
868.894	10723
868.979	10270
869.065	11004
869.150	10216
869.235	8931
869.320	10455
869.405	10207
869.490	8928
869.575	10389
869.660	9209
869.745	8031
869.830	10263
869.915	11580
870.000	8154
870.085	9169
870.169	8752
870.254	11089
870.339	11258
870.424	7414
870.509	8469
870.593	9686
870.678	10867
870.763	10485
870.847	9398
870.932	8202
871.016	10990
871.101	9516
871.186	7480
871.270	9504
871.355	10714
871.439	7651
871.523	8747
871.608	9682
871.692	7599
871.777	6922
871.861	10866
871.945	9689
872.030	8557
872.114	8894
872.198	9058
872.282	7503
872.367	8089
872.451	7563
872.535	8600
872.619	8549
872.703	8837
872.787	6868
872.871	9868
872.955	9557
873.039	6015
873.123	6275
873.207	9101
873.291	8856
873.375	5750
873.459	6685
873.543	8955
873.627	7946
873.711	7547
873.794	7013
873.878	8024
873.962	8317
874.045	6818
874.129	6141
874.137	6253
874.213	7371
874.245	7150
874.296	6791
874.352	6688
874.380	6640
874.460	6257
874.464	6242
874.547	7062
874.568	7011
874.631	6875
874.676	7416
874.714	7864
874.784	7194
874.798	7053
874.881	8537
874.892	8110
874.965	5231
874.999	5361
875.048	5519
875.107	6320
875.131	6638
875.215	6838
875.215	6836
875.298	5056
875.323	4944
875.381	4852
875.430	6309
875.465	7241
875.538	8643
875.548	8826
875.631	7753
875.646	7324
875.714	5276
875.753	5160
875.798	5181
875.861	5528
875.881	5579
875.964	7021
875.968	6958
876.047	5800
876.076	5532
876.130	5142
876.183	6209
876.213	6843
876.291	6920
876.296	6904
876.379	7347
876.398	7058
876.462	6154
876.506	5540
876.545	4957
876.613	5362
876.628	5524
876.711	6222
876.721	6275
876.794	6630
876.828	6810
876.877	6772
876.935	6847
876.960	6910
877.043	4514
877.043	4515
877.125	5229
877.150	5494
877.208	6118
877.258	7060
877.291	7455
877.365	5720
877.374	5537
877.456	5476
877.472	5389
877.539	5153
877.579	5070
877.622	5207
877.687	6619
877.704	6916
877.787	6826
877.794	6813
877.869	6625
877.901	6540
877.952	6384
878.008	6353
878.034	6199
878.115	4312
878.117	4289
878.199	4598
878.222	4782
878.282	5313
878.329	6096
878.364	6654
878.437	7309
878.447	7322
878.529	5766
878.544	5665
878.611	5318
878.651	4892
878.694	4864
878.758	5984
878.776	6177
878.858	6635
878.865	6649
878.941	6872
878.972	6307
879.023	5032
879.078	4602
879.105	4766
879.185	5736
879.187	5753
879.269	6724
879.292	6645
879.351	6473
879.399	6780
879.433	6501
879.506	5271
879.516	5231
879.598	5144
879.613	5319
879.680	5954
879.720	5507
879.762	5413
879.827	6278
879.844	6276
879.926	5253
879.933	5222
880.007	5391
880.040	5545
880.089	5597
880.147	4931
880.171	4988
880.253	6462
880.254	6462
880.335	6047
880.360	5709
880.417	5549
880.467	6275
880.499	6520
880.574	6663
880.580	6692
880.662	6706
880.680	6740
880.744	6612
880.787	6195
880.825	5738
880.893	5139
880.907	5168
880.989	5996
881.000	5995
881.070	5565
881.106	5962
881.152	6693
881.213	6427
881.233	6095
881.315	4485
881.319	4474
881.396	5554
881.426	5820
881.478	6077
881.532	6118
881.559	6317
881.639	7922
881.641	7927
881.722	6137
881.745	5799
881.803	5835
881.852	6014
881.885	6088
881.958	6263
881.966	6252
882.047	5664
882.064	5632
882.129	5767
882.171	5553
882.210	4932
882.277	3913
882.291	3891
882.372	4276
882.383	4414
882.454	6472
882.489	7345
882.535	7539
882.596	7211
882.616	7286
882.697	7825
882.702	7807
882.778	6199
882.808	5575
882.859	4518
882.914	3952
882.940	4176
883.020	4833
883.021	4846
883.102	5962
883.127	6085
883.183	6579
883.233	7784
883.264	8094
883.339	6792
883.345	6595
883.426	4381
883.445	4055
883.507	4312
883.551	4321
883.587	4908
883.657	6206
883.668	6387
883.749	7712
883.763	7875
883.830	7019
883.869	6171
883.910	4954
883.975	3605
883.991	3907
884.072	5844
884.081	5975
884.152	6513
884.187	6954
884.233	7668
884.292	8671
884.314	8491
884.394	6664
884.398	6579
884.475	4288
884.504	3433
884.555	3597
884.610	4059
884.636	4292
884.716	4652
884.716	4670
884.797	6630
884.821	7255
884.877	8249
884.927	8501
884.958	7843
885.033	6422
885.038	6323
885.118	4452
885.139	4025
885.199	4180
885.244	4402
885.279	4854
885.350	5558
885.359	5755
885.439	7513
885.456	7933
885.520	7978
885.561	7587
885.600	6594
885.667	4782
885.680	4836
885.760	5820
885.773	5914
885.840	5722
885.878	5490
885.920	4877
885.984	4257
886.000	4604
886.080	6122
886.089	6287
886.160	6659
886.195	6832
886.240	6928
886.300	6698
886.320	6608
886.400	6501
886.406	6490
886.480	6957
886.511	6999
886.560	5807
886.616	4477
886.640	4723
886.720	5671
886.722	5683
886.800	5370
886.827	5254
886.879	5567
886.932	5797
886.959	6122
887.038	7155
887.039	7170
887.119	7178
887.143	7250
887.198	6599
887.248	5919
887.278	5862
887.354	5715
887.358	5763
887.437	6537
887.459	6725
887.517	6496
887.564	6330
887.596	6388
887.669	6314
887.676	6173
887.755	4299
887.774	3893
887.835	4220
887.880	4345
887.914	4578
887.985	5213
887.994	5363
888.073	6482
888.090	6723
888.153	8805
888.195	10099
888.232	9348
888.300	7807
888.311	7518
888.391	5539
888.405	5151
888.470	5165
888.510	5194
888.549	4834
888.615	4187
888.628	4433
888.708	5900
888.720	6129
888.787	7738
888.825	8543
888.866	7169
888.930	5081
888.945	5013
889.024	4608
889.035	4549
889.103	6400
889.140	7365
889.182	6736
889.245	5751
889.261	5812
889.340	6110
889.349	6131
889.419	6583
889.454	6799
889.498	6117
889.559	5139
889.577	5197
889.656	5435
889.664	5452
889.735	6692
889.768	7256
889.814	6779
889.873	6109
889.978	6527
890.083	5305
890.187	5658
890.292	7922
890.397	6878
890.501	6253
890.606	4894
890.710	4968
890.815	6632
890.919	7632
891.024	5936
891.128	5623
891.233	5099
891.337	5730
891.442	8611
891.546	6333
891.650	6218
891.755	5475
891.859	6012
891.963	7237
892.068	6692
892.172	6252
892.276	3670
892.380	4409
892.484	7003
892.589	8044
892.693	6891
892.797	5782
892.901	4174
893.005	4011
893.109	7299
893.213	9153
893.317	6870
893.421	4900
893.525	3687
893.629	4303
893.733	6466
893.837	7103
893.941	6142
894.045	4913
894.148	3457
894.252	4354
894.356	5457
894.460	9893
894.564	5993
894.667	5740
894.771	4875
894.875	3845
894.978	3764
895.082	6330
895.186	7826
895.289	6345
895.393	4603
895.496	5550
895.600	6215
895.703	4478
895.807	4750
895.910	5072
896.014	6196
896.117	6155
896.221	5157
896.324	5776
896.427	5190
896.531	4889
896.634	5162
896.737	5515
896.840	5259
896.944	6208
897.047	7844
897.150	6287
897.253	5152
897.356	3906
897.460	3771
897.563	4192
897.666	5185
897.769	7401
897.872	5550
897.975	4100
898.078	5114
898.181	4930
898.284	4044
898.387	6108
898.490	7799
898.593	6065
898.695	3965
898.798	3657
898.901	5344
899.004	5056
899.107	4930
899.209	4073
899.312	7113
899.415	6907
899.518	4566
899.620	4093
899.723	3616
899.826	5315
899.928	4631
900.031	4575
900.133	5688
900.236	6150
900.338	4373
900.441	4053
900.543	4852
900.646	6381
900.748	4769
900.851	6074
900.953	6387
901.055	4309
901.158	4579
901.260	4052
901.362	3663
901.465	2916
901.567	5041
901.669	6492
901.771	5311
901.873	5657
901.976	4933
902.078	5890
902.180	4854
902.282	3704
902.384	3911
902.486	6330
902.588	6792
902.690	4752
902.792	3596
902.894	4215
902.996	5994
903.098	6421
903.200	4718
903.302	4085
903.404	4617
903.505	4634
903.607	4034
903.709	5794
903.811	7627
903.913	5902
904.014	4397
904.116	3431
904.218	3745
904.319	4838
904.421	5991
904.523	7414
904.624	4727
904.726	4543
904.827	4014
904.929	3456
905.030	4076
905.132	5192
905.233	7564
905.335	3908
905.436	4137
905.537	3550
905.639	3828
905.740	4739
905.841	5911
905.943	5384
906.044	4663
906.145	4243
906.247	3843
906.348	4419
906.449	3711
906.550	5816
906.651	5372
906.752	3496
906.854	4043
906.955	3471
907.056	4136
907.157	5716
907.258	7347
907.359	5105
907.460	3962
907.561	3539
907.662	4003
907.762	3697
907.863	5048
907.964	5977
908.065	6231
908.166	5363
908.267	4188
908.367	3809
908.468	3567
908.569	3853
908.670	5398
908.770	5188
908.871	4425
908.971	5644
909.072	5641
909.173	5286
909.273	4528
909.374	4878
909.474	5722
909.575	4362
909.675	3236
909.776	4747
909.876	4770
909.977	4698
910.077	4263
910.177	6051
910.278	6278
910.378	3864
910.478	4005
910.579	5459
910.679	5824
910.779	5460
910.879	5031
910.980	5212
911.080	4476
911.180	5579
911.280	4447
911.380	3536
911.480	3400
911.580	4206
911.680	4838
911.780	4933
911.880	5596
911.980	5106
912.080	4392
912.180	4423
912.280	4742
912.380	4386
912.480	3444
912.580	3918
912.679	4284
912.779	4900
912.879	6040
912.979	4746
913.078	4678
913.178	3043
913.278	3992
913.377	3463
913.477	3761
913.577	3345
913.676	5017
913.776	6708
913.875	5878
913.975	4796
914.074	4522
914.174	4735
914.273	4771
914.373	4144
914.472	4812
914.572	4113
914.671	3847
914.770	4883
914.870	4802
914.969	3723
915.068	5198
915.167	6579
915.267	5184
915.366	4276
915.465	5092
915.564	5170
915.663	5002
915.763	4458
915.862	5614
915.961	5484
916.060	4643
916.159	4024
916.258	3388
916.357	3520
916.456	4687
916.555	5789
916.654	5527
916.752	5217
916.851	6109
916.950	5026
917.049	4507
917.148	3885
917.247	4869
917.345	4402
917.444	4099
917.543	3785
917.642	4001
917.740	4947
917.839	6414
917.937	7311
918.036	7146
918.135	5253
918.233	3971
918.332	4635
918.430	5088
918.529	4358
918.627	5253
918.726	5652
918.824	6417
918.923	4387
919.021	4520
919.119	4742
919.218	4462
919.316	4669
919.414	5095
919.512	5390
919.611	6980
919.709	6181
919.807	5907
919.905	7823
920.003	7415
920.102	6875
920.200	6857
920.298	6824
920.396	8262
920.494	6568
920.592	5971
920.690	6088
920.788	6922
920.886	7837
920.984	7127
921.082	7301
921.180	7968
921.277	8188
921.375	8447
921.473	10602
921.571	13115
921.669	11279
921.766	11179
921.864	11243
921.962	10629
922.060	10564
922.157	10718
922.255	11793
922.352	11144
922.450	12030
922.548	11977
922.645	13460
922.743	16215
922.840	21891
922.938	30794
923.035	28037
923.133	25977
923.230	26078
923.327	33041
923.425	35046
923.522	32158
923.619	31013
923.717	27729
923.814	26009
923.911	27365
924.008	26563
924.106	26156
924.203	25026
924.300	25993
924.397	26885
924.494	25624
924.591	26461
924.688	24926
924.786	25301
924.883	24977
924.979	25875
925.077	25830
925.173	24153
925.270	24034
925.367	25347
925.464	24622
925.561	26546
925.658	27190
925.755	24891
925.852	24833
925.948	26664
926.045	23850
926.142	24151
926.239	25721
926.335	22442
926.432	21130
926.529	25266
926.625	25546
926.722	25625
926.818	20107
926.915	23162
927.011	24812
927.108	23192
927.204	23049
927.301	21971
927.397	21201
927.494	26208
927.590	24055
927.687	17671
927.783	23561
927.879	26744
927.976	24003
928.072	19349
928.168	20699
928.264	24413
928.361	20623
928.457	23241
928.553	22817
928.649	19632
928.745	22540
928.841	20810
928.937	19699
929.033	21501
929.129	21183
929.225	22308
929.321	23933
929.417	18458
929.513	20779
929.609	22414
929.705	18420
929.801	21127
929.897	20703
929.993	17868
930.089	20680
930.184	19255
930.280	18325
930.376	23401
930.471	22282
930.567	16657
930.663	17076
930.758	18760
930.854	17233
930.950	18572
931.045	18369
931.141	16490
931.236	19891
931.332	23260
931.427	15610
931.523	18370
931.618	22883
931.714	17272
931.809	13618
931.905	19817
932.000	18495
932.095	12303
932.191	17159
932.286	22289
932.381	22437
932.476	15782
932.572	16537
932.667	17493
932.762	14789
932.857	17709
932.952	19082
933.047	19599
933.142	15209
933.237	15114
933.332	18733
933.427	19526
933.522	18938
933.617	15164
933.712	14507
933.807	15959
933.902	20196
933.997	20675
934.092	18265
934.187	13344
934.282	16912
934.376	16067
934.471	18406
934.566	17146
934.661	14200
934.755	16099
934.850	18237
934.945	17925
935.039	14285
935.134	13313
935.228	12746
935.323	18929
935.417	19894
935.512	11742
935.606	10872
935.701	14274
935.795	17049
935.890	17662
935.984	14814
936.079	12469
936.173	12222
936.267	15057
936.362	13047
936.456	13201
936.550	18546
936.644	18373
936.738	13635
936.833	12062
936.927	11641
937.021	10630
937.115	14448
937.209	15511
937.303	15849
937.397	12233
937.491	11351
937.585	15039
937.679	15821
937.773	12719
937.867	11499
937.961	9867
938.055	13700
938.149	17795
938.243	11280
938.337	9646
938.430	10272
938.524	14166
938.618	14861
938.712	10533
938.805	11376
938.899	12091
938.993	16782
939.086	15442
939.180	8410
939.274	8471
939.367	11785
939.461	15278
939.554	13436
939.648	10967
939.741	11126
939.835	11885
939.928	14806
940.022	15757
940.115	12677
940.208	12387
940.302	14853
940.395	17575
940.488	14759
940.582	11393
940.675	10591
940.768	9350
940.861	12000
940.954	15549
941.048	12961
941.141	8345
941.234	9899
941.327	12188
941.420	12303
941.513	13491
941.606	12191
941.699	9285
941.792	11600
941.885	13174
941.978	10861
942.071	11998
942.164	11732
942.257	9058
942.349	9562
942.442	11629
942.535	12312
942.628	9047
942.721	10326
942.813	11106
942.906	11889
942.999	11431
943.091	10113
943.184	9982
943.277	10790
943.369	9820
943.462	6998
943.554	8157
943.647	10093
943.739	11001
943.832	13821
943.924	10504
944.017	6636
944.109	7627
944.201	9374
944.294	8900
944.386	10050
944.478	10884
944.571	9136
944.663	9258
944.755	8929
944.847	10391
944.940	11246
945.032	8548
945.124	7471
945.216	8550
945.308	9603
945.400	10094
945.492	8890
945.584	8770
945.676	12885
945.768	11406
945.860	10066
945.952	12200
946.044	11641
946.136	8857
946.228	9802
946.320	8679
946.412	9373
946.503	10135
946.595	12402
946.687	9499
946.779	7295
946.870	6896
946.962	8612
947.054	7916
947.145	8426
947.237	9703
947.329	8193
947.420	9962
947.512	9060
947.603	7782
947.695	6785
947.786	7019
947.878	7300
947.969	8640
948.061	9533
948.152	11424
948.243	8280
948.335	5225
948.426	5946
948.517	7892
948.609	9697
948.700	10145
948.791	9160
948.882	7891
948.973	5595
949.065	7106
949.156	9564
949.247	6680
949.338	7083
949.429	7239
949.520	5805
949.611	7570
949.702	8897
949.793	8762
949.884	7926
949.975	7224
950.066	5848
950.157	5657
950.247	6830
950.338	7009
950.429	6780
950.520	7553
950.611	6956
950.701	6434
950.792	9106
950.883	10249
950.973	8360
951.064	7733
951.155	8891
951.245	8662
951.336	8569
951.427	8718
951.517	10411
951.608	9796
951.698	7784
951.788	7152
951.879	6022
951.969	5660
952.060	7000
952.150	6536
952.240	8434
952.331	9122
952.421	9449
952.511	7254
952.602	5235
952.692	4875
952.782	5279
952.872	5808
952.962	7656
953.052	7186
953.143	7134
953.233	6835
953.323	6710
953.413	6676
953.503	7685
953.593	8288
953.683	7524
953.773	7074
953.863	5134
953.953	5591
954.042	6066
954.132	6735
954.222	7556
954.312	6459
954.402	5675
954.492	6627
954.581	6017
954.671	7387
954.761	6713
954.850	7104
954.940	6165
955.030	4356
955.119	5684
955.209	5580
955.298	5828
955.388	7081
955.477	7734
955.567	6291
955.656	5744
955.746	5668
955.835	6290
955.925	5606
956.014	5358
956.103	6694
956.193	8199
956.282	9902
956.371	7850
956.461	7342
956.550	6916
956.639	6633
956.728	5910
956.817	6786
956.906	6026
956.995	7282
957.085	6100
957.174	6216
957.263	5232
957.352	5868
957.441	6392
957.530	7154
957.619	6379
957.708	5411
957.796	6711
957.885	5349
957.974	6266
958.063	5821
958.152	5891
958.241	5063
958.329	4212
958.418	3908
958.507	5750
958.596	7202
958.684	6908
958.773	6085
958.861	5489
958.950	4397
959.039	4890
959.127	4533
959.216	6072
959.304	6137
959.393	5528
959.481	6001
959.570	6299
959.658	4480
959.746	4449
959.835	4861
959.923	4837
960.011	5295
960.100	5616
960.188	5860
960.276	6311
960.365	4788
960.453	4351
960.541	3825
960.629	4396
960.717	4986
960.805	3833
960.893	4566
960.981	5227
961.069	7063
961.158	7883
961.245	8628
961.333	7987
961.421	6744
961.509	5588
961.597	4779
961.685	6232
961.773	4519
961.861	6483
961.949	6413
962.036	5965
962.124	5094
962.212	4516
962.299	5231
962.387	4515
962.475	4121
962.562	4768
962.650	5488
962.738	5564
962.825	3573
962.913	4173
963.000	3533
963.088	5071
963.175	5850
963.263	5646
963.350	4694
963.438	4716
963.525	6007
963.612	4420
963.700	3848
963.787	5250
963.874	5552
963.962	5386
964.049	3248
964.136	4041
964.223	4427
964.310	4303
964.398	4440
964.485	4331
964.572	4894
964.659	4597
964.746	5026
964.833	3829
964.920	4134
965.007	4068
965.094	4030
965.181	4277
965.268	4584
965.355	5398
965.441	5160
965.528	4716
965.615	4589
965.702	4659
965.789	4585
965.875	4358
965.962	5707
966.049	5055
966.136	5422
966.222	6333
966.309	6618
966.395	5596
966.482	6468
966.569	5213
966.655	5234
966.742	5437
966.828	4868
966.915	5090
967.001	3764
967.087	4623
967.174	4043
967.260	3922
967.347	4466
967.433	4588
967.519	4936
967.605	5045
967.692	5602
967.778	4739
967.864	4527
967.950	4452
968.036	5073
968.123	4242
968.209	5218
968.295	4306
968.381	3594
968.467	4115
968.553	4189
968.639	4449
968.725	5234
968.811	5414
968.897	6188
968.983	5051
969.069	5112
969.154	4344
969.240	3798
969.326	3753
969.412	3949
969.497	4107
969.583	4073
969.669	3817
969.755	4557
969.840	5098
969.926	6833
970.012	8859
970.097	10569
970.183	10775
970.268	9503
970.354	6511
970.439	4924
970.525	4933
970.610	4106
970.696	5813
970.781	5300
970.866	4045
970.952	3761
971.037	3418
971.122	4190
971.208	5029
971.293	4580
971.378	4421
971.463	4469
971.549	4294
971.634	4171
971.719	4145
971.804	4927
971.889	4022
971.974	4604
972.059	4218
972.144	4657
972.229	4262
972.314	4404
972.399	4904
972.484	3940
972.569	3721
972.654	4090
972.739	3683
972.824	3689
972.908	3612
972.993	3644
973.078	3344
973.163	4815
973.247	3933
973.332	4119
973.417	4288
973.501	3853
973.586	4542
973.671	4272
973.755	4063
973.840	4344
973.924	4349
974.009	6454
974.093	7696
974.178	7469
974.262	5529
974.346	5695
974.431	4431
974.515	5103
974.600	4103
974.684	5971
974.768	4660
974.852	5544
974.937	3951
975.021	5308
975.105	4481
975.189	4480
975.273	4491
975.358	4917
975.442	4173
975.526	4347
975.610	4220
975.694	3837
975.778	4673
975.862	4794
975.946	3028
976.030	5309
976.114	4653
976.198	4164
976.281	4146
976.365	4411
976.449	4772
976.533	4459
976.617	4387
976.700	4284
976.784	3164
976.868	3729
976.951	4101
977.035	3896
977.119	3401
977.202	4061
977.286	4369
977.369	5023
977.453	8003
977.536	9815
977.620	7684
977.703	6945
977.787	5913
977.870	6209
977.953	5955
978.037	5499
978.120	4721
978.203	4317
978.287	5382
978.370	5520
978.453	5046
978.536	4869
978.620	4193
978.703	5057
978.786	5089
978.869	4925
978.952	3594
979.035	5343
979.118	5499
979.201	4635
979.284	5202
979.367	5189
979.450	5349
979.533	3229
979.616	3990
979.699	3956
979.782	4378
979.865	5223
979.948	4622
980.030	4267
980.113	4717
980.196	4146
980.279	4175
980.361	4524
980.444	4101
980.526	5630
980.609	6288
980.692	8295
980.774	9785
980.857	7761
980.939	7560
981.022	6338
981.104	6053
981.187	5337
981.269	5366
981.352	5670
981.434	4641
981.516	5776
981.599	5281
981.681	5568
981.763	5850
981.846	5574
981.928	5082
982.010	5837
982.092	5620
982.174	5292
982.256	5423
982.339	5694
982.421	4872
982.503	5037
982.585	4963
982.667	4216
982.749	5349
982.831	5592
982.913	4482
982.995	5940
983.077	4908
983.158	6504
983.240	6608
983.322	6101
983.404	7707
983.486	9698
983.568	9730
983.649	7602
983.731	8314
983.813	7778
983.894	6216
983.976	6455
984.058	7844
984.139	6641
984.221	5326
984.302	6977
984.384	5955
984.465	6219
984.547	6586
984.628	6020
984.710	6890
984.791	5920
984.872	6744
984.954	6379
985.035	7068
985.116	6402
985.198	6659
985.279	6801
985.360	6337
985.441	7112
985.522	7008
985.604	6509
985.685	6288
985.766	6928
985.847	6500
985.928	7006
986.009	6561
986.090	6320
986.171	7716
986.252	6234
986.333	6317
986.414	6796
986.495	6717
986.576	6169
986.656	7124
986.737	7654
986.818	7958
986.899	8055
986.980	8054
987.060	7760
987.141	7275
987.222	7996
987.302	8813
987.383	10455
987.464	10468
987.544	9071
987.625	10085
987.705	9011
987.786	8553
987.866	9755
987.947	9944
988.027	8988
988.108	9323
988.188	9051
988.268	7643
988.349	7455
988.429	8742
988.509	8164
988.589	7647
988.670	7620
988.750	8614
988.830	7545
988.910	7660
988.990	8117
989.070	8083
989.151	7609
989.231	7526
989.311	8327
989.391	7724
989.471	7884
989.551	7164
989.631	6953
989.711	7569
989.791	7642
989.870	7062
989.950	7386
990.030	7411
990.110	7633
990.190	6685
990.269	6362
990.349	6660
990.429	7841
990.509	6900
990.588	5723
990.668	6286
990.747	7108
990.827	6600
990.907	5336
990.986	6249
991.066	7595
991.145	6357
991.225	5271
991.304	7325
991.383	6826
991.463	6303
991.542	7363
991.622	6343
991.701	6180
991.780	5557
991.859	5458
991.939	4813
992.018	5880
992.097	6101
992.176	5687
992.256	5836
992.335	6122
992.414	5983
992.493	5311
992.572	4771
992.651	5671
992.730	5939
992.809	5404
992.888	5385
992.967	5549
993.046	6050
993.125	5710
993.203	4596
993.282	5585
993.361	5419
993.440	4348
993.519	5000
993.597	5598
993.676	4557
993.755	4722
993.834	5063
993.912	4379
993.991	4354
994.069	4730
994.148	4200
994.226	3976
994.305	4743
994.384	4395
994.462	5066
994.540	4986
994.619	4206
994.697	3549
994.776	4184
994.854	5610
994.932	4571
995.011	4094
995.089	3721
995.167	4013
995.245	3627
995.324	4042
995.402	4745
995.480	4465
995.558	4465
995.636	4045
995.714	3762
995.792	4440
995.870	4587
995.948	3435
996.026	3253
996.104	2942
996.182	4116
996.260	2784
996.338	3697
996.416	3398
996.494	3014
996.572	4659
996.649	3104
996.727	2853
996.805	3703
996.883	3723
996.960	3171
997.038	3590
997.116	4414
997.193	3113
997.271	3559
997.348	2699
997.426	2497
997.504	2488
997.581	3958
997.658	3138
997.736	3151
997.813	1832
997.891	2881
997.968	3058
998.046	3307
998.123	3229
998.200	2938
998.277	3791
998.355	3988
998.432	2500
998.509	2158
998.586	2210
998.663	3306
998.741	3376
998.818	2149
998.895	2563
998.972	2493
999.049	3172
999.126	3456
999.203	3568
999.280	1839
999.357	2402
999.434	2773
999.511	2681
999.587	2947
999.664	1516
999.741	2483
999.818	2337
999.895	2484
999.971	2063
1000.048	2741
1000.125	2487
1000.202	1879
1000.278	2529
1000.355	2616
1000.431	2171
1000.508	1395
1000.584	1462
1000.661	1965
1000.738	2100
1000.814	2213
1000.890	2212
1000.967	2229
1001.043	2313
1001.120	1741
1001.196	2221
1001.272	1873
1001.349	1708
1001.425	2116
1001.501	2097
1001.577	2030
1001.654	2773
1001.730	1594
1001.806	942
1001.882	1318
1001.958	1927
1002.034	2251
1002.110	2367
1002.186	1034
1002.262	949
1002.338	688
1002.414	576
1002.490	1757
1002.566	1678
1002.642	1347
1002.718	1937
1002.794	741
1002.870	1295
1002.945	1544
1003.021	1464
1003.097	1867
1003.173	1079
1003.248	1548
1003.324	1738
1003.400	1129
1003.475	769
1003.551	1385
1003.626	1460
1003.702	1141
1003.777	694
1003.853	847
1003.928	1077
1004.004	1407
1004.079	1579
1004.155	1576
1004.230	1393
1004.305	1525
1004.381	1749
1004.456	963
1004.531	1119
1004.607	1273
1004.682	944
1004.757	974
1004.832	1276
1004.907	1704
1004.982	962
1005.057	1250
1005.133	272
1005.208	445
1005.283	1198
1005.358	142
1005.433	360
1005.508	31
1005.583	335
1005.657	1129
1005.732	1517
1005.807	1527
1005.882	797
1005.957	1214
1006.032	568
1006.106	1666
1006.181	1185
1006.256	924
1006.331	312
1006.405	739
1006.480	-434
1006.554	-18
1006.629	871
1006.704	704
1006.778	-707
1006.853	1621
1006.927	1209
1007.002	850
1007.076	752
1007.150	-83
1007.225	654
1007.299	79
1007.373	165
1007.448	526
1007.522	699
1007.596	-219
1007.671	376
1007.745	721
1007.819	698
1007.893	590
1007.967	1249
1008.041	442
1008.115	995
1008.190	52
1008.264	313
1008.338	-690
1008.412	-98
1008.486	4
1008.560	704
1008.633	461
1008.707	1284
1008.781	1442
1008.855	315
1008.929	1609
1009.003	509
1009.076	506
1009.150	185
1009.224	510
1009.298	841
1009.371	248
1009.445	960
1009.519	-184
1009.592	773
1009.666	12
1009.739	462
1009.813	175
1009.886	284
1009.960	-435
1010.033	1203
1010.107	-57
1010.180	129
1010.253	413
1010.327	-515
1010.400	-252
1010.473	131
1010.547	699
1010.620	-26
1010.693	-85
1010.766	331
1010.840	635
1010.913	164
1010.986	185
1011.059	451
1011.132	-1311
1011.205	692
1011.278	-416
1011.351	429
1011.424	-72
1011.497	349
1011.570	-591
1011.643	65
1011.716	67
1011.789	-589
1011.862	496
1011.934	-1073
1012.007	-647
1012.080	-703
1012.153	204
1012.225	1009
1012.298	594
1012.371	-9
1012.443	469
1012.516	-274
1012.588	-570
1012.661	209
1012.733	-9
1012.806	-40
1012.879	-557
1012.951	-87
1013.023	602
1013.096	-792
1013.168	-482
1013.241	-38
1013.313	-862
1013.385	-601
1013.458	-227
1013.530	-347
1013.602	56
1013.674	36
1013.746	-591
1013.819	-135
1013.891	-131
1013.963	-492
1014.035	532
1014.107	1111
1014.179	197
1014.251	89
1014.323	-351
1014.395	-523
1014.467	-1226
1014.539	79
1014.611	-492
1014.683	-578
1014.754	59
1014.826	33
1014.898	-334
1014.970	234
1015.042	275
1015.113	90
1015.185	-479
1015.257	-578
1015.328	-420
1015.400	-206
1015.471	103
1015.543	678
1015.615	289
1015.686	-465
1015.757	-165
1015.829	-974
1015.901	-882
1015.972	67
1016.043	335
1016.115	-445
1016.186	-141
1016.257	-519
1016.328	-246
1016.400	-54
1016.471	-690
1016.542	-402
1016.613	-388
1016.685	-661
1016.756	-611
1016.827	300
1016.898	-526
1016.969	592
1017.040	-521
1017.111	-607
1017.182	-899
1017.253	-653
1017.324	-819
1017.395	-1098
1017.466	-427
1017.537	-483
1017.608	-1015
1017.678	-616
1017.749	-518
1017.820	337
1017.891	-669
1017.961	-1046
1018.032	-355
1018.103	-385
1018.173	-414
1018.244	-530
1018.315	-153
1018.385	-379
1018.456	113
1018.526	-192
1018.597	-43
1018.667	-774
1018.738	-963
1018.808	-869
1018.878	-238
1018.949	-240
1019.019	-738
1019.089	-993
1019.160	-165
1019.230	-1232
1019.300	245
1019.371	-737
1019.441	-705
1019.511	-789
1019.581	-744
1019.651	-601
1019.721	-512
1019.791	140
1019.861	28
1019.931	-456
1020.001	135
1020.071	-130
1020.141	-532
1020.211	-412
1020.281	-659
1020.351	-803
1020.421	-656
1020.491	-156
1020.560	-1089
1020.630	-384
1020.700	271
1020.770	-587
1020.839	-736
1020.909	71
1020.979	-513
1021.048	-503
1021.118	-711
1021.187	-577
1021.257	-345
1021.326	-771
1021.396	-657
1021.465	-181
1021.535	-957
1021.604	-713
1021.674	-636
1021.743	-810
1021.812	-787
1021.882	-28
1021.951	-286
1022.020	-162
1022.089	-280
1022.159	-213
1022.228	-811
1022.297	-747
1022.366	-408
1022.435	-197
1022.504	-1070
1022.573	-128
1022.642	-642
1022.711	-515
1022.781	-794
1022.849	-257
1022.918	-906
1022.987	-1007
1023.056	304
1023.125	-437
1023.194	-807
1023.263	-150
1023.331	-494
1023.400	-1013
1023.469	-638
1023.538	-48
1023.606	-1190
1023.675	-546
1023.744	-281
1023.812	-1224
1023.881	79
1023.949	257
1024.018	-701
1024.086	-1181
1024.155	-567
1024.223	-762
1024.292	-696
1024.360	-1018
1024.429	-707
1024.497	-796
1024.565	-753
1024.634	-686
1024.702	-718
1024.770	-897
1024.838	-887
1024.907	-297
1024.975	-366
1025.043	-1327
1025.111	-899
1025.179	-383
1025.247	-991
1025.315	-583
1025.383	-1221
1025.451	-483
1025.519	-1131
1025.587	-1017
1025.655	-792
1025.723	-994
1025.791	-293
1025.859	-842
1025.927	213
1025.995	-475
1026.062	289
1026.130	-692
1026.198	-694
1026.266	-33
1026.333	-853
1026.401	-656
1026.469	-773
1026.536	-275
1026.604	42
1026.671	-736
1026.739	-1178
1026.806	-391
1026.874	-510
1026.941	-981
1027.009	-702
1027.076	-1119
1027.144	-537
1027.211	-1216
1027.278	-616
1027.345	-323
1027.413	-955
1027.480	-465
1027.547	-677
1027.614	-630
1027.682	-1095
1027.749	-1049
1027.816	-951
1027.883	-1147
1027.950	-532
1028.017	-1055
1028.084	-836
1028.151	-204
1028.218	-819
1028.285	-350
1028.352	-588
1028.419	-340
1028.486	-963
1028.553	-270
1028.619	-1134
1028.686	-1075
1028.753	-889
1028.820	-623
1028.886	-529
1028.953	-404
1029.020	-662
1029.086	-1140
1029.153	-836
1029.220	-533
1029.286	-479
1029.353	-863
1029.419	-443
1029.486	-409
1029.552	-939
1029.619	-965
1029.685	-512
1029.751	-1285
1029.818	-618
1029.884	-806
1029.951	-427
1030.017	-483
1030.083	-336
1030.149	-989
1030.216	-1365
1030.282	-780
1030.348	-662
1030.414	-1272
1030.480	-1083
1030.546	18
1030.612	-610
1030.678	-1162
1030.744	-1213
1030.810	-1970
1030.876	-802
1030.942	-1119
1031.008	-1332
1031.074	-785
1031.140	-203
1031.206	-543
1031.272	-677
1031.337	-1139
1031.403	-900
1031.469	-790
1031.534	-454
1031.600	-141
1031.666	-972
1031.731	-1009
1031.797	-833
1031.863	-882
1031.928	-457
1031.994	-1063
1032.059	70
1032.125	-1262
1032.190	-1121
1032.256	-1209
1032.321	-1232
1032.386	-1343
1032.452	-1150
1032.517	-370
1032.582	-1644
1032.647	-1900
1032.713	-958
1032.778	-1337
1032.843	-937
1032.908	-802
1032.974	-725
1033.039	-1050
1033.104	-1564
1033.169	-1266
1033.234	-1600
1033.299	-881
1033.364	-476
1033.429	-1307
1033.494	-1070
1033.559	-1664
1033.624	-910
1033.688	-584
1033.753	-1484
1033.818	-1187
1033.883	-715
1033.948	-609
1034.013	779
1034.077	183
1034.142	1012
1034.207	1838
1034.271	2211
1034.336	2907
1034.400	4620
1034.465	3584
1034.530	2600
1034.594	474
1034.658	-144
1034.723	-790
1034.787	-1220
1034.852	-1096
1034.916	-617
1034.981	-1893
1035.045	-795
1035.109	-987
1035.173	-1104
1035.238	-808
1035.302	-845
1035.366	-1166
1035.430	-1634
1035.495	-1055
1035.559	-713
1035.623	-454
1035.687	-1242
1035.751	-1126
1035.815	-1498
1035.879	-1258
1035.943	-1671
1036.007	-1043
1036.071	-952
1036.135	-545
1036.198	-1572
1036.262	-1675
1036.326	-699
1036.390	-1628
1036.454	-809
1036.517	-851
1036.581	-1555
1036.645	-1442
1036.709	-580
1036.772	-1379
1036.836	-1448
1036.900	-1387
1036.963	-2209
1037.026	-1179
1037.090	-1107
1037.154	-1400
1037.217	-1038
1037.280	-963
1037.344	-553
1037.407	-1054
1037.471	-806
1037.534	-879
1037.597	-601
1037.661	-326
1037.724	-840
1037.787	-259
1037.850	-1192
1037.913	-999
1037.977	-597
1038.040	-1058
1038.103	-699
1038.166	-1311
1038.229	-1088
1038.292	-1356
1038.355	-1210
1038.418	-862
1038.481	-336
1038.544	-832
1038.607	-953
1038.670	-1761
1038.732	-1413
1038.795	-1485
1038.858	-1823
1038.921	-833
1038.984	-849
1039.046	-689
1039.109	-1181
1039.172	-1259
1039.234	-1576
1039.297	-862
1039.360	-624
1039.422	-875
1039.485	-1480
1039.547	-1387
1039.610	-732
1039.672	-1292
1039.734	-1139
1039.797	-1567
1039.859	-1814
1039.922	-1015
1039.984	-1981
1040.046	-1490
1040.109	-671
1040.171	-793
1040.233	-1350
1040.295	-1003
1040.358	-1326
1040.420	-1263
1040.482	-940
1040.544	-1447
1040.606	-771
1040.668	-1706
1040.730	-1203
1040.792	-1082
1040.854	-1154
1040.916	-1636
1040.978	-1289
1041.040	-779
1041.102	-1888
1041.164	-1436
1041.225	-1260
1041.287	-993
1041.349	-1118
1041.411	-775
1041.472	-1758
1041.534	-1589
1041.596	-1406
1041.657	-789
1041.719	-789
1041.781	-1880
1041.842	-1655
1041.904	-1722
1041.965	-1820
1042.027	-523
1042.088	-1186
1042.150	-720
1042.211	-578
1042.272	-1070
1042.334	-1489
1042.395	-1442
1042.456	-1218
1042.518	-858
1042.579	-1693
1042.640	-1662
1042.701	-870
1042.763	-1614
1042.824	-949
1042.885	-1036
1042.946	-1155
1043.007	-1458
1043.068	-1524
1043.129	-747
1043.190	-730
1043.251	-1300
1043.312	-1726
1043.373	-1031
1043.434	-990
1043.495	-569
1043.556	-1977
1043.616	-1557
1043.677	-943
1043.738	-763
1043.799	-568
1043.859	-888
1043.920	-1687
1043.981	-1291
1044.041	-906
1044.102	-1032
1044.162	-459
1044.223	-543
1044.284	-883
1044.344	-1004
1044.405	-1676
1044.465	-871
1044.525	-1036
1044.586	-945
1044.646	-851
1044.707	-1414
1044.767	-1366
1044.827	-1382
1044.887	-578
1044.948	-1336
1045.008	-750
1045.068	-733
1045.128	-895
1045.188	-1176
1045.249	-1006
1045.309	-1304
1045.369	-550
1045.429	-1204
1045.489	-2166
1045.549	-1014
1045.609	-1977
1045.669	-1068
1045.729	-855
1045.789	-691
1045.848	-712
1045.908	-488
1045.968	-548
1046.028	-743
1046.088	-619
1046.147	-258
1046.207	-714
1046.267	-1041
1046.326	-806
1046.386	-910
1046.446	-273
1046.505	-551
1046.565	141
1046.624	-222
1046.684	-154
1046.743	-209
1046.803	108
1046.862	-401
1046.922	0
