'Start Wavelength	183.907
'End Wavelength	1046.922
'Gate Delay	5.000
'Gate Width (ms)	1.050
'Laser Output Level	0.000
'X Position	0.000
'Y Position	0.000
'Z Position	0.000
'Grid Point Number	1.000
'Shot Number	100.000
183.907	988.000
183.977	-502.000
184.047	-203
184.116	-201
184.186	502
184.256	444
184.325	480
184.395	142
184.465	394
184.534	-643
184.604	376
184.674	91
184.743	-701
184.813	-142
184.883	1150
184.952	481
185.022	481
185.092	-128
185.161	906
185.231	162
185.301	425
185.370	668
185.440	152
185.509	219
185.579	-106
185.649	832
185.718	726
185.788	-496
185.857	347
185.927	-219
185.996	298
186.066	178
186.136	386
186.205	-58
186.275	426
186.344	-205
186.414	657
186.483	-167
186.553	1013
186.622	721
186.692	657
186.761	28
186.831	1241
186.900	-427
186.970	26
187.039	325
187.109	1086
187.178	765
187.248	45
187.317	345
187.387	-141
187.456	-200
187.526	604
187.595	340
187.664	609
187.734	-43
187.803	348
187.873	578
187.942	967
188.012	762
188.081	542
188.150	243
188.220	846
188.289	-10
188.358	676
188.428	-13
188.497	850
188.567	-543
188.636	419
188.705	200
188.775	666
188.844	-116
188.913	490
188.983	298
189.052	755
189.121	392
189.191	251
189.260	856
189.329	522
189.399	516
189.468	892
189.537	703
189.606	1298
189.676	257
189.745	938
189.814	505
189.883	403
189.953	126
190.022	870
190.091	382
190.161	768
190.230	525
190.299	507
190.368	-244
190.437	812
190.507	303
190.576	-295
190.645	-19
190.714	329
190.783	616
190.853	978
190.922	1042
190.991	966
191.060	718
191.129	1258
191.198	70
191.268	59
191.337	-462
191.406	760
191.475	27
191.544	449
191.613	814
191.682	846
191.752	-94
191.821	-79
191.890	105
191.959	551
192.028	267
192.097	1115
192.166	758
192.235	386
192.304	110
192.373	923
192.442	168
192.511	432
192.580	229
192.650	356
192.719	353
192.788	377
192.857	263
192.926	782
192.995	471
193.064	767
193.133	77
193.202	743
193.271	-14
193.340	893
193.409	380
193.478	827
193.547	753
193.615	1686
193.684	1150
193.753	759
193.822	168
193.891	377
193.960	573
194.029	932
194.098	161
194.167	948
194.236	-90
194.305	214
194.374	60
194.443	317
194.512	763
194.580	468
194.649	-110
194.718	440
194.787	522
194.856	-294
194.925	1004
194.994	127
195.062	335
195.131	0
195.200	722
195.269	498
195.338	651
195.407	243
195.475	243
195.544	796
195.613	93
195.682	409
195.751	441
195.819	755
195.888	131
195.957	1351
196.026	-218
196.094	784
196.163	-360
196.232	739
196.301	175
196.369	1074
196.438	55
196.507	167
196.576	-162
196.644	846
196.713	242
196.782	43
196.850	-298
196.919	617
196.988	-46
197.056	583
197.125	-169
197.194	1306
197.262	-78
197.331	736
197.400	167
197.468	236
197.537	162
197.606	151
197.674	548
197.743	647
197.812	334
197.880	1152
197.949	187
198.017	1506
198.086	-349
198.155	829
198.223	70
198.292	957
198.360	-83
198.429	-19
198.497	-210
198.566	1185
198.635	655
198.703	760
198.772	68
198.840	1045
198.909	730
198.977	756
199.046	13
199.114	56
199.183	-29
199.251	371
199.320	136
199.388	820
199.457	157
199.525	366
199.594	-170
199.662	406
199.731	375
199.799	936
199.867	431
199.936	559
200.004	4
200.073	-178
200.141	577
200.210	536
200.278	258
200.346	668
200.415	471
200.483	1158
200.552	569
200.620	1216
200.688	462
200.757	-24
200.825	-157
200.893	1097
200.962	161
201.030	308
201.098	359
201.167	1075
201.235	130
201.303	326
201.372	626
201.440	364
201.508	553
201.577	285
201.645	333
201.713	18
201.781	279
201.850	1339
201.918	-96
201.986	-180
202.055	222
202.123	355
202.191	405
202.259	405
202.327	-262
202.396	319
202.464	290
202.532	1045
202.600	1691
202.669	1066
202.737	201
202.805	-197
202.873	142
202.941	858
203.009	-646
203.078	409
203.146	632
203.214	377
203.282	701
203.350	692
203.418	309
203.487	559
203.555	448
203.623	831
203.691	-104
203.759	505
203.827	880
203.895	742
203.963	752
204.031	1053
204.099	1657
204.168	618
204.236	591
204.304	592
204.372	479
204.440	901
204.508	382
204.576	351
204.644	831
204.712	493
204.780	425
204.848	934
204.916	329
204.984	886
205.052	-103
205.120	1142
205.188	-56
205.256	-33
205.324	82
205.392	300
205.460	328
205.528	729
205.596	178
205.664	-38
205.732	225
205.799	1467
205.867	420
205.935	632
206.003	209
206.071	528
206.139	737
206.207	229
206.275	-101
206.343	697
206.411	351
206.478	897
206.546	556
206.614	607
206.682	793
206.750	1190
206.818	929
206.885	1016
206.953	652
207.021	1063
207.089	715
207.157	560
207.225	165
207.292	557
207.360	907
207.428	393
207.496	203
207.563	994
207.631	822
207.699	586
207.767	384
207.834	-78
207.902	1057
207.970	608
208.038	772
208.105	608
208.173	1169
208.241	300
208.309	767
208.376	1569
208.444	861
208.512	894
208.579	40
208.647	726
208.715	661
208.782	398
208.850	190
208.918	1112
208.985	511
209.053	1001
209.120	366
209.188	269
209.256	579
209.323	400
209.391	616
209.459	1544
209.526	609
209.594	329
209.661	514
209.729	858
209.796	370
209.864	966
209.932	-304
209.999	1291
210.067	438
210.134	727
210.202	164
210.269	1062
210.337	1419
210.404	1361
210.472	128
210.539	1469
210.607	-83
210.674	960
210.742	-89
210.809	-10
210.877	848
210.944	835
211.012	556
211.079	1279
211.146	635
211.214	1335
211.281	1782
211.349	646
211.416	909
211.484	1063
211.551	863
211.618	407
211.686	392
211.753	1126
211.821	755
211.888	1613
211.955	689
212.023	1056
212.090	1211
212.157	476
212.225	837
212.292	1317
212.359	2043
212.427	3986
212.494	601
212.561	1123
212.629	613
212.696	933
212.763	1098
212.831	1271
212.898	477
212.965	829
213.032	474
213.100	1092
213.167	566
213.234	1261
213.301	139
213.369	1019
213.436	290
213.503	1137
213.570	437
213.638	93
213.705	176
213.772	388
213.839	-6
213.906	779
213.973	-53
214.041	1204
214.108	248
214.175	370
214.242	576
214.309	612
214.376	-65
214.444	973
214.511	1078
214.578	859
214.645	614
214.712	1321
214.779	1066
214.846	1005
214.913	1520
214.980	1728
215.048	2019
215.115	1673
215.182	1282
215.249	1183
215.316	534
215.383	633
215.450	1266
215.517	1314
215.584	358
215.651	697
215.718	157
215.785	480
215.852	68
215.919	417
215.986	391
216.053	180
216.120	580
216.187	7
216.254	-340
216.321	405
216.388	128
216.455	558
216.522	641
216.589	673
216.656	1041
216.722	724
216.789	1100
216.856	749
216.923	888
216.990	954
217.057	1238
217.124	1503
217.191	1004
217.258	1134
217.324	1556
217.391	2330
217.458	1140
217.525	1034
217.592	760
217.659	984
217.725	1123
217.792	1231
217.859	1222
217.926	742
217.993	675
218.059	1243
218.126	1150
218.193	1727
218.260	76
218.327	566
218.393	725
218.460	16
218.527	546
218.594	1597
218.660	633
218.727	932
218.794	458
218.860	594
218.927	155
218.994	540
219.061	-441
219.127	184
219.194	598
219.261	463
219.327	375
219.394	1155
219.461	-259
219.527	509
219.594	-395
219.661	392
219.727	572
219.794	1316
219.860	1089
219.927	1216
219.994	2235
220.060	3240
220.127	2658
220.193	1690
220.260	710
220.326	2353
220.393	2278
220.460	2498
220.526	774
220.593	1221
220.659	1537
220.726	1752
220.792	2762
220.859	2975
220.925	4619
220.992	4272
221.058	3781
221.125	3219
221.191	1816
221.258	1601
221.324	986
221.391	384
221.457	364
221.524	1635
221.590	861
221.657	3381
221.723	1655
221.789	2127
221.856	891
221.922	828
221.989	590
222.055	769
222.121	342
222.188	1526
222.254	788
222.321	964
222.387	346
222.453	1230
222.520	483
222.586	1158
222.652	185
222.719	1146
222.785	118
222.851	548
222.918	200
222.984	1157
223.050	350
223.116	433
223.183	537
223.249	174
223.315	45
223.382	553
223.448	-54
223.514	196
223.580	823
223.647	616
223.713	72
223.779	876
223.845	339
223.911	682
223.978	256
224.044	720
224.110	14
224.176	1111
224.242	331
224.309	549
224.375	21
224.441	435
224.507	-221
224.573	-245
224.639	93
224.705	274
224.772	267
224.838	210
224.904	-371
224.970	-369
225.036	-169
225.102	462
225.168	563
225.234	239
225.300	262
225.366	986
225.432	531
225.499	517
225.565	291
225.631	399
225.697	510
225.763	811
225.829	687
225.895	812
225.961	799
226.027	1366
226.093	835
226.159	1815
226.225	3465
226.291	6393
226.357	6438
226.423	3460
226.489	2050
226.554	1433
226.620	1509
226.686	1292
226.752	2851
226.818	6155
226.884	10395
226.950	6805
227.016	2560
227.082	1676
227.148	844
227.214	1262
227.279	733
227.345	1126
227.411	2361
227.477	4105
227.543	5424
227.609	4418
227.674	2964
227.740	766
227.806	1058
227.872	1527
227.938	904
228.003	1733
228.069	220
228.135	778
228.201	415
228.267	428
228.332	408
228.398	446
228.464	-160
228.530	757
228.595	318
228.661	372
228.727	8
228.792	168
228.858	366
228.924	476
228.990	619
229.055	361
229.121	254
229.187	520
229.252	231
229.318	461
229.384	-459
229.449	-211
229.515	-180
229.581	64
229.646	969
229.712	-154
229.777	599
229.843	419
229.909	261
229.974	475
230.040	631
230.105	558
230.171	254
230.236	926
230.302	377
230.368	424
230.433	172
230.499	589
230.564	815
230.630	1181
230.695	223
230.761	247
230.826	426
230.892	1630
230.957	448
231.023	1145
231.088	243
231.154	454
231.219	188
231.284	856
231.350	156
231.415	1080
231.481	599
231.546	465
231.612	-12
231.677	-325
231.742	392
231.808	666
231.873	15
231.939	-270
232.004	926
232.069	1485
232.135	331
232.200	404
232.265	682
232.331	-305
232.396	54
232.461	167
232.527	-12
232.592	374
232.657	644
232.723	349
232.788	127
232.853	240
232.918	380
232.984	621
233.049	273
233.114	682
233.179	312
233.245	1104
233.310	-55
233.375	62
233.440	753
233.506	1104
233.571	-610
233.636	442
233.701	86
233.766	1044
233.832	555
233.897	87
233.962	402
234.027	684
234.092	896
234.157	149
234.222	310
234.288	940
234.353	628
234.418	420
234.483	752
234.548	484
234.613	730
234.678	523
234.743	638
234.808	1450
234.873	-652
234.938	491
235.004	761
235.069	635
235.134	501
235.199	744
235.264	492
235.329	795
235.394	-145
235.459	951
235.524	10
235.589	449
235.654	23
235.719	890
235.784	606
235.849	864
235.913	31
235.978	406
236.043	217
236.108	511
236.173	-59
236.238	498
236.303	64
236.368	867
236.433	1200
236.498	601
236.563	815
236.627	4429
236.692	13142
236.757	7316
236.822	2182
236.887	1677
236.952	1046
237.017	974
237.081	1951
237.146	2810
237.211	6162
237.276	13961
237.341	15188
237.405	6760
237.470	2438
237.535	918
237.600	1160
237.664	1197
237.729	674
237.794	1836
237.859	2707
237.923	1187
237.988	-145
238.053	1169
238.118	246
238.182	1467
238.247	1700
238.312	661
238.376	1067
238.441	-148
238.506	797
238.570	432
238.635	475
238.700	832
238.764	-241
238.829	1068
238.893	220
238.958	1008
239.023	177
239.087	457
239.152	787
239.216	166
239.281	-185
239.346	991
239.410	400
239.475	878
239.539	1728
239.604	1526
239.668	832
239.733	2121
239.797	6371
239.862	9902
239.926	5707
239.991	2799
240.055	1126
240.120	1049
240.184	684
240.249	411
240.313	61
240.378	1113
240.442	424
240.507	613
240.571	296
240.635	321
240.700	-71
240.764	558
240.829	373
240.893	105
240.957	314
241.022	1168
241.086	1007
241.151	-443
241.215	-218
241.279	970
241.344	283
241.408	600
241.472	-471
241.537	1454
241.601	288
241.665	585
241.730	369
241.794	915
241.858	802
241.922	942
241.987	708
242.051	951
242.115	577
242.179	282
242.244	77
242.308	1146
242.372	383
242.436	899
242.501	429
242.565	1279
242.629	121
242.693	1139
242.757	419
242.822	242
242.886	-262
242.950	1111
243.014	543
243.078	1026
243.142	538
243.206	435
243.271	-354
243.335	1035
243.399	684
243.463	7657
243.527	10190
243.591	2796
243.655	1073
243.719	485
243.783	496
243.847	2202
243.911	1902
243.975	1516
244.040	167
244.104	1272
244.168	691
244.232	555
244.296	744
244.360	1512
244.424	820
244.488	-124
244.552	540
244.615	436
244.679	697
244.743	269
244.807	274
244.871	933
244.935	428
244.999	-602
245.063	379
245.127	1459
245.191	1559
245.255	457
245.319	-234
245.383	-124
245.446	1596
245.510	366
245.574	248
245.638	664
245.702	-3
245.766	1807
245.829	786
245.893	1042
245.957	197
246.021	1454
246.085	710
246.149	641
246.212	1309
246.276	2010
246.340	596
246.404	748
246.467	945
246.531	329
246.595	1274
246.659	538
246.722	166
246.786	163
246.850	986
246.913	330
246.977	-215
247.041	730
247.104	726
247.168	1423
247.232	1933
247.295	2523
247.359	729
247.423	1256
247.486	739
247.550	1184
247.614	344
247.677	996
247.741	338
247.804	457
247.868	762
247.932	1807
247.995	1563
248.059	1145
248.122	52
248.186	1025
248.249	1849
248.313	5508
248.376	2967
248.440	2600
248.503	-99
248.567	1950
248.630	1258
248.694	1209
248.757	2895
248.821	4453
248.884	3307
248.948	2315
249.011	4167
249.075	6199
249.138	3721
249.202	1813
249.265	483
249.328	1905
249.392	1165
249.455	1635
249.519	1668
249.582	1422
249.645	2155
249.709	1728
249.772	1207
249.835	1287
249.899	652
249.962	1655
250.025	855
250.089	2958
250.152	1782
250.215	1491
250.279	1009
250.342	1136
250.405	693
250.468	1400
250.532	1347
250.595	4486
250.658	16329
250.721	15254
250.785	4275
250.848	3158
250.911	972
250.974	2501
251.038	2615
251.101	3334
251.164	1452
251.227	2292
251.290	1623
251.354	4770
251.417	20337
251.480	11498
251.543	13576
251.606	33886
251.669	15318
251.732	6232
251.795	5813
251.859	9357
251.922	19114
251.985	7385
252.048	3986
252.111	2023
252.174	1540
252.237	4205
252.300	6091
252.363	12932
252.426	19998
252.489	4966
252.552	2692
252.615	1751
252.678	2232
252.741	6566
252.804	13202
252.867	22129
252.930	9053
252.993	4095
253.056	2325
253.119	1594
253.182	1500
253.245	2663
253.308	2179
253.371	1060
253.434	1170
253.497	2175
253.559	2926
253.622	1483
253.685	1241
253.748	1118
253.811	214
253.874	1575
253.937	247
254.000	1545
254.062	1821
254.125	2962
254.188	2140
254.251	1091
254.314	-12
254.376	839
254.439	1653
254.502	1759
254.565	2624
254.628	2236
254.690	452
254.753	1180
254.816	90
254.878	1472
254.941	2921
255.004	1253
255.067	705
255.129	282
255.192	320
255.255	-286
255.317	574
255.380	873
255.443	453
255.505	741
255.568	10
255.631	416
255.693	1393
255.756	655
255.819	597
255.881	691
255.944	690
256.006	1079
256.069	1052
256.132	358
256.194	853
256.257	1052
256.319	902
256.382	1913
256.444	1536
256.507	1113
256.569	950
256.632	1635
256.694	1641
256.757	10429
256.819	18138
256.882	5175
256.944	2714
257.007	2249
257.069	-331
257.132	1423
257.194	1264
257.257	1122
257.319	656
257.381	2510
257.444	7362
257.506	27878
257.569	16279
257.631	4676
257.693	2477
257.756	2016
257.818	1325
257.880	1979
257.943	918
258.005	393
258.067	567
258.130	989
258.192	310
258.254	590
258.317	1310
258.379	1281
258.441	1341
258.503	1331
258.566	1794
258.628	1537
258.690	370
258.753	1186
258.815	855
258.877	1686
258.939	578
259.001	1706
259.064	640
259.126	433
259.188	284
259.250	1272
259.312	341
259.375	1148
259.437	433
259.499	937
259.561	400
259.623	423
259.685	222
259.747	885
259.809	2144
259.872	2075
259.934	3944
259.996	3094
260.058	1276
260.120	500
260.182	607
260.244	818
260.306	-187
260.368	623
260.430	611
260.492	1701
260.554	1497
260.616	12
260.678	2369
260.740	1764
260.802	-68
260.864	620
260.926	277
260.988	1382
261.050	682
261.112	2565
261.174	3426
261.236	1617
261.298	1196
261.359	1722
261.421	1286
261.483	540
261.545	938
261.607	850
261.669	554
261.731	1148
261.793	1428
261.854	802
261.916	1185
261.978	1745
262.040	463
262.102	795
262.164	119
262.225	1119
262.287	622
262.349	1292
262.411	1
262.472	606
262.534	-109
262.596	1555
262.658	562
262.719	130
262.781	952
262.843	468
262.904	629
262.966	-34
263.028	1435
263.090	7794
263.151	10829
263.213	2722
263.275	1070
263.336	1575
263.398	1256
263.459	1222
263.521	69
263.583	1706
263.644	872
263.706	885
263.767	703
263.829	1424
263.891	580
263.952	792
264.014	-285
264.075	2021
264.137	2072
264.198	1068
264.260	368
264.321	-106
264.383	1404
264.444	3289
264.506	304
264.567	1129
264.629	2083
264.690	2114
264.752	733
264.813	1030
264.875	19
264.936	1204
264.998	725
265.059	1386
265.120	1454
265.182	3560
265.243	13562
265.305	7765
265.366	1296
265.427	1567
265.489	291
265.550	1151
265.611	1098
265.673	1256
265.734	1041
265.795	1815
265.857	-155
265.918	1031
265.979	5609
266.040	22658
266.102	8579
266.163	3029
266.224	1638
266.286	1603
266.347	588
266.408	925
266.469	743
266.530	761
266.592	-167
266.653	2063
266.714	763
266.775	1005
266.836	777
266.898	1273
266.959	558
267.020	1067
267.081	1249
267.142	993
267.203	680
267.264	262
267.326	1579
267.387	861
267.448	19
267.509	1034
267.570	859
267.631	840
267.692	-398
267.753	975
267.814	-265
267.875	1227
267.936	503
267.997	906
268.058	909
268.119	426
268.180	393
268.241	84
268.302	652
268.363	302
268.424	9
268.485	1207
268.546	868
268.607	113
268.668	417
268.729	731
268.790	364
268.851	1127
268.912	883
268.972	1097
269.033	117
269.094	310
269.155	524
269.216	521
269.277	321
269.338	241
269.398	1149
269.459	-25
269.520	302
269.581	881
269.642	463
269.702	917
269.763	640
269.824	481
269.885	-121
269.945	1662
270.006	587
270.067	883
270.128	378
270.188	1144
270.249	389
270.310	235
270.370	495
270.431	605
270.492	504
270.553	924
270.613	1214
270.674	1625
270.734	303
270.795	1090
270.856	1026
270.916	146
270.977	1217
271.038	799
271.098	402
271.159	872
271.219	517
271.280	706
271.340	1095
271.401	982
271.462	567
271.522	1113
271.583	1061
271.643	1293
271.704	1320
271.764	562
271.825	1112
271.885	5265
271.946	3966
272.006	1819
272.066	4500
272.127	6334
272.187	5708
272.248	2175
272.308	1286
272.369	4475
272.429	1649
272.489	1761
272.550	837
272.610	1886
272.671	984
272.731	965
272.791	820
272.852	1180
272.912	1326
272.972	216
273.033	492
273.093	505
273.153	1274
273.214	1247
273.274	1029
273.334	4251
273.394	3918
273.455	1686
273.515	2598
273.575	3435
273.635	1697
273.696	3393
273.756	4589
273.816	2859
273.876	1485
273.936	2057
273.997	2666
274.057	804
274.117	1321
274.177	2170
274.237	6116
274.297	3026
274.358	2135
274.418	4427
274.478	1565
274.538	1135
274.598	-15
274.658	2915
274.718	1586
274.778	1269
274.838	28
274.898	1313
274.958	2252
275.018	5127
275.078	1575
275.138	1020
275.198	505
275.258	1238
275.318	674
275.378	865
275.438	1269
275.498	938
275.558	1649
275.618	4109
275.678	1464
275.738	2087
275.798	1090
275.858	1382
275.918	403
275.978	498
276.038	272
276.098	1508
276.157	982
276.217	2279
276.277	990
276.337	1151
276.397	787
276.457	1950
276.517	807
276.576	1483
276.636	807
276.696	718
276.756	1274
276.815	1258
276.875	1963
276.935	862
276.995	861
277.055	1688
277.114	1524
277.174	1288
277.234	2187
277.293	1914
277.353	487
277.413	873
277.472	485
277.532	1293
277.592	2983
277.651	10919
277.711	9147
277.771	4960
277.830	15235
277.890	7468
277.950	12578
278.009	21365
278.069	5730
278.128	13121
278.188	10376
278.248	6878
278.307	16228
278.367	5909
278.426	2241
278.486	2579
278.545	1302
278.605	2150
278.664	734
278.724	934
278.783	3820
278.843	5810
278.902	1077
278.962	2230
279.021	1739
279.081	3539
279.140	1871
279.199	1835
279.259	1959
279.318	2554
279.378	3547
279.437	6731
279.496	22946
279.556	67752
279.615	28934
279.675	9209
279.734	5770
279.793	7755
279.853	8530
279.912	4009
279.971	1648
280.031	2342
280.090	5449
280.149	6712
280.208	11248
280.268	50988
280.327	25972
280.386	7438
280.445	4950
280.505	3462
280.564	2871
280.623	2463
280.682	1895
280.742	2466
280.801	1747
280.860	1095
280.919	1846
280.978	1481
281.037	767
281.097	1241
281.156	1722
281.215	2095
281.274	1824
281.333	4060
281.392	835
281.451	1650
281.510	2219
281.569	1025
281.628	793
281.688	1702
281.747	1055
281.806	818
281.865	1390
281.924	1951
281.983	718
282.042	929
282.101	977
282.160	1764
282.219	1111
282.278	1588
282.337	1533
282.396	1395
282.454	774
282.513	1198
282.572	2772
282.631	1550
282.690	1415
282.749	654
282.808	1014
282.867	2040
282.926	1332
282.985	1417
283.043	719
283.102	1317
283.161	963
283.220	3140
283.279	2753
283.338	1913
283.396	1515
283.455	2304
283.514	1881
283.573	1619
283.631	1482
283.690	1964
283.749	1681
283.808	1717
283.866	1608
283.925	1784
283.984	1758
284.043	2326
284.101	1965
284.160	2039
284.219	2431
284.277	2303
284.336	2832
284.395	4655
284.453	3451
284.512	3155
284.570	3585
284.629	4078
284.688	4420
284.746	5367
284.805	6559
284.863	8492
284.922	10091
284.981	13319
285.039	20017
285.098	36355
285.156	61331
285.215	61253
285.273	66326
285.332	50802
285.390	31456
285.449	21051
285.507	14554
285.566	11328
285.624	8154
285.683	7870
285.741	5933
285.799	4637
285.858	3919
285.916	3473
285.975	3076
286.033	3310
286.091	3088
286.150	2578
286.208	1857
286.267	3052
286.325	1536
286.383	2236
286.442	1629
286.500	2294
286.558	2306
286.616	2155
286.675	2200
286.733	2465
286.791	1323
286.850	2252
286.908	2666
286.966	2060
287.024	1682
287.083	1451
287.141	2192
287.199	2066
287.257	1532
287.315	1763
287.374	2182
287.432	2046
287.490	1618
287.548	2592
287.606	1219
287.664	2011
287.723	1828
287.781	2298
287.839	1305
287.897	2360
287.955	2067
288.013	4021
288.071	8009
288.129	39220
288.187	61532
288.245	20341
288.303	8093
288.361	5399
288.419	3943
288.477	3678
288.535	2422
288.593	2293
288.651	1413
288.709	1018
288.767	1686
288.825	1304
288.883	706
288.941	1537
288.999	637
289.057	1395
289.115	1339
289.173	1102
289.231	1070
289.289	1642
289.346	984
289.404	2457
289.462	752
289.520	1106
289.578	884
289.636	1157
289.694	343
289.751	1251
289.809	1794
289.867	1048
289.925	1994
289.983	1620
290.040	956
290.098	289
290.156	827
290.214	1459
290.271	1170
290.329	2043
290.387	985
290.444	1561
290.502	1148
290.560	1507
290.617	773
290.675	735
290.733	1163
290.790	1154
290.848	700
290.906	1921
290.963	658
291.021	1165
291.078	1250
291.136	1217
291.194	2960
291.251	2752
291.309	1391
291.366	1803
291.424	762
291.481	1729
291.539	520
291.596	2104
291.654	1097
291.711	1199
291.769	962
291.826	888
291.884	1143
291.941	1105
291.999	761
292.056	1163
292.114	460
292.171	1914
292.228	2025
292.286	1697
292.343	1178
292.401	1079
292.458	886
292.515	1704
292.573	1619
292.630	1315
292.687	569
292.745	808
292.802	1632
292.859	2284
292.917	3133
292.974	1589
293.031	1069
293.089	893
293.146	1335
293.203	1809
293.260	212
293.318	538
293.375	1528
293.432	1527
293.489	855
293.546	1255
293.604	943
293.661	4064
293.718	6258
293.775	3010
293.832	2229
293.889	2669
293.947	1722
294.004	911
294.061	1502
294.118	3543
294.175	4336
294.232	5291
294.289	1928
294.346	2056
294.403	1629
294.460	2000
294.517	1282
294.574	1231
294.631	1374
294.688	1719
294.745	2692
294.802	8227
294.859	5483
294.916	3045
294.973	1512
295.030	923
295.087	772
295.144	1387
295.201	967
295.258	1054
295.315	1646
295.372	3865
295.429	4134
295.486	2055
295.542	2186
295.599	5448
295.656	4863
295.713	3852
295.770	2973
295.827	2376
295.883	1665
295.940	1277
295.997	1334
296.054	1255
296.111	1213
296.167	1231
296.224	266
296.281	768
296.338	468
296.394	989
296.451	783
296.508	2638
296.564	2092
296.621	3142
296.678	7145
296.734	6627
296.791	2472
296.848	2284
296.904	2183
296.961	3806
297.018	4704
297.074	3213
297.131	790
297.187	1816
297.244	2057
297.301	7880
297.357	7507
297.414	2755
297.470	1986
297.527	2081
297.583	556
297.640	1687
297.696	730
297.753	960
297.809	1372
297.866	1403
297.922	566
297.979	1339
298.035	789
298.092	1801
298.148	3005
298.204	2320
298.261	1965
298.317	5024
298.374	6069
298.430	3312
298.486	1923
298.543	2180
298.599	1560
298.656	1996
298.712	3075
298.768	7368
298.824	3808
298.881	1813
298.937	2056
298.993	1566
299.050	964
299.106	1211
299.162	931
299.218	1477
299.275	1949
299.331	1235
299.387	3731
299.443	11457
299.500	16061
299.556	9929
299.612	4562
299.668	5903
299.724	15694
299.780	11955
299.837	4341
299.893	4969
299.949	13962
300.005	12918
300.061	15003
300.117	17838
300.173	6453
300.229	3720
300.285	2912
300.341	3153
300.397	1662
300.453	1859
300.510	1779
300.566	3414
300.622	7845
300.678	24334
300.734	20107
300.790	10532
300.845	9002
300.901	14676
300.957	15024
301.013	6907
301.069	2477
301.125	3091
301.181	1714
301.237	1727
301.293	815
301.349	2110
301.405	1808
301.461	1895
301.516	1597
301.572	1530
301.628	1021
301.684	1405
301.740	2049
301.796	2768
301.851	2187
301.907	3001
301.963	3092
302.019	8473
302.074	16673
302.130	13119
302.186	5221
302.242	3265
302.297	1634
302.353	2031
302.409	3208
302.464	2486
302.520	2275
302.576	5812
302.631	5302
302.687	2784
302.743	2006
302.798	2340
302.854	985
302.910	2332
302.965	1862
303.021	1957
303.076	1333
303.132	2424
303.187	1791
303.243	1252
303.299	1711
303.354	1247
303.410	1387
303.465	1008
303.521	1798
303.576	1284
303.632	1030
303.687	2920
303.743	6451
303.798	4392
303.853	1095
303.909	1393
303.964	987
304.020	2054
304.075	2016
304.130	2080
304.186	2335
304.241	3274
304.297	2016
304.352	1956
304.358	1892
304.407	1366
304.449	1678
304.463	1785
304.518	1238
304.539	1536
304.573	2007
304.629	1206
304.630	1227
304.684	2172
304.720	4167
304.739	5206
304.794	5576
304.811	4905
304.850	3161
304.902	2085
304.905	2021
304.960	1240
304.992	1747
305.015	2118
305.071	2001
305.083	1928
305.126	1641
305.173	1081
305.181	1004
305.236	2001
305.264	1715
305.292	1370
305.347	2025
305.354	2001
305.402	1829
305.445	1657
305.457	1628
305.512	1705
305.535	1691
305.567	1639
305.622	1793
305.626	1849
305.678	3104
305.716	5355
305.733	6231
305.788	5206
305.807	4674
305.843	3521
305.897	5790
305.898	5827
305.953	5387
305.988	4115
306.008	3239
306.063	2115
306.078	2015
306.118	1948
306.168	1249
306.173	1190
306.228	1329
306.259	1238
306.283	1232
306.338	1683
306.349	1738
306.393	1932
306.440	2376
306.448	2445
306.503	1894
306.530	2173
306.558	2655
306.613	3773
306.620	3830
306.668	4204
306.711	4815
306.723	4813
306.778	3726
306.801	3066
306.833	2288
306.888	2165
306.892	2139
306.943	2081
306.982	2177
306.997	2196
307.052	1680
307.072	1805
307.107	2148
307.162	2127
307.163	2131
307.217	2750
307.253	2938
307.272	3021
307.327	3009
307.343	2872
307.381	2329
307.434	2404
307.436	2451
307.491	3424
307.524	4076
307.546	4326
307.600	4430
307.614	4362
307.655	3601
307.704	2353
307.710	2304
307.765	3041
307.795	3295
307.819	3596
307.874	5171
307.885	5171
307.929	4974
307.975	5552
307.984	5897
308.038	8411
308.065	10909
308.093	17313
308.148	36703
308.156	40823
308.202	73114
308.246	87842
308.257	83100
308.312	45119
308.336	30967
308.366	22610
308.421	12101
308.426	11161
308.475	7896
308.517	6261
308.530	6024
308.585	5081
308.607	4681
308.639	4474
308.694	4634
308.697	4655
308.748	6020
308.787	7027
308.803	7151
308.857	7195
308.877	7106
308.912	6830
308.967	7258
308.967	7254
309.021	10141
309.058	13261
309.076	16186
309.130	26507
309.148	30976
309.185	53198
309.238	92721
309.239	93417
309.293	116500
309.328	118623
309.348	101902
309.402	54297
309.418	42100
309.457	30368
309.508	17678
309.511	17509
309.566	16446
309.598	16354
309.620	18893
309.674	26401
309.688	28215
309.729	29442
309.778	27487
309.783	26682
309.837	17507
309.868	12700
309.892	11669
309.946	9811
309.959	9489
310.001	9938
310.049	10116
310.055	9860
310.109	7349
310.139	5865
310.163	5273
310.218	4480
310.229	4311
310.272	4043
310.319	3641
310.326	3497
310.381	2725
310.409	2193
310.435	2210
310.489	2477
310.499	2485
310.543	2621
310.589	2885
310.598	2909
310.652	2885
310.679	2932
310.706	2858
310.760	2595
310.769	2585
310.814	2822
310.859	2846
310.868	2839
310.923	2898
310.948	2860
310.977	2962
311.031	3308
311.038	3322
311.085	3208
311.128	3153
311.139	3162
311.193	3221
311.218	3232
311.247	3061
311.301	2652
311.308	2604
311.356	2696
311.398	2695
311.410	2735
311.464	3062
311.488	3140
311.518	2840
311.572	2286
311.578	2217
311.626	1930
311.668	1736
311.680	1942
311.734	2801
311.758	3186
311.788	3183
311.842	3170
311.847	3164
311.896	3543
311.937	3830
311.950	3822
312.004	3794
312.027	3746
312.058	3350
312.112	2674
312.117	2601
312.165	2881
312.207	3115
312.297	3718
312.386	3143
312.476	3387
312.566	3624
312.656	3131
312.745	3167
312.835	2420
312.925	4084
313.015	3164
313.104	3864
313.194	3357
313.284	3840
313.374	3930
313.463	4483
313.553	4147
313.643	3707
313.732	4629
313.822	4030
313.912	5279
314.001	5184
314.091	6400
314.180	6470
314.270	4974
314.360	5829
314.449	5437
314.539	4810
314.628	5175
314.718	6208
314.808	6361
314.897	5819
314.987	6156
315.076	7056
315.166	7232
315.255	6548
315.345	6391
315.434	5998
315.524	5752
315.613	6533
315.703	7187
315.792	13883
315.881	52387
315.971	31767
316.060	8561
316.150	7211
316.239	6821
316.328	5923
316.418	5118
316.507	5458
316.597	7055
316.686	6413
316.775	7252
316.865	7906
316.954	6251
317.043	5301
317.133	5716
317.222	4064
317.311	4616
317.400	3702
317.490	5203
317.579	4986
317.668	5916
317.757	8227
317.847	20943
317.936	84256
318.025	41169
318.114	20854
318.203	15345
318.293	7196
318.382	8886
318.471	11463
318.560	11095
318.649	15489
318.738	8459
318.828	4635
318.917	3731
319.006	4731
319.095	6721
319.184	14593
319.273	10472
319.362	4554
319.451	3694
319.540	3654
319.629	3807
319.718	5136
319.807	4856
319.896	6152
319.985	18423
320.074	11101
320.163	4434
320.252	3729
320.341	4489
320.430	4958
320.519	4992
320.608	4653
320.697	6651
320.786	6312
320.875	7799
320.964	8304
321.053	8769
321.142	9950
321.230	11382
321.319	11203
321.408	14956
321.497	14066
321.586	11704
321.675	10406
321.764	10519
321.852	9099
321.941	9488
322.030	9893
322.119	10729
322.207	13080
322.296	15029
322.385	14950
322.474	16296
322.562	19706
322.651	16906
322.740	11746
322.829	10541
322.917	9491
323.006	9278
323.095	6917
323.183	7873
323.272	7458
323.361	7447
323.449	15054
323.538	9874
323.626	9228
323.715	10328
323.804	5395
323.892	8687
323.981	8352
324.069	5051
324.158	6244
324.246	7373
324.335	4411
324.424	4965
324.512	4471
324.601	3765
324.689	4242
324.778	5052
324.866	4607
324.954	4019
325.043	2994
325.131	3863
325.220	5904
325.308	5685
325.397	3887
325.485	4847
325.574	3431
325.662	3541
325.750	4285
325.839	3882
325.927	3694
326.015	3929
326.104	3477
326.192	4604
326.280	3434
326.369	3384
326.457	3326
326.545	3653
326.634	3825
326.722	3828
326.810	3478
326.898	4328
326.987	5252
327.075	5165
327.163	4601
327.251	4788
327.340	5162
327.428	6508
327.516	7072
327.604	6009
327.692	4290
327.781	4168
327.869	4013
327.957	4405
328.045	3445
328.133	3241
328.221	3407
328.309	3780
328.397	3118
328.485	4394
328.574	4929
328.662	10255
328.750	7849
328.838	5242
328.926	4092
329.014	3258
329.102	3921
329.190	4665
329.278	4887
329.366	3336
329.454	2754
329.542	3140
329.630	3700
329.718	3845
329.806	2794
329.893	3786
329.981	3573
330.069	3485
330.157	5138
330.245	10806
330.333	8895
330.421	3980
330.509	3463
330.597	5000
330.684	4289
330.772	4438
330.860	3951
330.948	5010
331.036	4143
331.123	4038
331.211	3769
331.299	4004
331.387	4111
331.475	6226
331.562	4676
331.650	4276
331.738	3822
331.825	3803
331.913	3426
332.001	4248
332.089	3786
332.176	4128
332.264	5278
332.352	5845
332.439	3873
332.527	3216
332.614	3259
332.702	4222
332.790	4001
332.877	4016
332.965	7333
333.052	7084
333.140	5811
333.228	11636
333.315	7461
333.403	4772
333.490	5816
333.578	7104
333.665	15238
333.753	12816
333.840	5744
333.928	5827
334.015	7543
334.103	10339
334.190	22914
334.278	16564
334.365	17965
334.452	20857
334.540	13602
334.627	12042
334.715	14867
334.802	20490
334.889	38035
334.977	58782
335.064	36677
335.151	18012
335.239	11885
335.326	10212
335.413	13662
335.501	24040
335.588	11306
335.675	10901
335.762	13408
335.850	18094
335.937	24351
336.024	37764
336.111	69257
336.199	71568
336.286	34830
336.373	18128
336.460	11750
336.547	8850
336.635	7990
336.722	7575
336.809	5573
336.896	5662
336.983	7835
337.070	15212
337.157	24161
337.245	14008
337.332	12206
337.419	6478
337.506	5426
337.593	5784
337.680	6210
337.767	15175
337.854	7274
337.941	6483
338.028	6291
338.115	4826
338.202	4846
338.289	5966
338.376	10616
338.463	7611
338.550	8150
338.637	12210
338.724	5069
338.811	6427
338.898	4390
338.984	3620
339.071	2777
339.158	4668
339.245	5624
339.332	4432
339.419	3550
339.506	5525
339.593	3478
339.679	4390
339.766	3644
339.853	3286
339.940	4454
340.027	4285
340.113	2899
340.200	3772
340.287	3360
340.374	3572
340.460	3392
340.547	3549
340.634	3450
340.720	4848
340.807	4856
340.894	3768
340.980	4484
341.067	4047
341.154	3536
341.240	3278
341.327	4458
341.414	3764
341.500	3760
341.587	3969
341.674	3721
341.760	3645
341.847	3746
341.933	4436
342.020	3285
342.106	3721
342.193	2613
342.279	3734
342.366	3046
342.452	3980
342.539	3268
342.625	3151
342.712	5043
342.798	4175
342.885	2156
342.971	3312
343.058	2770
343.144	3351
343.230	3461
343.317	3859
343.403	3026
343.490	3728
343.576	3079
343.662	3584
343.749	3455
343.835	4222
343.921	3518
344.008	9104
344.094	30601
344.180	11724
344.267	4295
344.353	6420
344.439	8792
344.525	5326
344.612	5383
344.698	6592
344.784	4981
344.870	3532
344.957	3017
345.043	3468
345.129	2849
345.215	3814
345.301	3893
345.387	2774
345.474	2848
345.560	2739
345.646	2717
345.732	2862
345.818	3688
345.904	2904
345.990	3423
346.076	3777
346.162	3423
346.249	3308
346.335	3292
346.421	3568
346.507	3633
346.593	10675
346.679	5475
346.765	4160
346.851	6299
346.937	6530
347.023	3691
347.108	3272
347.194	3023
347.280	3670
347.366	3934
347.452	11309
347.538	23607
347.624	14647
347.710	9741
347.796	4480
347.882	3857
347.967	3980
348.053	4107
348.139	4416
348.225	3151
348.311	3720
348.397	3497
348.482	3166
348.568	3941
348.654	5898
348.740	13588
348.825	22994
348.911	9439
348.997	7246
349.083	13997
349.168	5874
349.254	3708
349.340	2913
349.425	3591
349.511	3358
349.597	4040
349.682	4782
349.768	6724
349.854	6222
349.939	3337
350.025	3274
350.110	3843
350.196	3306
350.282	3447
350.367	3102
350.453	3393
350.538	3670
350.624	3746
350.709	3918
350.795	3887
350.880	3319
350.966	3975
351.051	3680
351.137	3500
351.222	3245
351.308	3741
351.393	5809
351.479	4157
351.564	3738
351.649	3420
351.735	3903
351.820	3495
351.906	3517
351.991	3485
352.076	4158
352.162	5195
352.247	3604
352.332	3699
352.418	4002
352.503	3282
352.588	5798
352.673	6545
352.759	3420
352.844	2811
352.929	2834
353.014	3023
353.100	3267
353.185	2801
353.270	3868
353.355	3944
353.441	3420
353.526	3347
353.611	3093
353.696	3345
353.781	3992
353.866	3458
353.952	2862
354.037	3722
354.122	4214
354.207	3871
354.292	4234
354.377	2940
354.462	2968
354.547	3523
354.632	3233
354.717	3451
354.802	4030
354.887	3615
354.972	2633
355.057	2621
355.142	3086
355.227	3919
355.312	3136
355.397	3561
355.482	5070
355.567	4361
355.652	4422
355.737	4337
355.822	6410
355.907	8336
355.991	3699
356.076	3175
356.161	2945
356.246	3178
356.331	4190
356.416	3877
356.501	10110
356.585	19359
356.670	5582
356.755	4188
356.840	3899
356.924	8187
357.009	28314
357.094	18776
357.179	5194
357.263	4295
357.348	5242
357.433	4575
357.517	4692
357.602	4679
357.687	3958
357.771	4422
357.856	7901
357.941	7341
358.025	6908
358.110	30997
358.195	24962
358.279	5114
358.364	4909
358.448	5385
358.533	10340
358.617	10158
358.702	9047
358.787	6983
358.871	4915
358.956	4723
359.040	4032
359.125	3591
359.209	3801
359.294	4675
359.378	10396
359.462	7763
359.547	4642
359.631	4168
359.716	3675
359.800	4071
359.885	3463
359.969	3850
360.053	4144
360.138	5090
360.222	4153
360.306	4361
360.391	4309
360.475	4303
360.559	9083
360.644	6543
360.728	5484
360.812	6882
360.896	19838
360.981	12046
361.065	6263
361.149	5055
361.233	4136
361.318	4646
361.402	5322
361.486	4816
361.570	4967
361.654	5723
361.739	5804
361.823	10287
361.907	27200
361.991	10707
362.075	8548
362.159	11231
362.243	17844
362.327	38604
362.411	75115
362.495	40030
362.580	16286
362.664	12107
362.748	14426
362.832	19824
362.916	36268
363.000	95703
363.084	183005
363.168	108565
363.252	32696
363.336	16084
363.420	12240
363.503	16153
363.587	26979
363.671	11306
363.755	9236
363.839	10105
363.923	10456
364.007	12851
364.091	17254
364.175	24716
364.258	59085
364.342	117646
364.426	239389
364.510	178996
364.594	53805
364.677	24916
364.761	23688
364.845	24199
364.929	9838
365.013	6977
365.096	7986
365.180	6699
365.264	7522
365.347	24853
365.431	18620
365.515	6182
365.598	5514
365.682	5136
365.766	4963
365.849	7179
365.933	5860
366.017	5630
366.100	5377
366.184	4538
366.267	5776
366.351	5435
366.435	4688
366.518	4125
366.602	4539
366.685	4870
366.769	4021
366.852	5161
366.936	6308
367.019	5239
367.103	4770
367.186	6993
367.270	5142
367.353	4616
367.436	5584
367.520	5602
367.603	6124
367.687	5697
367.770	5901
367.853	5279
367.937	6955
368.020	11664
368.104	5729
368.187	4054
368.270	5589
368.353	5013
368.437	4297
368.520	7564
368.603	6613
368.687	4898
368.770	10769
368.853	5830
368.936	4298
369.020	5491
369.103	4580
369.186	3368
369.269	3584
369.352	4072
369.436	4361
369.519	4539
369.602	3770
369.685	4063
369.768	4187
369.851	4263
369.934	3711
370.018	3661
370.101	3888
370.184	4168
370.267	4682
370.350	3901
370.433	5487
370.516	9423
370.599	33016
370.682	21881
370.765	7907
370.848	7412
370.931	11295
371.014	8756
371.097	4118
371.180	4238
371.263	3962
371.346	4105
371.429	3735
371.511	3710
371.594	4763
371.677	5301
371.760	6367
371.843	5842
371.926	10008
372.009	31807
372.091	18030
372.174	7605
372.257	14706
372.340	10615
372.423	6908
372.505	8268
372.588	6307
372.671	5556
372.754	11333
372.836	10369
372.919	7233
373.002	14895
373.085	8747
373.167	6285
373.250	6700
373.332	12062
373.415	15435
373.498	41068
373.580	24790
373.663	36057
373.746	70592
373.828	17936
373.911	6961
373.993	5563
374.076	11770
374.159	17193
374.241	6954
374.324	10296
374.406	10477
374.489	9616
374.571	29278
374.654	19322
374.736	8426
374.819	17652
374.901	25873
374.983	35854
375.066	13064
375.148	7249
375.231	11077
375.313	24104
375.395	13939
375.478	7696
375.560	6913
375.643	6042
375.725	7847
375.807	20415
375.890	26063
375.972	10798
376.054	6842
376.136	7482
376.219	5769
376.301	6190
376.383	17711
376.465	13137
376.548	5209
376.630	6754
376.712	13558
376.794	11578
376.877	4749
376.959	2962
377.041	3762
377.123	4490
377.205	5883
377.287	4355
377.369	4108
377.452	4117
377.534	4692
377.616	3934
377.698	4722
377.780	3839
377.862	4100
377.944	4735
378.026	3022
378.108	4040
378.190	3604
378.272	3442
378.354	4742
378.436	3333
378.518	3928
378.600	6157
378.682	5834
378.764	6086
378.846	7597
378.928	4225
379.010	4180
379.091	4483
379.173	4385
379.255	3668
379.337	3588
379.419	4620
379.501	9246
379.583	6869
379.664	3539
379.746	4071
379.828	6684
379.910	7944
379.991	9648
380.073	4650
380.155	3985
380.237	3329
380.318	3177
380.400	3491
380.482	4148
380.564	4526
380.645	4225
380.727	5009
380.809	4683
380.890	3814
380.972	3355
381.053	4152
381.135	4224
381.217	4675
381.298	6907
381.380	6185
381.461	4660
381.543	10259
381.624	22060
381.706	7933
381.787	6292
381.869	5684
381.951	7676
382.032	25575
382.113	28302
382.195	7814
382.276	7028
382.358	7793
382.439	14473
382.521	18419
382.602	31468
382.684	20605
382.765	21917
382.846	39911
382.928	108737
383.009	91316
383.090	42844
383.172	113581
383.253	252962
383.334	106800
383.416	40148
383.497	29379
383.578	22080
383.659	35230
383.741	93962
383.822	289351
383.903	229487
383.984	55812
384.066	34574
384.147	24781
384.228	13368
384.309	12207
384.390	11816
384.471	10950
384.553	9609
384.634	8375
384.715	9147
384.796	7937
384.877	7332
384.958	9124
385.039	11831
385.120	8196
385.201	6818
385.282	7055
385.363	8003
385.444	9140
385.525	9752
385.606	13767
385.687	17952
385.768	9600
385.849	8922
385.930	12768
386.011	30935
386.092	16305
386.173	8718
386.254	7384
386.335	7805
386.416	7743
386.496	8100
386.577	10372
386.658	9078
386.739	7361
386.820	7621
386.901	7230
386.981	8249
387.062	9030
387.143	10492
387.224	12490
387.304	16170
387.385	13970
387.466	12425
387.547	13482
387.627	13184
387.708	14038
387.789	18278
387.869	23749
387.950	15993
388.031	10021
388.111	7975
388.192	10473
388.273	10945
388.353	9193
388.434	7836
388.514	6875
388.595	13454
388.676	21632
388.756	12413
388.837	8667
388.917	7685
388.998	5905
389.078	6997
389.159	6476
389.239	4838
389.320	5870
389.400	5643
389.480	6531
389.561	9513
389.641	8579
389.722	6012
389.802	5737
389.883	6657
389.963	11018
390.043	10869
390.124	6648
390.204	6604
390.284	8696
390.365	8876
390.445	8996
390.525	25127
390.605	34667
390.686	11914
390.766	7008
390.846	6417
390.927	5561
391.007	6674
391.087	6243
391.167	6552
391.247	5659
391.328	7264
391.408	8248
391.488	8740
391.568	6590
391.648	7417
391.728	8082
391.808	8225
391.888	8239
391.969	9141
392.049	12533
392.129	12163
392.209	11406
392.289	16360
392.369	16313
392.449	15705
392.529	16591
392.609	16813
392.689	18679
392.769	24445
392.849	30848
392.929	33200
393.009	48159
393.089	65866
393.169	102404
393.248	213908
393.328	485542
393.408	604764
393.488	382586
393.568	164728
393.648	82028
393.728	50430
393.807	35364
393.887	29107
393.967	22649
394.047	20162
394.127	17976
394.206	19658
394.286	29083
394.366	113055
394.446	208922
394.525	73733
394.605	22127
394.685	14844
394.764	15332
394.844	23779
394.924	35954
395.003	19616
395.083	10470
395.163	9629
395.242	8872
395.322	9107
395.402	8314
395.481	9909
395.561	11742
395.640	27020
395.720	63453
395.799	53517
395.879	30259
395.958	21090
396.038	37969
396.117	151698
396.197	267854
396.276	110277
396.356	39034
396.435	30513
396.515	31837
396.594	42899
396.673	74872
396.753	179139
396.832	452683
396.912	480008
396.991	204364
397.070	77120
397.150	41155
397.229	31070
397.308	36599
397.388	92611
397.467	65762
397.546	21394
397.625	12975
397.705	12538
397.784	11020
397.863	9710
397.942	8928
398.022	8523
398.101	9232
398.180	17340
398.259	13706
398.338	7622
398.417	7069
398.497	6781
398.576	5984
398.655	5479
398.734	4759
398.813	5322
398.892	6451
398.971	15537
399.050	14311
399.129	5573
399.208	3590
399.287	4730
399.366	3660
399.445	4801
399.524	4314
399.603	4132
399.682	4414
399.761	5244
399.840	13560
399.919	18781
399.998	6317
400.077	3897
400.156	2693
400.235	4130
400.313	3588
400.392	3461
400.471	4540
400.550	6043
400.629	4146
400.708	4197
400.786	2565
400.865	4951
400.944	4299
401.023	4370
401.102	2987
401.180	3246
401.259	1790
401.338	2347
401.416	2989
401.495	2859
401.574	2808
401.652	3224
401.731	2967
401.810	3256
401.888	2312
401.967	2376
402.046	2115
402.124	3233
402.203	2150
402.281	3306
402.360	2713
402.438	4266
402.517	4882
402.596	3804
402.674	3164
402.753	2542
402.831	2750
402.910	2946
402.988	3154
403.066	7177
403.145	8333
403.223	4314
403.302	6457
403.380	7346
403.459	5928
403.537	4931
403.615	3764
403.694	2956
403.772	3145
403.850	3264
403.929	3214
404.007	2682
404.085	3762
404.164	2795
404.242	3720
404.320	5920
404.398	17214
404.477	24557
404.555	18442
404.633	22957
404.711	16094
404.789	16378
404.868	4627
404.946	3413
405.024	2446
405.102	2410
405.180	1628
405.258	1951
405.336	2436
405.415	1749
405.493	3330
405.571	3679
405.649	2084
405.727	2294
405.805	3064
405.883	3528
405.961	2930
406.039	3391
406.117	1983
406.195	2738
406.273	2520
406.351	10250
406.429	11591
406.507	3979
406.585	2398
406.663	2434
406.740	2250
406.818	2340
406.896	2019
406.974	2890
407.052	1692
407.130	5036
407.208	11145
407.285	5720
407.363	2585
407.441	2543
407.519	2053
407.596	2457
407.674	4372
407.752	23548
407.830	37071
407.907	9229
407.985	2463
408.063	2580
408.141	1669
408.218	2504
408.296	2886
408.373	3620
408.451	3027
408.529	3411
408.606	2745
408.684	3709
408.762	3034
408.839	3932
408.917	3621
408.994	4257
409.072	4365
409.149	5793
409.227	8255
409.304	14147
409.382	17159
409.459	18880
409.537	23470
409.614	25384
409.692	19859
409.769	17570
409.846	21330
409.924	31068
410.001	26372
410.079	18148
410.156	12903
410.233	9800
410.311	7415
410.388	6781
410.465	6003
410.543	6434
410.620	5148
410.697	5804
410.775	5311
410.852	4887
410.929	5690
411.006	6423
411.083	5124
411.161	4830
411.238	5451
411.315	5362
411.392	4319
411.469	4625
411.547	3894
411.624	3222
411.701	2544
411.778	3205
411.855	3193
411.932	3369
412.009	2693
412.086	3009
412.163	2751
412.240	2364
412.317	3155
412.394	3264
412.471	3315
412.548	2298
412.625	1754
412.702	2315
412.779	2865
412.856	2957
412.933	2444
413.010	2585
413.087	2541
413.164	2969
413.241	4150
413.318	2308
413.395	2719
413.471	1684
413.548	2039
413.625	2360
413.702	1514
413.779	2289
413.855	1848
413.932	1768
414.009	934
414.086	2252
414.162	2173
414.239	2548
414.316	2734
414.393	5323
414.469	4203
414.546	1348
414.623	1549
414.699	1125
414.776	1084
414.853	1678
414.929	2353
415.006	1590
415.082	1346
415.159	1985
415.236	1555
415.312	1884
415.389	1704
415.465	1319
415.542	1530
415.618	1167
415.695	2217
415.771	1897
415.848	1591
415.924	1643
416.000	1324
416.077	2331
416.153	981
416.230	1201
416.306	566
416.383	1801
416.459	1714
416.535	1170
416.612	1170
416.688	2069
416.764	1702
416.841	1199
416.917	1833
416.993	1901
417.069	1597
417.146	1601
417.222	2188
417.298	2332
417.374	1772
417.451	1988
417.527	944
417.603	971
417.679	2155
417.755	1879
417.831	648
417.908	992
417.984	1669
418.060	1067
418.136	1639
418.212	1921
418.288	1523
418.364	2840
418.440	1404
418.516	1920
418.592	1514
418.668	1920
418.744	2540
418.820	3249
418.896	1521
418.972	1272
419.048	2275
419.124	2259
419.200	1756
419.276	2312
419.352	1263
419.428	3112
419.504	1651
419.579	2610
419.655	3112
419.731	2584
419.807	2959
419.883	3197
419.959	3426
420.034	3708
420.110	3463
420.186	4270
420.262	6114
420.337	3417
420.413	3514
420.489	3920
420.565	4585
420.640	4649
420.716	5562
420.792	4887
420.867	5482
420.943	5910
421.019	5720
421.094	6139
421.170	7625
421.245	7584
421.321	7798
421.397	8990
421.472	11305
421.548	22956
421.623	27376
421.699	15440
421.774	15092
421.850	16589
421.925	20408
422.001	23701
422.076	27192
422.152	33415
422.227	44256
422.302	60078
422.378	82436
422.453	127167
422.529	199301
422.604	273943
422.679	226129
422.755	222148
422.830	269401
422.905	197507
422.981	129493
423.056	89010
423.131	65327
423.207	48351
423.282	38554
423.357	31300
423.432	26070
423.508	23040
423.583	19374
423.658	17660
423.733	15699
423.808	14148
423.883	13039
423.959	14075
424.034	15571
424.109	16622
424.184	11819
424.259	10266
424.334	8094
424.409	7248
424.484	6434
424.559	5975
424.634	5637
424.709	5952
424.784	5332
424.859	4907
424.934	4584
425.009	4776
425.084	5659
425.159	5033
425.234	3826
425.309	3525
425.384	3065
425.459	5515
425.534	5113
425.609	3331
425.683	2861
425.758	2336
425.833	3006
425.908	3928
425.983	2972
426.058	4960
426.132	4750
426.207	2158
426.282	3723
426.357	2943
426.431	2999
426.506	2967
426.581	2236
426.655	3433
426.730	1756
426.805	1818
426.879	2370
426.954	2381
427.029	1758
427.103	3550
427.178	8696
427.253	8771
427.327	2876
427.402	2054
427.476	4301
427.551	3706
427.625	2828
427.700	2903
427.774	2666
427.849	3111
427.923	2677
427.998	2774
428.072	2597
428.147	5749
428.221	14911
428.296	81131
428.370	99523
428.444	20021
428.519	5759
428.593	4542
428.667	5690
428.742	5929
428.816	8955
428.890	32164
428.965	110722
429.039	55295
429.113	10284
429.188	6297
429.262	3346
429.336	3291
429.410	3312
429.485	3968
429.559	3902
429.633	4765
429.707	4998
429.781	6657
429.855	31641
429.930	100343
430.004	50740
430.078	18397
430.152	30022
430.226	92460
430.300	177561
430.374	66723
430.448	15193
430.522	8105
430.596	14179
430.670	18339
430.744	47182
430.818	116170
430.892	40923
430.966	6626
431.040	3995
431.114	2643
431.188	1411
431.262	1888
431.336	1932
431.410	2274
431.484	2782
431.557	4470
431.631	2469
431.705	3659
431.779	12209
431.853	69017
431.927	108098
432.000	24814
432.074	4171
432.148	2697
432.222	2524
432.295	1527
432.369	1333
432.443	780
432.516	2108
432.590	8087
432.664	7013
432.737	1717
432.811	131
432.885	662
432.958	761
433.032	858
433.106	794
433.179	917
433.253	1135
433.326	438
433.400	905
433.473	1195
433.547	589
433.620	874
433.694	692
433.767	1488
433.841	746
433.914	1243
433.988	1516
434.061	961
434.134	999
434.208	1295
434.281	881
434.355	54
434.428	388
434.501	746
434.575	1352
434.648	664
434.721	-172
434.795	1417
434.868	1069
434.941	803
435.014	1096
435.088	1257
435.161	1657
435.234	3446
435.307	3263
435.381	3376
435.454	5346
435.527	9818
435.600	12746
435.673	12622
435.746	9116
435.819	7392
435.892	5256
435.966	3822
436.039	2571
436.112	2988
436.185	1234
436.258	1885
436.331	1144
436.404	1528
436.477	1149
436.550	1258
436.623	967
436.696	1183
436.769	1064
436.842	663
436.915	744
436.987	1086
437.060	264
437.133	1142
437.206	86
437.279	1645
437.352	992
437.425	521
437.498	780
437.570	1355
437.643	571
437.716	949
437.789	90
437.861	695
437.934	1818
438.007	1613
438.080	406
438.152	797
438.225	913
438.298	1945
438.370	13184
438.443	12755
438.516	2101
438.588	845
438.661	373
438.734	891
438.806	1154
438.879	1294
438.951	894
439.024	1446
439.096	207
439.169	744
439.241	314
439.314	398
439.386	991
439.459	1089
439.531	781
439.604	1232
439.676	929
439.749	608
439.821	602
439.893	750
439.966	303
440.038	545
440.110	1410
440.183	614
440.255	-366
440.327	1149
440.400	1457
440.472	4888
440.544	8339
440.617	2255
440.689	2019
440.761	1207
440.833	1312
440.905	1928
440.978	1127
441.050	1158
441.122	1313
441.194	1054
441.266	1036
441.338	550
441.411	1624
441.483	1918
441.555	3765
441.627	3106
441.699	1492
441.771	1702
441.843	1811
441.915	2662
441.987	1851
442.059	2427
442.131	2778
442.203	3375
442.275	4351
442.347	6447
442.419	11201
442.491	38566
442.563	151430
442.635	132097
442.706	30881
442.778	11706
442.850	6064
442.922	5454
442.994	4914
443.066	5041
443.137	5743
443.209	7135
443.281	10678
443.353	19040
443.425	49505
443.496	177605
443.568	288959
443.640	194715
443.711	55998
443.783	18185
443.855	10144
443.926	6804
443.998	5290
444.070	4158
444.141	4021
444.213	4477
444.285	3185
444.356	4139
444.428	2127
444.499	2804
444.571	2494
444.642	3030
444.714	3387
444.785	3722
444.857	3849
444.928	4652
445.000	5806
445.071	6534
445.143	8911
445.214	11097
445.285	17519
445.357	35431
445.428	100781
445.500	263161
445.571	272107
445.642	217867
445.714	102963
445.785	34624
445.856	12989
445.928	8359
445.999	6204
446.070	4510
446.141	4021
446.213	3330
446.284	2345
446.355	2101
446.426	2119
446.497	2136
446.569	1430
446.640	1992
446.711	1511
446.782	1962
446.853	521
446.924	1249
446.995	1194
447.066	1991
447.138	1374
447.209	1727
447.280	538
447.351	778
447.422	380
447.493	207
447.564	550
447.635	258
447.706	828
447.777	-387
447.847	305
447.918	-19
447.989	465
448.060	1092
448.131	955
448.202	1494
448.273	825
448.344	583
448.414	543
448.485	117
448.556	746
448.627	51
448.698	623
448.768	736
448.839	103
448.910	209
448.981	755
449.051	730
449.122	498
449.193	209
449.263	267
449.334	-148
449.405	503
449.475	728
449.546	858
449.616	412
449.687	1934
449.758	1134
449.828	167
449.899	653
449.969	-75
450.040	827
450.110	543
450.181	811
450.251	-120
450.322	903
450.392	524
450.463	517
450.533	25
450.604	1314
450.674	-515
450.744	469
450.815	1411
450.885	2081
450.955	496
451.026	1256
451.096	982
451.166	1010
451.237	1822
451.307	3853
451.377	2197
451.447	1506
451.518	983
451.588	693
451.658	1082
451.728	539
451.799	877
451.869	3387
451.939	1433
452.009	488
452.079	466
452.149	1081
452.219	854
452.289	1995
452.360	3669
452.430	2139
452.500	1879
452.570	3172
452.640	6413
452.710	18131
452.780	33198
452.850	24446
452.920	9621
452.990	5597
453.060	3606
453.129	1811
453.199	1776
453.269	1911
453.339	8036
453.409	14194
453.479	7852
453.549	12504
453.619	14291
453.688	9657
453.758	2296
453.828	908
453.898	824
453.968	270
454.037	464
454.087	782
454.107	904
454.168	819
454.177	793
454.247	493
454.249	505
454.316	507
454.330	554
454.386	705
454.411	726
454.456	699
454.492	1415
454.525	2042
454.574	1657
454.595	1469
454.655	559
454.665	401
454.734	1154
454.736	1168
454.804	1256
454.817	1368
454.873	1703
454.898	2296
454.943	3266
454.979	2362
455.013	1534
455.060	1074
455.082	891
455.141	1256
455.152	1316
455.221	1814
455.222	1859
455.291	4180
455.303	4401
455.360	5082
455.384	7694
455.430	11542
455.465	12070
455.499	12723
455.546	6814
455.569	4068
455.627	3115
455.638	2955
455.707	1823
455.708	1832
455.777	1368
455.789	1324
455.846	1024
455.869	918
455.916	701
455.950	990
455.985	1238
456.031	1354
456.054	1401
456.112	1390
456.124	1368
456.193	1456
456.193	1445
456.262	1145
456.274	1179
456.332	1419
456.355	1436
456.401	1331
456.436	1540
456.470	1636
456.516	1664
456.540	1741
456.597	1427
456.609	1339
456.678	1577
456.678	1565
456.747	2093
456.759	2019
456.817	1660
456.840	1648
456.886	1599
456.920	1562
456.955	1598
457.001	2143
457.024	2382
457.082	2097
457.093	1979
457.162	2070
457.163	2083
457.232	2535
457.243	2570
457.301	2636
457.324	2502
457.370	2315
457.405	2853
457.439	3277
457.485	3097
457.508	3130
457.566	3781
457.577	3963
457.646	5535
457.647	5568
457.715	10984
457.727	12135
457.784	22927
457.808	29578
457.853	37703
457.889	53088
457.922	57138
457.969	43786
457.991	45892
458.050	41873
458.060	42219
458.129	65131
458.130	66317
458.198	81915
458.211	79324
458.267	62729
458.292	44426
458.336	25024
458.372	19775
458.405	20093
458.453	25638
458.474	34014
458.533	64585
458.543	67398
458.611	109517
458.614	111583
458.680	101046
458.694	85080
458.749	49356
458.775	34511
458.818	16779
458.855	11890
458.887	8514
458.936	6669
458.955	5966
459.016	4721
459.024	4601
459.093	4387
459.097	4366
459.162	3585
459.177	3638
459.230	4189
459.257	4163
459.299	3898
459.338	3796
459.368	3815
459.418	3515
459.437	3312
459.499	3169
459.505	3162
459.574	3587
459.579	3595
459.643	3723
459.659	3654
459.711	3384
459.740	3375
459.780	3371
459.820	3478
459.849	3522
459.900	3705
459.917	3753
459.981	3420
459.986	3394
460.054	3800
460.061	3794
460.123	3654
460.141	3604
460.191	3562
460.222	3716
460.260	3859
460.302	4003
460.328	4135
460.382	4261
460.397	4312
460.462	4776
460.465	4845
460.534	6459
460.543	6628
460.602	17799
460.623	22084
460.671	39049
460.703	52844
460.739	49018
460.783	49401
460.808	44971
460.864	15841
460.876	14004
460.944	4847
460.945	4738
461.013	3398
461.024	3389
461.081	3965
461.104	4051
461.150	3569
461.184	3072
461.218	3100
461.264	3360
461.286	3398
461.345	3426
461.355	3340
461.423	3471
461.425	3449
461.491	3063
461.505	3094
461.559	3285
461.585	3314
461.628	3915
461.665	4791
461.696	5439
461.745	6236
461.764	5717
461.825	3923
461.832	3973
461.901	3861
461.905	3891
461.969	3733
461.985	3696
462.037	3754
462.065	3692
462.105	3388
462.145	3150
462.173	3485
462.225	4150
462.241	4214
462.305	4720
462.310	4718
462.378	4681
462.385	4610
462.446	4156
462.465	4116
462.514	3931
462.545	3829
462.582	3760
462.625	3459
462.650	3444
462.705	3733
462.718	3802
462.785	3959
462.786	3953
462.854	3371
462.865	3343
462.922	3953
462.945	4217
462.990	4474
463.025	4419
463.058	4216
463.104	3942
463.126	3685
463.184	3266
463.194	3417
463.262	4240
463.264	4279
463.330	3983
463.344	3789
463.398	4114
463.424	4405
463.466	4205
463.504	3976
463.533	4156
463.583	4514
463.601	4413
463.663	3878
463.669	3852
463.737	3573
463.743	3566
463.805	4135
463.823	4253
463.873	5164
463.903	5785
463.940	6272
463.982	6684
464.008	5939
464.062	4453
464.076	4571
464.142	4641
464.144	4641
464.211	4828
464.221	4851
464.279	3931
464.301	3538
464.347	3408
464.381	3361
464.414	3493
464.461	3678
464.482	4033
464.540	4818
464.550	4727
464.617	4242
464.620	4218
464.685	4627
464.699	4701
464.753	5075
464.779	5314
464.820	5859
464.859	6220
464.888	5958
464.938	5709
464.956	5915
465.018	6274
465.023	6200
465.091	5346
465.098	5244
465.158	5172
465.177	5159
465.226	5578
465.257	5759
465.293	5550
465.336	5421
465.361	5474
465.416	5398
465.428	5421
465.495	5729
465.496	5744
465.563	6710
465.575	6903
465.631	7730
465.654	8114
465.698	6935
465.734	5853
465.765	5816
465.813	5585
465.833	5444
465.893	5181
465.900	5245
465.968	5747
465.972	5767
466.035	5203
466.052	5056
466.102	5291
466.131	5416
466.170	5105
466.210	4769
466.237	5159
466.290	5837
466.304	5658
466.369	4815
466.372	4842
466.439	5499
466.449	5572
466.506	5391
466.528	5311
466.573	5894
466.607	6278
466.641	6798
466.687	7623
466.708	8218
466.766	9715
466.775	9253
466.842	5717
466.845	5538
466.909	5784
466.925	5843
466.977	5974
467.004	6022
467.044	6330
467.083	6637
467.111	7026
467.163	7706
467.178	7853
467.242	8421
467.245	8416
467.312	8018
467.321	7953
467.379	7031
467.400	6675
467.446	7147
467.480	7472
467.559	7729
467.638	7568
467.717	7259
467.796	7260
467.875	7802
467.955	7845
468.034	8201
468.113	11356
468.192	15201
468.271	12934
468.350	15374
468.429	21944
468.508	26575
468.588	17569
468.667	10722
468.746	9971
468.825	8679
468.904	7607
468.983	7335
469.062	7194
469.141	8580
469.220	6283
469.299	6322
469.378	7126
469.456	8523
469.535	7648
469.614	7678
469.693	6653
469.772	7265
469.851	7863
469.930	7736
470.009	7398
470.088	7160
470.166	7918
470.245	9981
470.324	11584
470.403	9244
470.482	7431
470.560	6898
470.639	6654
470.718	6856
470.797	7208
470.875	6845
470.954	6863
471.033	7516
471.111	5951
471.190	6076
471.269	6921
471.347	6694
471.426	6685
471.505	6247
471.583	7578
471.662	7115
471.740	7372
471.819	6615
471.898	6127
471.976	7779
472.055	6757
472.133	6142
472.212	7833
472.290	7280
472.369	6571
472.447	5851
472.526	6135
472.604	7537
472.683	6298
472.761	6206
472.839	5299
472.918	6709
472.996	6086
473.075	7035
473.153	6450
473.231	6200
473.310	6505
473.388	6608
473.466	6626
473.545	7615
473.623	7045
473.701	8001
473.780	7243
473.858	6659
473.936	7591
474.014	6477
474.093	7300
474.171	7334
474.249	8868
474.327	6682
474.405	6898
474.484	6671
474.562	6133
474.640	5297
474.718	6227
474.796	5734
474.874	6238
474.952	6252
475.030	5573
475.108	5778
475.187	5979
475.265	5982
475.343	5576
475.421	6925
475.499	5695
475.577	6650
475.655	6599
475.733	7380
475.811	8902
475.889	8501
475.966	8426
476.044	6364
476.122	5657
476.200	6245
476.278	6580
476.356	5717
476.434	5911
476.512	5971
476.590	6594
476.667	6477
476.745	5376
476.823	6400
476.901	5918
476.979	5917
477.056	6399
477.134	6312
477.212	5666
477.290	5940
477.367	5823
477.445	6061
477.523	6509
477.601	5550
477.678	5841
477.756	5770
477.834	5605
477.911	5709
477.989	5789
478.066	5154
478.144	5397
478.222	6429
478.299	5436
478.377	6118
478.454	6552
478.532	5666
478.609	4756
478.687	5685
478.764	6100
478.842	5828
478.919	5870
478.997	5601
479.074	5528
479.152	5577
479.229	5630
479.307	5273
479.384	4795
479.461	5307
479.539	5808
479.616	4816
479.694	5302
479.771	5677
479.848	5541
479.926	5448
480.003	5927
480.080	5581
480.157	5778
480.235	5602
480.312	5917
480.389	6721
480.467	5901
480.544	6480
480.621	6096
480.698	6601
480.775	6691
480.853	5859
480.930	5714
481.007	5321
481.084	6735
481.161	9081
481.238	7612
481.315	5835
481.392	4912
481.470	5513
481.547	6600
481.624	5748
481.701	5423
481.778	5790
481.855	5811
481.932	7033
482.009	9203
482.086	7763
482.163	7746
482.240	8915
482.317	9184
482.393	7570
482.470	6954
482.547	7287
482.624	7070
482.701	6494
482.778	6191
482.855	6167
482.932	6754
483.009	7094
483.085	7230
483.162	9407
483.239	9956
483.316	8594
483.393	9255
483.469	7478
483.546	7060
483.623	6568
483.699	5932
483.776	6354
483.853	5422
483.930	6440
484.006	7538
484.083	12264
484.160	12516
484.236	19651
484.313	16851
484.389	13682
484.466	12777
484.543	15055
484.619	16053
484.696	19369
484.772	15388
484.849	12547
484.925	12055
485.002	11630
485.078	11079
485.155	9788
485.231	10121
485.308	10749
485.384	9703
485.461	9894
485.537	11307
485.614	12362
485.690	9415
485.766	9264
485.843	9183
485.919	8891
485.995	9760
486.072	8964
486.148	9019
486.224	9396
486.301	9658
486.377	9248
486.453	9198
486.530	9960
486.606	12731
486.682	14242
486.758	12723
486.835	12889
486.911	11724
486.987	14396
487.063	12910
487.139	12335
487.215	14739
487.292	13961
487.368	14026
487.444	17141
487.520	23088
487.596	33324
487.672	62479
487.748	201393
487.824	396461
487.900	158884
487.976	38673
488.052	21889
488.128	16079
488.204	13432
488.280	12028
488.356	11202
488.432	12406
488.508	15140
488.584	10423
488.660	9555
488.736	8984
488.812	7629
488.888	9016
488.964	9967
489.039	9668
489.115	10902
489.191	11178
489.267	8824
489.343	8215
489.418	8083
489.494	7920
489.570	7909
489.646	8267
489.722	7716
489.797	7980
489.873	8589
489.949	11428
490.024	11577
490.100	8635
490.176	7818
490.251	7630
490.327	7877
490.403	7819
490.478	7900
490.554	7404
490.629	7169
490.705	6726
490.781	7834
490.856	6382
490.932	7974
491.007	7332
491.083	7129
491.158	6761
491.234	7428
491.309	8979
491.385	8886
491.460	6422
491.536	6404
491.611	5939
491.686	6739
491.762	7235
491.837	6348
491.913	8526
491.988	8536
492.063	10372
492.139	8068
492.214	6508
492.289	5984
492.365	5241
492.440	6474
492.515	6244
492.590	6242
492.666	5461
492.741	6297
492.816	6960
492.891	5494
492.967	6869
493.042	5939
493.117	6559
493.192	6299
493.267	8370
493.342	19639
493.418	38330
493.493	11455
493.568	6334
493.643	5441
493.718	6129
493.793	5286
493.868	6563
493.943	5366
494.018	6050
494.093	5306
494.168	5629
494.243	5191
494.318	5102
494.393	4595
494.468	5081
494.543	5133
494.618	5381
494.693	5055
494.768	5276
494.842	5404
494.917	5080
494.992	5132
495.067	4892
495.142	5407
495.217	5310
495.292	4981
495.366	4681
495.441	5106
495.516	5297
495.591	5693
495.665	6995
495.740	11339
495.815	8170
495.890	5737
495.964	5339
496.039	6698
496.114	5849
496.188	8549
496.263	8339
496.338	5694
496.412	5758
496.487	5831
496.561	5922
496.636	5364
496.710	6297
496.785	5821
496.860	5945
496.934	5227
497.009	4805
497.083	5150
497.158	5927
497.232	6510
497.307	6196
497.381	5122
497.455	5836
497.530	6504
497.604	5607
497.679	5528
497.753	6051
497.827	7234
497.902	6548
497.976	7523
498.050	11970
498.125	39368
498.199	57015
498.273	10564
498.348	6119
498.422	6497
498.496	6120
498.570	5966
498.645	5659
498.719	6061
498.793	5457
498.867	6439
498.941	8355
499.016	15673
499.090	47119
499.164	26422
499.238	5750
499.312	5864
499.386	5946
499.460	6123
499.534	5703
499.609	7072
499.683	7925
499.757	6730
499.831	8521
499.905	26680
499.979	36700
500.053	7738
500.127	6221
500.201	6101
500.275	5109
500.349	6007
500.422	5978
500.496	7450
500.570	7301
500.644	15072
500.718	35015
500.792	13201
500.866	5304
500.940	5329
501.013	5541
501.087	4599
501.161	5116
501.235	6464
501.309	9875
501.382	22171
501.456	28246
501.530	7863
501.603	9815
501.677	7307
501.751	4086
501.825	4869
501.898	6200
501.972	11146
502.046	9942
502.119	5093
502.193	6381
502.266	11642
502.340	8692
502.413	6096
502.487	10985
502.561	7846
502.634	4769
502.708	4905
502.781	5232
502.855	4805
502.928	4405
503.002	4321
503.075	4137
503.149	4316
503.222	4527
503.295	4455
503.369	5562
503.442	5468
503.516	8082
503.589	19192
503.662	17208
503.736	10209
503.809	15804
503.882	18918
503.956	24424
504.029	43125
504.102	106106
504.175	214190
504.249	95634
504.322	28568
504.395	15041
504.468	10408
504.542	6967
504.615	5919
504.688	5607
504.761	4343
504.834	5303
504.907	4738
504.980	4191
505.053	4165
505.127	2810
505.200	4886
505.273	3923
505.346	3475
505.419	3671
505.492	4116
505.565	3660
505.638	4715
505.711	3251
505.784	3694
505.857	2668
505.930	3688
506.003	2692
506.076	4638
506.149	3134
506.221	4138
506.294	3952
506.367	4706
506.440	13569
506.513	10655
506.586	4511
506.659	3238
506.731	3195
506.804	2845
506.877	3091
506.950	2955
507.022	3020
507.095	3275
507.168	3188
507.241	3348
507.313	3164
507.386	2596
507.459	3728
507.531	3287
507.604	3217
507.677	3794
507.749	2041
507.822	3104
507.894	5467
507.967	7676
508.040	5810
508.112	5421
508.185	4614
508.257	4461
508.330	4371
508.402	3842
508.475	4348
508.547	4432
508.620	4168
508.692	5046
508.765	3736
508.837	4032
508.909	4386
508.982	3832
509.054	4233
509.127	4291
509.199	4576
509.271	3550
509.344	4359
509.416	3701
509.488	3222
509.560	4273
509.633	3967
509.705	4392
509.777	4745
509.849	5363
509.922	4261
509.994	4336
510.066	4848
510.138	5285
510.210	8087
510.283	7708
510.355	5995
510.427	4962
510.499	5057
510.571	4604
510.643	4988
510.715	5909
510.787	4783
510.859	4939
510.931	4591
511.003	5541
511.076	4119
511.148	4830
511.219	4939
511.291	5754
511.363	6027
511.435	4556
511.507	3810
511.579	4771
511.651	4560
511.723	5096
511.795	4152
511.867	5254
511.939	4237
512.010	4231
512.082	5692
512.154	4401
512.226	4937
512.298	5572
512.369	7578
512.441	6527
512.513	5579
512.585	5250
512.656	4875
512.728	5423
512.800	5159
512.871	4647
512.943	4580
513.015	4859
513.086	4997
513.158	4976
513.230	4627
513.301	5160
513.373	5782
513.444	4548
513.516	4668
513.588	5393
513.659	3773
513.731	4812
513.802	3973
513.874	4616
513.945	5376
514.016	5264
514.088	4804
514.159	5022
514.231	4449
514.302	6530
514.374	6578
514.445	5846
514.516	7246
514.588	6512
514.659	5119
514.730	5572
514.802	5389
514.873	3871
514.944	5621
515.016	5023
515.087	3503
515.158	5381
515.229	6132
515.301	4592
515.372	5171
515.443	4691
515.514	5143
515.585	4401
515.656	5405
515.728	4884
515.799	4966
515.870	5470
515.941	5959
516.012	4965
516.083	6109
516.154	6228
516.225	6966
516.296	6632
516.367	6840
516.438	7500
516.509	8990
516.580	11632
516.651	24691
516.722	103344
516.793	71550
516.864	13037
516.935	11831
517.006	13953
517.077	16284
517.148	29666
517.219	111109
517.289	288189
517.360	66004
517.431	17361
517.502	8382
517.573	7849
517.643	6778
517.714	7775
517.785	8602
517.856	8171
517.926	10371
517.997	12068
518.068	15837
518.138	21554
518.209	30190
518.280	77634
518.350	354627
518.421	236648
518.492	31728
518.562	23541
518.633	27900
518.703	37743
518.774	71735
518.845	201517
518.915	280855
518.986	83850
519.056	29222
519.127	17551
519.197	15228
519.268	19137
519.338	18428
519.408	8561
519.479	8053
519.549	6524
519.620	7371
519.690	5843
519.760	5785
519.831	5515
519.901	4698
519.971	5408
520.042	4891
520.112	4660
520.182	5951
520.253	5349
520.323	4921
520.393	5015
520.463	6421
520.534	4803
520.604	7412
520.674	5832
520.744	4193
520.814	7019
520.885	8076
520.955	7741
521.025	16755
521.095	13564
521.165	5535
521.235	4298
521.305	4306
521.375	3880
521.445	5020
521.515	4317
521.585	4897
521.655	4130
521.725	4606
521.795	5130
521.865	4348
521.935	5010
522.005	5021
522.075	4912
522.145	4358
522.215	4207
522.285	4979
522.355	4925
522.424	7113
522.494	7008
522.564	5705
522.634	4784
522.704	7621
522.774	5475
522.843	4341
522.913	4435
522.983	5113
523.053	4731
523.122	4888
523.192	4440
523.262	5114
523.331	6187
523.401	5327
523.471	4676
523.540	4324
523.610	4242
523.680	5263
523.749	4640
523.819	5492
523.888	5737
523.958	5025
524.027	4673
524.097	4837
524.166	4749
524.236	4318
524.305	5390
524.375	4234
524.444	4624
524.514	5757
524.583	5064
524.653	5554
524.722	5993
524.791	5850
524.861	4331
524.930	5106
524.999	5210
525.069	5674
525.138	5291
525.207	5274
525.277	6456
525.346	5649
525.415	5882
525.484	7206
525.554	7253
525.623	8795
525.692	11224
525.761	13150
525.830	17167
525.900	23926
525.969	36188
526.038	71026
526.107	120370
526.176	403019
526.245	461100
526.314	129435
526.383	171469
526.452	348196
526.522	351654
526.591	533504
526.660	93959
526.729	41687
526.797	46192
526.867	59577
526.935	134022
527.004	548575
527.073	612694
527.142	80668
527.211	25968
527.280	16850
527.349	12602
527.418	9547
527.487	8996
527.555	6510
527.624	6592
527.693	6182
527.762	7724
527.831	5620
527.899	5960
527.968	5939
528.037	4977
528.106	5802
528.174	4841
528.243	5458
528.312	5500
528.380	5867
528.449	4493
528.518	5232
528.586	4753
528.655	6103
528.723	4737
528.792	4535
528.861	5730
528.929	4894
528.998	5752
529.066	5757
529.135	10813
529.203	9483
529.272	11506
529.340	15503
529.409	14428
529.477	12444
529.545	12437
529.614	14035
529.682	14924
529.751	17628
529.819	18616
529.887	20267
529.956	19275
530.024	18161
530.092	17240
530.161	17665
530.229	16625
530.297	18975
530.365	19443
530.434	19218
530.502	20625
530.570	18950
530.638	15163
530.707	15914
530.775	15819
530.843	14739
530.911	17491
530.979	16723
531.047	18098
531.115	19760
531.183	16524
531.252	15274
531.320	16023
531.388	15438
531.456	17363
531.524	18310
531.592	19445
531.660	22217
531.728	20500
531.796	19330
531.864	19278
531.932	18218
532.000	18442
532.067	19846
532.135	21511
532.203	22150
532.271	25441
532.339	22781
532.407	23145
532.475	23115
532.542	21363
532.610	21200
532.678	20413
532.746	25209
532.814	29935
532.881	26917
532.949	22945
533.017	21314
533.084	20893
533.152	19817
533.220	20450
533.287	20178
533.355	21307
533.423	21185
533.490	21436
533.558	20901
533.625	20425
533.693	19457
533.761	19747
533.828	18835
533.896	19049
533.963	21567
534.031	22226
534.098	23560
534.166	23146
534.233	22035
534.300	22499
534.368	23157
534.435	20678
534.503	22380
534.570	24180
534.637	26389
534.705	29182
534.772	34106
534.840	46828
534.907	142608
534.974	321208
535.041	65239
535.109	24682
535.176	19978
535.243	18618
535.310	20031
535.378	19204
535.445	18267
535.512	18337
535.579	17126
535.646	16753
535.714	17302
535.781	18109
535.848	19082
535.915	18779
535.982	19518
536.049	18413
536.116	19092
536.183	15766
536.250	15973
536.317	15947
536.384	16345
536.451	16618
536.518	16906
536.585	16674
536.652	18159
536.719	16867
536.786	15440
536.853	15634
536.920	15296
536.987	15866
537.053	15051
537.120	17398
537.187	19646
537.254	17013
537.321	16374
537.388	17319
537.454	15910
537.521	15149
537.588	15468
537.654	15624
537.721	16547
537.788	17185
537.855	15308
537.921	15847
537.988	15234
538.055	14693
538.121	14824
538.188	13247
538.254	12647
538.321	13585
538.388	13660
538.454	15612
538.521	15534
538.587	15622
538.654	15689
538.720	14620
538.787	13889
538.853	14951
538.920	14356
538.986	13291
539.053	12640
539.119	13774
539.185	13291
539.252	13465
539.318	15063
539.385	16784
539.451	15452
539.517	15541
539.583	15320
539.650	15225
539.716	15875
539.782	14063
539.849	13336
539.915	13723
539.981	14014
540.047	14004
540.114	12710
540.180	14072
540.246	14512
540.312	15348
540.378	14253
540.444	15994
540.510	14950
540.576	17342
540.643	15791
540.709	13313
540.775	14192
540.841	13783
540.907	13944
540.973	14590
541.039	14395
541.105	15477
541.171	14119
541.237	15317
541.303	15240
541.369	15040
541.435	14734
541.500	15788
541.566	12482
541.632	13668
541.698	12809
541.764	14948
541.830	13716
541.896	13680
541.961	13617
542.027	14315
542.093	13938
542.159	14839
542.224	14483
542.290	14860
542.356	14036
542.421	14858
542.487	13969
542.553	13379
542.618	13698
542.684	13974
542.750	13286
542.815	13819
542.881	13906
542.947	14382
543.012	16629
543.078	13828
543.143	12658
543.209	13386
543.274	13019
543.340	13877
543.405	14190
543.471	14989
543.536	15093
543.602	13990
543.667	13321
543.732	14802
543.798	13844
543.863	14217
543.928	13280
543.994	13897
544.059	14159
544.124	14517
544.190	15168
544.255	15311
544.320	14921
544.386	15208
544.451	16001
544.516	15996
544.581	14781
544.646	16535
544.712	19500
544.777	16623
544.842	16801
544.907	15362
544.972	15641
545.037	16980
545.102	17151
545.168	16961
545.233	17009
545.298	17832
545.363	18039
545.428	18783
545.493	18307
545.558	18723
545.623	18946
545.688	17330
545.753	17931
545.818	20290
545.883	20683
545.947	20865
546.012	23050
546.077	21982
546.142	23663
546.207	24170
546.272	25131
546.337	26156
546.401	26653
546.466	28937
546.531	28400
546.596	30678
546.661	32240
546.725	34357
546.790	36107
546.855	38512
546.919	41536
546.984	47144
547.049	50170
547.113	56515
547.178	63081
547.243	71536
547.307	82114
547.372	92666
547.436	93831
547.501	98085
547.565	106753
547.630	100692
547.695	92924
547.759	94239
547.823	96342
547.888	96956
547.952	100481
548.017	102951
548.081	106442
548.146	106351
548.210	107260
548.274	114120
548.339	117090
548.403	107427
548.468	100391
548.532	97817
548.596	99942
548.660	100738
548.725	107812
548.789	117133
548.853	118668
548.917	111431
548.982	109688
549.046	101683
549.110	90290
549.174	89842
549.238	100799
549.303	114592
549.367	119783
549.431	116567
549.495	109475
549.559	107714
549.623	118124
549.687	138684
549.751	131778
549.815	151125
549.879	164944
549.943	156671
550.007	160366
550.071	163009
550.135	149890
550.199	137731
550.263	139543
550.327	132191
550.391	129564
550.455	143385
550.519	154900
550.582	162036
550.646	178125
550.710	186912
550.774	185866
550.838	185740
550.901	190542
550.965	199141
551.029	209150
551.093	220225
551.156	233579
551.220	252695
551.284	286379
551.347	249951
551.411	209742
551.475	199521
551.538	202230
551.602	200773
551.666	184907
551.729	178585
551.793	171134
551.856	170582
551.920	166896
551.983	168252
552.047	165381
552.110	163570
552.174	165477
552.237	172273
552.301	166255
552.364	154261
552.428	152063
552.491	152443
552.554	158565
552.618	156415
552.681	159999
552.745	156536
552.808	155338
552.871	169206
552.934	165600
552.998	161373
553.061	157917
553.124	154831
553.187	148816
553.251	156491
553.314	157074
553.377	157846
553.440	167094
553.503	182144
553.567	206812
553.630	180096
553.693	170960
553.756	172140
553.819	171969
553.882	169102
553.945	165315
554.008	169426
554.071	167271
554.134	171371
554.197	166348
554.260	162769
554.323	163989
554.386	164365
554.449	168554
554.512	172273
554.575	165744
554.638	163330
554.701	160980
554.764	162186
554.827	155764
554.889	150908
554.952	146179
555.015	138454
555.078	140691
555.141	143512
555.203	140340
555.266	139554
555.329	140286
555.391	135621
555.454	133996
555.517	127212
555.580	123857
555.642	118842
555.705	117227
555.768	116267
555.830	114582
555.893	106564
555.955	104352
556.018	102808
556.080	100552
556.143	104668
556.206	104077
556.268	100976
556.330	99478
556.393	96722
556.455	95090
556.518	92655
556.580	90071
556.643	85853
556.705	83119
556.767	81449
556.830	81457
556.892	79250
556.955	76827
557.017	76824
557.079	75214
557.142	71120
557.204	70377
557.266	70751
557.328	67766
557.391	63382
557.453	62339
557.515	60566
557.577	61192
557.639	60374
557.701	61479
557.764	60057
557.826	60201
557.888	63037
557.950	65200
558.012	68759
558.074	78985
558.136	115192
558.198	309463
558.260	210661
558.322	65505
558.384	61643
558.446	64449
558.508	68139
558.570	76360
558.632	88493
558.694	109027
558.756	152083
558.818	299893
558.880	851338
558.942	539367
559.003	321729
559.065	266238
559.127	87047
559.189	77612
559.251	82822
559.312	105534
559.374	176150
559.436	546135
559.498	530124
559.559	113029
559.621	78660
559.683	82346
559.744	110346
559.806	246221
559.868	573608
559.929	214984
559.991	84112
560.052	101883
560.114	258719
560.176	288075
560.237	141955
560.299	307849
560.360	130264
560.422	38077
560.483	31800
560.545	29316
560.606	27776
560.667	26756
560.729	26168
560.790	25174
560.852	24164
560.913	23828
560.974	23199
561.036	22395
561.097	22789
561.158	22634
561.220	22182
561.281	21325
561.342	21397
561.403	21336
561.465	20899
561.526	21204
561.587	21368
561.648	19879
561.709	19767
561.771	19409
561.832	20093
561.893	18167
561.954	18745
562.015	18499
562.076	18476
562.137	18003
562.198	17730
562.259	17557
562.320	17595
562.381	18194
562.442	17709
562.503	17388
562.564	16849
562.625	16183
562.686	16777
562.747	15509
562.808	16046
562.869	16558
562.930	15862
562.991	15115
563.051	15355
563.112	14482
563.173	15742
563.234	14327
563.294	14648
563.355	13671
563.416	14855
563.477	15023
563.537	14413
563.598	14782
563.659	14262
563.720	14397
563.780	14412
563.841	13558
563.901	13649
563.962	13795
564.023	12559
564.083	13875
564.144	13407
564.204	13802
564.265	13267
564.325	13606
564.386	13801
564.446	14279
564.507	13197
564.567	12949
564.628	13124
564.688	12632
564.749	12708
564.809	13500
564.869	12768
564.930	12964
564.990	12721
565.050	11951
565.111	13076
565.171	13297
565.231	12976
565.292	13574
565.352	11779
565.412	12651
565.472	12680
565.532	12712
565.593	12068
565.653	11688
565.713	11863
565.773	12707
565.833	12631
565.893	14087
565.953	12447
566.013	11744
566.074	12183
566.134	11861
566.194	12404
566.254	12887
566.314	12255
566.374	11680
566.434	11634
566.494	11493
566.554	11113
566.614	11937
566.673	12786
566.733	12482
566.793	12364
566.853	12710
566.913	12843
566.973	12281
567.033	12867
567.092	12010
567.152	12833
567.212	12979
567.272	12786
567.331	13640
567.391	13184
567.451	13173
567.511	14264
567.570	13315
567.630	12894
567.690	12849
567.749	12737
567.809	12351
567.868	13099
567.928	11994
567.988	11957
568.047	12662
568.107	13261
568.166	13717
568.226	12697
568.285	14982
568.345	14443
568.404	14088
568.464	14072
568.523	12917
568.582	13906
568.642	12748
568.701	14189
568.761	13724
568.820	14650
568.879	17000
568.939	14743
568.998	14398
569.057	13366
569.116	13444
569.176	12302
569.235	12692
569.294	12804
569.353	12310
569.413	12307
569.472	11183
569.531	12269
569.590	11670
569.649	11878
569.708	11294
569.767	12226
569.827	12455
569.886	11452
569.945	12379
570.004	12178
570.063	12485
570.122	12736
570.181	12654
570.240	13035
570.299	13223
570.358	13370
570.417	12276
570.475	12696
570.534	13171
570.593	13590
570.652	12713
570.711	12335
570.770	12800
570.829	13257
570.887	11594
570.946	12907
571.005	12938
571.064	12792
571.122	13064
571.181	13254
571.240	12622
571.299	12549
571.357	12150
571.416	11987
571.475	11819
571.533	13150
571.592	12988
571.650	13950
571.709	12924
571.768	15129
571.826	16000
571.885	14314
571.943	13756
572.002	11992
572.060	12405
572.119	12918
572.177	11636
572.236	12007
572.294	12818
572.352	13538
572.411	13164
572.469	12684
572.528	12385
572.586	12847
572.644	12381
572.703	13003
572.761	11335
572.819	11708
572.877	11670
572.936	11135
572.994	11797
573.052	10947
573.110	10569
573.169	12828
573.227	11754
573.285	11680
573.343	11798
573.401	11978
573.459	11961
573.517	11700
573.576	12565
573.634	11978
573.692	11054
573.750	12908
573.808	11790
573.866	11493
573.924	11560
573.982	11064
574.040	11801
574.098	11305
574.155	10860
574.213	11032
574.271	10564
574.329	12245
574.387	11751
574.445	10439
574.503	10034
574.560	9483
574.618	9671
574.676	10256
574.734	9714
574.792	10644
574.849	9720
574.907	9221
574.965	9403
575.022	8355
575.080	8891
575.138	9309
575.195	8507
575.253	8664
575.311	8275
575.368	8675
575.426	7751
575.483	9035
575.541	9512
575.598	9399
575.656	8538
575.713	8701
575.771	10210
575.828	8570
575.886	8467
575.943	8634
576.001	8600
576.058	7157
576.115	8003
576.173	9007
576.230	8782
576.287	7877
576.345	8617
576.402	8614
576.459	9475
576.517	8937
576.574	7685
576.631	7630
576.688	8280
576.746	8446
576.803	7998
576.860	8594
576.917	8538
576.974	8633
577.031	8284
577.089	8424
577.146	7569
577.203	7818
577.260	7423
577.317	7646
577.374	8644
577.431	6901
577.488	8038
577.545	6858
577.602	8137
577.659	7312
577.716	7375
577.773	8708
577.830	8612
577.886	7863
577.943	7900
578.000	7735
578.057	8177
578.114	7874
578.171	9107
578.227	10359
578.284	10279
578.341	8818
578.398	8745
578.454	9388
578.511	7504
578.568	8631
578.625	7337
578.681	8468
578.738	7295
578.794	7904
578.851	7543
578.908	8288
578.964	7838
579.021	8705
579.077	8063
579.134	8192
579.190	8389
579.247	8039
579.303	8485
579.360	8124
579.416	7531
579.473	8312
579.529	7612
579.586	7833
579.642	8773
579.698	8733
579.755	9263
579.811	8314
579.867	9240
579.924	9630
579.980	9665
580.036	10841
580.093	11008
580.149	12861
580.205	14757
580.261	12816
580.317	10990
580.374	10810
580.430	10915
580.486	10324
580.542	9824
580.598	9933
580.619	9871
580.654	9769
580.692	10403
580.710	10734
580.765	10623
580.767	10624
580.823	11035
580.838	10752
580.879	10025
580.911	10384
580.935	10652
580.984	10622
580.991	10628
581.047	10913
581.057	10940
581.103	11041
581.130	11279
581.159	11561
581.203	11588
581.215	11583
581.270	11784
581.276	11786
581.326	11860
581.349	11503
581.382	10970
581.422	10553
581.438	10381
581.494	10713
581.494	10710
581.550	10516
581.567	10638
581.606	10951
581.640	11192
581.661	11318
581.713	12469
581.717	12562
581.773	10825
581.786	11000
581.829	11602
581.859	11506
581.885	11426
581.932	11339
581.940	11325
581.996	12730
582.004	12774
582.052	12955
582.077	12479
582.107	11948
582.150	12213
582.163	12293
582.219	12665
582.223	12664
582.274	12640
582.296	12564
582.330	12498
582.368	13519
582.386	13896
582.441	13590
582.441	13589
582.497	13858
582.514	13856
582.552	13670
582.587	14044
582.608	14433
582.659	14730
582.663	14723
582.719	14269
582.732	14472
582.774	15193
582.805	15159
582.830	15180
582.877	15770
582.885	15879
582.941	16998
582.950	17242
582.996	18709
583.023	19707
583.052	20917
583.095	21980
583.107	22116
583.162	22526
583.168	22491
583.218	21795
583.240	21138
583.273	20240
583.313	19142
583.328	18649
583.384	17374
583.385	17339
583.439	16725
583.458	16621
583.494	16508
583.531	16830
583.549	16919
583.603	16215
583.605	16199
583.660	16258
583.676	16165
583.715	15903
583.748	15795
583.770	15892
583.820	16438
583.825	16473
583.881	16318
583.893	16307
583.936	16174
583.965	16019
583.991	15910
584.038	16766
584.046	16921
584.101	16044
584.110	16071
584.156	16443
584.183	16830
584.211	17356
584.255	17434
584.266	17321
584.321	18118
584.328	18072
584.376	18490
584.400	18768
584.431	18904
584.472	19058
584.486	19136
584.541	20159
584.545	20175
584.596	20608
584.617	20631
584.651	20637
584.689	20816
584.706	20917
584.761	21555
584.762	21543
584.816	21939
584.834	22295
584.871	22811
584.906	22718
584.926	22710
584.978	23427
584.980	23463
585.035	25052
585.051	25178
585.090	25920
585.123	26680
585.145	27412
585.195	29574
585.200	29842
585.254	33222
585.267	34257
585.309	38026
585.340	41381
585.364	44651
585.412	51664
585.419	52713
585.473	61570
585.484	63977
585.528	76989
585.556	87996
585.583	107683
585.628	153509
585.637	174754
585.692	340895
585.700	378896
585.747	638514
585.772	683900
585.801	565417
585.845	312747
585.856	257087
585.910	101747
585.917	85820
585.965	61414
585.989	51391
586.019	46450
586.061	40495
586.074	39416
586.128	36589
586.133	36237
586.183	34023
586.205	33470
586.237	33026
586.277	31349
586.292	30822
586.346	30121
586.349	30048
586.401	29727
586.421	29472
586.455	29290
586.493	28827
586.509	28732
586.564	29055
586.565	29020
586.618	30648
586.637	31420
586.672	33251
586.709	34966
586.727	36180
586.781	40988
586.781	41047
586.835	38368
586.853	37277
586.889	32843
586.925	29102
586.944	28401
586.996	27508
586.998	27540
587.052	26968
587.068	26714
587.106	26635
587.140	26893
587.161	27103
587.212	27076
587.215	27123
587.269	26909
587.284	26928
587.323	27287
587.356	27885
587.377	28339
587.427	28839
587.431	28927
587.485	29267
587.499	29346
587.539	29723
587.571	30179
587.593	30790
587.643	31879
587.648	32066
587.702	33322
587.715	33612
587.755	34128
587.786	34277
587.810	34244
587.858	34527
587.864	34660
587.917	34730
587.930	34842
587.971	36064
588.001	36282
588.025	36368
588.073	36826
588.079	36916
588.133	36807
588.145	36855
588.187	38040
588.217	38828
588.241	39933
588.288	41676
588.295	42080
588.348	45155
588.360	45770
588.402	48481
588.431	50143
588.456	51853
588.503	55495
588.510	56268
588.564	62319
588.575	63510
588.617	69620
588.646	74214
588.671	79461
588.718	89693
588.725	92391
588.778	114900
588.789	120143
588.832	167105
588.861	203718
588.886	279647
588.932	438399
588.939	467959
588.993	704180
589.004	733661
589.047	594958
589.075	484592
589.100	366023
589.147	174979
589.154	167067
589.207	115187
589.218	104766
589.261	96905
589.290	92344
589.314	93677
589.361	97235
589.368	99887
589.421	122079
589.433	128000
589.475	195458
589.504	246914
589.528	341402
589.576	543814
589.582	549638
589.635	537600
589.647	525635
589.689	305612
589.718	165790
589.742	133826
589.790	77012
589.795	75674
589.849	63286
589.861	60302
589.902	56578
589.932	53838
589.955	52178
590.004	48302
590.009	48182
590.062	45682
590.075	44956
590.115	44170
590.146	43628
590.168	43507
590.218	42560
590.222	42653
590.275	42826
590.289	42780
590.328	43467
590.360	43808
590.381	43819
590.431	43475
590.435	43575
590.488	43266
590.503	43215
590.541	43805
590.574	44034
590.594	44528
590.645	45293
590.647	45452
590.700	46895
590.716	47196
590.753	47518
590.787	47601
590.806	48247
590.859	49735
590.859	49860
590.912	49816
590.930	49721
590.965	50350
591.001	50748
591.018	51053
591.071	51583
591.072	51457
591.124	50651
591.143	50177
591.177	50421
591.214	50507
591.230	50911
591.283	51946
591.285	51849
591.336	51755
591.356	51526
591.389	51839
591.427	51970
591.442	51953
591.495	51396
591.498	51219
591.547	51502
591.569	51434
591.600	52101
591.640	52706
591.653	52999
591.706	53687
591.711	53614
591.759	54417
591.782	54597
591.811	56417
591.853	58774
591.864	58852
591.917	58392
591.924	58160
591.969	57697
591.995	57207
592.022	57877
592.066	58537
592.075	58927
592.127	60441
592.137	60558
592.180	62003
592.208	62665
592.233	63619
592.279	64903
592.285	65185
592.338	66104
592.350	66123
592.390	66109
592.421	65786
592.443	66608
592.491	67857
592.495	68117
592.548	69131
592.562	69222
592.600	68977
592.633	68422
592.653	68608
592.704	68230
592.705	68635
592.775	69232
592.846	72342
592.916	74540
592.987	73734
593.058	73300
593.128	75960
593.199	75507
593.270	75873
593.341	76504
593.411	78326
593.482	81066
593.553	84286
593.623	84243
593.694	87578
593.764	90103
593.835	90026
593.906	89465
593.976	91394
594.047	94891
594.117	97176
594.188	102302
594.258	101722
594.329	100960
594.399	103237
594.470	105431
594.540	109568
594.611	111954
594.681	114098
594.751	112377
594.822	115629
594.892	119516
594.963	123515
595.033	126781
595.103	129550
595.174	131691
595.244	133440
595.314	141191
595.384	143317
595.455	143983
595.525	150049
595.595	155199
595.665	158743
595.736	155306
595.806	155761
595.876	159338
595.946	160509
596.016	164139
596.087	171116
596.157	175105
596.227	173105
596.297	178919
596.367	190191
596.437	201176
596.507	208356
596.577	205950
596.647	208576
596.717	216352
596.787	226669
596.857	226419
596.927	226108
596.997	228755
597.067	230604
597.137	233984
597.207	238142
597.277	238581
597.347	234978
597.417	226227
597.487	222705
597.557	227648
597.626	233574
597.696	237648
597.766	239034
597.836	234571
597.906	221072
597.975	215271
598.045	215449
598.115	221163
598.185	233442
598.254	253630
598.324	279585
598.394	293371
598.464	290042
598.533	285268
598.603	276075
598.672	261624
598.742	262513
598.812	265135
598.881	274466
598.951	275917
599.020	276980
599.090	285642
599.159	295845
599.229	290421
599.299	282672
599.368	287035
599.437	290874
599.507	278791
599.576	265524
599.646	265495
599.715	261841
599.785	261193
599.854	259164
599.924	256967
599.993	256288
600.062	258367
600.132	268302
600.201	274284
600.270	300193
600.340	332380
600.409	331702
600.478	330636
600.547	333155
600.617	337918
600.686	290358
600.755	263237
600.824	253866
600.894	249258
600.963	251779
601.032	256561
601.101	252511
601.170	249855
601.239	247504
601.308	246701
601.378	249779
601.447	253978
601.516	256699
601.585	264699
601.654	266005
601.723	271524
601.792	275752
601.861	288202
601.930	298110
601.999	310041
602.068	309865
602.137	310960
602.206	313410
602.275	317244
602.343	320466
602.412	323102
602.481	324488
602.550	329621
602.619	331523
602.688	336234
602.756	339159
602.825	339926
602.894	342044
602.963	348514
603.032	348590
603.100	361682
603.169	349923
603.238	357997
603.307	360349
603.375	348135
603.444	363830
603.513	360645
603.581	353299
603.650	371640
603.719	356559
603.787	323965
603.856	333608
603.924	339068
603.993	349130
604.061	358059
604.130	372381
604.198	380002
604.267	383782
604.335	394547
604.404	395846
604.472	403519
604.541	409780
604.609	412656
604.678	423821
604.746	424501
604.815	438389
604.883	448338
604.951	430623
605.020	435004
605.088	439276
605.156	422138
605.225	421676
605.293	424142
605.361	422362
605.429	426035
605.498	424973
605.566	433115
605.634	443385
605.702	462210
605.771	463077
605.839	477154
605.907	465322
605.975	456189
606.043	457945
606.111	434184
606.180	445916
606.248	455141
606.316	423873
606.384	438881
606.452	431544
606.520	375961
606.588	381518
606.656	390165
606.724	389838
606.792	371136
606.860	351350
606.928	315541
606.996	297813
607.064	285743
607.132	290788
607.200	299967
607.267	319906
607.335	320089
607.403	334666
607.471	332758
607.539	316235
607.607	320102
607.674	294727
607.742	278664
607.810	278613
607.878	275975
607.946	279619
608.013	288516
608.081	300201
608.149	302483
608.216	307673
608.284	320340
608.352	321173
608.419	322503
608.487	313345
608.555	305567
608.622	309847
608.690	318304
608.757	345175
608.825	370345
608.893	361571
608.960	350072
609.028	328356
609.095	322536
609.163	323375
609.230	308621
609.298	268893
609.365	273016
609.432	290611
609.500	309737
609.567	345962
609.635	394296
609.702	437677
609.769	435603
609.837	386824
609.904	296298
609.971	290933
610.039	305644
610.106	343662
610.173	475673
610.241	901200
610.308	1216986
610.375	544961
610.442	357071
610.509	311637
610.577	301795
610.644	303543
610.711	307363
610.778	317941
610.845	325849
610.912	342934
610.980	360168
611.047	370656
611.114	368973
611.181	355928
611.248	347169
611.315	357426
611.382	372801
611.449	382962
611.516	394200
611.583	389592
611.650	392542
611.717	393994
611.784	396728
611.851	405056
611.918	422099
611.984	447937
612.051	530582
612.118	729054
612.185	1290104
612.252	1752680
612.319	862008
612.386	553025
612.452	494919
612.519	456043
612.586	439471
612.653	438246
612.719	450901
612.786	452049
612.853	425749
612.919	401181
612.986	409858
613.053	400183
613.120	377138
613.186	357398
613.253	355648
613.319	353340
613.386	356553
613.453	360053
613.519	364204
613.586	358979
613.652	359905
613.719	360402
613.785	359330
613.852	368439
613.918	369005
613.985	363733
614.051	378350
614.118	389451
614.184	392088
614.250	363136
614.317	373793
614.383	369390
614.449	374785
614.516	372852
614.582	373899
614.648	374848
614.715	365287
614.781	363312
614.847	355967
614.914	359437
614.980	349540
615.046	344654
615.112	352916
615.179	358966
615.245	362391
615.311	359318
615.377	362729
615.443	369727
615.509	367771
615.575	380120
615.642	383027
615.708	383730
615.774	394854
615.840	414024
615.906	430685
615.972	464231
616.038	558365
616.104	829947
616.170	1435153
616.236	1995157
616.302	1175461
616.368	718206
616.434	586376
616.500	471807
616.565	460903
616.631	545716
616.697	575627
616.763	499360
616.829	571595
616.895	893890
616.961	1223271
617.026	843817
617.092	474890
617.158	406045
617.224	387684
617.289	368281
617.355	345181
617.421	335153
617.487	335147
617.552	325144
617.618	312688
617.684	314250
617.749	314836
617.815	308977
617.880	299391
617.946	295710
618.012	298097
618.077	305936
618.143	304692
618.208	294497
618.274	309397
618.339	325785
618.405	296445
618.470	265650
618.536	272198
618.601	268838
618.667	260825
618.732	240927
618.798	238048
618.863	235409
618.928	232808
618.994	231631
619.059	232597
619.124	234323
619.190	232724
619.255	232391
619.320	231075
619.386	232528
619.451	233030
619.516	229387
619.581	227258
619.647	232998
619.712	237925
619.777	231643
619.842	225770
619.907	230575
619.972	232915
620.038	237249
620.103	230057
620.168	229235
620.233	228682
620.298	233164
620.363	234199
620.428	239015
620.493	245304
620.558	249661
620.623	252107
620.688	255740
620.753	249054
620.818	252638
620.883	258453
620.948	259460
621.013	253946
621.078	252838
621.143	249646
621.207	257171
621.272	252792
621.337	250086
621.402	242468
621.467	243389
621.532	240784
621.596	242236
621.661	240371
621.726	233017
621.791	233736
621.855	236889
621.920	233204
621.985	237310
622.049	240174
622.114	242024
622.179	245273
622.243	245803
622.308	254723
622.373	261302
622.437	265698
622.502	254327
622.566	246368
622.631	244555
622.695	248124
622.760	249334
622.824	246893
622.889	251133
622.953	248692
623.018	254042
623.082	266348
623.147	262021
623.211	258448
623.276	253980
623.340	254773
623.404	243126
623.469	243349
623.533	242628
623.597	242741
623.662	237595
623.726	232483
623.790	217007
623.854	208641
623.919	208042
623.983	209438
624.047	213601
624.111	215003
624.176	218160
624.240	220266
624.304	224141
624.368	223812
624.432	217713
624.496	218725
624.560	226489
624.625	236054
624.689	231368
624.753	236878
624.817	240850
624.881	226679
624.945	220089
625.009	200247
625.073	203558
625.137	204837
625.201	214020
625.265	218838
625.329	212179
625.393	210535
625.456	211740
625.520	214079
625.584	219192
625.648	223775
625.712	228658
625.776	236358
625.839	233699
625.903	210268
625.967	179231
626.031	179793
626.095	200239
626.158	221015
626.222	182400
626.286	155505
626.349	149619
626.413	143641
626.477	137103
626.540	137076
626.604	138557
626.668	135936
626.731	134602
626.795	133259
626.858	133492
626.922	131096
626.986	130121
627.049	127333
627.113	131825
627.176	133688
627.240	128308
627.303	125356
627.366	126025
627.430	125694
627.493	126073
627.557	123126
627.620	122629
627.684	127116
627.747	128172
627.810	125723
627.874	112854
627.937	105351
628.000	107136
628.064	107875
628.127	101200
628.190	95208
628.253	91668
628.317	90496
628.380	86714
628.443	82133
628.506	82215
628.569	80047
628.632	76033
628.696	73313
628.759	75173
628.822	72482
628.885	70023
628.948	68351
629.011	68069
629.074	66521
629.137	65036
629.200	63056
629.263	63422
629.326	61557
629.389	61203
629.452	61505
629.515	60097
629.578	57940
629.641	58547
629.704	58822
629.767	60068
629.830	57973
629.892	57019
629.955	55059
630.018	56510
630.081	56958
630.144	56840
630.207	54183
630.269	56618
630.332	54708
630.395	53257
630.458	52422
630.520	50947
630.583	50179
630.646	50969
630.708	50807
630.771	52335
630.834	54589
630.896	54378
630.959	54201
631.021	52968
631.084	52639
631.146	53086
631.209	52470
631.272	53401
631.334	52935
631.397	53817
631.459	53945
631.522	55369
631.584	57797
631.646	60198
631.709	63216
631.771	63524
631.834	63604
631.896	59491
631.958	56630
632.021	53883
632.083	53250
632.145	51078
632.208	50468
632.270	50471
632.332	50996
632.395	48947
632.457	50961
632.519	48377
632.581	48482
632.643	48056
632.706	49385
632.768	48491
632.830	48866
632.892	48438
632.954	50268
633.016	50825
633.078	49707
633.141	49643
633.203	50266
633.265	50213
633.327	47774
633.389	49885
633.451	49331
633.513	49274
633.575	49805
633.637	50203
633.698	50324
633.760	52077
633.822	54424
633.884	55691
633.946	56605
634.008	57991
634.070	59980
634.132	62683
634.193	66346
634.255	71925
634.317	74207
634.379	74411
634.441	70697
634.502	65799
634.564	60037
634.626	55532
634.687	51131
634.749	50183
634.811	47962
634.873	48924
634.934	47622
634.996	48270
635.057	48524
635.119	49504
635.181	50455
635.242	50165
635.304	49768
635.365	50753
635.427	49183
635.488	50018
635.550	49183
635.611	49749
635.673	49004
635.734	51353
635.796	52820
635.857	56876
635.918	62234
635.980	66249
636.041	71390
636.102	76732
636.164	78026
636.225	75849
636.286	70593
636.348	64064
636.409	56786
636.470	52190
636.531	50525
636.593	50789
636.654	48270
636.715	45258
636.776	45204
636.838	44754
636.899	44382
636.960	42554
637.021	42930
637.082	41318
637.143	40995
637.204	40238
637.265	40153
637.326	41341
637.387	41038
637.448	42058
637.509	41241
637.570	41639
637.631	40941
637.692	39516
637.753	39343
637.814	38307
637.875	38323
637.936	39105
637.997	38146
638.058	38807
638.119	38331
638.179	38344
638.240	37642
638.301	38174
638.362	38114
638.423	36870
638.483	37121
638.544	34892
638.605	35095
638.666	35886
638.726	36136
638.787	35533
638.848	35724
638.908	34965
638.969	35287
639.030	33381
639.090	34008
639.151	34156
639.211	34157
639.272	36332
639.332	35987
639.393	36482
639.453	36432
639.514	38712
639.574	36427
639.635	33337
639.695	31952
639.756	32128
639.816	31959
639.877	31186
639.937	31487
639.997	32329
640.058	32178
640.118	32200
640.178	31970
640.239	31817
640.299	31846
640.359	33153
640.420	33199
640.480	35659
640.540	38724
640.600	44040
640.661	41353
640.721	36993
640.781	38488
640.841	37887
640.901	34253
640.961	32309
641.021	33514
641.082	35987
641.142	35114
641.202	32896
641.262	29359
641.322	31666
641.382	30098
641.442	30915
641.502	29855
641.562	30001
641.622	31046
641.682	32323
641.742	35144
641.802	39073
641.861	31889
641.921	29513
641.981	28576
642.041	28631
642.101	27716
642.161	27816
642.221	28552
642.280	28289
642.340	28189
642.400	28272
642.460	28199
642.519	29326
642.579	29022
642.639	29674
642.698	28990
642.758	31982
642.818	29151
642.877	29419
642.937	30569
642.997	29918
643.056	30153
643.116	29395
643.175	30336
643.235	30049
643.294	31003
643.354	32612
643.414	32587
643.473	35578
643.532	41089
643.592	49231
643.651	66083
643.711	97952
643.770	167454
643.830	320919
643.889	753606
643.948	743579
644.008	173314
644.067	72364
644.126	51611
644.186	42693
644.245	36577
644.304	32983
644.363	32134
644.423	29900
644.482	29724
644.541	31004
644.600	31712
644.659	36402
644.719	40314
644.778	53777
644.837	79145
644.896	138030
644.955	303571
645.014	379983
645.073	82709
645.132	42828
645.191	36468
645.250	33987
645.309	33431
645.368	34692
645.427	40994
645.486	54707
645.545	112215
645.604	101778
645.663	33027
645.722	30589
645.781	31483
645.840	32240
645.898	35914
645.957	45132
646.016	59526
646.075	92271
646.134	156919
646.192	309808
646.251	731652
646.310	486938
646.369	103719
646.427	56807
646.486	49207
646.545	36014
646.603	32219
646.662	30018
646.721	27005
646.779	26824
646.838	27051
646.896	30360
646.955	36568
647.014	52186
647.072	86171
647.131	181875
647.189	318297
647.248	74453
647.306	29744
647.365	26111
647.423	22437
647.481	23736
647.540	20307
647.598	21703
647.657	22015
647.715	21913
647.773	20231
647.832	20469
647.890	19224
647.948	18511
648.007	18407
648.065	18033
648.123	18219
648.181	19043
648.240	19140
648.298	18645
648.356	17731
648.414	17427
648.472	17711
648.531	17442
648.589	16693
648.647	16814
648.705	16946
648.763	16446
648.821	16794
648.879	17732
648.937	17639
648.995	20368
649.053	24010
649.111	30932
649.169	46137
649.227	75744
649.285	134758
649.343	315803
649.401	543294
649.459	136318
649.516	39885
649.574	28318
649.632	27804
649.690	34563
649.748	34238
649.806	39109
649.863	66294
649.921	127275
649.979	265660
650.037	79003
650.094	21744
650.152	18106
650.210	15343
650.268	15630
650.325	14756
650.383	15995
650.440	13461
650.498	13486
650.556	12656
650.613	13114
650.671	12430
650.728	12460
650.786	13770
650.843	15164
650.901	19176
650.958	13648
651.016	11858
651.073	11737
651.131	11259
651.188	10551
651.246	10853
651.303	10183
651.360	10457
651.418	9786
651.475	10886
651.532	10492
651.590	9884
651.647	9468
651.704	10169
651.762	9730
651.819	9753
651.876	10095
651.933	9892
651.990	9322
652.048	9412
652.105	9168
652.162	9124
652.219	9504
652.276	8932
652.333	9115
652.390	8383
652.448	8677
652.505	8468
652.562	9034
652.619	9052
652.676	9623
652.733	12099
652.790	9861
652.847	7082
652.904	8992
652.961	7593
653.017	7384
653.074	7903
653.131	8740
653.188	7290
653.245	7831
653.302	8499
653.359	7732
653.415	8504
653.472	8242
653.529	8632
653.586	7789
653.642	7795
653.699	8307
653.756	7421
653.813	7483
653.869	8549
653.926	8437
653.983	7949
654.039	8473
654.096	7825
654.152	7975
654.209	6592
654.266	7684
654.322	7121
654.379	7439
654.435	6746
654.492	7904
654.548	7215
654.605	7892
654.661	8335
654.717	8099
654.774	6990
654.830	7285
654.887	7627
654.943	6863
655.000	8382
655.056	8020
655.112	7368
655.168	7096
655.225	8146
655.281	7618
655.337	7552
655.394	8350
655.450	8203
655.506	7625
655.562	6906
655.618	8267
655.675	6706
655.731	7425
655.787	7170
655.843	7712
655.899	6615
655.955	7714
656.011	7014
656.067	6574
656.123	7282
656.179	7403
656.235	7167
656.291	7469
656.347	7657
656.403	7418
656.459	7146
656.515	6668
656.571	7494
656.627	7244
656.683	7181
656.739	8207
656.795	6180
656.850	7046
656.906	7323
656.962	7467
657.018	7147
657.074	9036
657.129	10012
657.185	15188
657.241	23420
657.297	44267
657.352	14510
657.408	6705
657.464	7585
657.519	6251
657.575	5912
657.630	6755
657.686	6139
657.742	5879
657.797	6148
657.853	6570
657.908	7191
657.964	6443
658.019	6506
658.075	6437
658.130	5632
658.186	6359
658.241	6947
658.297	6175
658.352	5723
658.407	5975
658.463	5966
658.518	6255
658.573	5760
658.629	6165
658.684	5302
658.739	6895
658.795	5271
658.850	6260
658.905	4920
658.960	6489
659.016	5315
659.071	5141
659.126	5410
659.181	6209
659.236	5838
659.291	6912
659.346	5267
659.401	6279
659.457	6752
659.512	7345
659.567	8526
659.622	6274
659.677	5531
659.732	4964
659.787	5643
659.842	4943
659.897	5875
659.952	5911
660.007	5592
660.061	5274
660.116	5295
660.171	5232
660.226	5053
660.281	5291
660.336	4673
660.391	5476
660.445	4947
660.500	5584
660.555	5046
660.610	4899
660.664	6326
660.719	5498
660.774	5899
660.828	5610
660.883	5082
660.938	5382
660.992	5363
661.047	5086
661.101	5497
661.156	5200
661.211	4815
661.265	5743
661.320	4702
661.374	4784
661.429	5105
661.483	5446
661.538	5085
661.592	4747
661.647	5752
661.701	6349
661.755	6548
661.810	6062
661.864	4758
661.919	5298
661.973	5834
662.027	5286
662.081	4928
662.136	5611
662.190	4829
662.244	5614
662.299	5073
662.353	4911
662.407	5483
662.461	5106
662.515	5182
662.569	4827
662.624	4662
662.678	4674
662.732	4801
662.786	4580
662.840	3906
662.894	5110
662.948	4739
663.002	5314
663.056	4779
663.110	4352
663.164	5062
663.218	4774
663.272	5562
663.326	5357
663.380	5441
663.434	5318
663.488	4540
663.542	6106
663.595	4881
663.649	4461
663.703	5337
663.757	5348
663.811	4228
663.864	4930
663.918	5592
663.972	4086
664.026	5038
664.079	5169
664.133	5525
664.187	4972
664.240	5361
664.294	5477
664.348	4966
664.401	5235
664.455	5458
664.508	4509
664.562	4659
664.615	5062
664.669	4551
664.722	4993
664.776	5139
664.829	3951
664.883	4607
664.936	5093
664.990	4359
665.043	5375
665.097	4538
665.150	5082
665.203	4580
665.257	5009
665.310	5225
665.363	4898
665.417	5292
665.470	5144
665.523	4822
665.576	5192
665.630	5917
665.683	4683
665.736	5140
665.789	5298
665.842	4502
665.895	4556
665.949	5561
666.002	4736
666.055	5200
666.108	5212
666.161	5512
666.214	4944
666.267	5723
666.320	5253
666.373	6139
666.426	4997
666.479	4857
666.532	5742
666.585	5683
666.638	6021
666.691	5398
666.744	6304
666.796	5461
666.849	6023
666.902	5906
666.955	4829
667.008	5417
667.060	5462
667.113	4503
667.166	5852
667.219	5280
667.271	5471
667.324	5922
667.377	5536
667.430	5899
667.482	4775
667.535	6775
667.587	5924
667.640	5696
667.693	4447
667.745	6048
667.798	5456
667.850	4634
667.903	4601
667.955	5232
668.008	5471
668.060	5706
668.113	5416
668.165	5086
668.218	5632
668.270	5442
668.322	4579
668.375	4498
668.427	5436
668.479	5014
668.532	5254
668.584	4896
668.636	5025
668.689	5861
668.741	4693
668.793	4999
668.845	5336
668.898	4934
668.950	4358
669.002	4865
669.054	5403
669.106	5190
669.158	5171
669.211	5543
669.263	6206
669.315	5567
669.367	5386
669.419	5802
669.471	5893
669.523	5582
669.575	5852
669.627	5601
669.679	5338
669.731	5614
669.783	5513
669.835	5723
669.886	5265
669.938	5676
669.990	5549
670.042	5393
670.094	5607
670.146	5643
670.197	5879
670.249	5812
670.301	6546
670.353	8682
670.404	9504
670.456	11730
670.508	17155
670.560	27712
670.611	44096
670.663	72984
670.715	130620
670.766	293828
670.818	308718
670.869	79272
670.921	22574
670.972	15289
671.024	11023
671.075	8911
671.127	7380
671.178	6814
671.230	7361
671.281	7244
671.333	7378
671.384	8305
671.436	9771
671.487	12397
671.538	15968
671.590	24302
671.641	38675
671.692	62030
671.744	115352
671.795	179091
671.846	98806
671.897	39246
671.949	21606
672.000	14910
672.051	10486
672.102	8745
672.153	6941
672.204	7295
672.256	6035
672.307	5253
672.358	6014
672.409	5744
672.460	4784
672.511	4036
672.562	4283
672.613	4241
672.664	3441
672.715	3955
672.766	4072
672.817	3872
672.868	3980
672.919	3234
672.970	3238
673.021	3492
673.071	3577
673.122	3610
673.173	3442
673.224	3339
673.275	4469
673.326	3779
673.376	3428
673.427	2584
673.478	2639
673.528	4083
673.579	3919
673.630	3866
673.680	4673
673.731	3549
673.782	3831
673.832	3274
673.883	2925
673.934	3033
673.984	2945
674.035	3590
674.085	3424
674.136	3970
674.186	3557
674.237	3598
674.287	3384
674.338	3514
674.388	3759
674.438	3375
674.489	4231
674.539	3577
674.589	4462
674.640	3313
674.690	4193
674.740	3709
674.791	4516
674.841	3076
674.891	3917
674.942	2477
674.992	3088
675.042	1886
675.092	2617
675.142	2979
675.193	2453
675.243	2387
675.293	3215
675.343	3102
675.393	3510
675.443	2707
675.493	3273
675.543	2643
675.593	3467
675.643	3612
675.693	2403
675.743	3100
675.793	3414
675.843	2049
675.893	3259
675.943	2435
675.993	2510
676.043	2661
676.093	3392
676.142	2795
676.192	3174
676.242	2527
676.292	3145
676.341	2606
676.391	3112
676.441	3069
676.491	2455
676.540	1418
676.590	2691
676.640	2079
676.689	2414
676.739	2401
676.789	2022
676.838	2125
676.888	2758
676.937	1880
676.987	2531
677.037	2111
677.086	2321
677.136	2576
677.185	2055
677.235	2831
677.284	2327
677.333	1737
677.383	2222
677.432	2584
677.482	2375
677.531	2020
677.580	2033
677.630	1748
677.679	2484
677.728	2114
677.778	2270
677.827	2426
677.876	2485
677.925	1997
677.975	2449
678.024	2770
678.073	2084
678.122	3213
678.171	2361
678.220	1721
678.269	3844
678.319	3352
678.368	3845
678.417	3976
678.466	4019
678.515	2537
678.564	1920
678.613	2250
678.662	2273
678.711	2679
678.760	1944
678.809	2347
678.857	2586
678.906	2466
678.955	2559
679.004	1721
679.053	2307
679.102	1987
679.151	2729
679.199	2464
679.248	1821
679.297	2399
679.346	2847
679.394	1755
679.443	1758
679.492	2086
679.540	2249
679.589	2342
679.638	1488
679.686	2415
679.735	2518
679.784	2783
679.832	3288
679.881	3680
679.929	2429
679.978	2326
680.026	1790
680.075	2057
680.123	2523
680.172	1912
680.220	1438
680.268	1767
680.317	1616
680.365	2240
680.414	2053
680.462	2150
680.510	1639
680.559	2069
680.607	2186
680.655	1708
680.703	1672
680.752	2314
680.800	1782
680.848	1943
680.896	1581
680.945	1252
680.993	2146
681.041	1766
681.089	2210
681.137	1964
681.185	1875
681.233	2166
681.258	1745
681.281	1311
681.329	2064
681.377	2116
681.380	2153
681.425	2151
681.473	2410
681.502	2405
681.521	2344
681.569	2446
681.617	2381
681.624	2493
681.665	2972
681.713	2117
681.745	2901
681.761	3204
681.809	1824
681.857	2937
681.867	3034
681.904	3243
681.952	3562
681.989	3174
682.000	3009
682.048	3321
682.096	2682
682.111	2946
682.143	3374
682.191	3253
682.233	3523
682.239	3535
682.286	3356
682.334	3395
682.354	3210
682.382	2862
682.430	3283
682.476	4266
682.477	4252
682.525	3242
682.572	3237
682.598	3462
682.620	3639
682.667	3669
682.715	4328
682.720	4306
682.763	3703
682.810	3745
682.841	3626
682.857	3546
682.905	4563
682.952	4373
682.963	4463
683.000	4531
683.047	4277
683.085	4654
683.095	4739
683.142	4676
683.190	5253
683.206	4915
683.237	4227
683.284	4778
683.328	4771
683.332	4737
683.379	5294
683.426	5055
683.449	4909
683.473	4729
683.521	5590
683.568	4934
683.571	4971
683.615	5153
683.662	6283
683.693	6143
683.709	5984
683.757	5158
683.804	5069
683.814	5178
683.851	5467
683.898	5287
683.936	5940
683.945	6069
683.992	6065
684.039	5648
684.057	5564
684.086	5430
684.133	5864
684.179	5719
684.180	5690
684.227	6050
684.274	6282
684.300	6378
684.321	6454
684.368	5944
684.415	5767
684.422	5987
684.462	7131
684.509	6791
684.543	6799
684.556	6788
684.603	6935
684.649	6865
684.665	6904
684.696	6901
684.743	7407
684.786	7253
684.790	7218
684.837	7384
684.883	7914
684.908	7462
684.930	6998
684.977	7723
685.023	7710
685.029	7680
685.070	7428
685.117	7306
685.150	7625
685.164	7676
685.210	7912
685.257	8553
685.272	8364
685.303	8033
685.350	8057
685.393	8629
685.396	8650
685.443	8027
685.490	8487
685.514	8402
685.536	8259
685.583	8196
685.629	8276
685.636	8184
685.675	7681
685.722	8695
685.757	8552
685.768	8521
685.815	8228
685.861	8609
685.878	8533
685.908	8309
685.954	8697
686.000	8858
686.000	8853
686.047	9172
686.093	8636
686.121	8992
686.139	9245
686.185	9469
686.232	9714
686.242	9698
686.278	9391
686.324	9849
686.363	9382
686.370	9298
686.416	9065
686.463	9086
686.484	9333
686.509	9698
686.555	9226
686.601	9740
686.606	9751
686.647	9708
686.693	9824
686.727	9756
686.739	9714
686.785	9800
686.831	10016
686.848	9779
686.877	9411
686.923	9822
686.969	9984
686.969	9983
687.015	10665
687.061	10264
687.090	10605
687.107	10779
687.153	10861
687.199	11187
687.211	11112
687.245	10919
687.291	10626
687.332	11209
687.336	11267
687.382	11173
687.428	11347
687.453	11691
687.474	11915
687.520	10979
687.565	11816
687.574	11715
687.611	11368
687.657	11489
687.695	11633
687.702	11763
687.748	12304
687.794	13462
687.816	13942
687.839	14319
687.885	14469
687.931	15023
687.937	15030
687.976	13868
688.022	13166
688.058	12621
688.067	12695
688.113	12159
688.158	12307
688.179	12288
688.204	12276
688.249	12089
688.295	11930
688.300	12017
688.340	12704
688.386	12813
688.421	12422
688.431	12332
688.477	12202
688.522	12472
688.542	12634
688.567	12981
688.613	12935
688.658	13054
688.663	13140
688.703	13808
688.749	13815
688.784	13767
688.794	13662
688.839	13178
688.884	13363
688.905	12924
688.930	12744
688.975	13233
689.020	13608
689.026	13630
689.065	13610
689.110	13881
689.146	13507
689.155	13479
689.201	13755
689.246	13967
689.267	14104
689.291	14122
689.336	14214
689.381	13464
689.388	13492
689.426	13771
689.471	13705
689.509	13800
689.516	13872
689.561	13682
689.606	14204
689.630	14385
689.651	14482
689.696	14243
689.741	13866
689.750	13980
689.785	14501
689.830	13928
689.871	14166
689.875	14216
689.920	14397
689.965	14723
689.992	14418
690.010	14194
690.054	14578
690.099	14887
690.112	14706
690.144	14496
690.189	14868
690.233	15133
690.233	15152
690.278	14763
690.323	14735
690.354	14459
690.367	14537
690.412	15085
690.457	15249
690.474	15424
690.501	15374
690.546	15320
690.590	15246
690.595	15156
690.635	15207
690.680	15858
690.716	16199
690.724	16291
690.769	16827
690.813	17465
690.836	17594
690.857	18369
690.902	20338
690.946	22113
690.957	22535
690.991	26588
691.035	32119
691.077	38291
691.080	39023
691.124	51544
691.168	61734
691.198	68499
691.213	64952
691.257	55173
691.301	44985
691.318	41123
691.346	37035
691.390	30170
691.434	23575
691.439	22777
691.478	21212
691.522	19446
691.559	17717
691.567	17708
691.611	18268
691.655	17758
691.680	17883
691.699	18013
691.743	17920
691.787	17849
691.800	17824
691.831	17714
691.875	17268
691.919	16954
691.921	16917
691.964	17188
692.008	17357
692.041	17600
692.052	17603
692.096	17295
692.139	16777
692.162	16625
692.183	16719
692.227	16967
692.271	16969
692.282	16910
692.315	16655
692.359	16418
692.402	16492
692.403	16525
692.447	16289
692.490	16602
692.523	16654
692.534	16679
692.578	16759
692.622	16227
692.643	16137
692.666	16270
692.709	16475
692.753	16828
692.763	16883
692.797	17205
692.840	17409
692.884	17630
692.884	17662
692.928	17257
692.971	17050
693.004	16573
693.015	16737
693.059	17108
693.102	17784
693.124	18097
693.146	18059
693.189	18108
693.233	17654
693.245	17557
693.276	17817
693.320	18460
693.363	18362
693.365	18341
693.407	19373
693.450	20313
693.485	20858
693.493	21214
693.537	23033
693.580	24898
693.605	25915
693.624	27340
693.667	30683
693.710	34196
693.725	35325
693.753	43462
693.797	56171
693.840	69949
693.845	71503
693.883	95744
693.926	120777
693.966	143435
693.970	141382
694.013	117869
694.056	94132
694.086	77721
694.099	72984
694.142	57542
694.185	42140
694.206	34641
694.229	32734
694.272	29128
694.315	25290
694.326	24325
694.358	23834
694.401	22919
694.444	21877
694.446	21776
694.487	21140
694.530	20637
694.566	20068
694.573	20014
694.616	19479
694.659	18751
694.686	18371
694.702	18516
694.745	18619
694.787	18969
694.806	18875
694.830	18871
694.873	19171
694.916	19534
694.926	19513
694.959	19350
695.002	19297
695.044	19012
695.046	18962
695.087	19182
695.130	19232
695.166	19285
695.172	19380
695.215	19956
695.258	20301
695.286	20441
695.301	20444
695.343	20554
695.386	20389
695.406	20293
695.428	20532
695.471	20965
695.514	21305
695.526	21432
695.556	22714
695.599	24233
695.641	25782
695.646	25888
695.684	26502
695.726	27286
695.766	27716
695.769	27683
695.811	26431
695.854	25127
695.886	24001
695.896	23948
695.938	23749
695.981	23211
696.005	22987
696.023	23224
696.065	23547
696.108	24134
696.125	24208
696.150	25114
696.192	26527
696.235	28087
696.245	28413
696.277	28808
696.319	29111
696.361	29447
696.365	29399
696.404	29675
696.446	30051
696.485	30227
696.488	30231
696.530	29404
696.572	28456
696.604	27671
696.614	27835
696.656	28355
696.698	28845
696.724	28961
696.740	28724
696.783	28113
696.825	27479
696.844	27097
696.867	27398
696.909	27805
696.951	28257
696.964	28323
696.992	28511
697.034	28617
697.076	28866
697.083	28816
697.118	28958
697.160	29194
697.202	29296
697.203	29223
697.244	29657
697.286	30226
697.323	30528
697.327	30618
697.369	30804
697.411	30971
697.442	30999
697.453	31012
697.494	30731
697.536	30516
697.562	30250
697.578	30426
697.620	30711
697.661	31039
697.682	31071
697.703	31160
697.744	31351
697.786	31476
697.801	31383
697.828	31893
697.869	32750
697.911	33560
697.921	33672
697.952	33422
697.994	32954
698.035	32488
698.040	32345
698.077	32121
698.118	31835
698.160	31508
698.160	31424
698.201	32247
698.243	32989
698.279	33588
698.284	33723
698.325	34149
698.367	34561
698.399	34810
698.408	35090
698.449	35991
698.491	36819
698.518	37303
698.532	37377
698.573	37311
698.614	37228
698.638	37087
698.656	37193
698.697	37207
698.738	37244
698.757	37161
698.779	37256
698.820	37247
698.862	37243
698.877	37147
698.903	37319
698.944	37428
698.985	37543
698.996	37480
699.026	37360
699.067	37059
699.116	36606
699.235	37336
699.354	37305
699.474	35934
699.593	33644
699.713	34610
699.832	33929
699.951	34500
700.070	37003
700.190	34419
700.309	32998
700.428	32294
700.547	32474
700.667	31395
700.786	31987
700.905	31660
701.024	29680
701.143	30444
701.262	29713
701.381	33066
701.500	32825
701.619	32278
701.738	30758
701.857	32278
701.976	32084
702.095	28128
702.214	31253
702.333	30207
702.452	30186
702.571	31088
702.690	32806
702.809	31248
702.928	30011
703.047	29611
703.165	27662
703.284	29349
703.403	27604
703.522	28398
703.640	26856
703.759	26321
703.878	26726
703.997	27312
704.115	28034
704.234	28025
704.353	27003
704.471	27335
704.590	24899
704.708	25428
704.827	24922
704.946	24619
705.064	24057
705.183	25645
705.301	24582
705.420	26100
705.538	25206
705.656	24673
705.775	23675
705.893	25032
706.012	34590
706.130	30286
706.249	24300
706.367	24005
706.485	22601
706.604	23142
706.722	23370
706.840	23457
706.958	26608
707.077	32761
707.195	23589
707.313	22195
707.431	21182
707.549	21652
707.668	20632
707.786	20593
707.904	22122
708.022	19637
708.140	22790
708.258	20991
708.376	20718
708.494	20920
708.612	20386
708.730	22023
708.848	23125
708.966	21785
709.084	22718
709.202	21942
709.320	20700
709.438	20088
709.556	19673
709.674	19777
709.791	19715
709.909	19707
710.027	19606
710.145	19185
710.263	19598
710.380	19831
710.498	19499
710.616	18231
710.733	18564
710.851	18559
710.969	18504
711.086	18126
711.204	17942
711.322	18147
711.439	17914
711.557	17499
711.674	17634
711.792	16969
711.909	17908
712.027	18114
712.144	18446
712.262	16699
712.379	17142
712.497	17466
712.614	18838
712.732	17618
712.849	17694
712.966	16943
713.084	18399
713.201	17807
713.318	16414
713.436	19372
713.553	18824
713.670	18576
713.787	19314
713.905	19899
714.022	19475
714.139	18717
714.256	21250
714.373	24815
714.490	39218
714.608	68828
714.725	208628
714.842	720023
714.959	349497
715.076	52392
715.193	29280
715.310	23734
715.427	20567
715.544	17599
715.661	18204
715.778	17259
715.895	16706
716.011	17917
716.128	15902
716.245	16192
716.362	16399
716.479	14681
716.596	14772
716.713	15353
716.829	14498
716.946	14938
717.063	13190
717.180	14574
717.296	12614
717.413	13983
717.530	13634
717.646	13586
717.763	13510
717.880	13097
717.996	13564
718.113	12639
718.229	12915
718.346	12828
718.462	11924
718.579	12295
718.695	12990
718.812	13130
718.928	12861
719.045	13417
719.161	11779
719.277	12272
719.394	13970
719.510	13046
719.626	14502
719.743	15666
719.859	18935
719.975	31587
720.092	72973
720.208	298566
720.324	354798
720.440	38557
720.557	18327
720.673	15785
720.789	14925
720.905	14262
721.021	17368
721.137	12396
721.253	11989
721.369	12228
721.486	12185
721.602	12885
721.718	11724
721.834	11397
721.950	10984
722.066	10835
722.181	10469
722.297	10452
722.413	10804
722.529	10167
722.645	11126
722.761	10193
722.877	10758
722.993	11248
723.108	12048
723.224	14505
723.340	12177
723.456	10867
723.571	10486
723.687	9973
723.803	10074
723.918	10076
724.034	9690
724.150	9532
724.265	9575
724.381	9930
724.497	11076
724.612	10647
724.728	9257
724.843	9018
724.959	9136
725.074	9808
725.190	11943
725.305	11287
725.421	9728
725.536	8828
725.651	10240
725.767	9627
725.882	10196
725.997	9515
726.113	9078
726.228	9968
726.343	9640
726.459	8746
726.574	9492
726.689	9446
726.804	8986
726.920	9372
727.035	9579
727.150	9294
727.265	9842
727.380	8728
727.495	9190
727.610	9187
727.725	9118
727.841	8849
727.956	10691
728.071	15577
728.186	10158
728.301	8317
728.416	8959
728.531	9457
728.645	8532
728.760	8552
728.875	8880
728.990	9964
729.105	8573
729.220	8168
729.335	8261
729.449	8520
729.564	9302
729.679	8916
729.794	8239
729.908	8197
730.023	8349
730.138	8755
730.253	8683
730.367	8927
730.482	7985
730.596	8807
730.711	9056
730.826	10970
730.940	14587
731.055	13095
731.169	11336
731.284	11609
731.398	11592
731.513	11808
731.627	13152
731.742	13238
731.856	16820
731.970	19281
732.085	20417
732.199	26291
732.313	39542
732.428	73165
732.542	199264
732.656	444840
732.771	161825
732.885	43900
732.999	29317
733.113	25872
733.227	26272
733.342	24457
733.456	22509
733.570	22271
733.684	21487
733.798	20376
733.912	20002
734.026	19134
734.140	19998
734.254	19406
734.368	18675
734.482	19663
734.596	20392
734.710	19413
734.824	17444
734.938	17688
735.052	18468
735.166	18364
735.280	18069
735.393	16926
735.507	16992
735.621	18077
735.735	16931
735.849	17394
735.962	17256
736.076	16529
736.190	16011
736.303	16013
736.417	16626
736.531	15961
736.644	16105
736.758	15928
736.872	16076
736.985	15389
737.099	15521
737.212	14684
737.326	15300
737.439	14816
737.553	15724
737.666	15134
737.780	14190
737.893	14328
738.007	14863
738.120	14802
738.233	14870
738.347	14342
738.460	14114
738.573	13174
738.687	14358
738.800	14233
738.913	13874
739.026	14964
739.140	13863
739.253	14296
739.366	14202
739.479	12914
739.592	14190
739.705	13186
739.818	13394
739.932	14887
740.045	12395
740.158	14120
740.271	14197
740.384	14308
740.497	12902
740.610	12952
740.723	12493
740.836	12559
740.949	13739
741.062	12590
741.174	13191
741.287	11961
741.400	13609
741.513	12002
741.626	11959
741.739	12862
741.851	12043
741.964	12071
742.077	12821
742.189	11216
742.302	11137
742.415	12823
742.527	11136
742.640	11834
742.753	11723
742.865	10963
742.978	12627
743.090	10993
743.203	10978
743.316	11551
743.428	10384
743.541	11527
743.653	11527
743.766	9402
743.878	11002
743.990	11485
744.103	10799
744.215	10597
744.327	11230
744.440	11088
744.552	13776
744.664	9903
744.777	10577
744.889	11798
745.001	10499
745.113	9283
745.226	11653
745.338	9625
745.450	10320
745.562	11146
745.674	10624
745.786	9650
745.898	11760
746.010	10643
746.122	9781
746.234	11046
746.347	10276
746.459	9728
746.570	9458
746.682	8607
746.794	10968
746.906	10967
747.018	9722
747.130	9201
747.242	10282
747.354	9050
747.466	10003
747.577	9536
747.689	9580
747.801	10604
747.913	9906
748.024	8575
748.136	9486
748.248	9438
748.359	8751
748.471	8585
748.583	10368
748.694	8542
748.806	9570
748.918	10109
749.029	9599
749.141	8161
749.252	9897
749.364	8267
749.475	8562
749.587	8045
749.698	8810
749.809	8850
749.921	8913
750.032	9044
750.144	7819
750.255	8653
750.366	8553
750.478	8977
750.589	8127
750.700	8594
750.811	8981
750.923	8923
751.034	7993
751.145	7573
751.256	8608
751.367	8015
751.479	8390
751.590	8191
751.701	8069
751.812	7424
751.923	7480
752.034	7812
752.145	8576
752.256	8262
752.367	8851
752.478	8552
752.589	7712
752.700	8634
752.811	9186
752.922	8554
753.032	8999
753.143	8881
753.254	8719
753.365	8224
753.476	9728
753.586	8180
753.697	8514
753.808	8468
753.919	7910
754.029	8719
754.140	8355
754.251	7534
754.361	8712
754.472	8477
754.582	8643
754.693	7508
754.804	8722
754.914	8866
755.025	7819
755.135	7839
755.246	8787
755.356	9206
755.466	8054
755.577	7999
755.687	8146
755.798	7911
755.908	7614
756.018	8325
756.129	8223
756.239	8504
756.349	8585
756.460	9399
756.570	8554
756.680	9018
756.790	8164
756.900	9430
757.011	7718
757.121	7756
757.231	7826
757.341	8501
757.451	7992
757.561	7859
757.671	7976
757.781	8469
757.891	9168
758.001	8040
758.111	8415
758.221	8581
758.331	9324
758.441	9835
758.551	9081
758.661	9894
758.771	9899
758.880	9518
758.990	10181
759.100	9111
759.210	10742
759.320	9746
759.429	9897
759.539	10258
759.649	11627
759.758	12093
759.868	12677
759.978	11815
760.087	12440
760.197	13389
760.307	13212
760.416	12208
760.526	12161
760.635	12215
760.745	13063
760.854	13248
760.964	14131
761.073	15000
761.182	15405
761.292	15035
761.401	13224
761.511	12758
761.620	12657
761.729	11835
761.839	12203
761.948	12600
762.057	12604
762.166	12246
762.276	12946
762.385	13254
762.494	12656
762.603	12388
762.712	13702
762.822	13874
762.931	13929
763.040	13885
763.149	14104
763.258	14953
763.367	15925
763.476	17327
763.585	16156
763.694	17088
763.803	19155
763.912	19329
764.021	20395
764.130	21361
764.238	22474
764.347	23443
764.456	25768
764.565	26135
764.674	28861
764.783	30470
764.891	33255
765.000	37412
765.109	41019
765.217	46546
765.326	52076
765.435	62511
765.543	73269
765.652	87572
765.761	107663
765.869	137723
765.978	177402
766.086	242499
766.195	339995
766.303	479573
766.412	602608
766.520	473562
766.629	495642
766.737	508974
766.846	384832
766.954	277397
767.062	205939
767.171	158318
767.279	124417
767.387	98389
767.496	81658
767.604	68995
767.712	59851
767.820	51932
767.928	48194
768.037	43412
768.145	39935
768.253	37504
768.361	36669
768.469	35824
768.577	36873
768.685	36581
768.793	38734
768.901	42579
769.009	45904
769.117	51736
769.225	63521
769.333	80333
769.441	108452
769.549	159076
769.657	250275
769.765	405606
769.873	543945
769.981	436122
770.088	449637
770.196	309310
770.304	202378
770.412	140011
770.519	104860
770.627	81744
770.735	67318
770.842	55891
770.950	47940
771.058	41424
771.165	38201
771.273	34528
771.380	33552
771.488	30192
771.595	31477
771.703	31165
771.810	27863
771.918	25799
772.025	25165
772.133	26334
772.240	26504
772.348	25605
772.455	25862
772.562	24355
772.670	23877
772.777	22602
772.884	22723
772.991	21730
773.099	21130
773.206	21509
773.313	20535
773.420	19278
773.528	19633
773.635	19324
773.742	18843
773.849	19303
773.956	17404
774.063	17653
774.170	17102
774.277	18020
774.384	17085
774.491	16291
774.598	16530
774.705	16182
774.812	15627
774.919	16801
775.026	16187
775.133	16030
775.239	15465
775.346	15365
775.453	15113
775.560	15612
775.667	13972
775.773	14978
775.880	13973
775.987	14483
776.093	14382
776.200	14602
776.307	15257
776.413	12376
776.520	13354
776.627	15410
776.733	13009
776.840	11979
776.946	13643
777.053	15013
777.159	12671
777.266	11983
777.372	12786
777.478	12195
777.585	12897
777.691	12386
777.798	11574
777.904	13609
778.010	11656
778.117	12263
778.223	12278
778.329	11355
778.435	11521
778.542	11225
778.648	12011
778.754	10514
778.860	11255
778.966	11393
779.072	11836
779.178	10291
779.284	10570
779.391	8710
779.497	11391
779.603	12194
779.708	12780
779.815	14930
779.920	24535
780.026	76022
780.132	91872
780.238	18374
780.344	10595
780.450	10561
780.556	11906
780.661	8595
780.767	10697
780.873	10893
780.979	6927
781.085	8737
781.190	11175
781.296	8754
781.402	8671
781.507	10098
781.613	8820
781.719	7348
781.824	9469
781.930	9722
782.035	9169
782.141	9359
782.246	10260
782.352	6820
782.457	8481
782.563	8095
782.668	8324
782.773	8735
782.879	7635
782.984	8052
783.090	8847
783.195	7895
783.300	8475
783.405	8156
783.511	7493
783.616	7665
783.721	7749
783.826	7879
783.932	7197
784.037	6749
784.142	7770
784.247	7208
784.352	7808
784.457	6872
784.562	6445
784.667	8109
784.772	7577
784.877	5847
784.982	6381
785.087	8310
785.192	7901
785.297	6162
785.402	7159
785.507	7448
785.611	7392
785.716	6823
785.821	6333
785.926	7062
786.031	6602
786.135	6472
786.240	7275
786.345	6150
786.450	6332
786.554	5893
786.659	7172
786.763	5938
786.868	7508
786.973	7187
787.077	6374
787.182	6440
787.286	6253
787.391	7069
787.495	7359
787.600	5201
787.704	5224
787.809	6359
787.913	6453
788.017	6416
788.122	5798
788.226	6390
788.330	5664
788.435	4457
788.539	6360
788.643	6540
788.747	5107
788.852	4640
788.956	5331
789.060	5580
789.164	6470
789.268	5391
789.372	5721
789.476	5660
789.580	5931
789.684	5267
789.788	4854
789.892	6406
789.996	5612
790.100	4080
790.204	5599
790.308	6010
790.412	6488
790.516	4995
790.620	4315
790.724	5245
790.828	6525
790.931	5014
791.035	4397
791.139	4504
791.242	5030
791.346	5745
791.450	4751
791.554	4942
791.657	4060
791.761	3916
791.864	4813
791.968	5144
792.072	6599
792.175	5111
792.279	4664
792.382	4322
792.486	4566
792.589	4452
792.693	4989
792.796	5108
792.899	5064
793.003	4727
793.106	4737
793.209	4745
793.313	5201
793.416	3063
793.519	4635
793.623	3682
793.726	5866
793.829	5852
793.932	3492
794.035	3191
794.138	4382
794.242	5292
794.345	5960
794.448	4248
794.551	6329
794.654	12633
794.757	37838
794.860	56346
794.963	9404
795.066	4746
795.169	5519
795.272	4752
795.375	4076
795.477	4597
795.580	3817
795.683	3338
795.786	3833
795.889	4685
795.991	4598
796.094	4605
796.197	3951
796.300	3493
796.402	4383
796.505	4070
796.608	4312
796.710	3240
796.813	4152
796.915	4727
797.018	4995
797.120	3599
797.223	4316
797.326	4474
797.428	4518
797.530	3412
797.633	3401
797.735	3358
797.838	4682
797.940	4510
798.042	4827
798.145	3982
798.247	4225
798.349	2600
798.452	3187
798.554	3065
798.656	3843
798.758	5345
798.860	4440
798.962	3625
799.065	3517
799.167	3191
799.269	3896
799.371	3107
799.473	4266
799.575	5043
799.677	4288
799.779	3688
799.881	2798
799.983	4158
800.085	3859
800.187	2891
800.289	3386
800.390	3290
800.492	4016
800.594	4263
800.696	2652
800.798	3398
800.899	2480
801.001	3276
801.103	3068
801.205	3072
801.306	3567
801.408	3365
801.509	3758
801.611	2792
801.713	3716
801.814	2991
801.916	2530
802.017	2322
802.119	2650
802.220	1750
802.322	3132
802.423	2875
802.525	3411
802.626	3435
802.727	2274
802.829	3187
802.930	2771
803.031	3564
803.133	2946
803.234	3254
803.335	2931
803.436	3110
803.538	3326
803.639	2583
803.740	2899
803.841	2933
803.942	3982
804.043	3565
804.144	3779
804.245	1934
804.346	3124
804.447	2872
804.548	2525
804.649	2461
804.750	2486
804.851	2809
804.952	3164
805.053	3324
805.154	2723
805.255	2434
805.355	2746
805.456	3167
805.557	3522
805.658	2534
805.758	2983
805.859	2176
805.960	2872
806.061	2601
806.161	2352
806.262	2622
806.362	2643
806.463	2900
806.564	2888
806.664	2575
806.765	2658
806.865	2821
806.966	2511
807.066	2174
807.166	3304
807.267	2432
807.367	3733
807.468	3168
807.568	2431
807.668	2406
807.769	1925
807.869	2716
807.969	3029
808.069	2818
808.170	3015
808.270	2210
808.370	3075
808.470	2454
808.570	1753
808.670	2652
808.770	2661
808.870	2094
808.970	2057
809.070	1619
809.170	1645
809.271	2284
809.370	2578
809.470	2705
809.570	2384
809.670	2058
809.770	1860
809.870	2193
809.970	2634
810.070	2509
810.169	2432
810.269	2035
810.369	3046
810.469	2257
810.568	1792
810.668	1929
810.768	1578
810.867	2439
810.967	2086
811.066	2623
811.166	2056
811.265	2674
811.365	2292
811.464	2145
811.564	1750
811.663	1666
811.763	2243
811.862	2398
811.962	2568
812.061	2727
812.160	2639
812.260	1979
812.359	2394
812.458	2181
812.557	2836
812.657	5127
812.756	6486
812.855	3261
812.954	2210
813.053	2265
813.153	2996
813.252	2273
813.351	2270
813.450	2376
813.549	3148
813.648	2087
813.747	2663
813.846	1836
813.945	2293
814.044	2606
814.143	2737
814.242	2430
814.341	3218
814.439	1837
814.538	3358
814.637	2604
814.736	3692
814.835	2631
814.933	2912
815.032	3149
815.131	4274
815.229	4861
815.328	10136
815.427	10895
815.525	8510
815.624	7452
815.722	7332
815.821	7449
815.919	8258
816.018	8416
816.116	7885
816.215	7293
816.313	8422
816.412	8859
816.510	10585
816.609	10700
816.707	10431
816.805	11444
816.904	10456
817.002	10605
817.100	10723
817.198	9939
817.296	11402
817.395	10143
817.493	10714
817.591	10351
817.689	9818
817.787	9612
817.885	10798
817.983	9735
818.081	11087
818.179	13392
818.277	20051
818.375	40849
818.473	29617
818.571	13036
818.669	9225
818.767	10668
818.865	9919
818.963	9273
819.061	8573
819.158	11496
819.256	12812
819.354	19601
819.452	34752
819.549	68142
819.647	39206
819.745	15787
819.842	9930
819.940	8480
820.038	9668
820.135	8617
820.233	6642
820.330	8598
820.428	8113
820.525	7018
820.623	8280
820.720	7079
820.818	7441
820.915	8391
821.012	7738
821.110	6616
821.207	6986
821.304	8157
821.402	7452
821.499	8444
821.596	8231
821.693	6614
821.791	8002
821.888	6889
821.985	7161
822.082	7156
822.179	5696
822.276	6883
822.373	7285
822.470	5954
822.567	6937
822.664	6992
822.761	6903
822.858	6422
822.955	7476
823.052	6245
823.149	5512
823.246	7541
823.343	7290
823.440	6217
823.536	5845
823.633	6928
823.730	6359
823.827	5560
823.923	6645
824.020	6840
824.117	5552
824.213	6738
824.310	7216
824.407	4908
824.503	4798
824.600	7382
824.696	4729
824.793	5555
824.889	6796
824.986	7475
825.082	5157
825.179	5078
825.275	4195
825.371	7037
825.468	7196
825.564	4603
825.660	4001
825.757	5954
825.853	7395
825.949	5047
826.045	4970
826.142	4503
826.238	6241
826.334	6131
826.430	5013
826.526	5952
826.622	3349
826.718	3338
826.814	6414
826.910	6915
827.006	5033
827.102	4060
827.198	3989
827.294	5228
827.390	5715
827.486	6028
827.582	3493
827.678	3530
827.774	4219
827.869	6030
827.965	4755
828.061	3744
828.157	4671
828.252	5312
828.348	5109
828.444	5467
828.539	3865
828.635	4901
828.731	5597
828.826	3669
828.922	5137
829.017	4102
829.113	5980
829.208	5100
829.304	4113
829.399	5291
829.495	5760
829.590	3743
829.685	4036
829.781	4769
829.876	5182
829.971	5243
830.066	2894
830.162	2531
830.257	4802
830.352	7277
830.447	4580
830.543	2710
830.638	3424
830.733	5732
830.828	5189
830.923	4304
831.018	3895
831.113	3715
831.208	5462
831.303	3183
831.398	3120
831.493	3771
831.588	5039
831.683	5850
831.778	3250
831.873	1973
831.967	3416
832.062	3935
832.157	4670
832.252	4331
832.346	3744
832.441	3695
832.536	4858
832.631	4414
832.725	3336
832.820	2858
832.914	4250
833.009	2844
833.104	2980
833.198	2886
833.293	2565
833.387	3452
833.482	3632
833.576	4221
833.670	4283
833.765	3012
833.859	3804
833.954	4868
834.048	4105
834.142	3007
834.237	3256
834.331	3033
834.425	3534
834.519	3707
834.613	4500
834.708	2186
834.802	2920
834.896	2476
834.990	3515
835.084	3852
835.178	2893
835.272	2498
835.366	2962
835.460	4130
835.554	4443
835.648	3464
835.742	2740
835.836	2252
835.930	1898
836.024	3915
836.117	3302
836.211	2399
836.305	2899
836.399	2304
836.493	2602
836.586	3331
836.680	2908
836.774	3006
836.867	2476
836.961	2090
837.055	2788
837.148	1894
837.242	2308
837.335	2907
837.429	3095
837.522	2097
837.616	2070
837.709	2140
837.803	2109
837.896	2253
837.989	3737
838.083	3527
838.176	2171
838.269	1707
838.363	2215
838.456	3122
838.549	2384
838.642	3292
838.735	2239
838.829	2802
838.922	2028
839.015	2638
839.108	2257
839.201	2832
839.294	2517
839.387	2773
839.480	2468
839.573	2731
839.666	2132
839.759	2169
839.852	2287
839.945	2259
840.038	3078
840.131	1248
840.223	921
840.316	2432
840.409	2355
840.502	3017
840.594	2896
840.687	1615
840.780	2352
840.873	744
840.965	1459
841.058	2143
841.150	2682
841.243	2548
841.336	2436
841.428	1806
841.521	859
841.613	1178
841.706	2642
841.798	1981
841.890	1767
841.983	1607
842.075	1640
842.167	1737
842.260	1973
842.352	2672
842.444	3428
842.537	2278
842.629	1797
842.721	1688
842.813	1710
842.905	1492
842.997	2429
843.090	1935
843.182	1707
843.274	1621
843.366	2180
843.458	2540
843.550	4302
843.642	2954
843.734	2219
843.826	1886
843.918	1708
844.009	1725
844.101	1668
844.193	1560
844.285	1557
844.377	1990
844.469	2912
844.560	657
844.652	1082
844.744	1504
844.835	1405
844.927	681
845.019	2114
845.110	2133
845.202	1884
845.293	2092
845.385	1352
845.476	925
845.568	2292
845.659	2058
845.751	1850
845.842	2146
845.934	1883
846.025	2206
846.116	2053
846.208	994
846.299	1459
846.390	1536
846.482	1407
846.573	1574
846.664	2111
846.755	1702
846.846	2101
846.937	1335
847.029	1205
847.120	1318
847.211	994
847.302	1896
847.393	1950
847.484	2695
847.575	1177
847.666	874
847.757	854
847.847	1256
847.938	1878
848.029	1512
848.120	2302
848.211	1781
848.302	1028
848.392	1437
848.483	1494
848.574	1275
848.664	1400
848.755	1303
848.846	1584
848.936	1216
849.027	1550
849.118	2735
849.208	1708
849.299	2317
849.389	3849
849.480	5221
849.570	8452
849.661	16574
849.751	29612
849.841	43527
849.932	14205
850.022	3228
850.112	2915
850.203	1695
850.293	2141
850.383	1509
850.474	1378
850.564	2087
850.654	1908
850.744	1321
850.834	1102
850.924	1726
851.014	2090
851.104	1181
851.194	1103
851.284	1327
851.374	1765
851.464	1433
851.554	2024
851.644	1027
851.734	1380
851.824	2599
851.914	2010
852.004	1910
852.094	3331
852.183	2886
852.273	1764
852.363	576
852.452	1178
852.542	1760
852.632	740
852.721	1325
852.811	732
852.901	1522
852.990	1710
853.080	2043
853.169	2948
853.259	1987
853.348	1891
853.438	2040
853.527	3544
853.617	2852
853.706	5476
853.795	9265
853.885	16826
853.974	35896
854.063	60913
854.152	108626
854.242	137223
854.331	55021
854.420	16083
854.509	7870
854.598	6023
854.687	5037
854.777	3953
854.866	3238
854.955	3002
855.044	2547
855.133	2703
855.222	1377
855.311	1469
855.400	2022
855.488	946
855.577	1793
855.666	1867
855.755	1901
855.844	1013
855.933	1824
856.021	2287
856.110	1432
856.199	1184
856.288	796
856.376	990
856.465	231
856.554	1715
856.642	1154
856.731	1892
856.819	1605
856.908	1894
856.996	1010
857.085	1164
857.173	909
857.262	877
857.350	957
857.438	688
857.527	752
857.615	1434
857.703	1677
857.792	995
857.880	1435
857.968	1047
858.056	1385
858.145	1331
858.233	793
858.321	1433
858.409	1331
858.497	1388
858.585	706
858.673	1558
858.761	946
858.849	443
858.937	948
859.025	914
859.113	1011
859.201	1292
859.289	2105
859.377	1282
859.465	1145
859.552	982
859.640	1729
859.728	1796
859.816	1641
859.903	1045
859.991	1342
860.079	1473
860.166	1720
860.254	1157
860.342	1252
860.429	1322
860.517	907
860.604	1358
860.692	826
860.779	782
860.867	452
860.954	1347
861.042	690
861.129	1787
861.216	2039
861.304	1948
861.391	1501
861.478	1038
861.565	1109
861.653	1596
861.740	1087
861.827	1721
861.914	1258
862.001	1357
862.089	1449
862.176	1156
862.263	437
862.350	1153
862.437	684
862.524	1181
862.611	1004
862.698	1852
862.785	1450
862.871	1240
862.958	2040
863.045	2224
863.132	1564
863.219	1787
863.306	1162
863.392	1326
863.479	1845
863.566	1540
863.652	943
863.739	1447
863.826	1910
863.912	1871
863.999	1192
864.086	1895
864.172	1360
864.259	2073
864.345	1608
864.432	1627
864.518	1991
864.604	1563
864.691	2115
864.777	2243
864.863	2582
864.950	4517
865.036	4974
865.122	6768
865.209	10504
865.295	12053
865.381	10392
865.467	9489
865.553	9663
865.639	9805
865.726	10820
865.812	16149
865.898	24083
865.984	38950
866.070	52557
866.156	91070
866.242	86701
866.328	31404
866.414	14080
866.499	10674
866.585	9750
866.671	9261
866.757	8533
866.843	7687
866.928	7537
867.014	8087
867.100	8283
867.186	7334
867.271	7262
867.357	7190
867.442	7384
867.528	7378
867.614	6787
867.699	6989
867.785	7180
867.870	6649
867.956	7172
868.041	7316
868.127	7179
868.212	6848
868.297	7256
868.383	6910
868.468	6944
868.553	6844
868.639	6737
868.724	7058
868.809	7804
868.894	7667
868.979	6128
869.065	7396
869.150	5625
869.235	5872
869.320	5914
869.405	7533
869.490	5595
869.575	6796
869.660	5532
869.745	4769
869.830	6357
869.915	6963
870.000	5204
870.085	6257
870.169	5286
870.254	7342
870.339	7074
870.424	5173
870.509	4713
870.593	6663
870.678	6926
870.763	6229
870.847	5200
870.932	4383
871.016	6444
871.101	6639
871.186	4562
871.270	6661
871.355	6767
871.439	4947
871.523	4867
871.608	5361
871.692	4145
871.777	4998
871.861	6283
871.945	6513
872.030	5251
872.114	5813
872.198	5261
872.282	4578
872.367	4817
872.451	5024
872.535	4767
872.619	5187
872.703	5159
872.787	5232
872.871	6093
872.955	5848
873.039	3919
873.123	4244
873.207	5812
873.291	4734
873.375	2914
873.459	4745
873.543	5652
873.627	5006
873.711	3906
873.794	4977
873.878	4983
873.962	4479
874.045	3644
874.129	4006
874.137	4053
874.213	4523
874.245	4606
874.296	4744
874.352	4187
874.380	3912
874.460	4505
874.464	4531
874.547	4435
874.568	4246
874.631	3690
874.676	3778
874.714	3865
874.784	4706
874.798	4865
874.881	5465
874.892	5163
874.965	3119
874.999	3181
875.048	3268
875.107	3803
875.131	4021
875.215	4052
875.215	4051
875.298	3282
875.323	2980
875.381	2328
875.430	3075
875.465	3621
875.538	4998
875.548	5169
875.631	4999
875.646	4654
875.714	3029
875.753	2502
875.798	1944
875.861	2921
875.881	3219
875.964	4782
875.968	4739
876.047	3947
876.076	3676
876.130	3170
876.183	3163
876.213	3155
876.291	3472
876.296	3490
876.379	3877
876.398	3752
876.462	3356
876.506	3114
876.545	2937
876.613	2752
876.628	2707
876.711	3139
876.721	3173
876.794	3421
876.828	3646
876.877	3933
876.935	3874
876.960	3870
877.043	2912
877.043	2913
877.125	2982
877.150	3152
877.208	3635
877.258	4151
877.291	4314
877.365	2753
877.374	2618
877.456	2313
877.472	2345
877.539	2373
877.579	2704
877.622	3086
877.687	3623
877.704	3711
877.787	3255
877.794	3187
877.869	2734
877.901	3060
877.952	3399
878.008	3036
878.034	2874
878.115	2143
878.117	2130
878.199	2252
878.222	2336
878.282	2607
878.329	3048
878.364	3390
878.437	3441
878.447	3397
878.529	3083
878.544	2980
878.611	2841
878.651	2516
878.694	2024
878.758	2668
878.776	2870
878.858	2888
878.865	2867
878.941	2633
878.972	2652
879.023	2671
879.078	2341
879.105	2130
879.185	2415
879.187	2425
879.269	2786
879.292	2727
879.351	2603
879.399	3057
879.433	3239
879.506	2130
879.516	2019
879.598	2267
879.613	2305
879.680	2384
879.720	2299
879.762	2233
879.827	2707
879.844	2794
879.926	2582
879.933	2558
880.007	2533
880.040	2629
880.089	2581
880.147	2157
880.171	2146
880.253	2862
880.254	2867
880.335	3196
880.360	3254
880.417	3488
880.467	3748
880.499	4149
880.574	5486
880.580	5559
880.662	5829
880.680	5382
880.744	3531
880.787	2929
880.825	2320
880.893	2015
880.907	2065
880.989	2646
881.000	2594
881.070	1869
881.106	1813
881.152	2017
881.213	2566
881.233	2623
881.315	2041
881.319	2045
881.396	2595
881.426	2594
881.478	2297
881.532	2257
881.559	2356
881.639	2728
881.641	2724
881.722	2323
881.745	2136
881.803	1923
881.852	2168
881.885	2302
881.958	2164
881.966	2142
882.047	1747
882.064	1684
882.129	1440
882.171	1652
882.210	1909
882.277	1788
882.291	1675
882.372	1371
882.383	1356
882.454	1847
882.489	2019
882.535	2197
882.596	2332
882.616	2349
882.697	2329
882.702	2336
882.778	2015
882.808	1759
882.859	1615
882.914	1845
882.940	1799
883.020	1446
883.021	1449
883.102	1971
883.127	2211
883.183	2206
883.233	2168
883.264	2266
883.339	2433
883.345	2409
883.426	1693
883.445	1619
883.507	1354
883.551	1143
883.587	1461
883.657	2212
883.668	2237
883.749	2389
883.763	2418
883.830	2321
883.869	2048
883.910	1734
883.975	1373
883.991	1280
884.072	1002
884.081	995
884.152	1540
884.187	1800
884.233	2187
884.292	2484
884.314	2480
884.394	2141
884.398	2126
884.475	1090
884.504	913
884.555	1014
884.610	893
884.636	979
884.716	1470
884.716	1473
884.797	1925
884.821	2114
884.877	2049
884.927	1606
884.958	1441
885.033	1412
885.038	1416
885.118	1454
885.139	1384
885.199	966
885.244	1065
885.279	1158
885.350	1004
885.359	1099
885.439	2129
885.456	2327
885.520	2490
885.561	2426
885.600	2189
885.667	1779
885.680	1644
885.760	1272
885.773	1179
885.840	1462
885.878	1560
885.920	1380
885.984	1150
886.000	1132
886.080	1360
886.089	1346
886.160	1513
886.195	1760
886.240	1963
886.300	1908
886.320	1822
886.400	1704
886.406	1692
886.480	1766
886.511	1762
886.560	1467
886.616	1167
886.640	1191
886.720	1526
886.722	1527
886.800	966
886.827	855
886.879	1241
886.932	1547
886.959	1514
887.038	1584
887.039	1587
887.119	1849
887.143	1841
887.198	1395
887.248	1221
887.278	1357
887.354	1556
887.358	1534
887.437	1199
887.459	1042
887.517	1347
887.564	1745
887.596	1655
887.669	1324
887.676	1327
887.755	1482
887.774	1483
887.835	807
887.880	332
887.914	350
887.985	536
887.994	621
888.073	1231
888.090	1404
888.153	2154
888.195	2527
888.232	2318
888.300	1982
888.311	1942
888.391	1685
888.405	1640
888.470	738
888.510	145
888.549	497
888.615	1178
888.628	1182
888.708	1235
888.720	1242
888.787	1678
888.825	1881
888.866	1472
888.930	871
888.945	883
889.024	990
889.035	1012
889.103	1110
889.140	1128
889.182	1252
889.245	1448
889.261	1349
889.340	936
889.349	887
889.419	1271
889.454	1472
889.498	1321
889.559	1128
889.577	1125
889.656	1130
889.664	1137
889.735	1227
889.768	1272
889.814	1314
889.873	1375
889.978	1215
890.083	1347
890.187	628
890.292	1463
890.397	952
890.501	1984
890.606	488
890.710	1408
890.815	1280
890.919	1623
891.024	1045
891.128	894
891.233	219
891.337	1645
891.442	1784
891.546	2109
891.650	906
891.755	1251
891.859	1904
891.963	1108
892.068	1843
892.172	1957
892.276	69
892.380	1550
892.484	1426
892.589	1949
892.693	994
892.797	665
892.901	804
893.005	523
893.109	727
893.213	2808
893.317	1346
893.421	815
893.525	385
893.629	375
893.733	1305
893.837	1447
893.941	1058
894.045	1322
894.148	-134
894.252	1065
894.356	1107
894.460	2334
894.564	830
894.667	1382
894.771	662
894.875	519
894.978	565
895.082	1666
895.186	1216
895.289	1342
895.393	-3
895.496	997
895.600	1316
895.703	733
895.807	572
895.910	856
896.014	623
896.117	711
896.221	-6
896.324	1146
896.427	1078
896.531	834
896.634	332
896.737	1487
896.840	1332
896.944	1478
897.047	935
897.150	1376
897.253	916
897.356	1159
897.460	328
897.563	794
897.666	40
897.769	1486
897.872	415
897.975	759
898.078	1182
898.181	741
898.284	227
898.387	690
898.490	2113
898.593	1444
898.695	-318
898.798	69
898.901	345
899.004	1698
899.107	-19
899.209	1159
899.312	677
899.415	1621
899.518	693
899.620	153
899.723	1
899.826	837
899.928	126
900.031	397
900.133	532
900.236	954
900.338	631
900.441	365
900.543	481
900.646	1021
900.748	101
900.851	1344
900.953	1349
901.055	129
901.158	218
901.260	853
901.362	367
901.465	-867
901.567	318
901.669	2009
901.771	-183
901.873	1169
901.976	635
902.078	441
902.180	256
902.282	-477
902.384	-106
902.486	1571
902.588	1601
902.690	616
902.792	204
902.894	-563
902.996	743
903.098	1094
903.200	503
903.302	793
903.404	-395
903.505	725
903.607	163
903.709	522
903.811	2036
903.913	1913
904.014	-731
904.116	270
904.218	-193
904.319	1007
904.421	512
904.523	1031
904.624	606
904.726	580
904.827	-71
904.929	-107
905.030	272
905.132	1469
905.233	1216
905.335	1031
905.436	59
905.537	3
905.639	-226
905.740	413
905.841	-167
905.943	1416
906.044	652
906.145	619
906.247	26
906.348	223
906.449	283
906.550	955
906.651	-463
906.752	479
906.854	6
906.955	1179
907.056	29
907.157	586
907.258	979
907.359	555
907.460	-858
907.561	522
907.662	-819
907.762	770
907.863	290
907.964	1157
908.065	517
908.166	789
908.267	722
908.367	685
908.468	107
908.569	434
908.670	725
908.770	914
908.871	-395
908.971	1159
909.072	148
909.173	457
909.273	107
909.374	1077
909.474	859
909.575	503
909.675	447
909.776	1046
909.876	-543
909.977	705
910.077	3
910.177	631
910.278	970
910.378	238
910.478	-434
910.579	177
910.679	973
910.779	889
910.879	-613
910.980	438
911.080	152
911.180	1261
911.280	-99
911.380	531
911.480	-117
911.580	198
911.680	-279
911.780	555
911.880	1165
911.980	1064
912.080	511
912.180	889
912.280	578
912.380	831
912.480	532
912.580	262
912.679	-622
912.779	872
912.879	548
912.979	-46
913.078	129
913.178	330
913.278	-350
913.377	201
913.477	-454
913.577	260
913.676	-211
913.776	-40
913.875	75
913.975	373
914.074	716
914.174	1104
914.273	-451
914.373	421
914.472	629
914.572	339
914.671	52
914.770	453
914.870	292
914.969	287
915.068	473
915.167	973
915.267	580
915.366	413
915.465	639
915.564	915
915.663	83
915.763	919
915.862	927
915.961	799
916.060	100
916.159	813
916.258	-207
916.357	426
916.456	605
916.555	146
916.654	1130
916.752	471
916.851	674
916.950	395
917.049	420
917.148	594
917.247	497
917.345	148
917.444	-206
917.543	311
917.642	-141
917.740	1082
917.839	1027
917.937	1433
918.036	1741
918.135	367
918.233	708
918.332	1159
918.430	571
918.529	1149
918.627	795
918.726	578
918.824	1033
918.923	1083
919.021	647
919.119	660
919.218	46
919.316	151
919.414	-311
919.512	859
919.611	601
919.709	1787
919.807	294
919.905	1433
920.003	653
920.102	541
920.200	444
920.298	967
920.396	1630
920.494	661
920.592	89
920.690	976
920.788	871
920.886	1030
920.984	913
921.082	1605
921.180	844
921.277	1364
921.375	1364
921.473	2293
921.571	2308
921.669	2738
921.766	1949
921.864	2849
921.962	2362
922.060	2203
922.157	1397
922.255	2436
922.352	1940
922.450	2451
922.548	2050
922.645	2578
922.743	3523
922.840	5903
922.938	7627
923.035	6470
923.133	5224
923.230	7021
923.327	7723
923.425	8200
923.522	7502
923.619	7352
923.717	6667
923.814	6241
923.911	5529
924.008	6648
924.106	5495
924.203	6105
924.300	5987
924.397	6253
924.494	5796
924.591	6461
924.688	4877
924.786	6335
924.883	5935
924.979	6688
925.077	5424
925.173	6608
925.270	5570
925.367	5705
925.464	5694
925.561	6327
925.658	5994
925.755	5716
925.852	5212
925.948	6240
926.045	4754
926.142	6128
926.239	5969
926.335	6307
926.432	4378
926.529	6015
926.625	5824
926.722	5909
926.818	3929
926.915	5360
927.011	5591
927.108	5564
927.204	4806
927.301	4728
927.397	4479
927.494	6140
927.590	5545
927.687	4150
927.783	4918
927.879	6209
927.976	5626
928.072	4373
928.168	4861
928.264	5565
928.361	5052
928.457	5676
928.553	5585
928.649	4757
928.745	4648
928.841	5626
928.937	4069
929.033	5609
929.129	4977
929.225	5502
929.321	5197
929.417	3698
929.513	4068
929.609	5215
929.705	3632
929.801	4594
929.897	4877
929.993	4145
930.089	4289
930.184	4312
930.280	4055
930.376	5044
930.471	4768
930.567	3764
930.663	2981
930.758	4690
930.854	2939
930.950	4628
931.045	4245
931.141	3962
931.236	4600
931.332	5802
931.427	2663
931.523	3892
931.618	5257
931.714	3849
931.809	2947
931.905	4551
932.000	4231
932.095	2574
932.191	3752
932.286	5518
932.381	4903
932.476	3444
932.572	3683
932.667	3654
932.762	2724
932.857	3697
932.952	4098
933.047	4962
933.142	3498
933.237	3534
933.332	4539
933.427	4956
933.522	4290
933.617	3163
933.712	2762
933.807	3703
933.902	4798
933.997	4355
934.092	3767
934.187	3114
934.282	3872
934.376	4452
934.471	3842
934.566	3869
934.661	2826
934.755	3332
934.850	3853
934.945	4441
935.039	3435
935.134	3053
935.228	1888
935.323	4091
935.417	4968
935.512	2611
935.606	1859
935.701	3351
935.795	3703
935.890	4062
935.984	2462
936.079	2176
936.173	1901
936.267	3509
936.362	3406
936.456	2924
936.550	3771
936.644	4446
936.738	2589
936.833	3201
936.927	2653
937.021	2620
937.115	3602
937.209	3537
937.303	3558
937.397	3435
937.491	2762
937.585	2426
937.679	3573
937.773	3100
937.867	2271
937.961	2418
938.055	2294
938.149	4856
938.243	3178
938.337	2498
938.430	1243
938.524	2794
938.618	3055
938.712	2839
938.805	2252
938.899	3393
938.993	3160
939.086	3602
939.180	1694
939.274	2131
939.367	2879
939.461	3346
939.554	1990
939.648	2249
939.741	1137
939.835	2067
939.928	3016
940.022	4324
940.115	2145
940.208	3242
940.302	1533
940.395	4487
940.488	2916
940.582	2879
940.675	2066
940.768	2033
940.861	1767
940.954	3557
941.048	2550
941.141	959
941.234	1284
941.327	2892
941.420	2632
941.513	3351
941.606	2712
941.699	2635
941.792	1520
941.885	2844
941.978	2168
942.071	2764
942.164	1083
942.257	1681
942.349	1790
942.442	3253
942.535	1689
942.628	1333
942.721	1326
942.813	1784
942.906	2185
942.999	2618
943.091	984
943.184	2253
943.277	2100
943.369	2147
943.462	1374
943.554	1408
943.647	1587
943.739	2194
943.832	2840
943.924	2129
944.017	202
944.109	1333
944.201	1206
944.294	2296
944.386	1473
944.478	2091
944.571	1481
944.663	1010
944.755	1856
944.847	2424
944.940	2575
945.032	2419
945.124	721
945.216	1765
945.308	953
945.400	2332
945.492	1408
945.584	1699
945.676	2135
945.768	3039
945.860	2785
945.952	1903
946.044	2119
946.136	1426
946.228	1076
946.320	1589
946.412	1397
946.503	2048
946.595	2066
946.687	2196
946.779	1310
946.870	732
946.962	1612
947.054	1562
947.145	1314
947.237	2655
947.329	1753
947.420	1684
947.512	1922
947.603	1173
947.695	1054
947.786	1378
947.878	643
947.969	1671
948.061	905
948.152	2310
948.243	964
948.335	1357
948.426	466
948.517	1007
948.609	1052
948.700	2128
948.791	1091
948.882	2167
948.973	539
949.065	1753
949.156	867
949.247	1586
949.338	594
949.429	1359
949.520	518
949.611	1675
949.702	2439
949.793	1825
949.884	879
949.975	1840
950.066	390
950.157	1266
950.247	504
950.338	879
950.429	-341
950.520	1112
950.611	336
950.701	1431
950.792	1427
950.883	2022
950.973	974
951.064	2045
951.155	1321
951.245	2514
951.336	1242
951.427	1529
951.517	2175
951.608	2352
951.698	1335
951.788	1286
951.879	1245
951.969	1312
952.060	568
952.150	454
952.240	691
952.331	2012
952.421	1702
952.511	525
952.602	994
952.692	521
952.782	402
952.872	1297
952.962	944
953.052	1635
953.143	612
953.233	1187
953.323	1084
953.413	1129
953.503	842
953.593	1417
953.683	1385
953.773	2322
953.863	274
953.953	540
954.042	425
954.132	1304
954.222	1750
954.312	1085
954.402	397
954.492	899
954.581	581
954.671	986
954.761	1070
954.850	1368
954.940	720
955.030	584
955.119	798
955.209	1744
955.298	340
955.388	1816
955.477	1502
955.567	1624
955.656	585
955.746	947
955.835	972
955.925	1012
956.014	-200
956.103	2181
956.193	1849
956.282	2811
956.371	1120
956.461	904
956.550	1057
956.639	1284
956.728	596
956.817	762
956.906	913
956.995	1867
957.085	1225
957.174	1313
957.263	697
957.352	835
957.441	1085
957.530	667
957.619	770
957.708	536
957.796	145
957.885	1440
957.974	1098
958.063	1444
958.152	998
958.241	1176
958.329	240
958.418	64
958.507	577
958.596	1389
958.684	1401
958.773	830
958.861	396
958.950	1686
959.039	476
959.127	1335
959.216	815
959.304	1403
959.393	1453
959.481	737
959.570	1476
959.658	990
959.746	539
959.835	1139
959.923	829
960.011	860
960.100	901
960.188	1165
960.276	737
960.365	879
960.453	440
960.541	672
960.629	1160
960.717	1424
960.805	12
960.893	498
960.981	259
961.069	2024
961.158	1310
961.245	2008
961.333	1613
961.421	1913
961.509	1692
961.597	1396
961.685	181
961.773	1004
961.861	602
961.949	1212
962.036	1945
962.124	49
962.212	716
962.299	399
962.387	880
962.475	1108
962.562	-164
962.650	1075
962.738	1477
962.825	795
962.913	1108
963.000	757
963.088	931
963.175	1436
963.263	-452
963.350	788
963.438	145
963.525	1324
963.612	529
963.700	779
963.787	795
963.874	1476
963.962	688
964.049	1448
964.136	87
964.223	869
964.310	244
964.398	163
964.485	72
964.572	464
964.659	458
964.746	804
964.833	62
964.920	269
965.007	619
965.094	1175
965.181	346
965.268	558
965.355	436
965.441	661
965.528	530
965.615	569
965.702	1198
965.789	716
965.875	154
965.962	938
966.049	332
966.136	978
966.222	1017
966.309	1047
966.395	912
966.482	1897
966.569	558
966.655	1239
966.742	733
966.828	834
966.915	194
967.001	1020
967.087	334
967.174	-32
967.260	-232
967.347	96
967.433	513
967.519	712
967.605	1030
967.692	859
967.778	564
967.864	819
967.950	467
968.036	653
968.123	628
968.209	1114
968.295	959
968.381	1363
968.467	-162
968.553	50
968.639	1339
968.725	817
968.811	374
968.897	1580
968.983	1635
969.069	1029
969.154	459
969.240	591
969.326	192
969.412	483
969.497	-171
969.583	337
969.669	1057
969.755	728
969.840	1127
969.926	1874
970.012	1214
970.097	2124
970.183	2137
970.268	1600
970.354	757
970.439	850
970.525	137
970.610	58
970.696	667
970.781	520
970.866	-745
970.952	228
971.037	100
971.122	763
971.208	6
971.293	29
971.378	257
971.463	146
971.549	109
971.634	368
971.719	179
971.804	208
971.889	279
971.974	460
972.059	-22
972.144	523
972.229	224
972.314	-138
972.399	-82
972.484	-554
972.569	390
972.654	368
972.739	-434
972.824	90
972.908	-331
972.993	147
973.078	-135
973.163	1030
973.247	581
973.332	207
973.417	309
973.501	-82
973.586	-364
973.671	414
973.755	664
973.840	988
973.924	771
974.009	713
974.093	115
974.178	1453
974.262	542
974.346	169
974.431	-11
974.515	1249
974.600	29
974.684	1181
974.768	-18
974.852	712
974.937	940
975.021	976
975.105	913
975.189	415
975.273	-10
975.358	570
975.442	-150
975.526	656
975.610	-59
975.694	1155
975.778	414
975.862	140
975.946	-610
976.030	1413
976.114	-248
976.198	747
976.281	-849
976.365	432
976.449	-85
976.533	195
976.617	408
976.700	566
976.784	-20
976.868	461
976.951	-450
977.035	96
977.119	15
977.202	-108
977.286	132
977.369	1285
977.453	646
977.536	806
977.620	799
977.703	820
977.787	-152
977.870	924
977.953	1161
978.037	380
978.120	615
978.203	575
978.287	-365
978.370	475
978.453	343
978.536	-102
978.620	686
978.703	434
978.786	707
978.869	495
978.952	-641
979.035	1093
979.118	791
979.201	745
979.284	853
979.367	215
979.450	55
979.533	211
979.616	-237
979.699	-380
979.782	-354
979.865	-63
979.948	26
980.030	45
980.113	394
980.196	-361
980.279	539
980.361	-182
980.444	-218
980.526	520
980.609	652
980.692	1408
980.774	1606
980.857	991
980.939	1641
981.022	1213
981.104	703
981.187	971
981.269	567
981.352	223
981.434	-899
981.516	632
981.599	648
981.681	555
981.763	203
981.846	666
981.928	-526
982.010	1772
982.092	295
982.174	153
982.256	496
982.339	582
982.421	-435
982.503	125
982.585	405
982.667	436
982.749	272
982.831	398
982.913	-167
982.995	395
983.077	235
983.158	785
983.240	145
983.322	864
983.404	846
983.486	2001
983.568	1718
983.649	1281
983.731	676
983.813	1128
983.894	828
983.976	294
984.058	461
984.139	1056
984.221	349
984.302	1632
984.384	608
984.465	384
984.547	612
984.628	750
984.710	1294
984.791	832
984.872	246
984.954	41
985.035	775
985.116	1224
985.198	776
985.279	981
985.360	-57
985.441	1410
985.522	596
985.604	355
985.685	290
985.766	1215
985.847	748
985.928	703
986.009	610
986.090	1226
986.171	-9
986.252	786
986.333	309
986.414	1141
986.495	753
986.576	1011
986.656	427
986.737	1340
986.818	1382
986.899	1107
986.980	996
987.060	1137
987.141	1032
987.222	763
987.302	1146
987.383	1527
987.464	1937
987.544	2110
987.625	1414
987.705	1268
987.786	1764
987.866	1409
987.947	517
988.027	629
988.108	796
988.188	1603
988.268	694
988.349	2097
988.429	1093
988.509	1336
988.589	1184
988.670	-185
988.750	853
988.830	1430
988.910	516
988.990	1722
989.070	1286
989.151	1252
989.231	989
989.311	1311
989.391	600
989.471	1478
989.551	769
989.631	880
989.711	1270
989.791	228
989.870	960
989.950	667
990.030	150
990.110	1036
990.190	715
990.269	717
990.349	76
990.429	845
990.509	670
990.588	-25
990.668	96
990.747	1104
990.827	497
990.907	381
990.986	432
991.066	552
991.145	335
991.225	894
991.304	9
991.383	669
991.463	577
991.542	1036
991.622	1091
991.701	616
991.780	735
991.859	1435
991.939	445
992.018	128
992.097	599
992.176	1279
992.256	-272
992.335	630
992.414	252
992.493	1373
992.572	309
992.651	344
992.730	345
992.809	508
992.888	343
992.967	-203
993.046	106
993.125	413
993.203	256
993.282	766
993.361	413
993.440	-66
993.519	-418
993.597	-139
993.676	254
993.755	-60
993.834	-233
993.912	41
993.991	265
994.069	928
994.148	398
994.226	336
994.305	566
994.384	-451
994.462	619
994.540	-158
994.619	-398
994.697	601
994.776	-627
994.854	1383
994.932	104
995.011	-11
995.089	-1021
995.167	897
995.245	607
995.324	31
995.402	-415
995.480	685
995.558	-803
995.636	-214
995.714	-464
995.792	-260
995.870	692
995.948	0
996.026	185
996.104	-368
996.182	1088
996.260	-309
996.338	-52
996.416	35
996.494	-872
996.572	898
996.649	-262
996.727	431
996.805	489
996.883	630
996.960	395
997.038	253
997.116	-209
997.193	-27
997.271	-845
997.348	140
997.426	-766
997.504	146
997.581	329
997.658	397
997.736	-516
997.813	-153
997.891	45
997.968	355
998.046	-965
998.123	-470
998.200	-970
998.277	-475
998.355	-460
998.432	-418
998.509	-350
998.586	-539
998.663	-615
998.741	-85
998.818	-584
998.895	-149
998.972	-457
999.049	8
999.126	-178
999.203	-420
999.280	-900
999.357	126
999.434	-381
999.511	-35
999.587	-911
999.664	-232
999.741	67
999.818	32
999.895	-650
999.971	469
1000.048	-435
1000.125	-35
1000.202	-636
1000.278	-244
1000.355	-922
1000.431	280
1000.508	-832
1000.584	-1149
1000.661	-843
1000.738	-535
1000.814	-866
1000.890	-84
1000.967	-509
1001.043	-411
1001.120	-1180
1001.196	-766
1001.272	-150
1001.349	-38
1001.425	-189
1001.501	-1224
1001.577	-533
1001.654	13
1001.730	-742
1001.806	-18
1001.882	-1056
1001.958	352
1002.034	-172
1002.110	-557
1002.186	-1159
1002.262	-1546
1002.338	-1028
1002.414	-370
1002.490	-808
1002.566	-334
1002.642	-1455
1002.718	258
1002.794	-823
1002.870	-104
1002.945	-396
1003.021	-693
1003.097	-1016
1003.173	-571
1003.248	-940
1003.324	-15
1003.400	-69
1003.475	-984
1003.551	-926
1003.626	-1199
1003.702	-953
1003.777	-806
1003.853	-1512
1003.928	-1207
1004.004	-1316
1004.079	-364
1004.155	-247
1004.230	-881
1004.305	-852
1004.381	-1333
1004.456	-732
1004.531	-94
1004.607	-1361
1004.682	-1663
1004.757	-1837
1004.832	-910
1004.907	-1050
1004.982	-326
1005.057	-1483
1005.133	-1273
1005.208	-678
1005.283	-673
1005.358	-1324
1005.433	-1027
1005.508	-758
1005.583	-515
1005.657	-1245
1005.732	-551
1005.807	-1319
1005.882	-1766
1005.957	-1277
1006.032	459
1006.106	-1720
1006.181	-843
1006.256	-1183
1006.331	-242
1006.405	-1486
1006.480	-1638
1006.554	-1272
1006.629	-1274
1006.704	-1418
1006.778	-1126
1006.853	-1113
1006.927	-1007
1007.002	-1786
1007.076	-606
1007.150	-1356
1007.225	-720
1007.299	-1851
1007.373	-1070
1007.448	-569
1007.522	-584
1007.596	-2235
1007.671	-1571
1007.745	-885
1007.819	-1649
1007.893	-1705
1007.967	-811
1008.041	-1372
1008.115	-52
1008.190	-1115
1008.264	-525
1008.338	-1999
1008.412	-1167
1008.486	-1380
1008.560	-906
1008.633	-1259
1008.707	-920
1008.781	-1306
1008.855	-995
1008.929	-1966
1009.003	-1299
1009.076	-1792
1009.150	-672
1009.224	-1700
1009.298	-1235
1009.371	-1730
1009.445	-1071
1009.519	-743
1009.592	-605
1009.666	-876
1009.739	-1444
1009.813	-1615
1009.886	-1836
1009.960	-852
1010.033	-1289
1010.107	-1954
1010.180	-634
1010.253	-1323
1010.327	-1103
1010.400	-1897
1010.473	-1137
1010.547	-699
1010.620	-1330
1010.693	-1538
1010.766	-1287
1010.840	-594
1010.913	-1224
1010.986	-989
1011.059	-1200
1011.132	-1555
1011.205	-1072
1011.278	-1448
1011.351	-2032
1011.424	-1133
1011.497	-137
1011.570	-1375
1011.643	-1481
1011.716	-1163
1011.789	-1631
1011.862	-2513
1011.934	-1094
1012.007	-1448
1012.080	-581
1012.153	-1433
1012.225	-1356
1012.298	-1614
1012.371	-1415
1012.443	-757
1012.516	-1961
1012.588	-1671
1012.661	-1147
1012.733	-2336
1012.806	-738
1012.879	-1707
1012.951	-226
1013.023	-1092
1013.096	-310
1013.168	-2184
1013.241	-1283
1013.313	-1423
1013.385	-1179
1013.458	-1089
1013.530	-644
1013.602	-2160
1013.674	-1487
1013.746	-1364
1013.819	-1315
1013.891	-1246
1013.963	-1347
1014.035	-1246
1014.107	-1026
1014.179	-1149
1014.251	-931
1014.323	-1580
1014.395	-1364
1014.467	-655
1014.539	-1593
1014.611	-2171
1014.683	-1212
1014.754	-1481
1014.826	-1262
1014.898	-1444
1014.970	-1512
1015.042	-1401
1015.113	-1484
1015.185	-966
1015.257	-1025
1015.328	-1481
1015.400	-2086
1015.471	-1156
1015.543	-1536
1015.615	-1804
1015.686	-1173
1015.757	-2451
1015.829	-1168
1015.901	-1821
1015.972	-1246
1016.043	-1373
1016.115	-1448
1016.186	-1772
1016.257	-1526
1016.328	-2253
1016.400	-26
1016.471	-1977
1016.542	-1224
1016.613	-2098
1016.685	-1253
1016.756	-2495
1016.827	-1625
1016.898	-1470
1016.969	-663
1017.040	-1514
1017.111	-1682
1017.182	-1641
1017.253	-854
1017.324	-1176
1017.395	-1697
1017.466	-2279
1017.537	-432
1017.608	-1594
1017.678	-1126
1017.749	-2199
1017.820	-1236
1017.891	-1880
1017.961	-1447
1018.032	-2012
1018.103	-752
1018.173	-1547
1018.244	-1413
1018.315	-2026
1018.385	-1174
1018.456	-1604
1018.526	-1421
1018.597	-2476
1018.667	-835
1018.738	-2501
1018.808	-859
1018.878	-2381
1018.949	-1501
1019.019	-2018
1019.089	-1885
1019.160	-1282
1019.230	-1326
1019.300	-974
1019.371	-2709
1019.441	-1731
1019.511	-1071
1019.581	-1729
1019.651	-1439
1019.721	-825
1019.791	-992
1019.861	-1123
1019.931	-1184
1020.001	-1768
1020.071	-1214
1020.141	-2009
1020.211	-1400
1020.281	-1613
1020.351	-1500
1020.421	-2247
1020.491	-1453
1020.560	-1538
1020.630	-1599
1020.700	-1290
1020.770	-1383
1020.839	-1738
1020.909	-892
1020.979	-1902
1021.048	-716
1021.118	-945
1021.187	-1031
1021.257	-1781
1021.326	-1564
1021.396	-2091
1021.465	-944
1021.535	-1107
1021.604	-1778
1021.674	-2304
1021.743	-307
1021.812	-1832
1021.882	-1000
1021.951	-1278
1022.020	-1691
1022.089	-1441
1022.159	-1347
1022.228	-2144
1022.297	-1678
1022.366	-1664
1022.435	-1623
1022.504	-1696
1022.573	-1513
1022.642	-2122
1022.711	-1004
1022.781	-1664
1022.849	-778
1022.918	-2365
1022.987	-904
1023.056	-1896
1023.125	-792
1023.194	-1499
1023.263	-1353
1023.331	-1491
1023.400	-1401
1023.469	-1882
1023.538	-1054
1023.606	-1428
1023.675	-850
1023.744	-1612
1023.812	-1538
1023.881	-2202
1023.949	-1152
1024.018	-2017
1024.086	-1208
1024.155	-1620
1024.223	-1411
1024.292	-1258
1024.360	-1719
1024.429	-1574
1024.497	-1303
1024.565	-2223
1024.634	-1342
1024.702	-1104
1024.770	-1508
1024.838	-2358
1024.907	-1701
1024.975	-1226
1025.043	-838
1025.111	-1774
1025.179	-1625
1025.247	-1531
1025.315	-1513
1025.383	-2361
1025.451	-1043
1025.519	-1784
1025.587	-697
1025.655	-1525
1025.723	-965
1025.791	-1703
1025.859	-748
1025.927	-1478
1025.995	-1788
1026.062	-1789
1026.130	-1381
1026.198	-1774
1026.266	-1456
1026.333	-1367
1026.401	-788
1026.469	-2097
1026.536	-1245
1026.604	-1398
1026.671	-1692
1026.739	-2090
1026.806	-2572
1026.874	-1529
1026.941	-1555
1027.009	-1574
1027.076	-1873
1027.144	-749
1027.211	-2022
1027.278	-1815
1027.345	-1640
1027.413	-882
1027.480	-1770
1027.547	-1022
1027.614	-630
1027.682	-1499
1027.749	-768
1027.816	-1799
1027.883	-2337
1027.950	-1446
1028.017	-1449
1028.084	-2233
1028.151	-942
1028.218	-2224
1028.285	-1553
1028.352	-1374
1028.419	-1564
1028.486	-1965
1028.553	-1341
1028.619	-2051
1028.686	-1373
1028.753	-2067
1028.820	-978
1028.886	-1537
1028.953	-1172
1029.020	-2361
1029.086	-1541
1029.153	-2026
1029.220	-1115
1029.286	-1242
1029.353	-1495
1029.419	-1845
1029.486	-1707
1029.552	-1389
1029.619	-755
1029.685	-2008
1029.751	-1675
1029.818	-1873
1029.884	-1663
1029.951	-1229
1030.017	-1566
1030.083	-2332
1030.149	-913
1030.216	-2061
1030.282	-1368
1030.348	-1447
1030.414	-1678
1030.480	-2686
1030.546	-2167
1030.612	-1779
1030.678	-2193
1030.744	-2562
1030.810	-1326
1030.876	-1309
1030.942	-1326
1031.008	-773
1031.074	-2099
1031.140	-1640
1031.206	-1875
1031.272	-2581
1031.337	-1600
1031.403	-1759
1031.469	-1022
1031.534	-2272
1031.600	-1449
1031.666	-2432
1031.731	-1935
1031.797	-1933
1031.863	-1834
1031.928	-2305
1031.994	-1815
1032.059	-1744
1032.125	-1926
1032.190	-2498
1032.256	-2076
1032.321	-2273
1032.386	-2123
1032.452	-1664
1032.517	-1115
1032.582	-1449
1032.647	-1555
1032.713	-1885
1032.778	-1301
1032.843	-1613
1032.908	-1746
1032.974	-2485
1033.039	-2533
1033.104	-1201
1033.169	-1558
1033.234	-2639
1033.299	-1547
1033.364	-2139
1033.429	-1567
1033.494	-2189
1033.559	-1090
1033.624	-1732
1033.688	-1391
1033.753	-2354
1033.818	-1414
1033.883	-947
1033.948	-1837
1034.013	-1851
1034.077	-1580
1034.142	-1007
1034.207	-1193
1034.271	-1507
1034.336	212
1034.400	-135
1034.465	-193
1034.530	-1322
1034.594	-1510
1034.658	-1885
1034.723	-1567
1034.787	-2002
1034.852	-2159
1034.916	-2275
1034.981	-670
1035.045	-1718
1035.109	-2265
1035.173	-2351
1035.238	-2557
1035.302	-1851
1035.366	-1326
1035.430	-2552
1035.495	-2360
1035.559	-2151
1035.623	-1533
1035.687	-2726
1035.751	-2288
1035.815	-1801
1035.879	-1897
1035.943	-2137
1036.007	-2156
1036.071	-2563
1036.135	-1846
1036.198	-2283
1036.262	-1565
1036.326	-2343
1036.390	-1383
1036.454	-2082
1036.517	-1225
1036.581	-2048
1036.645	-1228
1036.709	-2251
1036.772	-1490
1036.836	-1676
1036.900	-1578
1036.963	-2182
1037.026	-1756
1037.090	-1769
1037.154	-2246
1037.217	-1767
1037.280	-1974
1037.344	-2798
1037.407	-1904
1037.471	-2631
1037.534	-1042
1037.597	-2346
1037.661	-2405
1037.724	-2698
1037.787	-1447
1037.850	-2350
1037.913	-1869
1037.977	-1470
1038.040	-1283
1038.103	-2361
1038.166	-1947
1038.229	-2253
1038.292	-2376
1038.355	-2045
1038.418	-1281
1038.481	-1562
1038.544	-2073
1038.607	-1844
1038.670	-1760
1038.732	-1803
1038.795	-1580
1038.858	-1844
1038.921	-1951
1038.984	-867
1039.046	-1763
1039.109	-2221
1039.172	-2130
1039.234	-1478
1039.297	-1430
1039.360	-2266
1039.422	-2146
1039.485	-1927
1039.547	-1154
1039.610	-2005
1039.672	-2044
1039.734	-2201
1039.797	-1549
1039.859	-2315
1039.922	-1625
1039.984	-2006
1040.046	-1487
1040.109	-2207
1040.171	-1903
1040.233	-1809
1040.295	-1981
1040.358	-1930
1040.420	-2092
1040.482	-2005
1040.544	-1650
1040.606	-1644
1040.668	-1450
1040.730	-1595
1040.792	-2353
1040.854	-1734
1040.916	-1789
1040.978	-1692
1041.040	-1520
1041.102	-1686
1041.164	-1729
1041.225	-2646
1041.287	-2391
1041.349	-2502
1041.411	-1285
1041.472	-2645
1041.534	-2510
1041.596	-2895
1041.657	-1783
1041.719	-2038
1041.781	-1780
1041.842	-1835
1041.904	-1651
1041.965	-2615
1042.027	-1940
1042.088	-2182
1042.150	-1794
1042.211	-1713
1042.272	-687
1042.334	-1836
1042.395	-1035
1042.456	-2596
1042.518	-1542
1042.579	-1895
1042.640	-1688
1042.701	-1802
1042.763	-1818
1042.824	-2313
1042.885	-2219
1042.946	-2909
1043.007	-2169
1043.068	-2345
1043.129	-1506
1043.190	-1903
1043.251	-2272
1043.312	-2158
1043.373	-1726
1043.434	-2252
1043.495	-2720
1043.556	-2088
1043.616	-1000
1043.677	-1953
1043.738	-2065
1043.799	-2886
1043.859	-2395
1043.920	-2479
1043.981	-1469
1044.041	-2087
1044.102	-570
1044.162	-1956
1044.223	-2190
1044.284	-2198
1044.344	-1455
1044.405	-2247
1044.465	-1910
1044.525	-2543
1044.586	-1276
1044.646	-1691
1044.707	-1988
1044.767	-2319
1044.827	-1815
1044.887	-2321
1044.948	-1579
1045.008	-1714
1045.068	-1190
1045.128	-1823
1045.188	-1899
1045.249	-2515
1045.309	-1182
1045.369	-1927
1045.429	-1906
1045.489	-1766
1045.549	-2082
1045.609	-2337
1045.669	-1262
1045.729	-2818
1045.789	-2139
1045.848	-1337
1045.908	-1338
1045.968	-2516
1046.028	-1464
1046.088	-1690
1046.147	-1621
1046.207	-1442
1046.267	-1501
1046.326	-2186
1046.386	-806
1046.446	-1623
1046.505	-1182
1046.565	-1530
1046.624	-1068
1046.684	-1339
1046.743	-1272
1046.803	-1263
1046.862	-1108
1046.922	0
