'Start Wavelength	183.907
'End Wavelength	1046.922
'Gate Delay	5.000
'Gate Width (ms)	1.050
'Laser Output Level	0.000
'X Position	0.000
'Y Position	0.000
'Z Position	0.000
'Grid Point Number	1.000
'Shot Number	100.000
183.907	-191.000
183.977	170.000
184.047	480
184.116	961
184.186	329
184.256	599
184.325	209
184.395	175
184.465	-66
184.534	463
184.604	-788
184.674	168
184.743	43
184.813	993
184.883	343
184.952	521
185.022	-19
185.092	150
185.161	-120
185.231	491
185.301	-387
185.370	1016
185.440	-236
185.509	725
185.579	-184
185.649	780
185.718	196
185.788	99
185.857	381
185.927	390
185.996	-94
186.066	280
186.136	374
186.205	-42
186.275	195
186.344	331
186.414	266
186.483	650
186.553	667
186.622	919
186.692	-162
186.761	132
186.831	396
186.900	-266
186.970	-300
187.039	98
187.109	-37
187.178	-172
187.248	476
187.317	-163
187.387	2
187.456	190
187.526	54
187.595	879
187.664	347
187.734	916
187.803	294
187.873	809
187.942	215
188.012	573
188.081	-395
188.150	383
188.220	303
188.289	757
188.358	-132
188.428	54
188.497	-57
188.567	784
188.636	82
188.705	316
188.775	-605
188.844	804
188.913	265
188.983	244
189.052	238
189.121	-103
189.191	-544
189.260	948
189.329	774
189.399	-878
189.468	-112
189.537	75
189.606	41
189.676	262
189.745	-119
189.814	446
189.883	-70
189.953	-83
190.022	-241
190.091	458
190.161	61
190.230	587
190.299	148
190.368	386
190.437	-316
190.507	53
190.576	467
190.645	830
190.714	-77
190.783	1166
190.853	772
190.922	88
190.991	-321
191.060	91
191.129	382
191.198	818
191.268	-613
191.337	147
191.406	229
191.475	446
191.544	-264
191.613	328
191.682	71
191.752	232
191.821	-337
191.890	221
191.959	-488
192.028	545
192.097	14
192.166	468
192.235	-345
192.304	275
192.373	21
192.442	625
192.511	44
192.580	163
192.650	239
192.719	143
192.788	-97
192.857	-51
192.926	-286
192.995	413
193.064	402
193.133	-435
193.202	206
193.271	66
193.340	274
193.409	178
193.478	-187
193.547	578
193.615	152
193.684	-138
193.753	197
193.822	905
193.891	-258
193.960	612
194.029	-2
194.098	254
194.167	-281
194.236	225
194.305	93
194.374	582
194.443	-428
194.512	-34
194.580	98
194.649	-27
194.718	666
194.787	106
194.856	56
194.925	352
194.994	-896
195.062	250
195.131	-353
195.200	291
195.269	-374
195.338	623
195.407	153
195.475	-93
195.544	1160
195.613	-16
195.682	-326
195.751	197
195.819	386
195.888	295
195.957	980
196.026	425
196.094	443
196.163	429
196.232	55
196.301	586
196.369	-324
196.438	452
196.507	-615
196.576	454
196.644	306
196.713	365
196.782	147
196.850	664
196.919	-147
196.988	389
197.056	124
197.125	593
197.194	116
197.262	389
197.331	195
197.400	787
197.468	-310
197.537	13
197.606	-431
197.674	59
197.743	-157
197.812	73
197.880	-150
197.949	413
198.017	-56
198.086	122
198.155	97
198.223	-62
198.292	162
198.360	38
198.429	-487
198.497	306
198.566	-493
198.635	290
198.703	208
198.772	381
198.840	285
198.909	401
198.977	-104
199.046	116
199.114	-23
199.183	565
199.251	339
199.320	484
199.388	-450
199.457	-42
199.525	-68
199.594	-314
199.662	-105
199.731	-8
199.799	-511
199.867	-325
199.936	-208
200.004	730
200.073	592
200.141	211
200.210	-101
200.278	766
200.346	630
200.415	485
200.483	-728
200.552	509
200.620	265
200.688	-323
200.757	-20
200.825	825
200.893	136
200.962	-245
201.030	-197
201.098	96
201.167	96
201.235	-328
201.303	-528
201.372	410
201.440	659
201.508	129
201.577	-434
201.645	133
201.713	-48
201.781	460
201.850	-234
201.918	420
201.986	-397
202.055	715
202.123	-349
202.191	-191
202.259	-628
202.327	334
202.396	-266
202.464	449
202.532	-203
202.600	204
202.669	52
202.737	667
202.805	-349
202.873	-178
202.941	172
203.009	213
203.078	-113
203.146	256
203.214	122
203.282	474
203.350	306
203.418	-172
203.487	-200
203.555	-859
203.623	-184
203.691	-40
203.759	-6
203.827	-321
203.895	106
203.963	-69
204.031	-390
204.099	56
204.168	238
204.236	400
204.304	240
204.372	560
204.440	558
204.508	-96
204.576	-520
204.644	450
204.712	108
204.780	-59
204.848	455
204.916	-152
204.984	-413
205.052	605
205.120	-305
205.188	496
205.256	-1054
205.324	-669
205.392	-315
205.460	-541
205.528	46
205.596	-284
205.664	-76
205.732	-564
205.799	117
205.867	-34
205.935	-247
206.003	580
206.071	339
206.139	-64
206.207	-347
206.275	165
206.343	-202
206.411	364
206.478	123
206.546	48
206.614	-654
206.682	175
206.750	452
206.818	1066
206.885	-232
206.953	-135
207.021	-194
207.089	-417
207.157	-318
207.225	-570
207.292	2
207.360	-228
207.428	76
207.496	257
207.563	-394
207.631	109
207.699	-228
207.767	522
207.834	-675
207.902	-433
207.970	-129
208.038	946
208.105	-331
208.173	254
208.241	-191
208.309	476
208.376	-320
208.444	-289
208.512	-593
208.579	-45
208.647	-126
208.715	652
208.782	-290
208.850	-126
208.918	-49
208.985	333
209.053	-775
209.120	-177
209.188	-288
209.256	-4
209.323	-57
209.391	253
209.459	156
209.526	-505
209.594	117
209.661	37
209.729	98
209.796	47
209.864	29
209.932	-230
209.999	8
210.067	143
210.134	18
210.202	693
210.269	346
210.337	584
210.404	-270
210.472	557
210.539	-198
210.607	-62
210.674	-492
210.742	33
210.809	-31
210.877	359
210.944	109
211.012	508
211.079	-175
211.146	131
211.214	278
211.281	342
211.349	529
211.416	416
211.484	-76
211.551	-54
211.618	189
211.686	559
211.753	-228
211.821	-96
211.888	16
211.955	-45
212.023	-401
212.090	-150
212.157	-932
212.225	693
212.292	-110
212.359	301
212.427	509
212.494	237
212.561	-503
212.629	-8
212.696	-407
212.763	501
212.831	-535
212.898	192
212.965	-839
213.032	-23
213.100	-94
213.167	253
213.234	-1089
213.301	613
213.369	84
213.436	-511
213.503	56
213.570	458
213.638	-912
213.705	-220
213.772	-323
213.839	-33
213.906	147
213.973	-359
214.041	-569
214.108	-25
214.175	-491
214.242	-648
214.309	46
214.376	-173
214.444	-745
214.511	-282
214.578	-365
214.645	310
214.712	-637
214.779	343
214.846	-440
214.913	276
214.980	248
215.048	442
215.115	606
215.182	960
215.249	-136
215.316	-135
215.383	-340
215.450	758
215.517	111
215.584	-232
215.651	-807
215.718	43
215.785	6
215.852	0
215.919	-8
215.986	-526
216.053	-37
216.120	-393
216.187	-436
216.254	-24
216.321	295
216.388	-839
216.455	-1048
216.522	126
216.589	-535
216.656	782
216.722	-403
216.789	-467
216.856	-675
216.923	-288
216.990	165
217.057	28
217.124	-894
217.191	-918
217.258	-81
217.324	-351
217.391	-830
217.458	-584
217.525	642
217.592	-293
217.659	-383
217.725	137
217.792	-303
217.859	211
217.926	-75
217.993	303
218.059	-7
218.126	-6
218.193	352
218.260	-418
218.327	-524
218.393	-519
218.460	171
218.527	-75
218.594	-497
218.660	-31
218.727	278
218.794	-425
218.860	75
218.927	-291
218.994	8
219.061	-103
219.127	-168
219.194	-497
219.261	-189
219.327	-254
219.394	259
219.461	-160
219.527	-775
219.594	-311
219.661	-768
219.727	-703
219.794	-319
219.860	475
219.927	484
219.994	773
220.060	673
220.127	1092
220.193	144
220.260	-596
220.326	-453
220.393	-421
220.460	-672
220.526	-352
220.593	-894
220.659	-283
220.726	-69
220.792	18
220.859	-605
220.925	565
220.992	-192
221.058	666
221.125	165
221.191	186
221.258	-53
221.324	-765
221.391	-1008
221.457	-124
221.524	-633
221.590	600
221.657	-144
221.723	533
221.789	-1244
221.856	-281
221.922	-815
221.989	465
222.055	-90
222.121	-79
222.188	36
222.254	-174
222.321	-877
222.387	-314
222.453	-187
222.520	-313
222.586	-813
222.652	-14
222.719	-486
222.785	326
222.851	-543
222.918	-193
222.984	-583
223.050	422
223.116	-729
223.183	-6
223.249	-187
223.315	73
223.382	-1177
223.448	359
223.514	-618
223.580	-154
223.647	-400
223.713	-200
223.779	-351
223.845	-194
223.911	-60
223.978	-634
224.044	-118
224.110	-283
224.176	-586
224.242	-493
224.309	-378
224.375	-7
224.441	-858
224.507	-621
224.573	-747
224.639	-635
224.705	-838
224.772	242
224.838	-786
224.904	142
224.970	-106
225.036	-207
225.102	-318
225.168	-404
225.234	-644
225.300	272
225.366	-273
225.432	195
225.499	143
225.565	-213
225.631	-157
225.697	97
225.763	-716
225.829	301
225.895	-228
225.961	-45
226.027	-299
226.093	-195
226.159	-368
226.225	-253
226.291	252
226.357	-160
226.423	241
226.489	-1
226.554	-985
226.620	250
226.686	-56
226.752	360
226.818	-368
226.884	601
226.950	460
227.016	-258
227.082	67
227.148	464
227.214	-420
227.279	390
227.345	-78
227.411	1201
227.477	429
227.543	1465
227.609	1898
227.674	834
227.740	-46
227.806	670
227.872	565
227.938	-51
228.003	-708
228.069	157
228.135	-52
228.201	-131
228.267	-553
228.332	-307
228.398	-349
228.464	-298
228.530	-1083
228.595	-646
228.661	-1121
228.727	-285
228.792	-335
228.858	-247
228.924	-548
228.990	337
229.055	-420
229.121	201
229.187	-426
229.252	-90
229.318	-372
229.384	81
229.449	-487
229.515	-382
229.581	-642
229.646	97
229.712	-483
229.777	-537
229.843	-1215
229.909	269
229.974	-483
230.040	-373
230.105	-744
230.171	-514
230.236	-874
230.302	-528
230.368	-688
230.433	-772
230.499	-522
230.564	-23
230.630	-876
230.695	-50
230.761	-322
230.826	-611
230.892	-548
230.957	-898
231.023	-802
231.088	-404
231.154	-332
231.219	97
231.284	-833
231.350	58
231.415	-351
231.481	140
231.546	-688
231.612	-955
231.677	-494
231.742	-442
231.808	321
231.873	-922
231.939	-1287
232.004	-255
232.069	-791
232.135	-458
232.200	-576
232.265	-231
232.331	-963
232.396	46
232.461	-536
232.527	-742
232.592	-279
232.657	-179
232.723	-602
232.788	-384
232.853	-305
232.918	-419
232.984	-475
233.049	-888
233.114	-531
233.179	-114
233.245	-313
233.310	-444
233.375	-396
233.440	-14
233.506	-998
233.571	-853
233.636	-898
233.701	-166
233.766	-858
233.832	-472
233.897	-300
233.962	-517
234.027	-112
234.092	-7
234.157	-569
234.222	41
234.288	-655
234.353	-1045
234.418	-256
234.483	319
234.548	-1177
234.613	-455
234.678	-72
234.743	-923
234.808	-739
234.873	-921
234.938	-781
235.004	-1095
235.069	-555
235.134	114
235.199	-530
235.264	-848
235.329	-1105
235.394	53
235.459	-671
235.524	-447
235.589	-345
235.654	-733
235.719	-711
235.784	-346
235.849	-1144
235.913	-348
235.978	-1291
236.043	-299
236.108	-414
236.173	-874
236.238	-487
236.303	-185
236.368	-773
236.433	-760
236.498	-1459
236.563	-1081
236.627	-734
236.692	1441
236.757	98
236.822	-141
236.887	-740
236.952	-856
237.017	-575
237.081	-332
237.146	-757
237.211	-123
237.276	394
237.341	1563
237.405	-464
237.470	-139
237.535	-167
237.600	-11
237.664	-527
237.729	-377
237.794	-1304
237.859	-201
237.923	-595
237.988	-962
238.053	-959
238.118	110
238.182	-466
238.247	11
238.312	-1602
238.376	-578
238.441	-1735
238.506	254
238.570	-864
238.635	-248
238.700	-645
238.764	-1176
238.829	-710
238.893	-463
238.958	-509
239.023	-67
239.087	-773
239.152	214
239.216	-1140
239.281	-396
239.346	-623
239.410	-480
239.475	-857
239.539	267
239.604	-1161
239.668	608
239.733	493
239.797	3068
239.862	4547
239.926	2950
239.991	647
240.055	705
240.120	550
240.184	-942
240.249	-489
240.313	-466
240.378	-684
240.442	-45
240.507	-837
240.571	-353
240.635	-374
240.700	117
240.764	-502
240.829	-806
240.893	-1348
240.957	-330
241.022	-434
241.086	73
241.151	-845
241.215	-837
241.279	210
241.344	-779
241.408	-1056
241.472	-1170
241.537	-1095
241.601	-417
241.665	-1173
241.730	258
241.794	-1309
241.858	-778
241.922	-1228
241.987	-427
242.051	-562
242.115	-616
242.179	-646
242.244	-876
242.308	-796
242.372	-696
242.436	-995
242.501	-595
242.565	-740
242.629	-825
242.693	-570
242.757	-292
242.822	-1078
242.886	-112
242.950	-471
243.014	-1305
243.078	-460
243.142	-405
243.206	-761
243.271	-719
243.335	-1249
243.399	-726
243.463	-51
243.527	-122
243.591	-1072
243.655	222
243.719	-851
243.783	-292
243.847	-484
243.911	-211
243.975	-507
244.040	-1178
244.104	-176
244.168	-1016
244.232	-712
244.296	-1014
244.360	-278
244.424	-949
244.488	-943
244.552	-488
244.615	-1141
244.679	-389
244.743	-221
244.807	-677
244.871	-577
244.935	-131
244.999	-809
245.063	-491
245.127	-744
245.191	-830
245.255	-251
245.319	-808
245.383	-156
245.446	1244
245.510	-980
245.574	-601
245.638	-1113
245.702	174
245.766	-237
245.829	157
245.893	-664
245.957	-622
246.021	223
246.085	-736
246.149	-562
246.212	158
246.276	-637
246.340	530
246.404	-513
246.467	-366
246.531	-1086
246.595	-229
246.659	-945
246.722	-470
246.786	-633
246.850	-981
246.913	-1045
246.977	-545
247.041	-1050
247.104	-434
247.168	-547
247.232	-428
247.295	-771
247.359	-53
247.423	-805
247.486	-330
247.550	-743
247.614	-411
247.677	-902
247.741	-66
247.804	-1092
247.868	185
247.932	-709
247.995	560
248.059	-396
248.122	-1334
248.186	95
248.249	-784
248.313	576
248.376	1054
248.440	-768
248.503	-1441
248.567	469
248.630	-682
248.694	-146
248.757	212
248.821	-230
248.884	-127
248.948	-675
249.011	246
249.075	307
249.138	219
249.202	-1082
249.265	-297
249.328	-394
249.392	-926
249.455	-292
249.519	319
249.582	-1092
249.645	-128
249.709	-607
249.772	-871
249.835	-223
249.899	-469
249.962	-348
250.025	-892
250.089	-324
250.152	81
250.215	-441
250.279	-41
250.342	-412
250.405	-598
250.468	-817
250.532	140
250.595	-795
250.658	1224
250.721	938
250.785	-1072
250.848	84
250.911	-333
250.974	-101
251.038	138
251.101	325
251.164	-245
251.227	-558
251.290	-1132
251.354	-708
251.417	861
251.480	422
251.543	897
251.606	2788
251.669	669
251.732	444
251.795	-185
251.859	-175
251.922	1314
251.985	-80
252.048	-95
252.111	-761
252.174	-725
252.237	27
252.300	459
252.363	-76
252.426	2946
252.489	-45
252.552	-106
252.615	-895
252.678	-243
252.741	796
252.804	671
252.867	2101
252.930	881
252.993	-498
253.056	43
253.119	-232
253.182	301
253.245	-997
253.308	-298
253.371	-718
253.434	-386
253.497	-336
253.559	327
253.622	-1165
253.685	-538
253.748	-682
253.811	-411
253.874	-309
253.937	-280
254.000	-144
254.062	340
254.125	31
254.188	132
254.251	-915
254.314	101
254.376	-1016
254.439	68
254.502	-272
254.565	-381
254.628	-449
254.690	182
254.753	-840
254.816	-33
254.878	-193
254.941	-331
255.004	-228
255.067	-750
255.129	-778
255.192	-774
255.255	-1074
255.317	-114
255.380	-1012
255.443	-729
255.505	-246
255.568	-734
255.631	-608
255.693	-398
255.756	-915
255.819	889
255.881	-738
255.944	-1133
256.006	-412
256.069	-318
256.132	-1214
256.194	-528
256.257	-506
256.319	-569
256.382	-286
256.444	601
256.507	198
256.569	-932
256.632	-351
256.694	-850
256.757	577
256.819	451
256.882	-635
256.944	-16
257.007	-682
257.069	-272
257.132	-864
257.194	459
257.257	-849
257.319	-1132
257.381	-770
257.444	-46
257.506	2002
257.569	1034
257.631	-19
257.693	-19
257.756	-339
257.818	-1355
257.880	-902
257.943	106
258.005	-617
258.067	-300
258.130	22
258.192	-266
258.254	-652
258.317	-1141
258.379	-350
258.441	-235
258.503	-261
258.566	-411
258.628	-888
258.690	-926
258.753	-992
258.815	-205
258.877	-907
258.939	-172
259.001	-478
259.064	-789
259.126	-594
259.188	-694
259.250	88
259.312	-711
259.375	-189
259.437	-176
259.499	-373
259.561	-185
259.623	-1181
259.685	-47
259.747	-531
259.809	-473
259.872	-241
259.934	-313
259.996	-424
260.058	-19
260.120	-1104
260.182	29
260.244	-370
260.306	-870
260.368	-182
260.430	-602
260.492	-887
260.554	458
260.616	-1088
260.678	-15
260.740	-754
260.802	-240
260.864	-241
260.926	-1310
260.988	32
261.050	-202
261.112	-919
261.174	908
261.236	-451
261.298	166
261.359	-528
261.421	656
261.483	-276
261.545	679
261.607	-596
261.669	-350
261.731	-672
261.793	-414
261.854	-1564
261.916	500
261.978	-379
262.040	-2
262.102	-5
262.164	-326
262.225	-883
262.287	-156
262.349	-1221
262.411	-65
262.472	198
262.534	-432
262.596	-764
262.658	-719
262.719	-719
262.781	-727
262.843	-1121
262.904	-245
262.966	-89
263.028	-360
263.090	310
263.151	-220
263.213	-317
263.275	514
263.336	-580
263.398	332
263.459	-740
263.521	-677
263.583	-346
263.644	83
263.706	8
263.767	-562
263.829	-339
263.891	-519
263.952	-156
264.014	-407
264.075	-458
264.137	-161
264.198	-801
264.260	-1268
264.321	-361
264.383	-709
264.444	-700
264.506	-425
264.567	-402
264.629	-288
264.690	-891
264.752	-123
264.813	-155
264.875	-489
264.936	529
264.998	65
265.059	60
265.120	-496
265.182	-935
265.243	519
265.305	-9
265.366	-440
265.427	-564
265.489	-215
265.550	-615
265.611	-526
265.673	-673
265.734	-98
265.795	-805
265.857	-258
265.918	-568
265.979	366
266.040	581
266.102	-527
266.163	230
266.224	-354
266.286	-457
266.347	-934
266.408	296
266.469	-135
266.530	-239
266.592	-301
266.653	-472
266.714	-517
266.775	-844
266.836	-608
266.898	-572
266.959	-440
267.020	-795
267.081	331
267.142	-994
267.203	-221
267.264	-513
267.326	-139
267.387	-1090
267.448	-877
267.509	-829
267.570	-563
267.631	-587
267.692	-620
267.753	-321
267.814	-986
267.875	-300
267.936	145
267.997	-456
268.058	-396
268.119	-880
268.180	-190
268.241	-1130
268.302	-346
268.363	-442
268.424	-261
268.485	-789
268.546	-588
268.607	-543
268.668	-855
268.729	-732
268.790	-14
268.851	-595
268.912	181
268.972	-1081
269.033	-333
269.094	-933
269.155	-351
269.216	-1015
269.277	-408
269.338	-923
269.398	114
269.459	-1160
269.520	-84
269.581	-1033
269.642	-962
269.702	-909
269.763	-43
269.824	-702
269.885	-326
269.945	-549
270.006	-178
270.067	-573
270.128	-639
270.188	-123
270.249	-785
270.310	-620
270.370	106
270.431	-1283
270.492	-584
270.553	-417
270.613	-183
270.674	-589
270.734	-767
270.795	-211
270.856	227
270.916	-950
270.977	-120
271.038	-396
271.098	-132
271.159	-173
271.219	-333
271.280	-427
271.340	82
271.401	-228
271.462	-408
271.522	-616
271.583	-116
271.643	-948
271.704	25
271.764	-405
271.825	-136
271.885	768
271.946	486
272.006	-572
272.066	994
272.127	2593
272.187	3184
272.248	-110
272.308	-191
272.369	288
272.429	358
272.489	-948
272.550	-333
272.610	16
272.671	235
272.731	-256
272.791	-909
272.852	-771
272.912	400
272.972	-833
273.033	793
273.093	-848
273.153	-224
273.214	62
273.274	-421
273.334	-3
273.394	-240
273.455	-1030
273.515	144
273.575	-453
273.635	478
273.696	-225
273.756	-322
273.816	-616
273.876	-73
273.936	143
273.997	-85
274.057	-680
274.117	-21
274.177	285
274.237	410
274.297	-147
274.358	352
274.418	113
274.478	59
274.538	-464
274.598	-435
274.658	-156
274.718	-426
274.778	-22
274.838	-195
274.898	-14
274.958	-396
275.018	318
275.078	-401
275.138	-31
275.198	68
275.258	-980
275.318	-69
275.378	-1334
275.438	152
275.498	-51
275.558	240
275.618	265
275.678	237
275.738	-320
275.798	182
275.858	-165
275.918	-824
275.978	-818
276.038	-698
276.098	184
276.157	-621
276.217	67
276.277	1082
276.337	-814
276.397	-127
276.457	332
276.517	-192
276.576	216
276.636	-996
276.696	-157
276.756	470
276.815	-97
276.875	-582
276.935	-114
276.995	-168
277.055	215
277.114	-11
277.174	-485
277.234	-314
277.293	-849
277.353	-343
277.413	137
277.472	-521
277.532	-792
277.592	-108
277.651	502
277.711	684
277.771	-335
277.830	1410
277.890	88
277.950	1072
278.009	2694
278.069	666
278.128	254
278.188	575
278.248	-673
278.307	1613
278.367	298
278.426	273
278.486	304
278.545	-193
278.605	-713
278.664	448
278.724	-86
278.783	1178
278.843	894
278.902	-103
278.962	-884
279.021	34
279.081	-406
279.140	216
279.199	355
279.259	137
279.318	-647
279.378	346
279.437	767
279.496	2597
279.556	9128
279.615	3723
279.675	862
279.734	502
279.793	68
279.853	539
279.912	73
279.971	608
280.031	-266
280.090	1335
280.149	59
280.208	1379
280.268	6227
280.327	3354
280.386	66
280.445	142
280.505	-246
280.564	523
280.623	138
280.682	159
280.742	-147
280.801	-510
280.860	-91
280.919	644
280.978	-240
281.037	78
281.097	-216
281.156	583
281.215	-386
281.274	406
281.333	286
281.392	-268
281.451	-598
281.510	447
281.569	-853
281.628	-41
281.688	158
281.747	65
281.806	-323
281.865	231
281.924	-245
281.983	-391
282.042	87
282.101	-494
282.160	-135
282.219	-157
282.278	41
282.337	-273
282.396	37
282.454	443
282.513	-59
282.572	678
282.631	786
282.690	-148
282.749	-753
282.808	531
282.867	-490
282.926	507
282.985	-10
283.043	228
283.102	493
283.161	483
283.220	-39
283.279	330
283.338	67
283.396	41
283.455	-125
283.514	460
283.573	-510
283.631	590
283.690	-409
283.749	-222
283.808	257
283.866	-267
283.925	-866
283.984	189
284.043	-282
284.101	653
284.160	-603
284.219	504
284.277	266
284.336	456
284.395	723
284.453	211
284.512	-336
284.570	267
284.629	421
284.688	114
284.746	-332
284.805	151
284.863	-372
284.922	839
284.981	358
285.039	1826
285.098	2902
285.156	8576
285.215	18153
285.273	14432
285.332	4988
285.390	3089
285.449	1589
285.507	1344
285.566	516
285.624	1485
285.683	896
285.741	-285
285.799	413
285.858	496
285.916	-37
285.975	-620
286.033	-258
286.091	-36
286.150	-459
286.208	483
286.267	122
286.325	-204
286.383	-534
286.442	568
286.500	440
286.558	530
286.616	-315
286.675	-486
286.733	-68
286.791	-24
286.850	296
286.908	82
286.966	-181
287.024	-105
287.083	251
287.141	-720
287.199	999
287.257	1563
287.315	-51
287.374	21
287.432	164
287.490	743
287.548	-457
287.606	-227
287.664	472
287.723	372
287.781	975
287.839	204
287.897	-492
287.955	572
288.013	295
288.071	585
288.129	3285
288.187	6556
288.245	2054
288.303	199
288.361	978
288.419	321
288.477	469
288.535	602
288.593	346
288.651	838
288.709	114
288.767	160
288.825	-243
288.883	189
288.941	448
288.999	53
289.057	45
289.115	110
289.173	885
289.231	175
289.289	-98
289.346	607
289.404	450
289.462	343
289.520	-38
289.578	634
289.636	-337
289.694	599
289.751	267
289.809	350
289.867	762
289.925	719
289.983	-213
290.040	656
290.098	42
290.156	105
290.214	235
290.271	430
290.329	645
290.387	-108
290.444	-87
290.502	136
290.560	555
290.617	926
290.675	346
290.733	-161
290.790	554
290.848	110
290.906	-119
290.963	755
291.021	52
291.078	13
291.136	-120
291.194	226
291.251	376
291.309	632
291.366	162
291.424	624
291.481	230
291.539	462
291.596	617
291.654	1087
291.711	454
291.769	1453
291.826	180
291.884	-185
291.941	493
291.999	782
292.056	885
292.114	-442
292.171	875
292.228	515
292.286	469
292.343	700
292.401	150
292.458	286
292.515	-4
292.573	434
292.630	411
292.687	738
292.745	213
292.802	-132
292.859	-112
292.917	491
292.974	205
293.031	480
293.089	106
293.146	-407
293.203	-193
293.260	624
293.318	469
293.375	415
293.432	14
293.489	760
293.546	40
293.604	403
293.661	1432
293.718	1103
293.775	15
293.832	864
293.889	508
293.947	1162
294.004	204
294.061	617
294.118	503
294.175	832
294.232	-182
294.289	962
294.346	454
294.403	512
294.460	314
294.517	470
294.574	1007
294.631	46
294.688	473
294.745	1347
294.802	1846
294.859	651
294.916	327
294.973	717
295.030	585
295.087	518
295.144	-64
295.201	751
295.258	-485
295.315	311
295.372	468
295.429	484
295.486	-92
295.542	473
295.599	357
295.656	1332
295.713	283
295.770	1520
295.827	162
295.883	64
295.940	296
295.997	466
296.054	-435
296.111	-36
296.167	309
296.224	951
296.281	-35
296.338	581
296.394	92
296.451	224
296.508	508
296.564	529
296.621	764
296.678	1475
296.734	1290
296.791	1127
296.848	386
296.904	620
296.961	439
297.018	659
297.074	449
297.131	547
297.187	369
297.244	822
297.301	1620
297.357	1870
297.414	1112
297.470	850
297.527	214
297.583	1026
297.640	-42
297.696	179
297.753	-110
297.809	291
297.866	-5
297.922	877
297.979	-290
298.035	307
298.092	506
298.148	878
298.204	725
298.261	685
298.317	1304
298.374	1646
298.430	809
298.486	91
298.543	192
298.599	1257
298.656	-121
298.712	678
298.768	553
298.824	628
298.881	503
298.937	741
298.993	317
299.050	843
299.106	775
299.162	155
299.218	368
299.275	540
299.331	28
299.387	1548
299.443	3807
299.500	8969
299.556	5095
299.612	2749
299.668	3051
299.724	10115
299.780	6963
299.837	2976
299.893	2169
299.949	7014
300.005	7109
300.061	8409
300.117	8558
300.173	3124
300.229	1924
300.285	1026
300.341	1791
300.397	1480
300.453	424
300.510	1127
300.566	1966
300.622	4654
300.678	13598
300.734	10923
300.790	5118
300.845	4564
300.901	7557
300.957	8774
301.013	3321
301.069	1593
301.125	809
301.181	823
301.237	966
301.293	556
301.349	625
301.405	1169
301.461	264
301.516	502
301.572	34
301.628	-18
301.684	-45
301.740	1082
301.796	225
301.851	774
301.907	564
301.963	1127
302.019	2019
302.074	6090
302.130	4349
302.186	1464
302.242	902
302.297	768
302.353	868
302.409	1198
302.464	1066
302.520	621
302.576	599
302.631	1741
302.687	437
302.743	893
302.798	-60
302.854	324
302.910	604
302.965	346
303.021	640
303.076	1179
303.132	535
303.187	772
303.243	332
303.299	476
303.354	-133
303.410	1369
303.465	93
303.521	103
303.576	333
303.632	578
303.687	1723
303.743	1807
303.798	352
303.853	409
303.909	483
303.964	-320
304.020	178
304.075	111
304.130	100
304.186	284
304.241	1255
304.297	1055
304.352	938
304.358	901
304.407	607
304.449	681
304.463	706
304.518	560
304.539	276
304.573	-189
304.629	69
304.630	92
304.684	1099
304.720	1390
304.739	1555
304.794	1291
304.811	1303
304.850	1249
304.902	429
304.905	376
304.960	1029
304.992	974
305.015	923
305.071	538
305.083	438
305.126	134
305.173	431
305.181	475
305.236	330
305.264	530
305.292	752
305.347	997
305.354	1023
305.402	1187
305.445	976
305.457	907
305.512	1459
305.535	917
305.567	181
305.622	540
305.626	565
305.678	986
305.716	1511
305.733	1748
305.788	1365
305.807	1284
305.843	1090
305.897	1400
305.898	1405
305.953	1712
305.988	1346
306.008	1089
306.063	649
306.078	558
306.118	423
306.168	923
306.173	981
306.228	455
306.259	706
306.283	838
306.338	302
306.349	445
306.393	1041
306.440	561
306.448	463
306.503	977
306.530	775
306.558	687
306.613	1199
306.620	1197
306.668	1074
306.711	1075
306.723	1070
306.778	1083
306.801	933
306.833	527
306.888	622
306.892	560
306.943	427
306.982	252
306.997	98
307.052	333
307.072	534
307.107	854
307.162	946
307.163	943
307.217	1014
307.253	923
307.272	768
307.327	539
307.343	564
307.381	792
307.434	720
307.436	717
307.491	1296
307.524	1141
307.546	1086
307.600	1165
307.614	1176
307.655	904
307.704	627
307.710	644
307.765	579
307.795	1010
307.819	1307
307.874	1003
307.885	1093
307.929	1572
307.975	1243
307.984	1197
308.038	2051
308.065	2141
308.093	2891
308.148	6151
308.156	6921
308.202	14110
308.246	17958
308.257	16845
308.312	8161
308.336	4732
308.366	3339
308.421	1877
308.426	1799
308.475	1547
308.517	1111
308.530	1083
308.585	1146
308.607	1235
308.639	1370
308.694	1151
308.697	1150
308.748	759
308.787	753
308.803	946
308.857	718
308.877	888
308.912	938
308.967	850
308.967	848
309.021	1608
309.058	1972
309.076	2194
309.130	3391
309.148	4049
309.185	9453
309.238	19090
309.239	19266
309.293	25473
309.328	26254
309.348	21652
309.402	8411
309.418	5138
309.457	3963
309.508	2864
309.511	2825
309.566	2335
309.598	2073
309.620	2180
309.674	2471
309.688	2537
309.729	2667
309.778	2752
309.783	2712
309.837	2077
309.868	1818
309.892	1770
309.946	1673
309.959	1610
310.001	1960
310.049	2563
310.055	2526
310.109	2103
310.139	1716
310.163	1476
310.218	1105
310.229	1042
310.272	1294
310.319	1405
310.326	1381
310.381	1308
310.409	1300
310.435	1299
310.489	1223
310.499	1182
310.543	1083
310.589	1158
310.598	1214
310.652	1530
310.679	1602
310.706	1503
310.760	1249
310.769	1239
310.814	1400
310.859	1410
310.868	1386
310.923	1367
310.948	1283
310.977	1506
311.031	1971
311.038	2051
311.085	2119
311.128	1884
311.139	1817
311.193	1863
311.218	1710
311.247	1834
311.301	2261
311.308	2296
311.356	2153
311.398	2009
311.410	2004
311.464	1983
311.488	1952
311.518	1888
311.572	1761
311.578	1746
311.626	1903
311.668	1980
311.680	1927
311.734	1664
311.758	1565
311.788	1643
311.842	1747
311.847	1753
311.896	1860
311.937	1975
311.950	1970
312.004	1907
312.027	1892
312.058	1873
312.112	1823
312.117	1819
312.165	1672
312.207	1553
312.297	1766
312.386	1722
312.476	1788
312.566	2611
312.656	1846
312.745	1929
312.835	2399
312.925	2378
313.015	1747
313.104	3058
313.194	2542
313.284	2324
313.374	3039
313.463	2773
313.553	3192
313.643	3103
313.732	3526
313.822	3602
313.912	4640
314.001	3686
314.091	4548
314.180	3533
314.270	4239
314.360	3969
314.449	3920
314.539	3572
314.628	4259
314.718	3826
314.808	4007
314.897	4653
314.987	5121
315.076	4992
315.166	5647
315.255	5030
315.345	4518
315.434	4780
315.524	4885
315.613	5379
315.703	5776
315.792	9991
315.881	31890
315.971	19327
316.060	5885
316.150	5054
316.239	4600
316.328	4400
316.418	4516
316.507	5908
316.597	5819
316.686	5963
316.775	5580
316.865	4843
316.954	3924
317.043	3922
317.133	3961
317.222	3646
317.311	3337
317.400	2694
317.490	3854
317.579	3728
317.668	3947
317.757	6075
317.847	13386
317.936	50354
318.025	25559
318.114	14973
318.203	10596
318.293	5154
318.382	5967
318.471	8389
318.560	7584
318.649	6342
318.738	4297
318.828	4031
318.917	2878
319.006	2465
319.095	2621
319.184	4005
319.273	3342
319.362	3202
319.451	2805
319.540	2662
319.629	2674
319.718	3662
319.807	2599
319.896	3466
319.985	4125
320.074	3760
320.163	3497
320.252	3334
320.341	4035
320.430	3430
320.519	4125
320.608	5066
320.697	5083
320.786	5200
320.875	6211
320.964	7249
321.053	7105
321.142	8060
321.230	8996
321.319	9788
321.408	10283
321.497	10131
321.586	9145
321.675	8354
321.764	8048
321.852	7943
321.941	7836
322.030	8688
322.119	9018
322.207	9956
322.296	11224
322.385	12376
322.474	13796
322.562	13884
322.651	12378
322.740	9780
322.829	8804
322.917	7469
323.006	6556
323.095	6222
323.183	5670
323.272	5134
323.361	4628
323.449	5222
323.538	4470
323.626	4502
323.715	3972
323.804	4177
323.892	4151
323.981	3645
324.069	4128
324.158	3697
324.246	3955
324.335	3917
324.424	3499
324.512	3483
324.601	3561
324.689	3399
324.778	3567
324.866	3494
324.954	3227
325.043	2695
325.131	2816
325.220	3579
325.308	2563
325.397	3335
325.485	2801
325.574	2889
325.662	3235
325.750	2980
325.839	2734
325.927	2762
326.015	2974
326.104	3115
326.192	2665
326.280	2876
326.369	2535
326.457	3143
326.545	3255
326.634	2941
326.722	3271
326.810	4136
326.898	3745
326.987	4695
327.075	3189
327.163	3475
327.251	3441
327.340	3660
327.428	4387
327.516	6061
327.604	5353
327.692	3850
327.781	2470
327.869	3242
327.957	2899
328.045	2262
328.133	2478
328.221	2685
328.309	2711
328.397	2675
328.485	3498
328.574	5283
328.662	8183
328.750	5938
328.838	4379
328.926	3299
329.014	2410
329.102	2479
329.190	3225
329.278	2518
329.366	2951
329.454	2439
329.542	2550
329.630	2660
329.718	2876
329.806	2510
329.893	2916
329.981	2153
330.069	2511
330.157	3199
330.245	2760
330.333	3416
330.421	3058
330.509	3301
330.597	3519
330.684	3287
330.772	3029
330.860	2469
330.948	2715
331.036	3157
331.123	2855
331.211	3047
331.299	2915
331.387	2965
331.475	2841
331.562	2660
331.650	2464
331.738	2739
331.825	3377
331.913	2732
332.001	3140
332.089	2452
332.176	2674
332.264	3008
332.352	3026
332.439	2508
332.527	3320
332.614	3288
332.702	2995
332.790	2833
332.877	2863
332.965	2807
333.052	3115
333.140	3073
333.228	3481
333.315	3573
333.403	2523
333.490	3208
333.578	3134
333.665	4459
333.753	4812
333.840	4719
333.928	5198
334.015	5788
334.103	7435
334.190	9269
334.278	11543
334.365	16177
334.452	17715
334.540	12549
334.627	11920
334.715	13932
334.802	18556
334.889	28755
334.977	38169
335.064	30301
335.151	16299
335.239	11855
335.326	9363
335.413	9452
335.501	9930
335.588	9139
335.675	10523
335.762	13140
335.850	17186
335.937	23831
336.024	33905
336.111	50116
336.199	53614
336.286	29207
336.373	17043
336.460	10969
336.547	9590
336.635	7866
336.722	6658
336.809	5482
336.896	5146
336.983	5224
337.070	5365
337.157	6515
337.245	5279
337.332	4884
337.419	5240
337.506	5293
337.593	4586
337.680	4333
337.767	5010
337.854	4333
337.941	3806
338.028	3821
338.115	4482
338.202	3377
338.289	3830
338.376	3464
338.463	3804
338.550	3272
338.637	4084
338.724	3359
338.811	3425
338.898	2983
338.984	3568
339.071	2720
339.158	3280
339.245	3714
339.332	3288
339.419	3119
339.506	3365
339.593	2836
339.679	3508
339.766	2794
339.853	3116
339.940	3002
340.027	3482
340.113	3198
340.200	2314
340.287	3135
340.374	2510
340.460	2797
340.547	2775
340.634	3238
340.720	2940
340.807	3064
340.894	2744
340.980	2964
341.067	2678
341.154	3489
341.240	2911
341.327	3264
341.414	3708
341.500	3409
341.587	3198
341.674	2976
341.760	3555
341.847	3297
341.933	3993
342.020	2649
342.106	2937
342.193	2820
342.279	3127
342.366	3128
342.452	2815
342.539	3017
342.625	2970
342.712	3152
342.798	2523
342.885	2301
342.971	2129
343.058	3130
343.144	2490
343.230	3057
343.317	3198
343.403	2981
343.490	3423
343.576	2645
343.662	2525
343.749	2850
343.835	2328
343.921	2833
344.008	5277
344.094	12042
344.180	5193
344.267	3392
344.353	3588
344.439	4465
344.525	2487
344.612	3226
344.698	2949
344.784	2312
344.870	2986
344.957	2644
345.043	2916
345.129	2961
345.215	3079
345.301	3142
345.387	2763
345.474	2662
345.560	2595
345.646	2146
345.732	2720
345.818	2423
345.904	2780
345.990	2501
346.076	2909
346.162	2694
346.249	3095
346.335	2539
346.421	2470
346.507	2817
346.593	4327
346.679	3338
346.765	2981
346.851	6074
346.937	6219
347.023	4022
347.108	3490
347.194	2681
347.280	3419
347.366	3342
347.452	8618
347.538	15868
347.624	8949
347.710	5149
347.796	3165
347.882	3184
347.967	3071
348.053	2881
348.139	2345
348.225	2663
348.311	2635
348.397	3077
348.482	3075
348.568	3193
348.654	4333
348.740	12072
348.825	20926
348.911	9928
348.997	5471
349.083	6303
349.168	3094
349.254	3113
349.340	3766
349.425	2898
349.511	3250
349.597	3830
349.682	3890
349.768	4392
349.854	4557
349.939	3383
350.025	2910
350.110	2587
350.196	2581
350.282	3305
350.367	3147
350.453	3049
350.538	2879
350.624	3150
350.709	2720
350.795	3258
350.880	3006
350.966	2842
351.051	3209
351.137	3037
351.222	2950
351.308	3193
351.393	3386
351.479	3347
351.564	2459
351.649	2795
351.735	3638
351.820	2618
351.906	2621
351.991	2453
352.076	3017
352.162	3498
352.247	2797
352.332	2819
352.418	2975
352.503	2684
352.588	3520
352.673	2846
352.759	3133
352.844	2775
352.929	2860
353.014	2458
353.100	2901
353.185	3007
353.270	2656
353.355	3074
353.441	2519
353.526	2678
353.611	2888
353.696	2532
353.781	2919
353.866	2998
353.952	2296
354.037	2244
354.122	2839
354.207	2755
354.292	2936
354.377	2836
354.462	2642
354.547	2862
354.632	2894
354.717	2682
354.802	2623
354.887	2562
354.972	3561
355.057	2540
355.142	2043
355.227	2910
355.312	2661
355.397	2759
355.482	4091
355.567	2768
355.652	3062
355.737	3165
355.822	3727
355.907	3660
355.991	2730
356.076	2654
356.161	3161
356.246	2890
356.331	3868
356.416	3189
356.501	5019
356.585	7041
356.670	3656
356.755	3513
356.840	3498
356.924	4600
357.009	10438
357.094	7696
357.179	3086
357.263	3775
357.348	3492
357.433	3654
357.517	3456
357.602	2641
357.687	2778
357.771	3735
357.856	3892
357.941	3270
358.025	4118
358.110	11899
358.195	9797
358.279	3635
358.364	2900
358.448	3902
358.533	5154
358.617	5067
358.702	4178
358.787	3621
358.871	3744
358.956	3613
359.040	3667
359.125	3122
359.209	2765
359.294	3167
359.378	5620
359.462	6000
359.547	4103
359.631	3456
359.716	2764
359.800	3301
359.885	3728
359.969	3280
360.053	3820
360.138	2902
360.222	3184
360.306	3470
360.391	3236
360.475	3342
360.559	3731
360.644	3978
360.728	3202
360.812	4610
360.896	8479
360.981	5839
361.065	4737
361.149	4755
361.233	4309
361.318	4266
361.402	4195
361.486	4699
361.570	3783
361.654	4147
361.739	4747
361.823	6807
361.907	11888
361.991	7183
362.075	8105
362.159	10317
362.243	18139
362.327	37151
362.411	63956
362.495	34187
362.580	15829
362.664	13600
362.748	14652
362.832	20944
362.916	37740
363.000	86143
363.084	134175
363.168	74114
363.252	27113
363.336	14471
363.420	11790
363.503	10191
363.587	10319
363.671	8709
363.755	8830
363.839	9017
363.923	10413
364.007	12778
364.091	17265
364.175	25351
364.258	47424
364.342	97773
364.426	167219
364.510	122755
364.594	47886
364.677	22982
364.761	17029
364.845	13392
364.929	8188
365.013	7113
365.096	7249
365.180	5855
365.264	5479
365.347	6749
365.431	5823
365.515	4722
365.598	3922
365.682	5519
365.766	4737
365.849	4691
365.933	5333
366.017	5389
366.100	4749
366.184	4509
366.267	5173
366.351	4612
366.435	3876
366.518	4040
366.602	4603
366.685	4237
366.769	4751
366.852	5017
366.936	4908
367.019	4766
367.103	3837
367.186	5413
367.270	3867
367.353	4110
367.436	5258
367.520	6057
367.603	5040
367.687	5176
367.770	4963
367.853	4971
367.937	5279
368.020	5959
368.104	4555
368.187	4032
368.270	3826
368.353	3656
368.437	3896
368.520	3330
368.603	3438
368.687	3785
368.770	5090
368.853	3966
368.936	3861
369.020	3290
369.103	3726
369.186	3320
369.269	3288
369.352	3893
369.436	3389
369.519	3773
369.602	3195
369.685	3644
369.768	3646
369.851	3247
369.934	2925
370.018	2688
370.101	3580
370.184	4284
370.267	4147
370.350	3417
370.433	3815
370.516	7068
370.599	19195
370.682	14939
370.765	5403
370.848	4559
370.931	5081
371.014	4528
371.097	3319
371.180	4144
371.263	3628
371.346	3042
371.429	3217
371.511	3326
371.594	2838
371.677	3447
371.760	4788
371.843	3297
371.926	5602
372.009	14140
372.091	8584
372.174	4358
372.257	5754
372.340	4456
372.423	4667
372.505	3869
372.588	3858
372.671	2925
372.754	4731
372.836	4200
372.919	4307
373.002	3870
373.085	4057
373.167	3350
373.250	4204
373.332	6047
373.415	7691
373.498	15201
373.580	12111
373.663	22546
373.746	40150
373.828	11985
373.911	5536
373.993	4769
374.076	5209
374.159	4843
374.241	4640
374.324	5436
374.406	5961
374.489	5809
374.571	12225
374.654	8517
374.736	5375
374.819	7928
374.901	10752
374.983	15328
375.066	7209
375.148	5805
375.231	5852
375.313	7038
375.395	7027
375.478	5778
375.560	6884
375.643	6291
375.725	6261
375.807	8784
375.890	10365
375.972	5894
376.054	5204
376.136	4996
376.219	4727
376.301	5066
376.383	7962
376.465	5511
376.548	3989
376.630	3732
376.712	5992
376.794	5156
376.877	3546
376.959	3392
377.041	3639
377.123	3070
377.205	3533
377.287	2605
377.369	3825
377.452	3875
377.534	4086
377.616	4293
377.698	4089
377.780	3488
377.862	4391
377.944	3878
378.026	4040
378.108	3517
378.190	3821
378.272	3867
378.354	3908
378.436	3587
378.518	4168
378.600	3392
378.682	3141
378.764	4491
378.846	4710
378.928	3361
379.010	2964
379.091	3839
379.173	3474
379.255	3591
379.337	3550
379.419	3417
379.501	5217
379.583	4991
379.664	3165
379.746	3430
379.828	4935
379.910	3569
379.991	4790
380.073	3720
380.155	3346
380.237	2915
380.318	3046
380.400	3413
380.482	2791
380.564	3744
380.645	3905
380.727	3105
380.809	3592
380.890	2954
380.972	3282
381.053	3300
381.135	3346
381.217	3378
381.298	4023
381.380	3764
381.461	3147
381.543	4738
381.624	7787
381.706	4313
381.787	3719
381.869	3626
381.951	4302
382.032	10002
382.113	10413
382.195	3646
382.276	3337
382.358	3589
382.439	5815
382.521	7619
382.602	10651
382.684	7310
382.765	6454
382.846	6579
382.928	10321
383.009	9275
383.090	5994
383.172	13087
383.253	24820
383.334	11734
383.416	8902
383.497	7379
383.578	5348
383.659	5718
383.741	10102
383.822	31854
383.903	25058
383.984	8161
384.066	9220
384.147	7835
384.228	5716
384.309	6783
384.390	6645
384.471	7564
384.553	6388
384.634	5237
384.715	5066
384.796	4242
384.877	5268
384.958	5761
385.039	5764
385.120	4945
385.201	4732
385.282	4450
385.363	4747
385.444	5807
385.525	5776
385.606	7795
385.687	9313
385.768	5572
385.849	6477
385.930	9328
386.011	15354
386.092	9478
386.173	7819
386.254	6641
386.335	6312
386.416	5671
386.496	6837
386.577	7317
386.658	6392
386.739	6592
386.820	6651
386.901	6818
386.981	7742
387.062	8641
387.143	9293
387.224	9668
387.304	12151
387.385	11847
387.466	10905
387.547	11339
387.627	12657
387.708	13080
387.789	13043
387.869	13464
387.950	11338
388.031	8440
388.111	7497
388.192	8985
388.273	9437
388.353	8850
388.434	7368
388.514	6024
388.595	8343
388.676	9523
388.756	7253
388.837	6289
388.917	6108
388.998	4673
389.078	5401
389.159	5595
389.239	5540
389.320	5753
389.400	4553
389.480	5462
389.561	6309
389.641	6684
389.722	5105
389.802	4914
389.883	5284
389.963	7952
390.043	6370
390.124	4544
390.204	4660
390.284	6080
390.365	5630
390.445	5594
390.525	6036
390.605	6107
390.686	5488
390.766	5993
390.846	5773
390.927	6294
391.007	4448
391.087	6503
391.167	5281
391.247	5199
391.328	6405
391.408	6092
391.488	6228
391.568	6104
391.648	6521
391.728	6970
391.808	7031
391.888	7609
391.969	8721
392.049	9195
392.129	9507
392.209	9311
392.289	11785
392.369	12026
392.449	11721
392.529	12562
392.609	14301
392.689	16711
392.769	20282
392.849	23859
392.929	28194
393.009	38598
393.089	52019
393.169	85620
393.248	155878
393.328	263926
393.408	286760
393.488	220301
393.568	120404
393.648	66219
393.728	41694
393.807	29025
393.887	23229
393.967	19185
394.047	15371
394.127	13492
394.206	13173
394.286	13484
394.366	29648
394.446	51285
394.525	18743
394.605	8955
394.685	9324
394.764	8937
394.844	15501
394.924	25661
395.003	15717
395.083	8286
395.163	6991
395.242	7160
395.322	6903
395.402	6890
395.481	8846
395.561	9012
395.640	17823
395.720	50124
395.799	37999
395.879	13986
395.958	9991
396.038	12564
396.117	37593
396.197	67363
396.276	27354
396.356	16108
396.435	18900
396.515	24103
396.594	33855
396.673	60800
396.753	129111
396.832	240452
396.912	246645
396.991	133300
397.070	62234
397.150	35246
397.229	26687
397.308	32812
397.388	74730
397.467	54605
397.546	19602
397.625	12208
397.705	11254
397.784	9844
397.863	8682
397.942	8481
398.022	8033
398.101	6650
398.180	6974
398.259	6538
398.338	6620
398.417	7093
398.497	5689
398.576	5554
398.655	4912
398.734	4748
398.813	4657
398.892	4832
398.971	5274
399.050	5363
399.129	4197
399.208	4655
399.287	4205
399.366	3245
399.445	3838
399.524	3947
399.603	2805
399.682	4400
399.761	3392
399.840	5137
399.919	5510
399.998	3916
400.077	3665
400.156	2066
400.235	4566
400.313	3207
400.392	2810
400.471	4272
400.550	4146
400.629	3233
400.708	3109
400.786	3037
400.865	2704
400.944	2494
401.023	4437
401.102	2899
401.180	3226
401.259	2993
401.338	3559
401.416	2871
401.495	2426
401.574	3087
401.652	2947
401.731	2223
401.810	2827
401.888	2867
401.967	2705
402.046	2551
402.124	1917
402.203	1973
402.281	2754
402.360	2446
402.438	3556
402.517	1754
402.596	2694
402.674	2574
402.753	2569
402.831	2626
402.910	2871
402.988	2169
403.066	2697
403.145	3436
403.223	3802
403.302	3375
403.380	2783
403.459	3640
403.537	2927
403.615	3611
403.694	2573
403.772	3299
403.850	3331
403.929	2519
404.007	2366
404.085	3436
404.164	2962
404.242	2861
404.320	2911
404.398	4711
404.477	4690
404.555	6141
404.633	7688
404.711	3895
404.789	3814
404.868	2164
404.946	2856
405.024	2419
405.102	2440
405.180	2431
405.258	1481
405.336	2299
405.415	2266
405.493	2845
405.571	1549
405.649	2351
405.727	1638
405.805	2882
405.883	2360
405.961	2868
406.039	2712
406.117	1068
406.195	2596
406.273	2137
406.351	4134
406.429	4632
406.507	2004
406.585	2017
406.663	1894
406.740	1878
406.818	2237
406.896	1768
406.974	2025
407.052	1550
407.130	2706
407.208	4055
407.285	2985
407.363	1592
407.441	3252
407.519	2036
407.596	2714
407.674	3335
407.752	14659
407.830	20707
407.907	4673
407.985	1660
408.063	2653
408.141	1405
408.218	2412
408.296	1580
408.373	1897
408.451	3555
408.529	3869
408.606	3121
408.684	4116
408.762	3686
408.839	3749
408.917	3327
408.994	5246
409.072	4735
409.149	6706
409.227	9040
409.304	13855
409.382	16240
409.459	17066
409.537	22730
409.614	23045
409.692	18836
409.769	16791
409.846	21565
409.924	28133
410.001	24986
410.079	17941
410.156	12490
410.233	10376
410.311	8093
410.388	7384
410.465	7554
410.543	6087
410.620	6478
410.697	5565
410.775	5907
410.852	5116
410.929	7103
411.006	6017
411.083	5297
411.161	5195
411.238	4960
411.315	4450
411.392	4147
411.469	4162
411.547	4157
411.624	3476
411.701	2860
411.778	2947
411.855	3624
411.932	3303
412.009	2877
412.086	3273
412.163	3469
412.240	2531
412.317	3079
412.394	3022
412.471	3259
412.548	2509
412.625	2231
412.702	3105
412.779	2344
412.856	2197
412.933	1780
413.010	2382
413.087	2631
413.164	1969
413.241	3256
413.318	946
413.395	1765
413.471	1797
413.548	2593
413.625	2540
413.702	803
413.779	2762
413.855	2147
413.932	1791
414.009	1317
414.086	1790
414.162	2267
414.239	2459
414.316	2368
414.393	2879
414.469	1394
414.546	1899
414.623	1460
414.699	2079
414.776	1357
414.853	846
414.929	1853
415.006	1290
415.082	1349
415.159	1570
415.236	2040
415.312	1868
415.389	1711
415.465	1948
415.542	1228
415.618	1187
415.695	2224
415.771	1154
415.848	1435
415.924	601
416.000	937
416.077	1903
416.153	1252
416.230	1304
416.306	1634
416.383	2020
416.459	2463
416.535	937
416.612	397
416.688	1512
416.764	1540
416.841	1368
416.917	1445
416.993	1414
417.069	1646
417.146	1553
417.222	653
417.298	1697
417.374	1197
417.451	1555
417.527	1311
417.603	1104
417.679	1806
417.755	1733
417.831	770
417.908	1610
417.984	1636
418.060	1193
418.136	1736
418.212	1862
418.288	1298
418.364	1528
418.440	1530
418.516	2648
418.592	2278
418.668	1531
418.744	1925
418.820	1269
418.896	2050
418.972	1804
419.048	2409
419.124	2617
419.200	1693
419.276	2674
419.352	1570
419.428	2745
419.504	2461
419.579	3049
419.655	3376
419.731	2208
419.807	2573
419.883	3125
419.959	3742
420.034	3923
420.110	3033
420.186	3737
420.262	4995
420.337	4608
420.413	4466
420.489	5426
420.565	6258
420.640	5490
420.716	6513
420.792	5168
420.867	7172
420.943	6652
421.019	7660
421.094	7121
421.170	8984
421.245	8692
421.321	10220
421.397	11426
421.472	13853
421.548	20738
421.623	22939
421.699	17823
421.774	19635
421.850	21304
421.925	25619
422.001	29538
422.076	36002
422.152	43150
422.227	54651
422.302	69963
422.378	89026
422.453	117085
422.529	137413
422.604	122242
422.679	74415
422.755	85736
422.830	130343
422.905	134413
422.981	114612
423.056	91151
423.131	72138
423.207	56673
423.282	45416
423.357	38083
423.432	31218
423.508	27896
423.583	23227
423.658	20666
423.733	18561
423.808	17084
423.883	16374
423.959	15850
424.034	16567
424.109	17419
424.184	13437
424.259	10835
424.334	10097
424.409	8656
424.484	7960
424.559	6975
424.634	6467
424.709	6453
424.784	6308
424.859	5676
424.934	4922
425.009	4926
425.084	5954
425.159	5087
425.234	4361
425.309	3717
425.384	4454
425.459	3194
425.534	4005
425.609	3662
425.683	3024
425.758	3528
425.833	3488
425.908	3767
425.983	2679
426.058	3342
426.132	3898
426.207	2803
426.282	3438
426.357	2384
426.431	2172
426.506	2942
426.581	2214
426.655	2629
426.730	2727
426.805	2164
426.879	2888
426.954	2376
427.029	2294
427.103	2624
427.178	2617
427.253	3453
427.327	2885
427.402	2268
427.476	2737
427.551	2380
427.625	2298
427.700	2019
427.774	1460
427.849	2615
427.923	2473
427.998	2011
428.072	3120
428.147	5741
428.221	14367
428.296	59394
428.370	64956
428.444	15973
428.519	5306
428.593	2868
428.667	3783
428.742	3269
428.816	6714
428.890	26632
428.965	72890
429.039	35792
429.113	7029
429.188	3784
429.262	2859
429.336	2001
429.410	2681
429.485	2020
429.559	3269
429.633	2780
429.707	4290
429.781	5987
429.855	25113
429.930	67053
430.004	33114
430.078	11911
430.152	20361
430.226	70671
430.300	112299
430.374	47666
430.448	13967
430.522	6416
430.596	6234
430.670	9903
430.744	37264
430.818	74595
430.892	27512
430.966	5515
431.040	3254
431.114	1046
431.188	1995
431.262	1258
431.336	1299
431.410	1361
431.484	720
431.557	2580
431.631	2250
431.705	3841
431.779	10973
431.853	52948
431.927	69959
432.000	18856
432.074	3371
432.148	2252
432.222	285
432.295	1213
432.369	571
432.443	844
432.516	138
432.590	2876
432.664	1814
432.737	-159
432.811	549
432.885	581
432.958	150
433.032	-25
433.106	-55
433.179	-474
433.253	666
433.326	378
433.400	-552
433.473	271
433.547	-475
433.620	310
433.694	-26
433.767	-454
433.841	-192
433.914	721
433.988	696
434.061	372
434.134	252
434.208	320
434.281	-367
434.355	-20
434.428	120
434.501	306
434.575	362
434.648	-137
434.721	371
434.795	-77
434.868	-62
434.941	-12
435.014	1223
435.088	744
435.161	794
435.234	1433
435.307	2282
435.381	2236
435.454	4523
435.527	8632
435.600	12337
435.673	11071
435.746	7870
435.819	6557
435.892	4668
435.966	3681
436.039	2963
436.112	2004
436.185	1337
436.258	1488
436.331	196
436.404	1176
436.477	648
436.550	648
436.623	183
436.696	931
436.769	337
436.842	91
436.915	569
436.987	117
437.060	-145
437.133	169
437.206	142
437.279	617
437.352	39
437.425	-455
437.498	352
437.570	796
437.643	-399
437.716	-209
437.789	155
437.861	958
437.934	145
438.007	-502
438.080	-249
438.152	483
438.225	282
438.298	-216
438.370	3252
438.443	3141
438.516	849
438.588	101
438.661	-509
438.734	1091
438.806	188
438.879	1019
438.951	-535
439.024	460
439.096	-390
439.169	18
439.241	783
439.314	-54
439.386	296
439.459	18
439.531	-139
439.604	438
439.676	1120
439.749	-237
439.821	873
439.893	322
439.966	482
440.038	60
440.110	-194
440.183	120
440.255	-99
440.327	913
440.400	260
440.472	759
440.544	2043
440.617	567
440.689	1086
440.761	518
440.833	528
440.905	399
440.978	987
441.050	72
441.122	1512
441.194	363
441.266	311
441.338	-1
441.411	994
441.483	1111
441.555	1444
441.627	1250
441.699	811
441.771	657
441.843	984
441.915	892
441.987	761
442.059	1923
442.131	2327
442.203	2852
442.275	3512
442.347	6524
442.419	10476
442.491	35546
442.563	104918
442.635	86403
442.706	23566
442.778	8557
442.850	5052
442.922	4126
442.994	3894
443.066	4755
443.137	5846
443.209	6823
443.281	10653
443.353	18744
443.425	46115
443.496	125020
443.568	173247
443.640	120110
443.711	42360
443.783	16194
443.855	8676
443.926	6304
443.998	4583
444.070	3283
444.141	2937
444.213	2286
444.285	2955
444.356	2030
444.428	2472
444.499	2379
444.571	2240
444.642	2570
444.714	2615
444.785	2674
444.857	2767
444.928	3343
445.000	5065
445.071	5432
445.143	7280
445.214	10594
445.285	16871
445.357	34628
445.428	84941
445.500	161467
445.571	167878
445.642	143612
445.714	76272
445.785	27862
445.856	12133
445.928	7554
445.999	5175
446.070	3873
446.141	2861
446.213	3393
446.284	1529
446.355	2357
446.426	1274
446.497	1721
446.569	842
446.640	694
446.711	-100
446.782	442
446.853	856
446.924	497
446.995	402
447.066	789
447.138	-283
447.209	-64
447.280	-306
447.351	35
447.422	-430
447.493	55
447.564	574
447.635	-61
447.706	-538
447.777	-89
447.847	-611
447.918	-999
447.989	-138
448.060	-5
448.131	-250
448.202	-129
448.273	244
448.344	-797
448.414	-593
448.485	-906
448.556	263
448.627	-510
448.698	43
448.768	-165
448.839	-168
448.910	-903
448.981	-115
449.051	-842
449.122	-1016
449.193	-928
449.263	-1536
449.334	-648
449.405	-369
449.475	-166
449.546	-610
449.616	425
449.687	474
449.758	342
449.828	-614
449.899	-830
449.969	-863
450.040	-677
450.110	-707
450.181	-272
450.251	-678
450.322	-199
450.392	-115
450.463	-1137
450.533	-779
450.604	109
450.674	-382
450.744	262
450.815	295
450.885	583
450.955	130
451.026	865
451.096	317
451.166	447
451.237	1459
451.307	1751
451.377	1030
451.447	1017
451.518	226
451.588	14
451.658	-352
451.728	-888
451.799	-540
451.869	365
451.939	80
452.009	28
452.079	-411
452.149	-119
452.219	-268
452.289	512
452.360	213
452.430	218
452.500	1187
452.570	1853
452.640	4821
452.710	15442
452.780	27783
452.850	19859
452.920	9124
452.990	3319
453.060	2840
453.129	815
453.199	654
453.269	1031
453.339	970
453.409	920
453.479	389
453.549	567
453.619	1573
453.688	230
453.758	-119
453.828	-94
453.898	-601
453.968	-261
454.037	-138
454.087	-131
454.107	-139
454.168	-536
454.177	-605
454.247	-694
454.249	-688
454.316	-888
454.330	-859
454.386	-810
454.411	-836
454.456	-924
454.492	-589
454.525	-312
454.574	-311
454.595	-334
454.655	-194
454.665	-184
454.734	-309
454.736	-299
454.804	-406
454.817	-337
454.873	-194
454.898	-173
454.943	-106
454.979	-204
455.013	-360
455.060	-670
455.082	-820
455.141	371
455.152	582
455.221	-191
455.222	-179
455.291	-495
455.303	-417
455.360	-124
455.384	418
455.430	1185
455.465	1823
455.499	2459
455.546	821
455.569	50
455.627	-199
455.638	-272
455.707	-553
455.708	-540
455.777	-281
455.789	-210
455.846	-23
455.869	94
455.916	296
455.950	16
455.985	-246
456.031	-35
456.054	-12
456.112	-12
456.124	23
456.193	261
456.193	247
456.262	906
456.274	870
456.332	729
456.355	642
456.401	335
456.436	442
456.470	593
456.516	438
456.540	328
456.597	329
456.609	315
456.678	1093
456.678	1083
456.747	1378
456.759	1322
456.817	1077
456.840	1218
456.886	1238
456.920	1260
456.955	1441
457.001	1368
457.024	1231
457.082	1525
457.093	1590
457.162	1710
457.163	1722
457.232	1244
457.243	1168
457.301	1064
457.324	1356
457.370	1856
457.405	2145
457.439	2291
457.485	2171
457.508	2264
457.566	3174
457.577	3381
457.646	5153
457.647	5186
457.715	10459
457.727	11557
457.784	22958
457.808	30613
457.853	40011
457.889	54015
457.922	56374
457.969	42987
457.991	44895
458.050	42353
458.060	43365
458.129	68117
458.130	69268
458.198	78625
458.211	75857
458.267	58126
458.292	41236
458.336	24304
458.372	19315
458.405	20677
458.453	27042
458.474	35700
458.533	66428
458.543	69339
458.611	109662
458.614	111513
458.680	93141
458.694	78254
458.749	44055
458.775	30518
458.818	16463
458.855	11906
458.887	8785
458.936	6774
458.955	6081
459.016	4734
459.024	4565
459.093	4455
459.097	4402
459.162	3514
459.177	3414
459.230	3116
459.257	3141
459.299	2812
459.338	2642
459.368	3023
459.418	3020
459.437	2767
459.499	2367
459.505	2332
459.574	2838
459.579	2809
459.643	2473
459.659	2478
459.711	2494
459.740	2586
459.780	2538
459.820	2425
459.849	2507
459.900	2364
459.917	2346
459.981	2869
459.986	2871
460.054	2082
460.061	2106
460.123	2308
460.141	2304
460.191	2438
460.222	2408
460.260	2272
460.302	2348
460.328	2563
460.382	2765
460.397	2721
460.462	2830
460.465	2896
460.534	4597
460.543	4807
460.602	11999
460.623	14745
460.671	25974
460.703	35082
460.739	32427
460.783	31523
460.808	28490
460.864	10005
460.876	8683
460.944	3315
460.945	3262
461.013	3067
461.024	3050
461.081	2210
461.104	2067
461.150	2329
461.184	2568
461.218	2626
461.264	2466
461.286	2396
461.345	2365
461.355	2475
461.423	3577
461.425	3580
461.491	2516
461.505	2442
461.559	2404
461.585	2413
461.628	2546
461.665	2574
461.696	2663
461.745	3026
461.764	2968
461.825	2307
461.832	2313
461.901	2494
461.905	2550
461.969	2872
461.985	2745
462.037	2639
462.065	2684
462.105	2611
462.145	2804
462.173	3028
462.225	3024
462.241	2988
462.305	3085
462.310	3093
462.378	3274
462.385	3302
462.446	3306
462.465	3228
462.514	3155
462.545	3084
462.582	2922
462.625	2747
462.650	2508
462.705	2164
462.718	2272
462.785	2808
462.786	2813
462.854	2788
462.865	2829
462.922	2890
462.945	2822
462.990	2835
463.025	2973
463.058	2858
463.104	2525
463.126	2613
463.184	3025
463.194	2986
463.262	2448
463.264	2440
463.330	3225
463.344	3283
463.398	3290
463.424	3420
463.466	3047
463.504	2797
463.533	2955
463.583	2811
463.601	2747
463.663	3041
463.669	3102
463.737	3252
463.743	3312
463.805	3617
463.823	3541
463.873	3504
463.903	3676
463.940	3466
463.982	3140
464.008	3344
464.062	3731
464.076	3625
464.142	3006
464.144	3003
464.211	2780
464.221	2756
464.279	3009
464.301	3026
464.347	2949
464.381	3039
464.414	2967
464.461	2707
464.482	2824
464.540	3172
464.550	3159
464.617	3058
464.620	3047
464.685	3544
464.699	3669
464.753	3134
464.779	2834
464.820	3323
464.859	3806
464.888	3733
464.938	3580
464.956	3498
465.018	3070
465.023	3071
465.091	3161
465.098	3161
465.158	3779
465.177	3946
465.226	3593
465.257	3378
465.293	3656
465.336	3933
465.361	3722
465.416	3264
465.428	3361
465.495	3881
465.496	3886
465.563	3401
465.575	3322
465.631	3502
465.654	3571
465.698	3473
465.734	3334
465.765	3407
465.813	3521
465.833	3595
465.893	3753
465.900	3721
465.968	3453
465.972	3426
466.035	3352
466.052	3306
466.102	3741
466.131	4024
466.170	3786
466.210	3472
466.237	3440
466.290	3338
466.304	3384
466.369	3610
466.372	3609
466.439	3287
466.449	3237
466.506	3688
466.528	3870
466.573	4097
466.607	4188
466.641	4046
466.687	3901
466.708	4048
466.766	4406
466.775	4431
466.842	4520
466.845	4518
466.909	4093
466.925	3962
466.977	4229
467.004	4373
467.044	4288
467.083	4203
467.111	4276
467.163	4371
467.178	4402
467.242	4482
467.245	4501
467.312	4713
467.321	4732
467.379	4601
467.400	4538
467.446	4447
467.480	4369
467.559	4786
467.638	4015
467.717	3782
467.796	5037
467.875	5433
467.955	6588
468.034	6296
468.113	6665
468.192	8211
468.271	10653
468.350	15142
468.429	22071
468.508	24861
468.588	17362
468.667	10194
468.746	7352
468.825	6736
468.904	5953
468.983	5915
469.062	4742
469.141	5195
469.220	4464
469.299	5294
469.378	4143
469.456	5336
469.535	4823
469.614	4235
469.693	4570
469.772	4626
469.851	4386
469.930	4686
470.009	4703
470.088	4974
470.166	5232
470.245	5091
470.324	4848
470.403	5944
470.482	5063
470.560	4879
470.639	5299
470.718	4626
470.797	4750
470.875	3939
470.954	5047
471.033	3903
471.111	4646
471.190	4703
471.269	4037
471.347	4245
471.426	5076
471.505	4650
471.583	4639
471.662	4073
471.740	4163
471.819	5135
471.898	4064
471.976	5367
472.055	4682
472.133	4827
472.212	5078
472.290	4356
472.369	4191
472.447	4778
472.526	4793
472.604	4607
472.683	4349
472.761	4826
472.839	5079
472.918	5971
472.996	4260
473.075	5558
473.153	4679
473.231	5046
473.310	5082
473.388	4558
473.466	4549
473.545	5329
473.623	4933
473.701	4809
473.780	5059
473.858	4916
473.936	6239
474.014	4507
474.093	5500
474.171	5509
474.249	5995
474.327	4441
474.405	4627
474.484	4182
474.562	4982
474.640	4451
474.718	4708
474.796	4238
474.874	4940
474.952	4785
475.030	4180
475.108	3828
475.187	4269
475.265	6244
475.343	4631
475.421	4677
475.499	4732
475.577	4572
475.655	5244
475.733	5479
475.811	4378
475.889	4691
475.966	4992
476.044	4196
476.122	3428
476.200	5152
476.278	4411
476.356	4525
476.434	3216
476.512	4311
476.590	5015
476.667	5198
476.745	4240
476.823	3923
476.901	4402
476.979	4023
477.056	4629
477.134	4371
477.212	3828
477.290	4580
477.367	4927
477.445	4740
477.523	3956
477.601	3474
477.678	4129
477.756	4567
477.834	4483
477.911	4091
477.989	5077
478.066	4580
478.144	3540
478.222	3771
478.299	4166
478.377	4769
478.454	5023
478.532	4663
478.609	3992
478.687	4964
478.764	4288
478.842	4126
478.919	4213
478.997	4136
479.074	4084
479.152	3953
479.229	4790
479.307	4404
479.384	3985
479.461	4720
479.539	4169
479.616	4639
479.694	3954
479.771	4336
479.848	3961
479.926	4047
480.003	4088
480.080	4238
480.157	4706
480.235	4358
480.312	4347
480.389	4826
480.467	4157
480.544	4353
480.621	4881
480.698	5731
480.775	5152
480.853	5061
480.930	4872
481.007	4401
481.084	5326
481.161	7397
481.238	6101
481.315	4811
481.392	4210
481.470	5240
481.547	4482
481.624	3758
481.701	4268
481.778	5128
481.855	5129
481.932	5027
482.009	5971
482.086	6423
482.163	6755
482.240	8805
482.317	8393
482.393	6685
482.470	6873
482.547	7381
482.624	5583
482.701	6510
482.778	6439
482.855	5200
482.932	5938
483.009	5914
483.085	7151
483.162	8790
483.239	9977
483.316	8935
483.393	9654
483.469	7765
483.546	6781
483.623	5738
483.699	6349
483.776	4773
483.853	5750
483.930	4999
484.006	5188
484.083	6327
484.160	5224
484.236	6641
484.313	5320
484.389	7196
484.466	7432
484.543	9228
484.619	11716
484.696	14098
484.772	9755
484.849	7987
484.925	6249
485.002	6005
485.078	5584
485.155	5275
485.231	5330
485.308	5057
485.384	4538
485.461	5587
485.537	4770
485.614	5831
485.690	4771
485.766	4934
485.843	4795
485.919	4950
485.995	4677
486.072	5799
486.148	3855
486.224	5799
486.301	5078
486.377	4737
486.453	4273
486.530	4804
486.606	5265
486.682	6021
486.758	5769
486.835	5925
486.911	5583
486.987	5686
487.063	6035
487.139	7878
487.215	9275
487.292	10542
487.368	10752
487.444	12875
487.520	19514
487.596	32482
487.672	65097
487.748	205495
487.824	397913
487.900	177733
487.976	44501
488.052	21623
488.128	13926
488.204	10159
488.280	9198
488.356	6727
488.432	6923
488.508	7969
488.584	6332
488.660	6176
488.736	5886
488.812	4810
488.888	5493
488.964	5234
489.039	5122
489.115	5885
489.191	6252
489.267	5473
489.343	4642
489.418	4380
489.494	5123
489.570	3947
489.646	4822
489.722	5359
489.797	4379
489.873	5631
489.949	4861
490.024	5462
490.100	4796
490.176	4612
490.251	4575
490.327	4690
490.403	4721
490.478	5471
490.554	4719
490.629	5269
490.705	3746
490.781	4093
490.856	4392
490.932	4642
491.007	3821
491.083	3885
491.158	3356
491.234	4544
491.309	3490
491.385	3929
491.460	3388
491.536	3740
491.611	4012
491.686	4712
491.762	3871
491.837	4710
491.913	4313
491.988	4225
492.063	4935
492.139	4785
492.214	3503
492.289	3447
492.365	2943
492.440	3601
492.515	3665
492.590	3719
492.666	2940
492.741	3330
492.816	3200
492.891	3764
492.967	3959
493.042	4132
493.117	3304
493.192	3805
493.267	3531
493.342	5801
493.418	7827
493.493	3755
493.568	2523
493.643	3493
493.718	2911
493.793	3199
493.868	2946
493.943	3105
494.018	3354
494.093	2879
494.168	2950
494.243	3539
494.318	3363
494.393	3928
494.468	3623
494.543	4183
494.618	2683
494.693	3419
494.768	3434
494.842	3489
494.917	2979
494.992	2812
495.067	3732
495.142	3355
495.217	4218
495.292	2785
495.366	2740
495.441	2941
495.516	3413
495.591	2941
495.665	3455
495.740	5620
495.815	4297
495.890	3410
495.964	2470
496.039	3443
496.114	3650
496.188	6349
496.263	4773
496.338	3859
496.412	3015
496.487	3033
496.561	2358
496.636	3895
496.710	2583
496.785	3851
496.860	3294
496.934	3694
497.009	2651
497.083	3076
497.158	3044
497.232	3858
497.307	3608
497.381	3334
497.455	3044
497.530	3358
497.604	3272
497.679	3489
497.753	2940
497.827	3586
497.902	2828
497.976	3584
498.050	3584
498.125	7167
498.199	7585
498.273	3909
498.348	2714
498.422	3024
498.496	3837
498.570	3694
498.645	3198
498.719	2733
498.793	3222
498.867	3494
498.941	3066
499.016	3057
499.090	6444
499.164	4775
499.238	3358
499.312	3666
499.386	3604
499.460	3981
499.534	3405
499.609	3401
499.683	3604
499.757	3462
499.831	3955
499.905	5168
499.979	5265
500.053	3692
500.127	2602
500.201	3275
500.275	2974
500.349	3535
500.422	4064
500.496	3503
500.570	4013
500.644	5064
500.718	5840
500.792	4796
500.866	3535
500.940	3631
501.013	3079
501.087	3766
501.161	3649
501.235	4018
501.309	3175
501.382	5876
501.456	5450
501.530	4571
501.603	3229
501.677	3760
501.751	3234
501.825	4037
501.898	4146
501.972	3986
502.046	4289
502.119	2260
502.193	3092
502.266	3809
502.340	3335
502.413	3512
502.487	3951
502.561	3962
502.634	3675
502.708	3884
502.781	4038
502.855	3208
502.928	3563
503.002	3732
503.075	2780
503.149	3239
503.222	3423
503.295	3791
503.369	3541
503.442	4225
503.516	3696
503.589	6109
503.662	7374
503.736	8031
503.809	10926
503.882	14227
503.956	21655
504.029	41235
504.102	115582
504.175	222036
504.249	106907
504.322	35622
504.395	17692
504.468	11976
504.542	7715
504.615	6439
504.688	4572
504.761	4963
504.834	4321
504.907	4128
504.980	4144
505.053	3843
505.127	3105
505.200	4335
505.273	3379
505.346	3302
505.419	2551
505.492	3444
505.565	3608
505.638	2814
505.711	2911
505.784	2868
505.857	2000
505.930	3273
506.003	2766
506.076	3742
506.149	2397
506.221	2816
506.294	2996
506.367	2369
506.440	4188
506.513	3091
506.586	2457
506.659	1923
506.731	2433
506.804	2502
506.877	2086
506.950	2592
507.022	2658
507.095	2052
507.168	2908
507.241	2140
507.313	2627
507.386	2171
507.459	2778
507.531	2201
507.604	1966
507.677	1981
507.749	2086
507.822	2459
507.894	2096
507.967	2417
508.040	2048
508.112	3096
508.185	2756
508.257	2426
508.330	3056
508.402	2584
508.475	1993
508.547	2454
508.620	2260
508.692	2661
508.765	1918
508.837	2355
508.909	2661
508.982	2068
509.054	1944
509.127	1815
509.199	2273
509.271	2488
509.344	991
509.416	2360
509.488	2551
509.560	2714
509.633	2115
509.705	2643
509.777	2351
509.849	2533
509.922	1830
509.994	2265
510.066	2341
510.138	1635
510.210	2404
510.283	2937
510.355	2310
510.427	2444
510.499	2896
510.571	2921
510.643	1497
510.715	2189
510.787	1929
510.859	2713
510.931	2554
511.003	3010
511.076	2627
511.148	2598
511.219	1987
511.291	2615
511.363	2705
511.435	1541
511.507	2011
511.579	2199
511.651	1844
511.723	1824
511.795	2125
511.867	1551
511.939	1645
512.010	2023
512.082	2709
512.154	1688
512.226	2577
512.298	3140
512.369	2628
512.441	2809
512.513	3161
512.585	2040
512.656	2502
512.728	2881
512.800	2203
512.871	2087
512.943	1763
513.015	2703
513.086	2436
513.158	2063
513.230	2191
513.301	1382
513.373	2362
513.444	2990
513.516	2705
513.588	2525
513.659	3272
513.731	2200
513.802	2154
513.874	3586
513.945	1654
514.016	2231
514.088	2113
514.159	2127
514.231	1515
514.302	1799
514.374	2645
514.445	2122
514.516	3238
514.588	1787
514.659	2513
514.730	2249
514.802	2536
514.873	1801
514.944	3329
515.016	2482
515.087	2261
515.158	2750
515.229	2686
515.301	2604
515.372	2649
515.443	2875
515.514	2148
515.585	2436
515.656	3075
515.728	2578
515.799	1720
515.870	3353
515.941	2478
516.012	2406
516.083	2481
516.154	2481
516.225	3475
516.296	3106
516.367	2731
516.438	3461
516.509	3634
516.580	3343
516.651	4830
516.722	11520
516.793	9274
516.864	3504
516.935	3191
517.006	3468
517.077	3578
517.148	5608
517.219	13412
517.289	30881
517.360	8514
517.431	4593
517.502	2914
517.573	3607
517.643	2546
517.714	3302
517.785	3423
517.856	3316
517.926	4038
517.997	4909
518.068	4628
518.138	6837
518.209	7083
518.280	13911
518.350	44265
518.421	34277
518.492	14535
518.562	18709
518.633	26028
518.703	39978
518.774	82556
518.845	217092
518.915	285428
518.986	94814
519.056	33299
519.127	18836
519.197	13435
519.268	9909
519.338	7530
519.408	6095
519.479	4304
519.549	5231
519.620	5718
519.690	3976
519.760	3550
519.831	3804
519.901	2906
519.971	4119
520.042	3620
520.112	3367
520.182	2611
520.253	3526
520.323	2443
520.393	3353
520.463	3790
520.534	2539
520.604	3617
520.674	3163
520.744	3759
520.814	3281
520.885	3658
520.955	2291
521.025	3561
521.095	3348
521.165	2839
521.235	2381
521.305	2267
521.375	3189
521.445	2720
521.515	2126
521.585	2960
521.655	2854
521.725	3186
521.795	2931
521.865	2194
521.935	3213
522.005	2428
522.075	2915
522.145	3140
522.215	3208
522.285	3618
522.355	2823
522.424	3475
522.494	2915
522.564	3676
522.634	3229
522.704	4394
522.774	3405
522.843	3831
522.913	3351
522.983	3329
523.053	2630
523.122	3535
523.192	3217
523.262	2750
523.331	3928
523.401	3236
523.471	3418
523.540	3621
523.610	3248
523.680	3937
523.749	3705
523.819	4111
523.888	3998
523.958	3681
524.027	4068
524.097	4107
524.166	3311
524.236	3571
524.305	4182
524.375	3222
524.444	3166
524.514	4320
524.583	4162
524.653	4578
524.722	3649
524.791	3062
524.861	4862
524.930	3639
524.999	3477
525.069	4799
525.138	4921
525.207	3857
525.277	4729
525.346	4173
525.415	5412
525.484	6400
525.554	6444
525.623	7499
525.692	11163
525.761	11993
525.830	16222
525.900	23461
525.969	36206
526.038	73744
526.107	123633
526.176	389226
526.245	432866
526.314	132410
526.383	172781
526.452	331040
526.522	322962
526.591	446853
526.660	97949
526.729	42956
526.797	42925
526.867	55364
526.935	121476
527.004	443677
527.073	478092
527.142	89057
527.211	29006
527.280	17047
527.349	13222
527.418	9000
527.487	8538
527.555	6662
527.624	6015
527.693	5078
527.762	5965
527.831	5433
527.899	5184
527.968	5592
528.037	4347
528.106	4336
528.174	4666
528.243	4052
528.312	4587
528.380	4495
528.449	3805
528.518	4698
528.586	3223
528.655	4225
528.723	3960
528.792	3783
528.861	3878
528.929	2970
528.998	3772
529.066	3734
529.135	4060
529.203	4304
529.272	3810
529.340	5418
529.409	4837
529.477	4209
529.545	3539
529.614	4662
529.682	4081
529.751	3715
529.819	5302
529.887	4833
529.956	4330
530.024	4787
530.092	4429
530.161	4630
530.229	4315
530.297	3838
530.365	5488
530.434	4592
530.502	5856
530.570	5642
530.638	4441
530.707	5416
530.775	5655
530.843	3718
530.911	5162
530.979	5027
531.047	5718
531.115	4745
531.183	4927
531.252	4686
531.320	4819
531.388	4748
531.456	5400
531.524	4355
531.592	5737
531.660	6086
531.728	5393
531.796	4767
531.864	5343
531.932	5823
532.000	5151
532.067	5214
532.135	6364
532.203	6346
532.271	6588
532.339	7055
532.407	7425
532.475	7294
532.542	7141
532.610	6695
532.678	5721
532.746	8166
532.814	9839
532.881	7801
532.949	7109
533.017	6884
533.084	6360
533.152	6412
533.220	6301
533.287	6078
533.355	6372
533.423	6360
533.490	7023
533.558	6713
533.625	8148
533.693	6353
533.761	6773
533.828	6945
533.896	6970
533.963	7230
534.031	8029
534.098	9612
534.166	11222
534.233	10963
534.300	11241
534.368	11218
534.435	11330
534.503	11973
534.570	13478
534.637	15959
534.705	18470
534.772	23454
534.840	37535
534.907	130199
534.974	286352
535.041	58307
535.109	17983
535.176	12796
535.243	12057
535.310	10843
535.378	10460
535.445	9281
535.512	11861
535.579	10818
535.646	10655
535.714	10116
535.781	11580
535.848	12432
535.915	11238
535.982	10754
536.049	11395
536.116	11305
536.183	10322
536.250	9344
536.317	10885
536.384	10855
536.451	11661
536.518	11102
536.585	10661
536.652	12534
536.719	12167
536.786	10272
536.853	10661
536.920	11570
536.987	11235
537.053	10236
537.120	12721
537.187	12709
537.254	12093
537.321	12329
537.388	13521
537.454	12614
537.521	12718
537.588	11951
537.654	12387
537.721	13099
537.788	13981
537.855	12321
537.921	13036
537.988	12377
538.055	11753
538.121	10957
538.188	10448
538.254	10703
538.321	11072
538.388	11811
538.454	13242
538.521	13989
538.587	14072
538.654	12866
538.720	13054
538.787	12844
538.853	13107
538.920	11635
538.986	10930
539.053	10716
539.119	11686
539.185	11863
539.252	11911
539.318	12534
539.385	14728
539.451	13020
539.517	13175
539.583	11987
539.650	12360
539.716	13840
539.782	11954
539.849	11607
539.915	12030
539.981	11871
540.047	12688
540.114	11812
540.180	12676
540.246	12882
540.312	14084
540.378	12523
540.444	14177
540.510	13487
540.576	13982
540.643	13707
540.709	11854
540.775	11472
540.841	11748
540.907	11885
540.973	11804
541.039	12641
541.105	12729
541.171	13321
541.237	14170
541.303	13715
541.369	14281
541.435	13845
541.500	12776
541.566	11538
541.632	12112
541.698	11864
541.764	13119
541.830	12677
541.896	12686
541.961	12015
542.027	13224
542.093	12920
542.159	14708
542.224	12342
542.290	12930
542.356	11959
542.421	13717
542.487	12419
542.553	12399
542.618	12213
542.684	12566
542.750	12342
542.815	13331
542.881	11823
542.947	14136
543.012	13709
543.078	12698
543.143	11840
543.209	12250
543.274	11409
543.340	12275
543.405	12456
543.471	14044
543.536	13342
543.602	13374
543.667	12406
543.732	13343
543.798	12809
543.863	13988
543.928	13823
543.994	13619
544.059	12738
544.124	14766
544.190	13879
544.255	15203
544.320	14311
544.386	14283
544.451	15218
544.516	15030
544.581	13382
544.646	14750
544.712	15815
544.777	15620
544.842	14008
544.907	15028
544.972	14787
545.037	15695
545.102	17006
545.168	15920
545.233	17213
545.298	17439
545.363	16512
545.428	17305
545.493	18118
545.558	19000
545.623	18150
545.688	19278
545.753	18005
545.818	19905
545.883	20355
545.947	21148
546.012	22125
546.077	21743
546.142	24145
546.207	23915
546.272	26788
546.337	25234
546.401	26823
546.466	28876
546.531	29258
546.596	31822
546.661	33538
546.725	34942
546.790	36504
546.855	39803
546.919	41931
546.984	49715
547.049	52201
547.113	58783
547.178	65373
547.243	74022
547.307	85521
547.372	95264
547.436	97508
547.501	99419
547.565	109413
547.630	104843
547.695	97255
547.759	98270
547.823	97868
547.888	101205
547.952	104584
548.017	107376
548.081	111180
548.146	110139
548.210	111144
548.274	118892
548.339	121029
548.403	110276
548.468	102914
548.532	100475
548.596	102618
548.660	103224
548.725	110036
548.789	121690
548.853	121942
548.917	113059
548.982	112043
549.046	104484
549.110	91224
549.174	91846
549.238	104483
549.303	117055
549.367	122896
549.431	118155
549.495	111113
549.559	109798
549.623	119184
549.687	137997
549.751	133348
549.815	152731
549.879	164868
549.943	155165
550.007	160278
550.071	164025
550.135	151535
550.199	138677
550.263	139568
550.327	130592
550.391	130171
550.455	144291
550.519	152709
550.582	159910
550.646	176275
550.710	184672
550.774	182390
550.838	184007
550.901	188642
550.965	198529
551.029	205663
551.093	216531
551.156	231766
551.220	252496
551.284	273181
551.347	242500
551.411	204831
551.475	190046
551.538	196618
551.602	192170
551.666	178289
551.729	171488
551.793	164144
551.856	164258
551.920	159081
551.983	160532
552.047	158418
552.110	158306
552.174	159556
552.237	162969
552.301	155510
552.364	147168
552.428	143216
552.491	145564
552.554	148817
552.618	147246
552.681	150916
552.745	147311
552.808	146003
552.871	155106
552.934	153398
552.998	150680
553.061	147695
553.124	142561
553.187	141000
553.251	143406
553.314	144675
553.377	145771
553.440	153730
553.503	159302
553.567	163042
553.630	156532
553.693	157474
553.756	157641
553.819	155351
553.882	152423
553.945	149567
554.008	152195
554.071	150778
554.134	155787
554.197	149239
554.260	143775
554.323	145315
554.386	146818
554.449	150685
554.512	154448
554.575	146626
554.638	146034
554.701	143348
554.764	143674
554.827	138472
554.889	136786
554.952	130079
555.015	123511
555.078	125102
555.141	127122
555.203	125131
555.266	127058
555.329	125934
555.391	121081
555.454	120079
555.517	115261
555.580	110296
555.642	106586
555.705	103704
555.768	105670
555.830	101778
555.893	97764
555.955	95634
556.018	92712
556.080	92140
556.143	93611
556.206	93740
556.268	92053
556.330	90387
556.393	87418
556.455	84300
556.518	83182
556.580	79206
556.643	77983
556.705	75456
556.767	74731
556.830	74203
556.892	72920
556.955	71135
557.017	68902
557.079	68219
557.142	67031
557.204	64868
557.266	64721
557.328	61318
557.391	57459
557.453	57438
557.515	56898
557.577	56138
557.639	56216
557.701	56684
557.764	55477
557.826	55653
557.888	59510
557.950	58836
558.012	63488
558.074	73876
558.136	108480
558.198	278120
558.260	188339
558.322	63336
558.384	56640
558.446	58847
558.508	62773
558.570	69678
558.632	79765
558.694	96131
558.756	134238
558.818	260517
558.880	622361
558.942	426929
559.003	306675
559.065	241386
559.127	85400
559.189	73315
559.251	76137
559.312	95939
559.374	156838
559.436	427170
559.498	404107
559.559	112550
559.621	76408
559.683	77332
559.744	101195
559.806	211962
559.868	449686
559.929	187808
559.991	83607
560.052	98986
560.114	237147
560.176	258350
560.237	138445
560.299	279529
560.360	122509
560.422	39075
560.483	30442
560.545	26962
560.606	26516
560.667	25761
560.729	24028
560.790	23927
560.852	23367
560.913	22448
560.974	21617
561.036	20919
561.097	21814
561.158	21850
561.220	21115
561.281	19487
561.342	19156
561.403	20122
561.465	18754
561.526	20723
561.587	19648
561.648	16982
561.709	18436
561.771	17812
561.832	17222
561.893	17623
561.954	17642
562.015	16549
562.076	17305
562.137	16629
562.198	16087
562.259	16584
562.320	17017
562.381	16082
562.442	16491
562.503	16471
562.564	15889
562.625	14301
562.686	15105
562.747	15223
562.808	15562
562.869	14017
562.930	14681
562.991	14300
563.051	14524
563.112	13372
563.173	14225
563.234	14033
563.294	13917
563.355	13367
563.416	14453
563.477	13517
563.537	13917
563.598	12969
563.659	12977
563.720	12871
563.780	12910
563.841	12900
563.901	13782
563.962	14012
564.023	12947
564.083	13206
564.144	14160
564.204	13752
564.265	12611
564.325	12968
564.386	13048
564.446	12191
564.507	11616
564.567	12023
564.628	12292
564.688	12336
564.749	11673
564.809	12114
564.869	11551
564.930	11440
564.990	12877
565.050	11454
565.111	12386
565.171	11743
565.231	12298
565.292	12612
565.352	11438
565.412	11996
565.472	11663
565.532	11787
565.593	12284
565.653	11494
565.713	12437
565.773	12476
565.833	11901
565.893	13151
565.953	11302
566.013	11232
566.074	11705
566.134	10304
566.194	10800
566.254	11123
566.314	11492
566.374	11561
566.434	10875
566.494	10786
566.554	11635
566.614	11482
566.673	11524
566.733	11666
566.793	12016
566.853	11683
566.913	11943
566.973	11409
567.033	12203
567.092	11790
567.152	12378
567.212	11562
567.272	11797
567.331	12771
567.391	12233
567.451	13106
567.511	12643
567.570	12236
567.630	12497
567.690	11687
567.749	11657
567.809	11822
567.868	12445
567.928	11109
567.988	11799
568.047	11681
568.107	12099
568.166	11883
568.226	11120
568.285	12357
568.345	12177
568.404	12645
568.464	12996
568.523	11197
568.582	12140
568.642	12111
568.701	12172
568.761	11829
568.820	10965
568.879	12347
568.939	12018
568.998	12242
569.057	11642
569.116	11767
569.176	12835
569.235	11094
569.294	11530
569.353	11592
569.413	10857
569.472	10440
569.531	11638
569.590	10974
569.649	11725
569.708	10889
569.767	11986
569.827	11876
569.886	10810
569.945	11895
570.004	11580
570.063	11561
570.122	12543
570.181	11381
570.240	12058
570.299	12481
570.358	12788
570.417	12867
570.475	13316
570.534	12434
570.593	12706
570.652	11813
570.711	12754
570.770	12666
570.829	12245
570.887	12407
570.946	13108
571.005	12833
571.064	12497
571.122	12005
571.181	12142
571.240	12373
571.299	11405
571.357	11965
571.416	11049
571.475	11731
571.533	11854
571.592	12904
571.650	13084
571.709	12405
571.768	13782
571.826	15150
571.885	14566
571.943	13105
572.002	12583
572.060	12864
572.119	12519
572.177	12685
572.236	12571
572.294	12942
572.352	13345
572.411	12789
572.469	13136
572.528	12090
572.586	12213
572.644	11973
572.703	12761
572.761	11270
572.819	12078
572.877	11029
572.936	11606
572.994	10747
573.052	10545
573.110	10774
573.169	12432
573.227	11789
573.285	11732
573.343	11542
573.401	12133
573.459	11832
573.517	11652
573.576	11853
573.634	12363
573.692	11868
573.750	11841
573.808	11399
573.866	11987
573.924	10977
573.982	11588
574.040	10691
574.098	11578
574.155	10914
574.213	10625
574.271	10051
574.329	12497
574.387	11662
574.445	10470
574.503	10238
574.560	9745
574.618	10950
574.676	10063
574.734	10150
574.792	9857
574.849	9974
574.907	9592
574.965	8264
575.022	8611
575.080	8956
575.138	9516
575.195	8890
575.253	8380
575.311	9020
575.368	8600
575.426	8192
575.483	9059
575.541	8671
575.598	9556
575.656	8319
575.713	8726
575.771	8905
575.828	9682
575.886	8556
575.943	8290
576.001	8631
576.058	7820
576.115	8155
576.173	8167
576.230	8637
576.287	9422
576.345	9228
576.402	8645
576.459	9355
576.517	8433
576.574	8416
576.631	8333
576.688	7868
576.746	8260
576.803	6593
576.860	6737
576.917	6992
576.974	8366
577.031	9069
577.089	9080
577.146	7888
577.203	8050
577.260	8165
577.317	7909
577.374	6915
577.431	8001
577.488	7923
577.545	8000
577.602	7837
577.659	7229
577.716	7337
577.773	7024
577.830	7787
577.886	7793
577.943	8195
578.000	7971
578.057	7194
578.114	8070
578.171	8222
578.227	7924
578.284	7764
578.341	8265
578.398	7518
578.454	7722
578.511	8377
578.568	7630
578.625	7623
578.681	8095
578.738	7326
578.794	8072
578.851	8162
578.908	8043
578.964	7803
579.021	7620
579.077	8294
579.134	7609
579.190	8669
579.247	7831
579.303	7385
579.360	7226
579.416	7139
579.473	7699
579.529	8382
579.586	7824
579.642	7140
579.698	8381
579.755	7814
579.811	8081
579.867	8637
579.924	7645
579.980	7392
580.036	8106
580.093	7663
580.149	8882
580.205	7679
580.261	9519
580.317	8673
580.374	9285
580.430	8909
580.486	8774
580.542	7874
580.598	8448
580.619	8412
580.654	8349
580.692	8611
580.710	8746
580.765	9052
580.767	9063
580.823	9067
580.838	9317
580.879	9997
580.911	9288
580.935	8762
580.984	8754
580.991	8749
581.047	9285
581.057	9081
581.103	8183
581.130	8612
581.159	9062
581.203	9370
581.215	9444
581.270	8714
581.276	8722
581.326	8789
581.349	8522
581.382	8118
581.422	9158
581.438	9606
581.494	9377
581.494	9378
581.550	9245
581.567	9308
581.606	9373
581.640	9004
581.661	8826
581.713	8901
581.717	8901
581.773	9200
581.786	9321
581.829	9713
581.859	9512
581.885	9337
581.932	8823
581.940	8734
581.996	9294
582.004	9542
582.052	10761
582.077	10228
582.107	9653
582.150	9908
582.163	9983
582.219	9546
582.223	9534
582.274	9243
582.296	9335
582.330	9538
582.368	9685
582.386	9766
582.441	9766
582.441	9763
582.497	10200
582.514	10035
582.552	9634
582.587	9791
582.608	9967
582.659	10132
582.663	10134
582.719	11107
582.732	11094
582.774	10924
582.805	10463
582.830	10152
582.877	10128
582.885	10135
582.941	10622
582.950	10644
582.996	10597
583.023	10551
583.052	10494
583.095	11140
583.107	11354
583.162	11568
583.168	11582
583.218	11543
583.240	11326
583.273	10914
583.313	10967
583.328	11071
583.384	10903
583.385	10902
583.439	10660
583.458	10918
583.494	11459
583.531	11782
583.549	12016
583.603	12061
583.605	12057
583.660	11944
583.676	12024
583.715	12212
583.748	12033
583.770	11930
583.820	11848
583.825	11862
583.881	12880
583.893	12784
583.936	12286
583.965	12296
583.991	12320
584.038	12130
584.046	12138
584.101	12464
584.110	12482
584.156	12625
584.183	12650
584.211	12521
584.255	12817
584.266	12963
584.321	13502
584.328	13601
584.376	14257
584.400	13920
584.431	13665
584.472	14597
584.486	14845
584.541	14597
584.545	14590
584.596	14923
584.617	15061
584.651	15192
584.689	15567
584.706	15744
584.761	15825
584.762	15818
584.816	16761
584.834	17108
584.871	17800
584.906	17697
584.926	17624
584.978	18161
584.980	18209
585.035	19399
585.051	19806
585.090	21248
585.123	22732
585.145	23701
585.195	25780
585.200	26058
585.254	29069
585.267	30066
585.309	33498
585.340	36478
585.364	39377
585.412	45390
585.419	46392
585.473	56167
585.484	58505
585.528	70809
585.556	81273
585.583	99195
585.628	142420
585.637	160593
585.692	300824
585.700	330931
585.747	520984
585.772	549823
585.801	462218
585.845	270287
585.856	226705
585.910	100135
585.917	87473
585.965	61746
585.989	51271
586.019	45227
586.061	38621
586.074	37530
586.128	34090
586.133	33764
586.183	31668
586.205	31152
586.237	30849
586.277	30091
586.292	30160
586.346	30023
586.349	30001
586.401	29939
586.421	29642
586.455	29276
586.493	29457
586.509	29811
586.564	29513
586.565	29472
586.618	30553
586.637	31254
586.672	33550
586.709	36143
586.727	38267
586.781	44599
586.781	44677
586.835	42027
586.853	40883
586.889	36962
586.925	33917
586.944	33306
586.996	32149
586.998	32209
587.052	31635
587.068	31542
587.106	31882
587.140	32240
587.161	32461
587.212	32658
587.215	32751
587.269	33454
587.284	33560
587.323	33793
587.356	33557
587.377	34012
587.427	35513
587.431	35661
587.485	36346
587.499	36444
587.539	37256
587.571	38170
587.593	38960
587.643	40169
587.648	40380
587.702	41713
587.715	41806
587.755	42277
587.786	42619
587.810	42870
587.858	43561
587.864	43729
587.917	43696
587.930	43584
587.971	43408
588.001	43216
588.025	43395
588.073	43806
588.079	43913
588.133	43165
588.145	43075
588.187	43674
588.217	43539
588.241	43724
588.288	44291
588.295	44549
588.348	45348
588.360	45515
588.402	45799
588.431	45677
588.456	45568
588.503	44823
588.510	45156
588.564	47610
588.575	47944
588.617	48813
588.646	49140
588.671	50074
588.718	52252
588.725	52597
588.778	53268
588.789	53495
588.832	57395
588.861	60685
588.886	73526
588.932	99152
588.939	107048
588.993	173674
589.004	182764
589.047	137016
589.075	103953
589.100	83934
589.147	53643
589.154	53325
589.207	50925
589.218	50239
589.261	50693
589.290	50757
589.314	51452
589.361	52901
589.368	53253
589.421	55052
589.433	55356
589.475	65297
589.504	72879
589.528	91615
589.576	131292
589.582	132570
589.635	132353
589.647	130510
589.689	86612
589.718	58713
589.742	56789
589.790	52601
589.795	52748
589.849	52939
589.861	52845
589.902	53157
589.932	53144
589.955	53405
590.004	53332
590.009	53482
590.062	53271
590.075	53115
590.115	53168
590.146	52803
590.168	53147
590.218	53611
590.222	53849
590.275	54799
590.289	54820
590.328	55800
590.360	56470
590.381	57144
590.431	57959
590.435	58226
590.488	59588
590.503	59869
590.541	60699
590.574	61020
590.594	61893
590.645	63428
590.647	63678
590.700	64925
590.716	65136
590.753	67477
590.787	69159
590.806	69758
590.859	70759
590.859	71011
590.912	72407
590.930	72566
590.965	73771
591.001	74761
591.018	75262
591.071	75774
591.072	75529
591.124	73686
591.143	72734
591.177	73485
591.214	73724
591.230	74504
591.283	76673
591.285	76494
591.336	76594
591.356	76247
591.389	76624
591.427	76541
591.442	76277
591.495	74392
591.498	74001
591.547	75281
591.569	75538
591.600	76418
591.640	76948
591.653	77495
591.706	78671
591.711	78525
591.759	80434
591.782	81092
591.811	83086
591.853	85156
591.864	85768
591.917	87464
591.924	87397
591.969	87378
591.995	86890
592.022	87344
592.066	87256
592.075	88014
592.127	90984
592.137	91193
592.180	92791
592.208	93348
592.233	94839
592.279	96647
592.285	97430
592.338	101234
592.350	101719
592.390	100882
592.421	99659
592.443	100633
592.491	101615
592.495	102126
592.548	104183
592.562	104377
592.600	106161
592.633	107002
592.653	106928
592.704	105150
592.705	105769
592.775	106357
592.846	110938
592.916	114312
592.987	114996
593.058	114784
593.128	115843
593.199	117116
593.270	116958
593.341	118652
593.411	122586
593.482	125735
593.553	130385
593.623	131798
593.694	134911
593.764	139742
593.835	139587
593.906	138295
593.976	141175
594.047	145666
594.117	149575
594.188	155835
594.258	157869
594.329	154929
594.399	157475
594.470	164391
594.540	169909
594.611	173155
594.681	174141
594.751	173055
594.822	178180
594.892	182956
594.963	188142
595.033	191972
595.103	200363
595.174	201443
595.244	203754
595.314	210398
595.384	215737
595.455	221607
595.525	228483
595.595	235306
595.665	242050
595.736	234693
595.806	234715
595.876	243587
595.946	240942
596.016	248815
596.087	257834
596.157	261315
596.227	259364
596.297	269619
596.367	283615
596.437	303604
596.507	307759
596.577	301901
596.647	308575
596.717	322986
596.787	334204
596.857	331296
596.927	335288
596.997	337722
597.067	335881
597.137	344000
597.207	343749
597.277	350251
597.347	344107
597.417	328566
597.487	325135
597.557	329821
597.626	339641
597.696	345310
597.766	345107
597.836	334534
597.906	314116
597.975	306423
598.045	306086
598.115	315359
598.185	328479
598.254	363246
598.324	398077
598.394	410140
598.464	409336
598.533	397529
598.603	381987
598.672	360691
598.742	362979
598.812	366073
598.881	373737
598.951	376316
599.020	376724
599.090	386869
599.159	399905
599.229	390458
599.299	378574
599.368	383598
599.437	389484
599.507	366737
599.576	345070
599.646	342994
599.715	335462
599.785	333567
599.854	327688
599.924	318946
599.993	316484
600.062	322563
600.132	329855
600.201	337228
600.270	373912
600.340	416087
600.409	413650
600.478	409232
600.547	408521
600.617	411709
600.686	333805
600.755	296105
600.824	273591
600.894	264466
600.963	264556
601.032	265386
601.101	258798
601.170	244961
601.239	238931
601.308	232862
601.378	236200
601.447	235495
601.516	240041
601.585	238934
601.654	240969
601.723	244925
601.792	247409
601.861	256191
601.930	262306
601.999	268491
602.068	267916
602.137	268762
602.206	269581
602.275	276935
602.343	279912
602.412	280710
602.481	282437
602.550	286822
602.619	291344
602.688	294634
602.756	297451
602.825	298589
602.894	303525
602.963	314427
603.032	317489
603.100	321517
603.169	318230
603.238	322593
603.307	323597
603.375	325489
603.444	330867
603.513	336057
603.581	338573
603.650	343379
603.719	340564
603.787	343768
603.856	355948
603.924	360342
603.993	369320
604.061	379835
604.130	397242
604.198	406366
604.267	410951
604.335	417840
604.404	423735
604.472	432619
604.541	432080
604.609	438733
604.678	440205
604.746	437107
604.815	445916
604.883	458074
604.951	457376
605.020	460117
605.088	468378
605.156	476359
605.225	487169
605.293	490820
605.361	486421
605.429	490329
605.498	493378
605.566	503466
605.634	523686
605.702	538759
605.771	557010
605.839	564599
605.907	559027
605.975	543247
606.043	530812
606.111	530611
606.180	529664
606.248	529722
606.316	523795
606.384	523176
606.452	523751
606.520	525812
606.588	543726
606.656	551716
606.724	552348
606.792	531207
606.860	504014
606.928	458377
606.996	433932
607.064	418986
607.132	425799
607.200	438360
607.267	466518
607.335	462642
607.403	482154
607.471	477524
607.539	456713
607.607	463669
607.674	425335
607.742	406995
607.810	403392
607.878	402607
607.946	405465
608.013	422770
608.081	435544
608.149	440040
608.216	446950
608.284	466570
608.352	464998
608.419	469202
608.487	455759
608.555	448673
608.622	456124
608.690	466389
608.757	507506
608.825	536346
608.893	528448
608.960	510429
609.028	484779
609.095	479516
609.163	479833
609.230	460545
609.298	404223
609.365	409231
609.432	437780
609.500	462641
609.567	511283
609.635	572190
609.702	619318
609.769	612159
609.837	546158
609.904	436791
609.971	428759
610.039	437650
610.106	463512
610.173	560387
610.241	840101
610.308	996093
610.375	590921
610.442	478612
610.509	452125
610.577	442631
610.644	447816
610.711	458667
610.778	469107
610.845	477225
610.912	501237
610.980	523415
611.047	533258
611.114	527621
611.181	515619
611.248	508021
611.315	521628
611.382	538826
611.449	552344
611.516	566067
611.583	561737
611.650	559235
611.717	563497
611.784	566350
611.851	576266
611.918	587472
611.984	608754
612.051	666877
612.118	793170
612.185	1108805
612.252	1299854
612.319	888686
612.386	709418
612.452	664553
612.519	630097
612.586	613143
612.653	613602
612.719	629118
612.786	630823
612.853	603116
612.919	576223
612.986	587742
613.053	573241
613.120	549350
613.186	520334
613.253	518968
613.319	518547
613.386	524628
613.453	526164
613.519	532802
613.586	525814
613.652	527248
613.719	523355
613.785	522969
613.852	536779
613.918	537330
613.985	533105
614.051	544664
614.118	552645
614.184	541120
614.250	524858
614.317	542281
614.383	534819
614.449	544162
614.516	547429
614.582	546070
614.648	542336
614.715	534428
614.781	532969
614.847	522999
614.914	526456
614.980	517482
615.046	510812
615.112	520099
615.179	529591
615.245	531654
615.311	529141
615.377	527582
615.443	536724
615.509	536700
615.575	549933
615.642	552358
615.708	551184
615.774	564297
615.840	582923
615.906	591401
615.972	610410
616.038	676456
616.104	863386
616.170	1200680
616.236	1399639
616.302	1054598
616.368	821828
616.434	717524
616.500	629917
616.565	617846
616.631	687857
616.697	705993
616.763	647522
616.829	696222
616.895	929626
616.961	1132430
617.026	873239
617.092	626925
617.158	569720
617.224	557837
617.289	533211
617.355	507956
617.421	496485
617.487	499030
617.552	484967
617.618	470741
617.684	473605
617.749	476365
617.815	467872
617.880	453034
617.946	451647
618.012	454367
618.077	469263
618.143	460845
618.208	446618
618.274	466632
618.339	491533
618.405	448113
618.470	409285
618.536	419292
618.601	413614
618.667	403219
618.732	376980
618.798	368853
618.863	365952
618.928	360172
618.994	360349
619.059	360631
619.124	362621
619.190	361663
619.255	363687
619.320	361738
619.386	364042
619.451	364980
619.516	358115
619.581	356677
619.647	367599
619.712	374638
619.777	361894
619.842	355126
619.907	362559
619.972	365730
620.038	370275
620.103	358355
620.168	359306
620.233	360584
620.298	365741
620.363	367441
620.428	372270
620.493	382446
620.558	389033
620.623	389733
620.688	396054
620.753	387708
620.818	395189
620.883	398342
620.948	399423
621.013	395874
621.078	392585
621.143	389436
621.207	398295
621.272	392418
621.337	387451
621.402	378427
621.467	377745
621.532	374803
621.596	378640
621.661	374994
621.726	365498
621.791	368952
621.855	373152
621.920	366372
621.985	369816
622.049	375702
622.114	376344
622.179	381314
622.243	383540
622.308	395307
622.373	405029
622.437	410130
622.502	393927
622.566	384712
622.631	385425
622.695	387540
622.760	388427
622.824	384455
622.889	386899
622.953	388783
623.018	394575
623.082	412484
623.147	405581
623.211	401691
623.276	398376
623.340	397775
623.404	383518
623.469	381247
623.533	382006
623.597	381851
623.662	376510
623.726	369438
623.790	345901
623.854	333161
623.919	331434
623.983	339388
624.047	342919
624.111	343982
624.176	351189
624.240	350305
624.304	357079
624.368	356255
624.432	350122
624.496	352686
624.560	365500
624.625	375389
624.689	370136
624.753	377021
624.817	382203
624.881	365644
624.945	354057
625.009	329246
625.073	331807
625.137	336339
625.201	345878
625.265	355098
625.329	345242
625.393	341202
625.456	345170
625.520	348847
625.584	354775
625.648	361675
625.712	364511
625.776	373061
625.839	360385
625.903	332538
625.967	294337
626.031	293180
626.095	322568
626.158	352378
626.222	296640
626.286	262463
626.349	253740
626.413	245226
626.477	232441
626.540	233995
626.604	237518
626.668	232514
626.731	229551
626.795	228363
626.858	227376
626.922	226508
626.986	224993
627.049	220494
627.113	229028
627.176	229231
627.240	217544
627.303	218446
627.366	216854
627.430	214238
627.493	217668
627.557	210702
627.620	210796
627.684	215724
627.747	222880
627.810	214405
627.874	193518
627.937	182868
628.000	182738
628.064	186082
628.127	173978
628.190	164444
628.253	158308
628.317	157584
628.380	149470
628.443	145299
628.506	141914
628.569	141199
628.632	131816
628.696	131797
628.759	132285
628.822	126533
628.885	124098
628.948	122623
629.011	120040
629.074	117943
629.137	114950
629.200	110598
629.263	108738
629.326	107003
629.389	107419
629.452	106651
629.515	103798
629.578	103917
629.641	102834
629.704	103825
629.767	103594
629.830	100646
629.892	99038
629.955	98464
630.018	97125
630.081	97666
630.144	97056
630.207	95174
630.269	95565
630.332	93185
630.395	90077
630.458	90604
630.520	89003
630.583	87703
630.646	88169
630.708	89168
630.771	90089
630.834	92132
630.896	93787
630.959	91745
631.021	90217
631.084	89632
631.146	88105
631.209	89149
631.272	88895
631.334	88699
631.397	91347
631.459	89951
631.522	90804
631.584	93096
631.646	93633
631.709	96110
631.771	96177
631.834	94096
631.896	91922
631.958	88671
632.021	88443
632.083	85048
632.145	84544
632.208	82946
632.270	84151
632.332	83853
632.395	83275
632.457	84506
632.519	83156
632.581	81183
632.643	81297
632.706	82811
632.768	80514
632.830	81683
632.892	81247
632.954	84600
633.016	85030
633.078	84499
633.141	83771
633.203	83310
633.265	83110
633.327	80375
633.389	83063
633.451	81903
633.513	81783
633.575	82600
633.637	82447
633.698	82730
633.760	84959
633.822	89852
633.884	89547
633.946	90373
634.008	92469
634.070	89680
634.132	92231
634.193	95897
634.255	99420
634.317	103597
634.379	104425
634.441	98531
634.502	94469
634.564	88145
634.626	85193
634.687	80181
634.749	79161
634.811	76448
634.873	78128
634.934	77682
634.996	77402
635.057	78196
635.119	77703
635.181	79736
635.242	78939
635.304	79083
635.365	80487
635.427	80200
635.488	79770
635.550	76981
635.611	78214
635.673	76869
635.734	79506
635.796	81798
635.857	84312
635.918	88913
635.980	91908
636.041	97089
636.102	100666
636.164	103818
636.225	101249
636.286	95598
636.348	89488
636.409	82047
636.470	78513
636.531	76625
636.593	76789
636.654	76095
636.715	74515
636.776	73094
636.838	72451
636.899	71611
636.960	70964
637.021	70130
637.082	68159
637.143	68335
637.204	67237
637.265	66588
637.326	67364
637.387	67788
637.448	68933
637.509	68651
637.570	68440
637.631	67039
637.692	66200
637.753	65921
637.814	65601
637.875	65026
637.936	65324
637.997	65115
638.058	63548
638.119	62768
638.179	63604
638.240	63613
638.301	64478
638.362	64472
638.423	61784
638.483	60588
638.544	60685
638.605	60506
638.666	60283
638.726	60694
638.787	61385
638.848	60230
638.908	61480
638.969	59607
639.030	57827
639.090	57842
639.151	57496
639.211	59987
639.272	59493
639.332	58941
639.393	58852
639.453	60789
639.514	63329
639.574	60288
639.635	56456
639.695	55231
639.756	54653
639.816	53569
639.877	53983
639.937	54667
639.997	54741
640.058	54666
640.118	54339
640.178	54148
640.239	54224
640.299	53709
640.359	54215
640.420	53371
640.480	57819
640.540	61589
640.600	65155
640.661	63854
640.721	59979
640.781	61399
640.841	60826
640.901	56801
640.961	54493
641.021	54941
641.082	57783
641.142	58062
641.202	54300
641.262	51639
641.322	54410
641.382	52802
641.442	52604
641.502	51960
641.562	52454
641.622	53561
641.682	55167
641.742	57608
641.802	59806
641.861	53929
641.921	51524
641.981	49452
642.041	49016
642.101	46881
642.161	47470
642.221	47393
642.280	48668
642.340	47784
642.400	48670
642.460	50806
642.519	49647
642.579	49679
642.639	49886
642.698	49787
642.758	51265
642.818	50367
642.877	49874
642.937	51428
642.997	49451
643.056	49787
643.116	49431
643.175	49893
643.235	49226
643.294	50665
643.354	53655
643.414	52872
643.473	55206
643.532	59968
643.592	65801
643.651	80267
643.711	107499
643.770	161067
643.830	285149
643.889	581482
643.948	538708
644.008	172367
644.067	87856
644.126	67254
644.186	59819
644.245	54290
644.304	50774
644.363	50448
644.423	47629
644.482	46767
644.541	48343
644.600	48805
644.659	51890
644.719	56925
644.778	67657
644.837	88772
644.896	138087
644.955	269376
645.014	302849
645.073	90959
645.132	59822
645.191	53238
645.250	50953
645.309	50761
645.368	51856
645.427	57519
645.486	72504
645.545	128007
645.604	111736
645.663	50718
645.722	47739
645.781	48356
645.840	47333
645.898	51769
645.957	58739
646.016	71047
646.075	98614
646.134	149835
646.192	271282
646.251	548180
646.310	367063
646.369	112419
646.427	71900
646.486	66300
646.545	51614
646.603	48342
646.662	45524
646.721	42735
646.779	41731
646.838	41352
646.896	43849
646.955	49805
647.014	61390
647.072	88533
647.131	171891
647.189	265395
647.248	76805
647.306	43899
647.365	40165
647.423	37193
647.481	38251
647.540	35409
647.598	37018
647.657	36518
647.715	36830
647.773	35344
647.832	34833
647.890	33589
647.948	32868
648.007	33006
648.065	30441
648.123	31505
648.181	32052
648.240	30919
648.298	30024
648.356	30817
648.414	29412
648.472	30218
648.531	28856
648.589	28209
648.647	28840
648.705	28177
648.763	27640
648.821	28441
648.879	29101
648.937	29176
648.995	30883
649.053	34425
649.111	39339
649.169	50286
649.227	72802
649.285	122028
649.343	261930
649.401	397772
649.459	116678
649.516	46675
649.574	35391
649.632	33710
649.690	34475
649.748	36901
649.806	43305
649.863	64400
649.921	118658
649.979	226410
650.037	72527
650.094	30678
650.152	27008
650.210	24853
650.268	25352
650.325	24397
650.383	23265
650.440	22448
650.498	21703
650.556	21868
650.613	21384
650.671	21169
650.728	20802
650.786	21554
650.843	23315
650.901	27975
650.958	22018
651.016	19935
651.073	19441
651.131	19452
651.188	18247
651.246	19130
651.303	17701
651.360	18313
651.418	17146
651.475	17059
651.532	17642
651.590	18566
651.647	17030
651.704	17823
651.762	17546
651.819	17094
651.876	16496
651.933	15785
651.990	16436
652.048	16147
652.105	16532
652.162	17040
652.219	15908
652.276	16427
652.333	16292
652.390	15767
652.448	16408
652.505	15626
652.562	15649
652.619	15069
652.676	15278
652.733	15977
652.790	14803
652.847	14575
652.904	14721
652.961	14218
653.017	14358
653.074	15191
653.131	14973
653.188	14354
653.245	14856
653.302	14636
653.359	13887
653.415	14873
653.472	14251
653.529	13896
653.586	14280
653.642	13354
653.699	14575
653.756	13733
653.813	14092
653.869	14356
653.926	14488
653.983	13989
654.039	13754
654.096	14662
654.152	14200
654.209	13326
654.266	14061
654.322	13039
654.379	13649
654.435	13979
654.492	13897
654.548	13852
654.605	13227
654.661	14260
654.717	13167
654.774	13678
654.830	13144
654.887	12668
654.943	12747
655.000	13070
655.056	13154
655.112	12804
655.168	13545
655.225	13338
655.281	13618
655.337	12863
655.394	13619
655.450	13073
655.506	13027
655.562	12350
655.618	12687
655.675	12919
655.731	12476
655.787	12404
655.843	12606
655.899	12476
655.955	13703
656.011	13022
656.067	12835
656.123	13134
656.179	12573
656.235	12254
656.291	12460
656.347	13578
656.403	11877
656.459	12501
656.515	12864
656.571	12095
656.627	12601
656.683	11794
656.739	13534
656.795	12904
656.850	12690
656.906	12777
656.962	11692
657.018	13080
657.074	13669
657.129	16543
657.185	21363
657.241	35129
657.297	57315
657.352	21254
657.408	13071
657.464	13434
657.519	11488
657.575	10890
657.630	10835
657.686	11492
657.742	10884
657.797	10575
657.853	10798
657.908	12181
657.964	11455
658.019	10890
658.075	11292
658.130	10972
658.186	10490
658.241	9911
658.297	10800
658.352	10016
658.407	11281
658.463	9685
658.518	10870
658.573	10612
658.629	9986
658.684	11008
658.739	11246
658.795	10150
658.850	10139
658.905	9885
658.960	11332
659.016	9881
659.071	10334
659.126	10488
659.181	9740
659.236	10733
659.291	9597
659.346	9612
659.401	9864
659.457	10202
659.512	9880
659.567	10695
659.622	9394
659.677	9382
659.732	9352
659.787	10448
659.842	10317
659.897	9661
659.952	11024
660.007	10287
660.061	9589
660.116	10114
660.171	8566
660.226	9681
660.281	9861
660.336	9213
660.391	9423
660.445	8876
660.500	9077
660.555	9393
660.610	9125
660.664	9344
660.719	8646
660.774	9736
660.828	9280
660.883	9511
660.938	8871
660.992	8981
661.047	8995
661.101	9166
661.156	8908
661.211	9283
661.265	8622
661.320	9503
661.374	8685
661.429	8975
661.483	9689
661.538	8380
661.592	8112
661.647	9138
661.701	9358
661.755	9415
661.810	9665
661.864	9018
661.919	8237
661.973	9292
662.027	9074
662.081	8594
662.136	7953
662.190	8294
662.244	9608
662.299	8376
662.353	9051
662.407	8537
662.461	8920
662.515	8130
662.569	7648
662.624	8744
662.678	8360
662.732	8684
662.786	8451
662.840	8600
662.894	8958
662.948	7964
663.002	9143
663.056	8647
663.110	7790
663.164	7778
663.218	8810
663.272	8468
663.326	8807
663.380	8609
663.434	8486
663.488	8426
663.542	9063
663.595	8254
663.649	8908
663.703	8612
663.757	8131
663.811	8203
663.864	7860
663.918	7997
663.972	8593
664.026	8439
664.079	8108
664.133	8912
664.187	8643
664.240	8508
664.294	7914
664.348	8534
664.401	8415
664.455	8173
664.508	7585
664.562	8622
664.615	8926
664.669	8504
664.722	8954
664.776	7767
664.829	7384
664.883	8234
664.936	7969
664.990	8420
665.043	8892
665.097	8177
665.150	8698
665.203	7892
665.257	8883
665.310	8744
665.363	7934
665.417	8821
665.470	9494
665.523	8520
665.576	9033
665.630	8386
665.683	8469
665.736	8632
665.789	8823
665.842	8594
665.895	8056
665.949	9194
666.002	8140
666.055	8521
666.108	9234
666.161	8719
666.214	9332
666.267	8443
666.320	8106
666.373	9533
666.426	9234
666.479	8093
666.532	9452
666.585	8797
666.638	10174
666.691	9457
666.744	9196
666.796	9065
666.849	9731
666.902	9570
666.955	9115
667.008	8574
667.060	9120
667.113	8434
667.166	10066
667.219	9734
667.271	10338
667.324	10380
667.377	9603
667.430	10594
667.482	9513
667.535	9222
667.587	9241
667.640	9802
667.693	8323
667.745	9302
667.798	9689
667.850	8776
667.903	9537
667.955	9332
668.008	9330
668.060	9725
668.113	9202
668.165	8788
668.218	9302
668.270	9320
668.322	9924
668.375	9151
668.427	9058
668.479	8331
668.532	9457
668.584	8555
668.636	8207
668.689	8444
668.741	8103
668.793	8382
668.845	8647
668.898	8428
668.950	9007
669.002	9038
669.054	8599
669.106	8240
669.158	9536
669.211	7691
669.263	8368
669.315	8643
669.367	8949
669.419	7997
669.471	9086
669.523	8170
669.575	8712
669.627	8384
669.679	8102
669.731	8996
669.783	9214
669.835	8158
669.886	7632
669.938	8526
669.990	8315
670.042	7980
670.094	7747
670.146	7622
670.197	7489
670.249	7458
670.301	7974
670.353	9703
670.404	9016
670.456	9134
670.508	8722
670.560	11052
670.611	14149
670.663	19428
670.715	30353
670.766	69207
670.818	63208
670.869	15843
670.921	9806
670.972	9635
671.024	8660
671.075	8241
671.127	7929
671.178	8223
671.230	8667
671.281	8958
671.333	9829
671.384	9658
671.436	10864
671.487	14749
671.538	19896
671.590	27049
671.641	41731
671.692	65293
671.744	120459
671.795	175069
671.846	96733
671.897	43597
671.949	25132
672.000	18113
672.051	13741
672.102	12836
672.153	9633
672.204	9220
672.256	9480
672.307	8420
672.358	8432
672.409	7652
672.460	7126
672.511	7128
672.562	6960
672.613	6517
672.664	6498
672.715	7104
672.766	7354
672.817	6310
672.868	6054
672.919	5889
672.970	5570
673.021	5759
673.071	6019
673.122	6331
673.173	5516
673.224	6019
673.275	6056
673.326	5232
673.376	6042
673.427	5504
673.478	5244
673.528	6553
673.579	5748
673.630	5899
673.680	5918
673.731	5700
673.782	6562
673.832	5403
673.883	5783
673.934	6305
673.984	5982
674.035	5632
674.085	5860
674.136	5594
674.186	5308
674.237	6510
674.287	5365
674.338	5903
674.388	5549
674.438	5477
674.489	5899
674.539	5901
674.589	6078
674.640	6100
674.690	5966
674.740	5424
674.791	5941
674.841	6557
674.891	6233
674.942	4960
674.992	4911
675.042	4522
675.092	3987
675.142	4146
675.193	4243
675.243	4455
675.293	5068
675.343	5185
675.393	4885
675.443	5812
675.493	5767
675.543	4333
675.593	5216
675.643	5101
675.693	5091
675.743	4786
675.793	5403
675.843	4333
675.893	4427
675.943	4492
675.993	3751
676.043	4622
676.093	4512
676.142	4466
676.192	5323
676.242	5102
676.292	4327
676.341	4331
676.391	4252
676.441	4015
676.491	3914
676.540	4167
676.590	4740
676.640	3827
676.689	4020
676.739	3823
676.789	3986
676.838	4337
676.888	3910
676.937	3463
676.987	3803
677.037	3278
677.086	3916
677.136	3542
677.185	3302
677.235	4250
677.284	3469
677.333	4037
677.383	4255
677.432	3695
677.482	3196
677.531	4199
677.580	3059
677.630	3766
677.679	4389
677.728	3484
677.778	3891
677.827	3422
677.876	3285
677.925	3828
677.975	3981
678.024	5334
678.073	3854
678.122	4533
678.171	3329
678.220	4468
678.269	4228
678.319	4433
678.368	4603
678.417	4628
678.466	5077
678.515	4479
678.564	4005
678.613	2887
678.662	3318
678.711	3585
678.760	2916
678.809	3286
678.857	3827
678.906	3310
678.955	3809
679.004	3970
679.053	2649
679.102	3200
679.151	3294
679.199	3285
679.248	3367
679.297	3379
679.346	2839
679.394	2897
679.443	3409
679.492	3105
679.540	2994
679.589	3599
679.638	3871
679.686	4329
679.735	3383
679.784	3771
679.832	4287
679.881	4037
679.929	4014
679.978	3377
680.026	3477
680.075	3868
680.123	3195
680.172	2766
680.220	3010
680.268	3287
680.317	2931
680.365	2664
680.414	3044
680.462	3527
680.510	2872
680.559	3419
680.607	2699
680.655	3561
680.703	3588
680.752	3822
680.800	3630
680.848	2813
680.896	2716
680.945	3267
680.993	3379
681.041	2375
681.089	2694
681.137	3017
681.185	2196
681.233	3130
681.258	3121
681.281	3068
681.329	3209
681.377	2964
681.380	2995
681.425	2670
681.473	3561
681.502	3726
681.521	3768
681.569	3712
681.617	4126
681.624	4286
681.665	4966
681.713	4437
681.745	3870
681.761	3527
681.809	3757
681.857	4253
681.867	4401
681.904	4701
681.952	4655
681.989	4216
682.000	4029
682.048	5095
682.096	4058
682.111	4183
682.143	4301
682.191	4348
682.233	5256
682.239	5344
682.286	6135
682.334	5114
682.354	5046
682.382	4851
682.430	5617
682.476	5431
682.477	5386
682.525	5732
682.572	4866
682.598	5007
682.620	5059
682.667	6105
682.715	5954
682.720	5954
682.763	5506
682.810	5407
682.841	6024
682.857	6291
682.905	6391
682.952	7382
682.963	7210
683.000	6352
683.047	6711
683.085	6160
683.095	5992
683.142	6532
683.190	6681
683.206	6754
683.237	6798
683.284	6822
683.328	6744
683.332	6684
683.379	7045
683.426	6912
683.449	6993
683.473	7081
683.521	7539
683.568	7081
683.571	7156
683.615	7727
683.662	7488
683.693	7577
683.709	7516
683.757	7770
683.804	7805
683.814	7646
683.851	6969
683.898	7776
683.936	7667
683.945	7651
683.992	8329
684.039	8112
684.057	8168
684.086	8085
684.133	8513
684.179	8500
684.180	8470
684.227	8474
684.274	8222
684.300	8196
684.321	8124
684.368	8621
684.415	8830
684.422	8823
684.462	8767
684.509	8812
684.543	9010
684.556	9017
684.603	9158
684.649	9546
684.665	9451
684.696	9205
684.743	9364
684.786	10084
684.790	10123
684.837	10343
684.883	9930
684.908	9923
684.930	9802
684.977	9896
685.023	9943
685.029	10057
685.070	10908
685.117	10153
685.150	10394
685.164	10423
685.210	10300
685.257	10716
685.272	10846
685.303	11103
685.350	11175
685.393	11294
685.396	11291
685.443	11033
685.490	10741
685.514	10961
685.536	10963
685.583	10877
685.629	10719
685.636	10678
685.675	10556
685.722	10621
685.757	10710
685.768	10760
685.815	11086
685.861	11331
685.878	11442
685.908	11499
685.954	11760
686.000	11974
686.000	11969
686.047	11756
686.093	11876
686.121	12188
686.139	12365
686.185	12310
686.232	12428
686.242	12396
686.278	12313
686.324	12478
686.363	12525
686.370	12484
686.416	12971
686.463	13018
686.484	12784
686.509	12604
686.555	13221
686.601	12671
686.606	12742
686.647	13252
686.693	12421
686.727	12779
686.739	12894
686.785	13146
686.831	12816
686.848	12883
686.877	13018
686.923	13024
686.969	13135
686.969	13134
687.015	12726
687.061	13176
687.090	13431
687.107	13670
687.153	14176
687.199	14864
687.211	14770
687.245	14085
687.291	13714
687.332	13689
687.336	13705
687.382	13828
687.428	13772
687.453	13981
687.474	14217
687.520	14416
687.565	14699
687.574	14675
687.611	14622
687.657	14797
687.695	15287
687.702	15426
687.748	15581
687.794	16455
687.816	16833
687.839	17039
687.885	16522
687.931	16730
687.937	16652
687.976	15949
688.022	16464
688.058	16537
688.067	16596
688.113	16275
688.158	15977
688.179	15951
688.204	15977
688.249	15736
688.295	16325
688.300	16321
688.340	16237
688.386	15733
688.421	15705
688.431	15775
688.477	15681
688.522	16529
688.542	16196
688.567	15905
688.613	16786
688.658	16839
688.663	16887
688.703	17269
688.749	17665
688.784	17576
688.794	17476
688.839	17776
688.884	16566
688.905	16831
688.930	17408
688.975	17383
689.020	17429
689.026	17482
689.065	17525
689.110	17017
689.146	16882
689.155	16960
689.201	17220
689.246	17267
689.267	17298
689.291	17343
689.336	17579
689.381	17490
689.388	17541
689.426	17773
689.471	17379
689.509	17408
689.516	17468
689.561	17636
689.606	17832
689.630	17859
689.651	17789
689.696	17607
689.741	17761
689.750	17742
689.785	18012
689.830	17587
689.871	17714
689.875	17743
689.920	18050
689.965	18499
689.992	18361
690.010	18199
690.054	18300
690.099	17987
690.112	17971
690.144	18095
690.189	17730
690.233	17680
690.233	17704
690.278	17781
690.323	17938
690.354	18038
690.367	18060
690.412	18165
690.457	18184
690.474	18202
690.501	18187
690.546	17895
690.590	17820
690.595	17767
690.635	17810
690.680	18180
690.716	18059
690.724	18033
690.769	18140
690.813	18077
690.836	17878
690.857	17915
690.902	18616
690.946	18319
690.957	18510
690.991	19483
691.035	19988
691.077	20547
691.080	20620
691.124	21566
691.168	22414
691.198	22657
691.213	22248
691.257	21332
691.301	20317
691.318	19931
691.346	19867
691.390	19548
691.434	19456
691.439	19399
691.478	19500
691.522	19543
691.559	19376
691.567	19416
691.611	20020
691.655	20103
691.680	20259
691.699	20459
691.743	21036
691.787	21155
691.800	21165
691.831	20753
691.875	20635
691.919	20104
691.921	20048
691.964	20112
692.008	20594
692.041	20970
692.052	21043
692.096	20557
692.139	20647
692.162	20502
692.183	20461
692.227	20419
692.271	20352
692.282	20221
692.315	19972
692.359	19964
692.402	20134
692.403	20175
692.447	19997
692.490	20376
692.523	20462
692.534	20497
692.578	20496
692.622	20608
692.643	20661
692.666	20867
692.709	20590
692.753	20662
692.763	20707
692.797	21090
692.840	21177
692.884	21400
692.884	21442
692.928	21207
692.971	21247
693.004	21165
693.015	21223
693.059	21014
693.102	20958
693.124	21034
693.146	21247
693.189	21160
693.233	21132
693.245	21185
693.276	21663
693.320	22118
693.363	22481
693.365	22441
693.407	22117
693.450	22142
693.485	21930
693.493	21992
693.537	21965
693.580	21954
693.605	22034
693.624	22200
693.667	22301
693.710	22632
693.725	22618
693.753	22874
693.797	23625
693.840	23925
693.845	23944
693.883	25591
693.926	27336
693.966	28532
693.970	28373
694.013	26247
694.056	24316
694.086	22886
694.099	22897
694.142	22681
694.185	22647
694.206	22609
694.229	22618
694.272	22285
694.315	21942
694.326	21881
694.358	22453
694.401	22841
694.444	23432
694.446	23405
694.487	23588
694.530	23763
694.566	23885
694.573	23879
694.616	23470
694.659	23015
694.686	22728
694.702	22955
694.745	23527
694.787	24044
694.806	24114
694.830	24118
694.873	24164
694.916	24251
694.926	24189
694.959	24240
695.002	24463
695.044	24514
695.046	24465
695.087	25392
695.130	26207
695.166	26869
695.172	26860
695.215	26398
695.258	25899
695.286	25464
695.301	25707
695.343	26395
695.386	27147
695.406	27303
695.428	27640
695.471	28259
695.514	28846
695.526	29063
695.556	31120
695.599	33714
695.641	36344
695.646	36531
695.684	37071
695.726	37720
695.766	38042
695.769	38020
695.811	36708
695.854	35132
695.886	34056
695.896	33970
695.938	33085
695.981	32159
696.005	31649
696.023	32236
696.065	33531
696.108	34623
696.125	35045
696.150	36103
696.192	37659
696.235	39322
696.245	39600
696.277	40180
696.319	41077
696.361	41947
696.365	41914
696.404	41833
696.446	41518
696.485	41265
696.488	41316
696.530	40647
696.572	40012
696.604	39340
696.614	39445
696.656	39606
696.698	39750
696.724	39748
696.740	39714
696.783	39310
696.825	38991
696.844	38717
696.867	39212
696.909	39981
696.951	40771
696.964	40912
696.992	40804
697.034	40535
697.076	40214
697.083	40076
697.118	41435
697.160	42888
697.202	44279
697.203	44210
697.244	44620
697.286	44989
697.323	45095
697.327	45153
697.369	44700
697.411	44301
697.442	43799
697.453	43945
697.494	44183
697.536	44415
697.562	44457
697.578	44419
697.620	43975
697.661	43516
697.682	43210
697.703	43858
697.744	44985
697.786	46038
697.801	46307
697.828	47317
697.869	48664
697.911	50067
697.921	50295
697.952	49919
697.994	49228
698.035	48509
698.040	48303
698.077	47906
698.118	47282
698.160	46663
698.160	46541
698.201	47457
698.243	48213
698.279	48881
698.284	49214
698.325	51045
698.367	52923
698.399	54261
698.408	54527
698.449	55089
698.491	55711
698.518	55929
698.532	56138
698.573	56412
698.614	56632
698.638	56619
698.656	56781
698.697	56842
698.738	56884
698.757	56753
698.779	56889
698.820	56887
698.862	56872
698.877	56722
698.903	56834
698.944	56782
698.985	56723
698.996	56563
699.026	56369
699.067	55900
699.116	55199
699.235	55450
699.354	56500
699.474	54614
699.593	51204
699.713	52072
699.832	51864
699.951	52973
700.070	55012
700.190	52945
700.309	49833
700.428	48992
700.547	47942
700.667	46578
700.786	48180
700.905	46753
701.024	44782
701.143	46859
701.262	44141
701.381	49930
701.500	48481
701.619	48540
701.738	45574
701.857	47886
701.976	47704
702.095	43678
702.214	47078
702.333	45877
702.452	45354
702.571	46418
702.690	48984
702.809	45684
702.928	46904
703.047	43697
703.165	41141
703.284	44118
703.403	41760
703.522	43442
703.640	39718
703.759	40506
703.878	39894
703.997	39541
704.115	40646
704.234	40908
704.353	40518
704.471	40102
704.590	37398
704.708	38917
704.827	37010
704.946	36854
705.064	36592
705.183	37643
705.301	36451
705.420	37319
705.538	36054
705.656	34838
705.775	31745
705.893	34595
706.012	36373
706.130	33342
706.249	34272
706.367	34945
706.485	31916
706.604	33606
706.722	31406
706.840	33067
706.958	36389
707.077	38187
707.195	31988
707.313	32578
707.431	30040
707.549	29713
707.668	29465
707.786	29098
707.904	31299
708.022	28934
708.140	32209
708.258	28550
708.376	29674
708.494	30262
708.612	27827
708.730	30658
708.848	29773
708.966	28579
709.084	29106
709.202	29701
709.320	28757
709.438	26462
709.556	27729
709.674	27578
709.791	25453
709.909	25704
710.027	25693
710.145	26354
710.263	24923
710.380	25347
710.498	25600
710.616	24566
710.733	25653
710.851	23908
710.969	25412
711.086	23794
711.204	23613
711.322	24165
711.439	24581
711.557	24007
711.674	21796
711.792	22917
711.909	23836
712.027	21985
712.144	22976
712.262	21980
712.379	22275
712.497	22936
712.614	22379
712.732	23166
712.849	23407
712.966	21625
713.084	23330
713.201	22958
713.318	19856
713.436	23111
713.553	23540
713.670	20710
713.787	21185
713.905	21704
714.022	20915
714.139	23011
714.256	23169
714.373	25439
714.490	32555
714.608	53810
714.725	138489
714.842	411683
714.959	177996
715.076	38009
715.193	25023
715.310	24684
715.427	21609
715.544	19065
715.661	22312
715.778	20566
715.895	19627
716.011	20684
716.128	18508
716.245	19355
716.362	19756
716.479	18395
716.596	17421
716.713	18471
716.829	18897
716.946	17707
717.063	16908
717.180	16680
717.296	16808
717.413	17399
717.530	18012
717.646	17921
717.763	16166
717.880	16671
717.996	16386
718.113	16195
718.229	16040
718.346	15664
718.462	15430
718.579	16549
718.695	16936
718.812	15587
718.928	14726
719.045	15856
719.161	14884
719.277	15448
719.394	15964
719.510	15717
719.626	16023
719.743	17060
719.859	19797
719.975	26690
720.092	54526
720.208	189876
720.324	182481
720.440	28646
720.557	17721
720.673	16438
720.789	15477
720.905	14853
721.021	14819
721.137	13668
721.253	13702
721.369	13160
721.486	14157
721.602	14563
721.718	12849
721.834	13857
721.950	13900
722.066	12910
722.181	12693
722.297	13111
722.413	13140
722.529	13742
722.645	13876
722.761	13300
722.877	12055
722.993	13019
723.108	14075
723.224	15796
723.340	14329
723.456	13041
723.571	12513
723.687	12186
723.803	12259
723.918	13254
724.034	12675
724.150	12250
724.265	13411
724.381	12007
724.497	11235
724.612	13100
724.728	12508
724.843	12590
724.959	11418
725.074	13110
725.190	13135
725.305	12521
725.421	11521
725.536	11618
725.651	12563
725.767	12550
725.882	12864
725.997	12569
726.113	11741
726.228	12780
726.343	11490
726.459	11282
726.574	11549
726.689	11966
726.804	12497
726.920	12299
727.035	11929
727.150	12098
727.265	10993
727.380	11314
727.495	11796
727.610	11813
727.725	11609
727.841	10954
727.956	10955
728.071	12222
728.186	10706
728.301	10422
728.416	10952
728.531	12347
728.645	11727
728.760	10737
728.875	10801
728.990	11440
729.105	10629
729.220	10887
729.335	10365
729.449	11689
729.564	10475
729.679	10790
729.794	10222
729.908	11028
730.023	10890
730.138	10389
730.253	11569
730.367	11287
730.482	10074
730.596	11552
730.711	11780
730.826	14400
730.940	17286
731.055	15628
731.169	14817
731.284	15178
731.398	14896
731.513	14882
731.627	14910
731.742	17325
731.856	22931
731.970	25511
732.085	24054
732.199	28602
732.313	35869
732.428	60312
732.542	148572
732.656	295560
732.771	107611
732.885	41108
732.999	33295
733.113	33536
733.227	36661
733.342	36295
733.456	35102
733.570	35129
733.684	31801
733.798	30907
733.912	30526
734.026	31018
734.140	30702
734.254	31342
734.368	28841
734.482	28954
734.596	29175
734.710	30270
734.824	28328
734.938	27855
735.052	28564
735.166	28292
735.280	28727
735.393	27055
735.507	26503
735.621	27676
735.735	26489
735.849	25885
735.962	27208
736.076	24753
736.190	26282
736.303	24484
736.417	26323
736.531	25306
736.644	24403
736.758	24199
736.872	25289
736.985	22177
737.099	25235
737.212	22578
737.326	25346
737.439	22377
737.553	24278
737.666	22179
737.780	23740
737.893	22520
738.007	22819
738.120	22740
738.233	22908
738.347	21621
738.460	21402
738.573	21333
738.687	22675
738.800	22843
738.913	20710
739.026	23077
739.140	20257
739.253	21117
739.366	21571
739.479	20257
739.592	20328
739.705	20302
739.818	18397
739.932	21927
740.045	17538
740.158	21108
740.271	18917
740.384	21577
740.497	18926
740.610	18191
740.723	19162
740.836	18127
740.949	18802
741.062	19418
741.174	20698
741.287	17874
741.400	18837
741.513	18521
741.626	16408
741.739	19022
741.851	16190
741.964	18601
742.077	19297
742.189	16864
742.302	17260
742.415	18192
742.527	17248
742.640	17898
742.753	16808
742.865	14948
742.978	18616
743.090	15955
743.203	15621
743.316	17230
743.428	16553
743.541	17151
743.653	15133
743.766	14397
743.878	16809
743.990	16120
744.103	14284
744.215	15714
744.327	14601
744.440	14996
744.552	18895
744.664	13485
744.777	14491
744.889	17166
745.001	14028
745.113	13695
745.226	15856
745.338	13105
745.450	12762
745.562	16444
745.674	14209
745.786	13515
745.898	16378
746.010	14123
746.122	13531
746.234	15301
746.347	15082
746.459	14146
746.570	13063
746.682	12456
746.794	15583
746.906	14373
747.018	12041
747.130	13389
747.242	14053
747.354	11876
747.466	13883
747.577	13623
747.689	11700
747.801	13600
747.913	12921
748.024	12443
748.136	12808
748.248	13034
748.359	11726
748.471	12395
748.583	14092
748.694	11058
748.806	10951
748.918	12408
749.029	12076
749.141	11563
749.252	13421
749.364	12171
749.475	11173
749.587	10779
749.698	10230
749.809	11508
749.921	11682
750.032	12393
750.144	10450
750.255	11578
750.366	11262
750.478	11464
750.589	10450
750.700	10852
750.811	10155
750.923	11134
751.034	9412
751.145	10495
751.256	11260
751.367	10081
751.479	9406
751.590	11075
751.701	10173
751.812	8844
751.923	8682
752.034	9637
752.145	11757
752.256	10752
752.367	10321
752.478	11100
752.589	10590
752.700	10941
752.811	10055
752.922	10031
753.032	9348
753.143	11807
753.254	10187
753.365	9469
753.476	10164
753.586	11185
753.697	9156
753.808	10076
753.919	9909
754.029	10116
754.140	10094
754.251	8553
754.361	9407
754.472	10419
754.582	10359
754.693	9045
754.804	9678
754.914	10218
755.025	8644
755.135	8179
755.246	10305
755.356	10908
755.466	8891
755.577	7787
755.687	8248
755.798	8794
755.908	9111
756.018	8637
756.129	8785
756.239	9935
756.349	9514
756.460	9705
756.570	7864
756.680	9061
756.790	8539
756.900	9426
757.011	9160
757.121	8817
757.231	7447
757.341	8782
757.451	8543
757.561	7266
757.671	7509
757.781	8385
757.891	9186
758.001	8277
758.111	8610
758.221	8726
758.331	9404
758.441	9334
758.551	7773
758.661	8945
758.771	9371
758.880	8445
758.990	8829
759.100	7968
759.210	8524
759.320	8905
759.429	7905
759.539	9213
759.649	8517
759.758	8907
759.868	10000
759.978	9898
760.087	10669
760.197	9927
760.307	10422
760.416	8901
760.526	9235
760.635	8891
760.745	9555
760.854	10909
760.964	10387
761.073	11732
761.182	9873
761.292	9913
761.401	8996
761.511	8980
761.620	7533
761.729	8189
761.839	8097
761.948	7754
762.057	7296
762.166	7723
762.276	7255
762.385	8260
762.494	7206
762.603	7736
762.712	7502
762.822	8615
762.931	7956
763.040	6268
763.149	6600
763.258	7857
763.367	7274
763.476	6880
763.585	7310
763.694	6823
763.803	7196
763.912	7330
764.021	8068
764.130	6894
764.238	7733
764.347	8146
764.456	7841
764.565	8795
764.674	7049
764.783	7511
764.891	7565
765.000	8938
765.109	8558
765.217	8082
765.326	8522
765.435	9091
765.543	9861
765.652	11644
765.761	11270
765.869	14323
765.978	17637
766.086	24628
766.195	42664
766.303	78183
766.412	176517
766.520	263781
766.629	196021
766.737	89713
766.846	44699
766.954	27543
767.062	20425
767.171	16011
767.279	13032
767.387	11776
767.496	10313
767.604	9824
767.712	9146
767.820	9084
767.928	8361
768.037	8103
768.145	7887
768.253	7813
768.361	7105
768.469	8605
768.577	7401
768.685	7385
768.793	8119
768.901	9074
769.009	9082
769.117	8883
769.225	9452
769.333	11029
769.441	14228
769.549	21341
769.657	34359
769.765	73352
769.873	183318
769.981	201377
770.088	91598
770.196	36130
770.304	21727
770.412	17412
770.519	14779
770.627	13111
770.735	12252
770.842	12285
770.950	10792
771.058	11465
771.165	11336
771.273	14532
771.380	13767
771.488	14589
771.595	21340
771.703	21316
771.810	18999
771.918	17072
772.025	18260
772.133	22849
772.240	25579
772.348	24027
772.455	27700
772.562	24201
772.670	23848
772.777	22675
772.884	22915
772.991	22349
773.099	21732
773.206	22907
773.313	22255
773.420	22762
773.528	21617
773.635	21737
773.742	21072
773.849	22160
773.956	19940
774.063	21486
774.170	20184
774.277	20673
774.384	20428
774.491	19781
774.598	20197
774.705	20524
774.812	18359
774.919	20207
775.026	19529
775.133	18576
775.239	19974
775.346	19344
775.453	18773
775.560	19123
775.667	16254
775.773	20087
775.880	16996
775.987	18381
776.093	17628
776.200	18636
776.307	19607
776.413	15021
776.520	16578
776.627	21358
776.733	15122
776.840	15914
776.946	16840
777.053	19671
777.159	15824
777.266	15749
777.372	16425
777.478	14864
777.585	18603
777.691	15916
777.798	14135
777.904	19356
778.010	14420
778.117	16053
778.223	15895
778.329	14982
778.435	15583
778.542	14057
778.648	15936
778.754	14414
778.860	14078
778.966	16292
779.072	15051
779.178	13637
779.284	15168
779.391	11892
779.497	15830
779.603	15302
779.708	14338
779.815	13823
779.920	13594
780.026	23014
780.132	22045
780.238	15440
780.344	12766
780.450	13135
780.556	15403
780.661	10497
780.767	13600
780.873	15281
780.979	9556
781.085	12300
781.190	13855
781.296	11801
781.402	11753
781.507	13710
781.613	12174
781.719	9576
781.824	13041
781.930	13727
782.035	10964
782.141	12554
782.246	12978
782.352	9557
782.457	11762
782.563	11797
782.668	12568
782.773	12609
782.879	9981
782.984	11072
783.090	12107
783.195	10789
783.300	12245
783.405	13009
783.511	10074
783.616	10018
783.721	10891
783.826	11490
783.932	8597
784.037	10238
784.142	10421
784.247	11160
784.352	10244
784.457	11128
784.562	8287
784.667	11864
784.772	10576
784.877	7776
784.982	8637
785.087	11968
785.192	11452
785.297	7661
785.402	10090
785.507	10751
785.611	10245
785.716	8819
785.821	7673
785.926	9246
786.031	10786
786.135	9015
786.240	9849
786.345	9192
786.450	7157
786.554	8260
786.659	9486
786.763	8404
786.868	9821
786.973	9211
787.077	9156
787.182	7502
787.286	7731
787.391	9393
787.495	10480
787.600	6365
787.704	6626
787.809	8736
787.913	9150
788.017	9158
788.122	8708
788.226	10386
788.330	7097
788.435	6445
788.539	9215
788.643	9413
788.747	7820
788.852	6466
788.956	9324
789.060	7676
789.164	8597
789.268	8452
789.372	7994
789.476	8502
789.580	6938
789.684	6138
789.788	7142
789.892	8551
789.996	8383
790.100	5557
790.204	6157
790.308	8995
790.412	9420
790.516	6457
790.620	5683
790.724	7366
790.828	8481
790.931	7857
791.035	4833
791.139	6558
791.242	7105
791.346	8441
791.450	5969
791.554	8019
791.657	6038
791.761	6226
791.864	6864
791.968	6989
792.072	8318
792.175	7410
792.279	6215
792.382	6842
792.486	5994
792.589	5235
792.693	7445
792.796	7143
792.899	6430
793.003	6479
793.106	5514
793.209	7253
793.313	6353
793.416	5288
793.519	4368
793.623	5565
793.726	8251
793.829	6911
793.932	4433
794.035	4548
794.138	4935
794.242	8378
794.345	7720
794.448	5707
794.551	4900
794.654	7355
794.757	9914
794.860	11283
794.963	6247
795.066	6532
795.169	5817
795.272	5905
795.375	6207
795.477	6476
795.580	4336
795.683	4125
795.786	5879
795.889	5905
795.991	5413
796.094	5302
796.197	4926
796.300	5684
796.402	6318
796.505	5978
796.608	4530
796.710	4191
796.813	4806
796.915	6586
797.018	6049
797.120	5424
797.223	5502
797.326	6001
797.428	6798
797.530	4745
797.633	4397
797.735	4512
797.838	4775
797.940	6601
798.042	6333
798.145	5880
798.247	4712
798.349	3834
798.452	4175
798.554	5010
798.656	4784
798.758	6913
798.860	5288
798.962	5346
799.065	5056
799.167	3843
799.269	4540
799.371	4217
799.473	5836
799.575	6811
799.677	6354
799.779	4392
799.881	3550
799.983	4891
800.085	5640
800.187	4639
800.289	4401
800.390	4388
800.492	4921
800.594	6190
800.696	4965
800.798	4267
800.899	4214
801.001	4993
801.103	4778
801.205	4729
801.306	4537
801.408	5214
801.509	4814
801.611	5656
801.713	4881
801.814	4664
801.916	3553
802.017	2651
802.119	3531
802.220	4270
802.322	4188
802.423	5164
802.525	3262
802.626	4501
802.727	4608
802.829	5286
802.930	4001
803.031	3891
803.133	3166
803.234	4473
803.335	4069
803.436	4072
803.538	4184
803.639	4257
803.740	4503
803.841	4240
803.942	4387
804.043	5213
804.144	3009
804.245	4433
804.346	3667
804.447	3130
804.548	3849
804.649	5098
804.750	4180
804.851	3036
804.952	3462
805.053	4423
805.154	3178
805.255	4786
805.355	4626
805.456	4027
805.557	3466
805.658	3341
805.758	3607
805.859	3205
805.960	4673
806.061	3381
806.161	4238
806.262	4299
806.362	3539
806.463	2141
806.564	3278
806.664	4990
806.765	4094
806.865	3962
806.966	3304
807.066	3656
807.166	3760
807.267	4220
807.367	4788
807.468	3949
807.568	3767
807.668	4008
807.769	3240
807.869	4180
807.969	3524
808.069	4020
808.170	3380
808.270	3507
808.370	3417
808.470	3701
808.570	3554
808.670	4262
808.770	3733
808.870	3476
808.970	3741
809.070	3179
809.170	3238
809.271	3053
809.370	4254
809.470	3631
809.570	2738
809.670	3038
809.770	2885
809.870	3995
809.970	4503
810.070	3394
810.169	3934
810.269	3095
810.369	4364
810.469	3518
810.568	3709
810.668	3762
810.768	3021
810.867	2612
810.967	3088
811.066	2981
811.166	4217
811.265	3695
811.365	3264
811.464	3565
811.564	3909
811.663	3524
811.763	3175
811.862	4147
811.962	4142
812.061	2772
812.160	3339
812.260	4280
812.359	3791
812.458	3253
812.557	3158
812.657	3283
812.756	3342
812.855	3889
812.954	3967
813.053	3824
813.153	3336
813.252	3133
813.351	3441
813.450	4208
813.549	3797
813.648	4103
813.747	3484
813.846	3427
813.945	4890
814.044	4355
814.143	4362
814.242	3078
814.341	3938
814.439	4047
814.538	5029
814.637	4683
814.736	5472
814.835	5131
814.933	5745
815.032	5964
815.131	6418
815.229	10095
815.328	17697
815.427	21165
815.525	15601
815.624	13287
815.722	14432
815.821	13781
815.919	14504
816.018	14699
816.116	14695
816.215	13838
816.313	14521
816.412	15649
816.510	19591
816.609	19150
816.707	17633
816.805	19948
816.904	17681
817.002	18741
817.100	17902
817.198	17417
817.296	18441
817.395	17015
817.493	17621
817.591	16872
817.689	17154
817.787	16355
817.885	17137
817.983	15671
818.081	15263
818.179	15502
818.277	16190
818.375	18857
818.473	14820
818.571	15599
818.669	13467
818.767	16666
818.865	17662
818.963	15208
819.061	12179
819.158	16109
819.256	15386
819.354	17311
819.452	13742
819.549	14868
819.647	16258
819.745	16286
819.842	13095
819.940	14147
820.038	14873
820.135	13572
820.233	12690
820.330	15356
820.428	14177
820.525	13437
820.623	14888
820.720	12886
820.818	13742
820.915	14083
821.012	13989
821.110	11848
821.207	13567
821.304	12836
821.402	12218
821.499	13971
821.596	13153
821.693	10513
821.791	13735
821.888	13051
821.985	12557
822.082	13640
822.179	10899
822.276	12696
822.373	13275
822.470	10850
822.567	11709
822.664	12306
822.761	11348
822.858	11944
822.955	13645
823.052	10784
823.149	10089
823.246	12743
823.343	11746
823.440	9778
823.536	10290
823.633	13079
823.730	11817
823.827	9382
823.923	11966
824.020	10943
824.117	9458
824.213	12286
824.310	12476
824.407	9788
824.503	9107
824.600	12954
824.696	9599
824.793	10606
824.889	11788
824.986	12294
825.082	8959
825.179	7645
825.275	8365
825.371	12951
825.468	12976
825.564	6784
825.660	6063
825.757	11026
825.853	12859
825.949	8039
826.045	8981
826.142	8203
826.238	9830
826.334	10515
826.430	9957
826.526	10163
826.622	5809
826.718	6709
826.814	11515
826.910	12628
827.006	8484
827.102	5388
827.198	7301
827.294	10114
827.390	12081
827.486	10557
827.582	6879
827.678	6960
827.774	8836
827.869	10691
827.965	7737
828.061	6569
828.157	7741
828.252	11997
828.348	8995
828.444	8659
828.539	6814
828.635	8688
828.731	9366
828.826	7389
828.922	8014
829.017	8036
829.113	9901
829.208	7864
829.304	6393
829.399	8493
829.495	9471
829.590	7781
829.685	6469
829.781	7858
829.876	9539
829.971	8723
830.066	3813
830.162	4690
830.257	7342
830.352	11393
830.447	7468
830.543	4639
830.638	6037
830.733	9628
830.828	7491
830.923	6736
831.018	6792
831.113	8511
831.208	8796
831.303	5273
831.398	4623
831.493	5625
831.588	7189
831.683	10541
831.778	6498
831.873	4660
831.967	5778
832.062	7895
832.157	8499
832.252	7376
832.346	5507
832.441	5723
832.536	7334
832.631	6494
832.725	6580
832.820	5595
832.914	6654
833.009	6484
833.104	5658
833.198	4845
833.293	5320
833.387	7408
833.482	8190
833.576	6262
833.670	6886
833.765	5359
833.859	5347
833.954	7490
834.048	6887
834.142	6976
834.237	4887
834.331	4041
834.425	5738
834.519	6873
834.613	5948
834.708	4400
834.802	6039
834.896	5072
834.990	6212
835.084	6695
835.178	4457
835.272	4350
835.366	5814
835.460	8633
835.554	7783
835.648	4969
835.742	3344
835.836	3164
835.930	4165
836.024	6493
836.117	6026
836.211	6034
836.305	5671
836.399	4325
836.493	4174
836.586	5105
836.680	6121
836.774	6109
836.867	4784
836.961	4377
837.055	3988
837.148	4785
837.242	4599
837.335	4673
837.429	5301
837.522	4137
837.616	3933
837.709	4976
837.803	4349
837.896	5646
837.989	6832
838.083	6368
838.176	3274
838.269	3518
838.363	3700
838.456	4470
838.549	4842
838.642	5775
838.735	5420
838.829	4200
838.922	4765
839.015	5305
839.108	3931
839.201	4142
839.294	4460
839.387	5872
839.480	3758
839.573	3667
839.666	3856
839.759	3922
839.852	3626
839.945	4316
840.038	4846
840.131	3694
840.223	2794
840.316	4597
840.409	4042
840.502	5225
840.594	6242
840.687	4736
840.780	3788
840.873	1439
840.965	2948
841.058	2942
841.150	5033
841.243	4530
841.336	4049
841.428	4164
841.521	2442
841.613	4028
841.706	4430
841.798	3211
841.890	3499
841.983	4261
842.075	2552
842.167	2603
842.260	3542
842.352	4674
842.444	5416
842.537	4674
842.629	2223
842.721	2941
842.813	2447
842.905	3290
842.997	3302
843.090	3323
843.182	4622
843.274	2567
843.366	3157
843.458	3402
843.550	5122
843.642	4984
843.734	3040
843.826	4102
843.918	3295
844.009	3196
844.101	3737
844.193	3477
844.285	3935
844.377	4231
844.469	4389
844.560	3129
844.652	2061
844.744	2920
844.835	3319
844.927	2888
845.019	3707
845.110	3501
845.202	3454
845.293	4564
845.385	2176
845.476	3279
845.568	3835
845.659	3486
845.751	2796
845.842	2577
845.934	2919
846.025	3805
846.116	3467
846.208	2059
846.299	3767
846.390	1665
846.482	2318
846.573	2705
846.664	3198
846.755	3752
846.846	2814
846.937	2528
847.029	2657
847.120	1969
847.211	2408
847.302	3422
847.393	3243
847.484	3562
847.575	3145
847.666	1979
847.757	1935
847.847	2885
847.938	3625
848.029	3610
848.120	3804
848.211	3869
848.302	1414
848.392	1903
848.483	2321
848.574	3465
848.664	3431
848.755	3433
848.846	3007
848.936	2865
849.027	2445
849.118	2696
849.208	3656
849.299	2880
849.389	3526
849.480	4775
849.570	6735
849.661	10383
849.751	19023
849.841	24073
849.932	9586
850.022	3308
850.112	3347
850.203	2805
850.293	3202
850.383	2302
850.474	2258
850.564	2496
850.654	2756
850.744	1549
850.834	1994
850.924	2953
851.014	3750
851.104	4612
851.194	2413
851.284	2448
851.374	1934
851.464	2584
851.554	2569
851.644	2940
851.734	3152
851.824	3283
851.914	3117
852.004	3584
852.094	3028
852.183	2430
852.273	2020
852.363	2234
852.452	1863
852.542	2623
852.632	2190
852.721	2830
852.811	2512
852.901	2792
852.990	3153
853.080	3717
853.169	2396
853.259	2673
853.348	2796
853.438	3308
853.527	3317
853.617	2989
853.706	5190
853.795	7719
853.885	11979
853.974	20913
854.063	33239
854.152	56736
854.242	65444
854.331	26657
854.420	9763
854.509	6180
854.598	5700
854.687	4744
854.777	4227
854.866	2837
854.955	3037
855.044	2322
855.133	2734
855.222	3259
855.311	1881
855.400	2587
855.488	2510
855.577	2766
855.666	2656
855.755	2575
855.844	2306
855.933	2290
856.021	3188
856.110	2856
856.199	2507
856.288	2063
856.376	1965
856.465	1817
856.554	1781
856.642	3098
856.731	3987
856.819	3150
856.908	2891
856.996	2924
857.085	2119
857.173	2249
857.262	2387
857.350	2384
857.438	1909
857.527	2324
857.615	1723
857.703	2202
857.792	2476
857.880	2487
857.968	3221
858.056	2471
858.145	2447
858.233	2404
858.321	1903
858.409	2993
858.497	2372
858.585	1946
858.673	2400
858.761	1526
858.849	1619
858.937	2256
859.025	2025
859.113	2133
859.201	2367
859.289	3680
859.377	3858
859.465	3176
859.552	2425
859.640	1740
859.728	2426
859.816	1693
859.903	2749
859.991	1484
860.079	2462
860.166	2688
860.254	2070
860.342	2343
860.429	2068
860.517	1968
860.604	3011
860.692	2055
860.779	2251
860.867	2605
860.954	2653
861.042	2897
861.129	3731
861.216	2968
861.304	2445
861.391	3556
861.478	2829
861.565	2957
861.653	2862
861.740	2243
861.827	2969
861.914	2633
862.001	1959
862.089	2666
862.176	2814
862.263	3178
862.350	2380
862.437	2587
862.524	2764
862.611	2948
862.698	2575
862.785	3661
862.871	3138
862.958	3535
863.045	4646
863.132	3270
863.219	3764
863.306	2380
863.392	3137
863.479	3067
863.566	2536
863.652	3669
863.739	2866
863.826	3698
863.912	4548
863.999	3128
864.086	4723
864.172	3350
864.259	4146
864.345	4758
864.432	4510
864.518	4357
864.604	3866
864.691	3658
864.777	4664
864.863	5191
864.950	5985
865.036	8865
865.122	13197
865.209	21773
865.295	20627
865.381	18182
865.467	16674
865.553	16865
865.639	15649
865.726	16519
865.812	18425
865.898	23339
865.984	30407
866.070	38689
866.156	56422
866.242	51854
866.328	25734
866.414	17568
866.499	16002
866.585	15637
866.671	14717
866.757	14900
866.843	14565
866.928	14314
867.014	14276
867.100	14693
867.186	13638
867.271	14474
867.357	14463
867.442	14107
867.528	13257
867.614	13740
867.699	13632
867.785	13997
867.870	12802
867.956	13615
868.041	13391
868.127	12476
868.212	12303
868.297	12639
868.383	12894
868.468	14012
868.553	12437
868.639	13287
868.724	12208
868.809	12890
868.894	13628
868.979	12299
869.065	12790
869.150	11687
869.235	10808
869.320	12440
869.405	13039
869.490	11052
869.575	13055
869.660	11907
869.745	10006
869.830	12870
869.915	13742
870.000	11433
870.085	11056
870.169	10605
870.254	13962
870.339	13228
870.424	7872
870.509	10042
870.593	12456
870.678	13544
870.763	12403
870.847	10712
870.932	9326
871.016	12144
871.101	11403
871.186	7761
871.270	12666
871.355	12875
871.439	8377
871.523	9511
871.608	11584
871.692	8840
871.777	9001
871.861	12930
871.945	11236
872.030	9920
872.114	10619
872.198	9419
872.282	9025
872.367	9929
872.451	8828
872.535	10409
872.619	9925
872.703	10227
872.787	9448
872.871	11358
872.955	9799
873.039	8294
873.123	7360
873.207	10239
873.291	9100
873.375	6232
873.459	9089
873.543	11002
873.627	9810
873.711	9655
873.794	8622
873.878	9804
873.962	8869
874.045	7584
874.129	7963
874.137	8029
874.213	8694
874.245	8936
874.296	9333
874.352	8328
874.380	7844
874.460	7149
874.464	7124
874.547	7898
874.568	7969
874.631	8204
874.676	8533
874.714	8796
874.784	8461
874.798	8399
874.881	9431
874.892	9140
874.965	7130
874.999	6799
875.048	6373
875.107	8001
875.131	8653
875.215	8929
875.215	8925
875.298	6363
875.323	6263
875.381	6058
875.430	7337
875.465	8200
875.538	9572
875.548	9752
875.631	7872
875.646	7634
875.714	6551
875.753	5945
875.798	5269
875.861	5623
875.881	5744
875.964	8787
875.968	8705
876.047	7198
876.076	6859
876.130	6245
876.183	6968
876.213	7334
876.291	7667
876.296	7690
876.379	7269
876.398	7224
876.462	7107
876.506	6153
876.545	5301
876.613	5282
876.628	5279
876.711	5807
876.721	5878
876.794	6492
876.828	6913
876.877	7342
876.935	6991
876.960	6893
877.043	5294
877.043	5297
877.125	5764
877.150	6022
877.208	6584
877.258	7491
877.291	8008
877.365	5844
877.374	5625
877.456	5185
877.472	5150
877.539	4657
877.579	4536
877.622	4653
877.687	5877
877.704	6130
877.787	6147
877.794	6111
877.869	5888
877.901	6163
877.952	6413
878.008	5837
878.034	5596
878.115	4039
878.117	4009
878.199	4128
878.222	4459
878.282	5322
878.329	5784
878.364	6106
878.437	6579
878.447	6589
878.529	5408
878.544	5124
878.611	4119
878.651	4109
878.694	4157
878.758	5133
878.776	5315
878.858	5051
878.865	5029
878.941	5054
878.972	4813
879.023	4121
879.078	3650
879.105	3655
879.185	4928
879.187	4945
879.269	5345
879.292	5311
879.351	5176
879.399	5401
879.433	5342
879.506	4101
879.516	3988
879.598	3731
879.613	3830
879.680	4276
879.720	4181
879.762	4169
879.827	4515
879.844	4517
879.926	4129
879.933	4103
880.007	3961
880.040	4009
880.089	4065
880.147	3358
880.171	3146
880.253	4572
880.254	4579
880.335	4732
880.360	4410
880.417	3945
880.467	4632
880.499	4843
880.574	3891
880.580	3845
880.662	4013
880.680	4201
880.744	4526
880.787	3811
880.825	3414
880.893	3605
880.907	3565
880.989	4000
881.000	3911
881.070	3587
881.106	3902
881.152	4112
881.213	3980
881.233	3899
881.315	2797
881.319	2809
881.396	3496
881.426	3671
881.478	3830
881.532	3762
881.559	3674
881.639	4565
881.641	4577
881.722	3542
881.745	3344
881.803	2988
881.852	3187
881.885	3273
881.958	3930
881.966	4002
882.047	3010
882.064	3116
882.129	3551
882.171	3234
882.210	2664
882.277	2307
882.291	2285
882.372	1885
882.383	2015
882.454	3598
882.489	4094
882.535	4255
882.596	3880
882.616	3726
882.697	3721
882.702	3695
882.778	3182
882.808	2990
882.859	2423
882.914	2018
882.940	2136
883.020	2821
883.021	2818
883.102	3301
883.127	3305
883.183	3429
883.233	4023
883.264	4247
883.339	3512
883.345	3402
883.426	1891
883.445	1710
883.507	1878
883.551	2207
883.587	2536
883.657	3301
883.668	3352
883.749	3457
883.763	3488
883.830	3290
883.869	2682
883.910	2022
883.975	1800
883.991	1890
884.072	2589
884.081	2631
884.152	2846
884.187	3266
884.233	3880
884.292	4104
884.314	3981
884.394	2781
884.398	2738
884.475	1855
884.504	1800
884.555	1976
884.610	2158
884.636	2190
884.716	2004
884.716	2002
884.797	3111
884.821	3284
884.877	3658
884.927	3511
884.958	3138
885.033	2437
885.038	2395
885.118	1597
885.139	1554
885.199	1370
885.244	1314
885.279	1515
885.350	1613
885.359	1675
885.439	2845
885.456	3036
885.520	3322
885.561	3125
885.600	2360
885.667	1371
885.680	1385
885.760	2060
885.773	2075
885.840	1998
885.878	1981
885.920	1821
885.984	1835
886.000	1778
886.080	1672
886.089	1637
886.160	2509
886.195	3004
886.240	2998
886.300	2830
886.320	2593
886.400	1654
886.406	1615
886.480	1710
886.511	1570
886.560	1110
886.616	968
886.640	1105
886.720	1256
886.722	1270
886.800	1341
886.827	1384
886.879	1840
886.932	2232
886.959	2282
887.038	2622
887.039	2619
887.119	2705
887.143	2738
887.198	2767
887.248	2889
887.278	2546
887.354	1556
887.358	1564
887.437	2000
887.459	2071
887.517	1527
887.564	1238
887.596	1378
887.669	1444
887.676	1347
887.755	378
887.774	149
887.835	704
887.880	1221
887.914	1286
887.985	1379
887.994	1366
888.073	1193
888.090	1226
888.153	2261
888.195	2804
888.232	2631
888.300	2376
888.311	2254
888.391	1346
888.405	1230
888.470	1074
888.510	884
888.549	1071
888.615	1594
888.628	1579
888.708	1454
888.720	1435
888.787	1934
888.825	2217
888.866	2060
888.930	1826
888.945	1705
889.024	1218
889.035	1153
889.103	1311
889.140	1406
889.182	1361
889.245	1278
889.261	1335
889.340	1742
889.349	1788
889.419	1519
889.454	1413
889.498	1363
889.559	1318
889.577	1312
889.656	1329
889.664	1342
889.735	1829
889.768	2066
889.814	1890
889.873	1663
889.978	1559
890.083	975
890.187	1173
890.292	1550
890.397	1600
890.501	1279
890.606	1172
890.710	1676
890.815	1471
890.919	830
891.024	1353
891.128	599
891.233	1083
891.337	1406
891.442	1407
891.546	1479
891.650	706
891.755	578
891.859	1450
891.963	1595
892.068	1795
892.172	1148
892.276	526
892.380	1155
892.484	850
892.589	2539
892.693	1339
892.797	848
892.901	228
893.005	598
893.109	1738
893.213	1398
893.317	1341
893.421	586
893.525	539
893.629	261
893.733	494
893.837	1856
893.941	1324
894.045	791
894.148	759
894.252	761
894.356	1481
894.460	1988
894.564	1723
894.667	1382
894.771	210
894.875	203
894.978	642
895.082	628
895.186	1401
895.289	1705
895.393	1074
895.496	920
895.600	1205
895.703	320
895.807	653
895.910	812
896.014	350
896.117	799
896.221	1177
896.324	1135
896.427	1011
896.531	549
896.634	582
896.737	989
896.840	800
896.944	1195
897.047	1266
897.150	804
897.253	1034
897.356	280
897.460	296
897.563	-283
897.666	564
897.769	1977
897.872	1174
897.975	624
898.078	963
898.181	419
898.284	794
898.387	1358
898.490	1675
898.593	823
898.695	1286
898.798	854
898.901	1215
899.004	1106
899.107	875
899.209	663
899.312	2171
899.415	1558
899.518	1325
899.620	574
899.723	800
899.826	793
899.928	1512
900.031	-777
900.133	1601
900.236	1256
900.338	944
900.441	439
900.543	592
900.646	281
900.748	986
900.851	751
900.953	886
901.055	599
901.158	480
901.260	-306
901.362	265
901.465	542
901.567	1085
901.669	1447
901.771	364
901.873	465
901.976	838
902.078	856
902.180	930
902.282	567
902.384	90
902.486	514
902.588	1197
902.690	1384
902.792	894
902.894	829
902.996	1783
903.098	707
903.200	669
903.302	275
903.404	993
903.505	966
903.607	1122
903.709	1188
903.811	1557
903.913	1782
904.014	-114
904.116	-132
904.218	691
904.319	942
904.421	1041
904.523	1249
904.624	-56
904.726	646
904.827	386
904.929	166
905.030	506
905.132	1894
905.233	1947
905.335	691
905.436	-76
905.537	-860
905.639	176
905.740	779
905.841	1259
905.943	717
906.044	1531
906.145	562
906.247	202
906.348	707
906.449	417
906.550	1244
906.651	631
906.752	578
906.854	46
906.955	799
907.056	709
907.157	984
907.258	904
907.359	952
907.460	191
907.561	737
907.662	600
907.762	737
907.863	737
907.964	1091
908.065	973
908.166	821
908.267	888
908.367	-41
908.468	285
908.569	-110
908.670	257
908.770	1270
908.871	622
908.971	907
909.072	1604
909.173	528
909.273	-269
909.374	-52
909.474	1321
909.575	547
909.675	339
909.776	787
909.876	630
909.977	758
910.077	688
910.177	159
910.278	1142
910.378	358
910.478	845
910.579	422
910.679	490
910.779	962
910.879	194
910.980	553
911.080	674
911.180	914
911.280	250
911.380	-266
911.480	552
911.580	0
911.680	-79
911.780	954
911.880	1183
911.980	226
912.080	375
912.180	137
912.280	891
912.380	405
912.480	256
912.580	-202
912.679	410
912.779	326
912.879	938
912.979	85
913.078	424
913.178	337
913.278	380
913.377	84
913.477	753
913.577	574
913.676	592
913.776	328
913.875	1045
913.975	496
914.074	751
914.174	415
914.273	359
914.373	216
914.472	561
914.572	-198
914.671	-303
914.770	-67
914.870	361
914.969	-124
915.068	1208
915.167	197
915.267	432
915.366	649
915.465	447
915.564	470
915.663	154
915.763	538
915.862	728
915.961	649
916.060	179
916.159	-150
916.258	-81
916.357	212
916.456	261
916.555	55
916.654	822
916.752	143
916.851	661
916.950	992
917.049	279
917.148	507
917.247	855
917.345	364
917.444	-284
917.543	533
917.642	710
917.740	414
917.839	845
917.937	1625
918.036	1232
918.135	395
918.233	769
918.332	382
918.430	214
918.529	313
918.627	225
918.726	682
918.824	658
918.923	-240
919.021	464
919.119	-260
919.218	-388
919.316	716
919.414	205
919.512	715
919.611	1363
919.709	380
919.807	844
919.905	798
920.003	760
920.102	1657
920.200	180
920.298	490
920.396	2060
920.494	1534
920.592	1113
920.690	1318
920.788	457
920.886	1486
920.984	1201
921.082	909
921.180	1998
921.277	812
921.375	858
921.473	2316
921.571	2381
921.669	2943
921.766	2301
921.864	1971
921.962	2121
922.060	1917
922.157	1488
922.255	2793
922.352	2094
922.450	2814
922.548	2881
922.645	2664
922.743	3711
922.840	5394
922.938	8411
923.035	7649
923.133	7285
923.230	7526
923.327	8778
923.425	9683
923.522	8401
923.619	8756
923.717	7117
923.814	7261
923.911	6089
924.008	6210
924.106	7324
924.203	6090
924.300	6817
924.397	5762
924.494	6375
924.591	6422
924.688	5886
924.786	7012
924.883	7251
924.979	7395
925.077	6715
925.173	5668
925.270	5621
925.367	6799
925.464	6527
925.561	5896
925.658	7071
925.755	6140
925.852	5666
925.948	7212
926.045	6005
926.142	5535
926.239	6519
926.335	5053
926.432	4907
926.529	5850
926.625	6245
926.722	6625
926.818	5066
926.915	5719
927.011	6193
927.108	5645
927.204	6085
927.301	5073
927.397	5756
927.494	6084
927.590	6263
927.687	4347
927.783	5480
927.879	6219
927.976	5936
928.072	4753
928.168	4817
928.264	6329
928.361	4801
928.457	5256
928.553	5898
928.649	4097
928.745	5920
928.841	5380
928.937	4410
929.033	5236
929.129	5266
929.225	5131
929.321	5828
929.417	3848
929.513	4997
929.609	5213
929.705	4410
929.801	4853
929.897	4070
929.993	3890
930.089	4279
930.184	4675
930.280	4172
930.376	4773
930.471	6170
930.567	3507
930.663	3921
930.758	3998
930.854	4390
930.950	4232
931.045	4579
931.141	3598
931.236	4676
931.332	5257
931.427	3372
931.523	4350
931.618	5234
931.714	3489
931.809	3486
931.905	4364
932.000	3435
932.095	2232
932.191	3292
932.286	5371
932.381	5758
932.476	3016
932.572	3625
932.667	3987
932.762	4054
932.857	3558
932.952	3837
933.047	5219
933.142	3287
933.237	2936
933.332	4402
933.427	4118
933.522	4714
933.617	2914
933.712	3751
933.807	2891
933.902	5544
933.997	4710
934.092	4542
934.187	3082
934.282	4068
934.376	3750
934.471	4740
934.566	3338
934.661	3084
934.755	3923
934.850	4432
934.945	4429
935.039	2878
935.134	2939
935.228	1861
935.323	4159
935.417	4701
935.512	2519
935.606	1880
935.701	3094
935.795	3929
935.890	3541
935.984	2968
936.079	2039
936.173	2963
936.267	2866
936.362	2458
936.456	2632
936.550	4574
936.644	4300
936.738	3122
936.833	2031
936.927	2196
937.021	1543
937.115	2559
937.209	2133
937.303	3788
937.397	1917
937.491	2146
937.585	2990
937.679	3803
937.773	2579
937.867	1700
937.961	1621
938.055	2764
938.149	2680
938.243	2130
938.337	1692
938.430	1491
938.524	2627
938.618	3334
938.712	1458
938.805	860
938.899	2579
938.993	3934
939.086	3553
939.180	1440
939.274	657
939.367	2633
939.461	2854
939.554	2399
939.648	2346
939.741	1098
939.835	1659
939.928	3622
940.022	4252
940.115	2799
940.208	2940
940.302	2897
940.395	4720
940.488	2983
940.582	2483
940.675	1878
940.768	1349
940.861	2065
940.954	2787
941.048	2080
941.141	871
941.234	1195
941.327	1727
941.420	2942
941.513	2398
941.606	2426
941.699	1607
941.792	2352
941.885	2670
941.978	2170
942.071	1860
942.164	2128
942.257	924
942.349	905
942.442	1765
942.535	1699
942.628	1202
942.721	1772
942.813	2018
942.906	1416
942.999	2513
943.091	813
943.184	1020
943.277	2544
943.369	1863
943.462	885
943.554	999
943.647	1809
943.739	1127
943.832	2252
943.924	1548
944.017	697
944.109	384
944.201	1860
944.294	1454
944.386	949
944.478	1195
944.571	2029
944.663	1303
944.755	1075
944.847	2441
944.940	2504
945.032	1669
945.124	797
945.216	1314
945.308	1749
945.400	2152
945.492	1621
945.584	1843
945.676	3010
945.768	2534
945.860	1621
945.952	1649
946.044	2630
946.136	1478
946.228	1482
946.320	579
946.412	1397
946.503	1591
946.595	2417
946.687	730
946.779	1096
946.870	776
946.962	1525
947.054	1320
947.145	1502
947.237	1524
947.329	614
947.420	963
947.512	1503
947.603	1250
947.695	1016
947.786	491
947.878	1226
947.969	883
948.061	1648
948.152	1159
948.243	1407
948.335	347
948.426	-79
948.517	815
948.609	1734
948.700	1153
948.791	1323
948.882	831
948.973	641
949.065	1232
949.156	1598
949.247	333
949.338	650
949.429	599
949.520	309
949.611	268
949.702	1267
949.793	1514
949.884	1254
949.975	1207
950.066	749
950.157	349
950.247	714
950.338	-107
950.429	684
950.520	782
950.611	1013
950.701	-296
950.792	1128
950.883	1365
950.973	1516
951.064	769
951.155	1269
951.245	884
951.336	1332
951.427	767
951.517	3002
951.608	1128
951.698	1074
951.788	1057
951.879	268
951.969	514
952.060	1267
952.150	767
952.240	1013
952.331	1202
952.421	1319
952.511	706
952.602	1070
952.692	874
952.782	448
952.872	432
952.962	658
953.052	349
953.143	774
953.233	952
953.323	749
953.413	498
953.503	938
953.593	1236
953.683	229
953.773	573
953.863	574
953.953	392
954.042	-464
954.132	663
954.222	237
954.312	551
954.402	60
954.492	425
954.581	518
954.671	1419
954.761	60
954.850	980
954.940	358
955.030	175
955.119	492
955.209	-328
955.298	1184
955.388	1262
955.477	1678
955.567	385
955.656	297
955.746	853
955.835	464
955.925	-571
956.014	255
956.103	1203
956.193	1149
956.282	1165
956.371	999
956.461	872
956.550	543
956.639	637
956.728	463
956.817	280
956.906	551
956.995	761
957.085	396
957.174	586
957.263	499
957.352	-628
957.441	196
957.530	725
957.619	509
957.708	-287
957.796	821
957.885	406
957.974	-42
958.063	459
958.152	380
958.241	740
958.329	-158
958.418	-161
958.507	746
958.596	710
958.684	333
958.773	271
958.861	498
958.950	-572
959.039	-58
959.127	19
959.216	678
959.304	-638
959.393	798
959.481	486
959.570	1037
959.658	-49
959.746	258
959.835	-267
959.923	-97
960.011	140
960.100	-340
960.188	668
960.276	621
960.365	-181
960.453	184
960.541	-496
960.629	-4
960.717	303
960.805	-680
960.893	-161
960.981	81
961.069	997
961.158	852
961.245	1862
961.333	1449
961.421	-506
961.509	19
961.597	489
961.685	-126
961.773	408
961.861	432
961.949	1066
962.036	341
962.124	269
962.212	325
962.299	-443
962.387	-246
962.475	-279
962.562	-493
962.650	-371
962.738	458
962.825	67
962.913	446
963.000	-61
963.088	201
963.175	1051
963.263	670
963.350	400
963.438	215
963.525	-694
963.612	-392
963.700	-67
963.787	491
963.874	-22
963.962	97
964.049	-263
964.136	-171
964.223	-326
964.310	-795
964.398	-192
964.485	-526
964.572	-265
964.659	501
964.746	118
964.833	483
964.920	-489
965.007	-12
965.094	-607
965.181	-1
965.268	179
965.355	512
965.441	-220
965.528	-470
965.615	702
965.702	7
965.789	-506
965.875	496
965.962	-126
966.049	-411
966.136	143
966.222	682
966.309	739
966.395	462
966.482	608
966.569	625
966.655	-54
966.742	422
966.828	124
966.915	246
967.001	-270
967.087	-162
967.174	-399
967.260	711
967.347	-1035
967.433	15
967.519	-108
967.605	-3
967.692	440
967.778	-298
967.864	699
967.950	253
968.036	-63
968.123	714
968.209	-118
968.295	-117
968.381	206
968.467	-412
968.553	62
968.639	376
968.725	-349
968.811	348
968.897	32
968.983	542
969.069	-179
969.154	501
969.240	-781
969.326	-702
969.412	-95
969.497	492
969.583	123
969.669	-176
969.755	896
969.840	849
969.926	1127
970.012	823
970.097	1629
970.183	1266
970.268	1458
970.354	444
970.439	189
970.525	488
970.610	115
970.696	750
970.781	432
970.866	-99
970.952	-21
971.037	-157
971.122	-43
971.208	487
971.293	-42
971.378	195
971.463	-575
971.549	-689
971.634	68
971.719	748
971.804	661
971.889	-495
971.974	292
972.059	-483
972.144	203
972.229	83
972.314	-125
972.399	94
972.484	453
972.569	-181
972.654	-184
972.739	-242
972.824	-145
972.908	-61
972.993	286
973.078	-406
973.163	125
973.247	-74
973.332	-628
973.417	131
973.501	-373
973.586	-9
973.671	108
973.755	651
973.840	-244
973.924	266
974.009	1364
974.093	775
974.178	556
974.262	821
974.346	40
974.431	676
974.515	308
974.600	357
974.684	102
974.768	243
974.852	442
974.937	399
975.021	618
975.105	-86
975.189	490
975.273	-40
975.358	-33
975.442	-445
975.526	-21
975.610	-172
975.694	-113
975.778	404
975.862	-571
975.946	-691
976.030	1454
976.114	567
976.198	-261
976.281	152
976.365	147
976.449	13
976.533	114
976.617	769
976.700	-771
976.784	27
976.868	-467
976.951	-370
977.035	-817
977.119	40
977.202	3
977.286	-47
977.369	507
977.453	1635
977.536	1626
977.620	1367
977.703	1351
977.787	-90
977.870	1288
977.953	1272
978.037	372
978.120	-66
978.203	204
978.287	70
978.370	-728
978.453	814
978.536	-28
978.620	-97
978.703	182
978.786	279
978.869	-122
978.952	263
979.035	373
979.118	372
979.201	611
979.284	-56
979.367	553
979.450	782
979.533	302
979.616	622
979.699	165
979.782	165
979.865	274
979.948	-114
980.030	364
980.113	-590
980.196	-280
980.279	-546
980.361	176
980.444	73
980.526	442
980.609	863
980.692	1257
980.774	1921
980.857	1322
980.939	1208
981.022	904
981.104	1605
981.187	123
981.269	219
981.352	338
981.434	615
981.516	41
981.599	1261
981.681	712
981.763	279
981.846	449
981.928	618
982.010	524
982.092	-194
982.174	660
982.256	1195
982.339	402
982.421	515
982.503	460
982.585	557
982.667	165
982.749	581
982.831	553
982.913	469
982.995	359
983.077	173
983.158	391
983.240	126
983.322	1368
983.404	907
983.486	1625
983.568	2114
983.649	1664
983.731	2078
983.813	1233
983.894	1323
983.976	528
984.058	877
984.139	858
984.221	455
984.302	749
984.384	471
984.465	656
984.547	13
984.628	704
984.710	510
984.791	970
984.872	486
984.954	1086
985.035	1811
985.116	241
985.198	-122
985.279	849
985.360	808
985.441	503
985.522	95
985.604	1241
985.685	71
985.766	1066
985.847	2010
985.928	81
986.009	1003
986.090	356
986.171	753
986.252	971
986.333	624
986.414	203
986.495	794
986.576	1257
986.656	1256
986.737	780
986.818	1965
986.899	1373
986.980	2174
987.060	1102
987.141	785
987.222	1375
987.302	1316
987.383	1577
987.464	1326
987.544	2239
987.625	933
987.705	1762
987.786	2017
987.866	2232
987.947	872
988.027	1228
988.108	1358
988.188	884
988.268	1599
988.349	1129
988.429	1327
988.509	1216
988.589	1284
988.670	105
988.750	1170
988.830	967
988.910	1096
988.990	1649
989.070	1200
989.151	934
989.231	1509
989.311	1501
989.391	1456
989.471	348
989.551	1976
989.631	677
989.711	648
989.791	807
989.870	1076
989.950	844
990.030	1103
990.110	1555
990.190	-115
990.269	-123
990.349	783
990.429	888
990.509	1116
990.588	457
990.668	797
990.747	957
990.827	1245
990.907	956
990.986	928
991.066	-49
991.145	466
991.225	83
991.304	751
991.383	569
991.463	1056
991.542	805
991.622	1131
991.701	-52
991.780	446
991.859	67
991.939	655
992.018	160
992.097	1436
992.176	-71
992.256	-249
992.335	262
992.414	443
992.493	137
992.572	236
992.651	353
992.730	769
992.809	348
992.888	348
992.967	597
993.046	312
993.125	-149
993.203	49
993.282	606
993.361	334
993.440	-284
993.519	411
993.597	402
993.676	889
993.755	598
993.834	473
993.912	72
993.991	19
994.069	10
994.148	656
994.226	644
994.305	322
994.384	140
994.462	662
994.540	638
994.619	-355
994.697	-402
994.776	1054
994.854	565
994.932	-236
995.011	-140
995.089	-259
995.167	-675
995.245	39
995.324	-400
995.402	125
995.480	-105
995.558	-489
995.636	-245
995.714	-327
995.792	291
995.870	-562
995.948	-5
996.026	-544
996.104	-1028
996.182	-64
996.260	50
996.338	-769
996.416	-762
996.494	-172
996.572	122
996.649	-26
996.727	-788
996.805	398
996.883	233
996.960	289
997.038	-459
997.116	180
997.193	-212
997.271	-153
997.348	-98
997.426	-1494
997.504	-314
997.581	377
997.658	98
997.736	-1031
997.813	-1294
997.891	-323
997.968	-434
998.046	-653
998.123	-134
998.200	-354
998.277	-447
998.355	50
998.432	-904
998.509	-942
998.586	-383
998.663	165
998.741	-925
998.818	-161
998.895	-921
998.972	-974
999.049	-90
999.126	-1228
999.203	325
999.280	-949
999.357	-820
999.434	-415
999.511	211
999.587	-455
999.664	-651
999.741	-997
999.818	-1081
999.895	-700
999.971	-566
1000.048	-674
1000.125	-364
1000.202	-951
1000.278	-529
1000.355	237
1000.431	-655
1000.508	-394
1000.584	-580
1000.661	-229
1000.738	-1049
1000.814	-543
1000.890	-661
1000.967	-1429
1001.043	-876
1001.120	-808
1001.196	-158
1001.272	-863
1001.349	-1138
1001.425	-1126
1001.501	-672
1001.577	-1667
1001.654	-863
1001.730	-437
1001.806	-944
1001.882	-1095
1001.958	-257
1002.034	-115
1002.110	-478
1002.186	-1041
1002.262	-743
1002.338	-1670
1002.414	-429
1002.490	-927
1002.566	-1102
1002.642	-1326
1002.718	-257
1002.794	-975
1002.870	-1067
1002.945	-407
1003.021	-1208
1003.097	-892
1003.173	-1385
1003.248	-1325
1003.324	-1497
1003.400	-1003
1003.475	-1075
1003.551	-518
1003.626	-1216
1003.702	-1417
1003.777	-933
1003.853	-690
1003.928	-664
1004.004	-1290
1004.079	-824
1004.155	-1144
1004.230	-826
1004.305	-1135
1004.381	-1194
1004.456	-813
1004.531	-1059
1004.607	-1300
1004.682	-1581
1004.757	-549
1004.832	-1330
1004.907	-401
1004.982	-241
1005.057	-562
1005.133	-282
1005.208	-1055
1005.283	-553
1005.358	-1096
1005.433	-697
1005.508	-1328
1005.583	-1709
1005.657	-1099
1005.732	-532
1005.807	-1522
1005.882	-1496
1005.957	-1391
1006.032	-352
1006.106	-399
1006.181	-1006
1006.256	-432
1006.331	-1542
1006.405	-1222
1006.480	-1634
1006.554	-560
1006.629	-1512
1006.704	-1940
1006.778	-1567
1006.853	-1232
1006.927	-1409
1007.002	-1188
1007.076	-1102
1007.150	-1379
1007.225	-1385
1007.299	-1464
1007.373	-1486
1007.448	-1627
1007.522	-1217
1007.596	-1443
1007.671	-1550
1007.745	-941
1007.819	-2093
1007.893	-1380
1007.967	-1335
1008.041	-812
1008.115	-1046
1008.190	-1134
1008.264	-1146
1008.338	-1334
1008.412	-1151
1008.486	-1264
1008.560	-1433
1008.633	-2021
1008.707	-1248
1008.781	-144
1008.855	-1163
1008.929	-846
1009.003	-1275
1009.076	-1798
1009.150	-1799
1009.224	-1383
1009.298	-1147
1009.371	-1366
1009.445	-1030
1009.519	-2602
1009.592	-2354
1009.666	-1625
1009.739	-582
1009.813	-1543
1009.886	-1076
1009.960	-1616
1010.033	-1321
1010.107	-1528
1010.180	-1875
1010.253	-1660
1010.327	-1050
1010.400	-1199
1010.473	-1798
1010.547	-1132
1010.620	-1645
1010.693	-1725
1010.766	-687
1010.840	-1530
1010.913	-1195
1010.986	-1093
1011.059	-1189
1011.132	-1851
1011.205	-1574
1011.278	-1391
1011.351	-1710
1011.424	-899
1011.497	-1995
1011.570	-1122
1011.643	-884
1011.716	-2022
1011.789	-1355
1011.862	-1319
1011.934	-970
1012.007	-2468
1012.080	-1894
1012.153	-1366
1012.225	-924
1012.298	-1351
1012.371	-2135
1012.443	-535
1012.516	-2500
1012.588	-1992
1012.661	-1405
1012.733	-1756
1012.806	-761
1012.879	-1282
1012.951	-2425
1013.023	-1751
1013.096	-1738
1013.168	-1368
1013.241	-1597
1013.313	-1937
1013.385	-2129
1013.458	-1229
1013.530	-1588
1013.602	-1771
1013.674	-1923
1013.746	-1952
1013.819	-1756
1013.891	-1657
1013.963	-1823
1014.035	-1757
1014.107	-2185
1014.179	-1017
1014.251	-2378
1014.323	-1400
1014.395	-1957
1014.467	-1387
1014.539	-1589
1014.611	-1780
1014.683	-1776
1014.754	-1693
1014.826	-2088
1014.898	-2169
1014.970	-1727
1015.042	-2136
1015.113	-791
1015.185	-1398
1015.257	-1776
1015.328	-2062
1015.400	-1695
1015.471	-1866
1015.543	-1505
1015.615	-1677
1015.686	-2470
1015.757	-2036
1015.829	-1779
1015.901	-1595
1015.972	-1142
1016.043	-2473
1016.115	-1429
1016.186	-1827
1016.257	-1683
1016.328	-2018
1016.400	-1518
1016.471	-1787
1016.542	-1900
1016.613	-1656
1016.685	-1596
1016.756	-1485
1016.827	-1608
1016.898	-2007
1016.969	-1403
1017.040	-1646
1017.111	-1697
1017.182	-1598
1017.253	-1338
1017.324	-2079
1017.395	-1722
1017.466	-1317
1017.537	-1128
1017.608	-2222
1017.678	-1828
1017.749	-2187
1017.820	-1714
1017.891	-1395
1017.961	-2063
1018.032	-2262
1018.103	-1118
1018.173	-1436
1018.244	-1447
1018.315	-2235
1018.385	-1572
1018.456	-2519
1018.526	-2048
1018.597	-1360
1018.667	-2232
1018.738	-2011
1018.808	-2214
1018.878	-2418
1018.949	-2060
1019.019	-1457
1019.089	-1891
1019.160	-1332
1019.230	-2535
1019.300	-2391
1019.371	-2974
1019.441	-1145
1019.511	-1200
1019.581	-1886
1019.651	-2997
1019.721	-2257
1019.791	-1477
1019.861	-1743
1019.931	-2650
1020.001	-1420
1020.071	-1007
1020.141	-2434
1020.211	-1707
1020.281	-1553
1020.351	-2056
1020.421	-1834
1020.491	-1339
1020.560	-2521
1020.630	-2037
1020.700	-1254
1020.770	-2092
1020.839	-1820
1020.909	-2308
1020.979	-1714
1021.048	-2627
1021.118	-966
1021.187	-1838
1021.257	-2407
1021.326	-1455
1021.396	-1668
1021.465	-2091
1021.535	-1617
1021.604	-2678
1021.674	-1786
1021.743	-1557
1021.812	-2000
1021.882	-2440
1021.951	-2019
1022.020	-1830
1022.089	-1951
1022.159	-1579
1022.228	-1101
1022.297	-2085
1022.366	-2139
1022.435	-2092
1022.504	-1366
1022.573	-1411
1022.642	-918
1022.711	-2100
1022.781	-1312
1022.849	-1371
1022.918	-1150
1022.987	-1944
1023.056	-1904
1023.125	-2350
1023.194	-2017
1023.263	-1586
1023.331	-688
1023.400	-2232
1023.469	-2100
1023.538	-1438
1023.606	-1487
1023.675	-982
1023.744	-1141
1023.812	-2026
1023.881	-1398
1023.949	-2443
1024.018	-1731
1024.086	-1966
1024.155	-1364
1024.223	-1834
1024.292	-1417
1024.360	-1409
1024.429	-2068
1024.497	-2492
1024.565	-1781
1024.634	-1990
1024.702	-1727
1024.770	-1306
1024.838	-2502
1024.907	-2279
1024.975	-1730
1025.043	-1710
1025.111	-1217
1025.179	-976
1025.247	-1717
1025.315	-1791
1025.383	-958
1025.451	-1982
1025.519	-1515
1025.587	-1730
1025.655	-1981
1025.723	-1615
1025.791	-1925
1025.859	-2395
1025.927	-1168
1025.995	-2161
1026.062	-1790
1026.130	-2016
1026.198	-1545
1026.266	-2187
1026.333	-1642
1026.401	-1664
1026.469	-1388
1026.536	-2016
1026.604	-1600
1026.671	-3012
1026.739	-1737
1026.806	-2186
1026.874	-1520
1026.941	-2033
1027.009	-2270
1027.076	-2142
1027.144	-1217
1027.211	-2672
1027.278	-1711
1027.345	-1434
1027.413	-955
1027.480	-2238
1027.547	-1457
1027.614	-1142
1027.682	-2596
1027.749	-2329
1027.816	-1842
1027.883	-1319
1027.950	-1631
1028.017	-1990
1028.084	-1232
1028.151	-1950
1028.218	-2047
1028.285	-1754
1028.352	-2668
1028.419	-1776
1028.486	-2400
1028.553	-1786
1028.619	-1440
1028.686	-2150
1028.753	-1977
1028.820	-2419
1028.886	-2381
1028.953	-1501
1029.020	-2129
1029.086	-1633
1029.153	-1790
1029.220	-1914
1029.286	-2152
1029.353	-1357
1029.419	-1898
1029.486	-2108
1029.552	-1283
1029.619	-2351
1029.685	-2565
1029.751	-2184
1029.818	-1258
1029.884	-1915
1029.951	-1630
1030.017	-1586
1030.083	-972
1030.149	-2420
1030.216	-1999
1030.282	-2841
1030.348	-2223
1030.414	-2504
1030.480	-1686
1030.546	-1820
1030.612	-1367
1030.678	-2747
1030.744	-2055
1030.810	-2735
1030.876	-1534
1030.942	-2092
1031.008	-1250
1031.074	-2847
1031.140	-1641
1031.206	-1743
1031.272	-2175
1031.337	-1832
1031.403	-1210
1031.469	-1268
1031.534	-1953
1031.600	-1550
1031.666	-1739
1031.731	-2689
1031.797	-1597
1031.863	-2309
1031.928	-1529
1031.994	-1603
1032.059	-1369
1032.125	-2157
1032.190	-2297
1032.256	-1810
1032.321	-2095
1032.386	-2809
1032.452	-1683
1032.517	-1895
1032.582	-2225
1032.647	-2111
1032.713	-2692
1032.778	-1801
1032.843	-1569
1032.908	-2419
1032.974	-1741
1033.039	-1396
1033.104	-1897
1033.169	-2056
1033.234	-1767
1033.299	-1718
1033.364	-1960
1033.429	-2060
1033.494	-1596
1033.559	-2094
1033.624	-2100
1033.688	-1843
1033.753	-2170
1033.818	-1864
1033.883	-1515
1033.948	-1778
1034.013	-2426
1034.077	-1270
1034.142	-1493
1034.207	-1368
1034.271	-440
1034.336	-803
1034.400	-522
1034.465	-887
1034.530	-1796
1034.594	-2127
1034.658	-2113
1034.723	-1481
1034.787	-2076
1034.852	-1755
1034.916	-1898
1034.981	-2144
1035.045	-1364
1035.109	-1903
1035.173	-1190
1035.238	-1936
1035.302	-1350
1035.366	-2266
1035.430	-1644
1035.495	-2567
1035.559	-1707
1035.623	-1606
1035.687	-2736
1035.751	-2142
1035.815	-2036
1035.879	-2183
1035.943	-1825
1036.007	-1641
1036.071	-1816
1036.135	-1925
1036.198	-1997
1036.262	-2952
1036.326	-1541
1036.390	-1818
1036.454	-2149
1036.517	-2117
1036.581	-1550
1036.645	-2420
1036.709	-2755
1036.772	-3122
1036.836	-2350
1036.900	-1683
1036.963	-1469
1037.026	-2074
1037.090	-1977
1037.154	-1707
1037.217	-1722
1037.280	-2391
1037.344	-1151
1037.407	-2429
1037.471	-1511
1037.534	-2010
1037.597	-2088
1037.661	-1950
1037.724	-1492
1037.787	-2263
1037.850	-2515
1037.913	-2136
1037.977	-1966
1038.040	-1909
1038.103	-1986
1038.166	-2586
1038.229	-1654
1038.292	-1942
1038.355	-1147
1038.418	-2362
1038.481	-1696
1038.544	-2600
1038.607	-2380
1038.670	-2122
1038.732	-1252
1038.795	-2423
1038.858	-1586
1038.921	-2477
1038.984	-1761
1039.046	-2519
1039.109	-1674
1039.172	-2311
1039.234	-1681
1039.297	-1986
1039.360	-2065
1039.422	-2188
1039.485	-2062
1039.547	-1992
1039.610	-1995
1039.672	-2090
1039.734	-2363
1039.797	-1958
1039.859	-1520
1039.922	-2573
1039.984	-1076
1040.046	-2406
1040.109	-1656
1040.171	-2385
1040.233	-1760
1040.295	-3409
1040.358	-2152
1040.420	-2311
1040.482	-2287
1040.544	-1972
1040.606	-1552
1040.668	-2260
1040.730	-2518
1040.792	-2365
1040.854	-3136
1040.916	-2129
1040.978	-1807
1041.040	-1668
1041.102	-2395
1041.164	-1825
1041.225	-2374
1041.287	-3188
1041.349	-2250
1041.411	-2482
1041.472	-2197
1041.534	-1677
1041.596	-2362
1041.657	-2637
1041.719	-1111
1041.781	-2455
1041.842	-2692
1041.904	-1512
1041.965	-1333
1042.027	-2079
1042.088	-1662
1042.150	-2625
1042.211	-2180
1042.272	-2465
1042.334	-1670
1042.395	-2534
1042.456	-2192
1042.518	-1690
1042.579	-1896
1042.640	-2479
1042.701	-2375
1042.763	-1684
1042.824	-2339
1042.885	-2399
1042.946	-1772
1043.007	-2776
1043.068	-1792
1043.129	-2517
1043.190	-1745
1043.251	-1679
1043.312	-3090
1043.373	-2281
1043.434	-1964
1043.495	-2538
1043.556	-2629
1043.616	-2015
1043.677	-3169
1043.738	-2490
1043.799	-2355
1043.859	-1582
1043.920	-2356
1043.981	-2499
1044.041	-2029
1044.102	-1688
1044.162	-2740
1044.223	-2816
1044.284	-2238
1044.344	-2815
1044.405	-1991
1044.465	-1863
1044.525	-2397
1044.586	-1765
1044.646	-2341
1044.707	-1212
1044.767	-2141
1044.827	-1810
1044.887	-1742
1044.948	-2421
1045.008	-2047
1045.068	-2735
1045.128	-2124
1045.188	-2441
1045.249	-1762
1045.309	-2388
1045.369	-1981
1045.429	-2570
1045.489	-2545
1045.549	-2143
1045.609	-1564
1045.669	-3193
1045.729	-1707
1045.789	-1799
1045.848	-1648
1045.908	-1540
1045.968	-1630
1046.028	-2719
1046.088	-1454
1046.147	-1801
1046.207	-1594
1046.267	-1468
1046.326	-1317
1046.386	-1625
1046.446	-1845
1046.505	-1988
1046.565	-1635
1046.624	-1648
1046.684	-1386
1046.743	-1416
1046.803	-1243
1046.862	-762
1046.922	0
