'Start Wavelength	183.907
'End Wavelength	1046.922
'Gate Delay	5.000
'Gate Width (ms)	1.050
'Laser Output Level	0.000
'X Position	0.000
'Y Position	0.000
'Z Position	0.000
'Grid Point Number	1.000
'Shot Number	100.000
183.907	152.000
183.977	228.000
184.047	532
184.116	779
184.186	649
184.256	84
184.325	38
184.395	-68
184.465	646
184.534	310
184.604	-86
184.674	497
184.743	388
184.813	53
184.883	-82
184.952	434
185.022	242
185.092	94
185.161	-210
185.231	38
185.301	176
185.370	216
185.440	330
185.509	237
185.579	1080
185.649	686
185.718	390
185.788	315
185.857	164
185.927	28
185.996	-351
186.066	505
186.136	553
186.205	710
186.275	161
186.344	114
186.414	724
186.483	405
186.553	664
186.622	527
186.692	249
186.761	751
186.831	-201
186.900	393
186.970	-171
187.039	860
187.109	607
187.178	159
187.248	46
187.317	178
187.387	67
187.456	-519
187.526	75
187.595	292
187.664	-458
187.734	246
187.803	59
187.873	274
187.942	-75
188.012	835
188.081	41
188.150	536
188.220	313
188.289	248
188.358	617
188.428	1157
188.497	205
188.567	786
188.636	377
188.705	109
188.775	-71
188.844	1164
188.913	383
188.983	-30
189.052	296
189.121	536
189.191	606
189.260	552
189.329	118
189.399	241
189.468	20
189.537	-493
189.606	160
189.676	318
189.745	199
189.814	1200
189.883	1056
189.953	-343
190.022	838
190.091	586
190.161	455
190.230	115
190.299	648
190.368	450
190.437	305
190.507	476
190.576	67
190.645	258
190.714	547
190.783	69
190.853	335
190.922	552
190.991	-473
191.060	312
191.129	112
191.198	227
191.268	-95
191.337	-169
191.406	597
191.475	451
191.544	-361
191.613	779
191.682	371
191.752	-12
191.821	-47
191.890	376
191.959	755
192.028	115
192.097	1018
192.166	214
192.235	-94
192.304	477
192.373	232
192.442	-8
192.511	-31
192.580	-14
192.650	301
192.719	-387
192.788	222
192.857	222
192.926	429
192.995	551
193.064	957
193.133	931
193.202	273
193.271	596
193.340	1131
193.409	506
193.478	902
193.547	875
193.615	995
193.684	960
193.753	490
193.822	58
193.891	-13
193.960	91
194.029	301
194.098	151
194.167	166
194.236	-35
194.305	41
194.374	-218
194.443	347
194.512	398
194.580	-56
194.649	929
194.718	625
194.787	118
194.856	677
194.925	384
194.994	483
195.062	139
195.131	-260
195.200	417
195.269	142
195.338	302
195.407	394
195.475	156
195.544	156
195.613	-15
195.682	102
195.751	321
195.819	247
195.888	423
195.957	839
196.026	204
196.094	-491
196.163	243
196.232	490
196.301	-91
196.369	519
196.438	204
196.507	708
196.576	-57
196.644	531
196.713	837
196.782	470
196.850	103
196.919	1014
196.988	329
197.056	571
197.125	648
197.194	277
197.262	218
197.331	645
197.400	558
197.468	91
197.537	-16
197.606	-9
197.674	959
197.743	795
197.812	403
197.880	871
197.949	233
198.017	1230
198.086	167
198.155	308
198.223	812
198.292	370
198.360	365
198.429	70
198.497	1246
198.566	1125
198.635	79
198.703	437
198.772	840
198.840	1748
198.909	930
198.977	1188
199.046	374
199.114	552
199.183	125
199.251	696
199.320	-129
199.388	331
199.457	423
199.525	886
199.594	607
199.662	798
199.731	-411
199.799	-176
199.867	394
199.936	773
200.004	133
200.073	105
200.141	624
200.210	930
200.278	548
200.346	728
200.415	536
200.483	679
200.552	939
200.620	495
200.688	40
200.757	287
200.825	124
200.893	549
200.962	324
201.030	310
201.098	115
201.167	-46
201.235	744
201.303	126
201.372	501
201.440	1107
201.508	696
201.577	436
201.645	42
201.713	-50
201.781	350
201.850	357
201.918	505
201.986	-16
202.055	624
202.123	268
202.191	640
202.259	1301
202.327	-172
202.396	994
202.464	-176
202.532	1563
202.600	1941
202.669	969
202.737	627
202.805	338
202.873	320
202.941	210
203.009	515
203.078	302
203.146	648
203.214	243
203.282	321
203.350	96
203.418	874
203.487	-549
203.555	-504
203.623	60
203.691	945
203.759	-122
203.827	215
203.895	555
203.963	380
204.031	228
204.099	942
204.168	930
204.236	1061
204.304	204
204.372	378
204.440	456
204.508	574
204.576	793
204.644	321
204.712	159
204.780	564
204.848	865
204.916	396
204.984	723
205.052	-191
205.120	611
205.188	495
205.256	367
205.324	286
205.392	239
205.460	1063
205.528	776
205.596	122
205.664	331
205.732	548
205.799	1361
205.867	1365
205.935	946
206.003	725
206.071	768
206.139	166
206.207	-2
206.275	-168
206.343	425
206.411	42
206.478	682
206.546	351
206.614	462
206.682	741
206.750	169
206.818	1300
206.885	653
206.953	-339
207.021	183
207.089	180
207.157	-17
207.225	31
207.292	182
207.360	29
207.428	323
207.496	455
207.563	-68
207.631	359
207.699	188
207.767	-129
207.834	782
207.902	145
207.970	-101
208.038	289
208.105	399
208.173	-124
208.241	653
208.309	439
208.376	395
208.444	1169
208.512	234
208.579	170
208.647	841
208.715	-37
208.782	-103
208.850	-85
208.918	163
208.985	216
209.053	246
209.120	417
209.188	-130
209.256	862
209.323	-48
209.391	290
209.459	423
209.526	768
209.594	-335
209.661	1162
209.729	-7
209.796	535
209.864	822
209.932	567
209.999	992
210.067	464
210.134	-109
210.202	436
210.269	630
210.337	1255
210.404	793
210.472	784
210.539	164
210.607	195
210.674	323
210.742	561
210.809	416
210.877	581
210.944	994
211.012	173
211.079	918
211.146	454
211.214	894
211.281	1939
211.349	1419
211.416	625
211.484	-384
211.551	1415
211.618	359
211.686	-33
211.753	549
211.821	285
211.888	344
211.955	607
212.023	770
212.090	251
212.157	570
212.225	542
212.292	1294
212.359	3193
212.427	5208
212.494	1666
212.561	714
212.629	441
212.696	622
212.763	756
212.831	652
212.898	526
212.965	334
213.032	339
213.100	301
213.167	394
213.234	681
213.301	611
213.369	472
213.436	1465
213.503	602
213.570	562
213.638	262
213.705	645
213.772	152
213.839	278
213.906	-15
213.973	609
214.041	624
214.108	166
214.175	117
214.242	893
214.309	422
214.376	681
214.444	415
214.511	356
214.578	672
214.645	985
214.712	1273
214.779	301
214.846	545
214.913	1701
214.980	810
215.048	1237
215.115	1166
215.182	1330
215.249	399
215.316	411
215.383	1017
215.450	1252
215.517	493
215.584	560
215.651	1001
215.718	710
215.785	155
215.852	219
215.919	1043
215.986	773
216.053	414
216.120	-451
216.187	768
216.254	998
216.321	471
216.388	1185
216.455	620
216.522	815
216.589	712
216.656	1021
216.722	1005
216.789	1334
216.856	1078
216.923	694
216.990	577
217.057	814
217.124	422
217.191	356
217.258	874
217.324	1071
217.391	1398
217.458	1207
217.525	1038
217.592	885
217.659	498
217.725	965
217.792	955
217.859	642
217.926	383
217.993	479
218.059	602
218.126	548
218.193	259
218.260	515
218.327	302
218.393	-172
218.460	652
218.527	361
218.594	461
218.660	1226
218.727	819
218.794	-108
218.860	505
218.927	466
218.994	770
219.061	146
219.127	1020
219.194	874
219.261	785
219.327	983
219.394	451
219.461	477
219.527	51
219.594	164
219.661	459
219.727	-348
219.794	841
219.860	840
219.927	1142
219.994	1482
220.060	2958
220.127	2745
220.193	1137
220.260	1226
220.326	1668
220.393	2508
220.460	2203
220.526	2326
220.593	1647
220.659	1419
220.726	1536
220.792	3410
220.859	3286
220.925	3577
220.992	4931
221.058	4668
221.125	3961
221.191	3576
221.258	832
221.324	1222
221.391	329
221.457	1352
221.524	1415
221.590	1562
221.657	3588
221.723	1643
221.789	2954
221.856	1602
221.922	746
221.989	453
222.055	278
222.121	-45
222.188	1245
222.254	1054
222.321	734
222.387	654
222.453	644
222.520	505
222.586	423
222.652	468
222.719	507
222.785	170
222.851	-4
222.918	137
222.984	346
223.050	234
223.116	229
223.183	1013
223.249	-269
223.315	279
223.382	220
223.448	42
223.514	-253
223.580	2
223.647	123
223.713	405
223.779	778
223.845	-220
223.911	563
223.978	-448
224.044	-418
224.110	233
224.176	285
224.242	-26
224.309	659
224.375	491
224.441	73
224.507	-243
224.573	-567
224.639	440
224.705	602
224.772	371
224.838	-442
224.904	-162
224.970	-203
225.036	-45
225.102	886
225.168	321
225.234	361
225.300	480
225.366	205
225.432	-101
225.499	469
225.565	-483
225.631	262
225.697	-79
225.763	1063
225.829	473
225.895	-64
225.961	1315
226.027	1047
226.093	334
226.159	956
226.225	3345
226.291	6427
226.357	6807
226.423	2953
226.489	2736
226.554	1391
226.620	1413
226.686	1185
226.752	2301
226.818	5501
226.884	10901
226.950	6936
227.016	3023
227.082	1626
227.148	525
227.214	849
227.279	428
227.345	970
227.411	1407
227.477	1977
227.543	4639
227.609	3708
227.674	1797
227.740	1428
227.806	1062
227.872	647
227.938	948
228.003	899
228.069	535
228.135	462
228.201	645
228.267	-211
228.332	371
228.398	88
228.464	863
228.530	148
228.595	412
228.661	401
228.727	367
228.792	-266
228.858	243
228.924	-400
228.990	762
229.055	212
229.121	581
229.187	524
229.252	607
229.318	307
229.384	157
229.449	-106
229.515	-323
229.581	93
229.646	275
229.712	-131
229.777	618
229.843	-358
229.909	901
229.974	826
230.040	635
230.105	-145
230.171	368
230.236	315
230.302	1187
230.368	1166
230.433	493
230.499	736
230.564	424
230.630	793
230.695	632
230.761	193
230.826	240
230.892	1016
230.957	-17
231.023	321
231.088	774
231.154	691
231.219	428
231.284	1142
231.350	975
231.415	221
231.481	212
231.546	-113
231.612	41
231.677	1321
231.742	-153
231.808	177
231.873	493
231.939	-272
232.004	301
232.069	-73
232.135	963
232.200	364
232.265	192
232.331	555
232.396	41
232.461	808
232.527	-315
232.592	289
232.657	988
232.723	-321
232.788	181
232.853	216
232.918	135
232.984	859
233.049	111
233.114	622
233.179	1075
233.245	1633
233.310	699
233.375	400
233.440	-49
233.506	143
233.571	46
233.636	-52
233.701	612
233.766	161
233.832	746
233.897	355
233.962	275
234.027	593
234.092	195
234.157	539
234.222	751
234.288	1083
234.353	2453
234.418	1561
234.483	976
234.548	870
234.613	767
234.678	-41
234.743	546
234.808	1802
234.873	697
234.938	769
235.004	335
235.069	266
235.134	768
235.199	536
235.264	-301
235.329	382
235.394	217
235.459	300
235.524	493
235.589	-19
235.654	-497
235.719	171
235.784	669
235.849	791
235.913	1172
235.978	898
236.043	709
236.108	422
236.173	147
236.238	820
236.303	775
236.368	90
236.433	952
236.498	926
236.563	1606
236.627	4388
236.692	14460
236.757	7155
236.822	2686
236.887	2200
236.952	1938
237.017	2065
237.081	1310
237.146	2441
237.211	6313
237.276	15463
237.341	16606
237.405	6040
237.470	2929
237.535	1601
237.600	1254
237.664	908
237.729	1108
237.794	1892
237.859	3455
237.923	1100
237.988	675
238.053	1567
238.118	623
238.182	3798
238.247	2403
238.312	929
238.376	964
238.441	64
238.506	927
238.570	390
238.635	1167
238.700	406
238.764	276
238.829	1140
238.893	1197
238.958	788
239.023	611
239.087	1130
239.152	-294
239.216	847
239.281	656
239.346	13
239.410	92
239.475	1335
239.539	3644
239.604	1480
239.668	927
239.733	1973
239.797	4975
239.862	8480
239.926	5257
239.991	2029
240.055	808
240.120	388
240.184	743
240.249	200
240.313	40
240.378	709
240.442	1732
240.507	2886
240.571	759
240.635	715
240.700	431
240.764	894
240.829	526
240.893	-410
240.957	352
241.022	1667
241.086	2457
241.151	76
241.215	-272
241.279	1310
241.344	413
241.408	623
241.472	-1
241.537	834
241.601	791
241.665	127
241.730	829
241.794	1277
241.858	677
241.922	389
241.987	781
242.051	-464
242.115	168
242.179	188
242.244	-120
242.308	822
242.372	1389
242.436	428
242.501	816
242.565	225
242.629	-80
242.693	794
242.757	-348
242.822	166
242.886	104
242.950	38
243.014	111
243.078	389
243.142	250
243.206	843
243.271	1495
243.335	871
243.399	1595
243.463	10858
243.527	14716
243.591	2938
243.655	1481
243.719	175
243.783	650
243.847	2243
243.911	1895
243.975	927
244.040	577
244.104	987
244.168	394
244.232	751
244.296	2655
244.360	1015
244.424	142
244.488	286
244.552	15
244.615	157
244.679	901
244.743	-152
244.807	71
244.871	588
244.935	386
244.999	-384
245.063	260
245.127	70
245.191	935
245.255	441
245.319	949
245.383	22
245.446	807
245.510	-633
245.574	640
245.638	457
245.702	-103
245.766	1408
245.829	708
245.893	722
245.957	875
246.021	358
246.085	216
246.149	462
246.212	1711
246.276	1318
246.340	349
246.404	580
246.467	195
246.531	63
246.595	908
246.659	1182
246.722	-110
246.786	216
246.850	827
246.913	975
246.977	399
247.041	707
247.104	205
247.168	469
247.232	2598
247.295	3340
247.359	932
247.423	549
247.486	773
247.550	1062
247.614	608
247.677	1233
247.741	36
247.804	1532
247.868	3184
247.932	2099
247.995	2563
248.059	66
248.122	-312
248.186	1059
248.249	1592
248.313	6014
248.376	3762
248.440	1947
248.503	-141
248.567	1739
248.630	564
248.694	1176
248.757	2654
248.821	5512
248.884	3016
248.948	2905
249.011	3692
249.075	7251
249.138	3791
249.202	2099
249.265	1372
249.328	1694
249.392	1064
249.455	1537
249.519	736
249.582	485
249.645	1895
249.709	1233
249.772	1470
249.835	842
249.899	570
249.962	862
250.025	542
250.089	3318
250.152	1602
250.215	779
250.279	911
250.342	564
250.405	1939
250.468	810
250.532	1931
250.595	4092
250.658	22464
250.721	19484
250.785	5198
250.848	3852
250.911	1543
250.974	2472
251.038	3213
251.101	4006
251.164	1940
251.227	1822
251.290	3144
251.354	6053
251.417	28417
251.480	15975
251.543	19073
251.606	44932
251.669	20832
251.732	7445
251.795	8159
251.859	12134
251.922	26254
251.985	8576
252.048	3809
252.111	2852
252.174	2279
252.237	5183
252.300	8018
252.363	16827
252.426	27962
252.489	7102
252.552	3445
252.615	2238
252.678	3933
252.741	7138
252.804	18438
252.867	29408
252.930	10739
252.993	4308
253.056	2834
253.119	1995
253.182	1246
253.245	4565
253.308	2286
253.371	804
253.434	1452
253.497	1975
253.559	3622
253.622	2265
253.685	2151
253.748	1333
253.811	1256
253.874	1961
253.937	433
254.000	507
254.062	1980
254.125	2642
254.188	2745
254.251	1444
254.314	32
254.376	1221
254.439	1203
254.502	1269
254.565	2643
254.628	2508
254.690	738
254.753	553
254.816	406
254.878	502
254.941	2293
255.004	1336
255.067	619
255.129	40
255.192	308
255.255	379
255.317	53
255.380	272
255.443	528
255.505	232
255.568	83
255.631	403
255.693	1415
255.756	-171
255.819	1912
255.881	72
255.944	493
256.006	496
256.069	310
256.132	135
256.194	939
256.257	1449
256.319	1911
256.382	1683
256.444	1628
256.507	1810
256.569	23
256.632	637
256.694	1536
256.757	10315
256.819	18906
256.882	4182
256.944	1536
257.007	2064
257.069	1320
257.132	523
257.194	1010
257.257	562
257.319	301
257.381	811
257.444	6685
257.506	27019
257.569	16324
257.631	5668
257.693	1763
257.756	1567
257.818	672
257.880	1196
257.943	1423
258.005	428
258.067	949
258.130	539
258.192	1122
258.254	855
258.317	30
258.379	593
258.441	1863
258.503	1486
258.566	2849
258.628	2727
258.690	453
258.753	924
258.815	690
258.877	225
258.939	890
259.001	730
259.064	381
259.126	502
259.188	311
259.250	1144
259.312	1131
259.375	2087
259.437	364
259.499	683
259.561	943
259.623	729
259.685	-4
259.747	1024
259.809	2717
259.872	3667
259.934	8563
259.996	3905
260.058	302
260.120	1034
260.182	404
260.244	1337
260.306	25
260.368	533
260.430	41
260.492	1775
260.554	1670
260.616	930
260.678	3650
260.740	2583
260.802	-85
260.864	409
260.926	-427
260.988	940
261.050	-48
261.112	2612
261.174	5167
261.236	1576
261.298	158
261.359	1343
261.421	1970
261.483	-534
261.545	1308
261.607	-118
261.669	982
261.731	1160
261.793	1965
261.854	-723
261.916	442
261.978	818
262.040	584
262.102	554
262.164	986
262.225	184
262.287	235
262.349	1038
262.411	672
262.472	60
262.534	950
262.596	885
262.658	1149
262.719	131
262.781	1739
262.843	1601
262.904	1468
262.966	761
263.028	1543
263.090	13137
263.151	17860
263.213	3636
263.275	1951
263.336	870
263.398	550
263.459	629
263.521	297
263.583	763
263.644	536
263.706	273
263.767	-477
263.829	-116
263.891	-13
263.952	-72
264.014	310
264.075	826
264.137	1085
264.198	583
264.260	-362
264.321	333
264.383	1317
264.444	2098
264.506	884
264.567	-152
264.629	1601
264.690	1809
264.752	295
264.813	525
264.875	-80
264.936	-348
264.998	844
265.059	1121
265.120	1331
265.182	2249
265.243	12533
265.305	6252
265.366	1717
265.427	1260
265.489	1184
265.550	268
265.611	781
265.673	119
265.734	-19
265.795	845
265.857	862
265.918	1236
265.979	4922
266.040	20626
266.102	8124
266.163	2581
266.224	1602
266.286	1344
266.347	-112
266.408	952
266.469	688
266.530	-202
266.592	467
266.653	748
266.714	665
266.775	-352
266.836	385
266.898	734
266.959	634
267.020	-586
267.081	472
267.142	489
267.203	172
267.264	142
267.326	454
267.387	975
267.448	155
267.509	1080
267.570	123
267.631	-151
267.692	-558
267.753	847
267.814	-159
267.875	1287
267.936	312
267.997	613
268.058	698
268.119	280
268.180	208
268.241	-486
268.302	-313
268.363	-98
268.424	-261
268.485	310
268.546	-613
268.607	427
268.668	8
268.729	-148
268.790	6
268.851	341
268.912	283
268.972	457
269.033	369
269.094	-513
269.155	1023
269.216	770
269.277	132
269.338	-723
269.398	108
269.459	-7
269.520	534
269.581	-75
269.642	426
269.702	91
269.763	358
269.824	354
269.885	-112
269.945	801
270.006	305
270.067	-250
270.128	-414
270.188	-486
270.249	-474
270.310	530
270.370	845
270.431	-323
270.492	245
270.553	-314
270.613	354
270.674	765
270.734	-205
270.795	248
270.856	-56
270.916	-22
270.977	342
271.038	156
271.098	536
271.159	-137
271.219	126
271.280	550
271.340	-44
271.401	285
271.462	282
271.522	612
271.583	-37
271.643	67
271.704	404
271.764	-18
271.825	1350
271.885	5882
271.946	4440
272.006	1417
272.066	3882
272.127	5215
272.187	3248
272.248	1236
272.308	721
272.369	4007
272.429	1331
272.489	1498
272.550	-207
272.610	1353
272.671	24
272.731	1370
272.791	471
272.852	-351
272.912	827
272.972	50
273.033	649
273.093	252
273.153	1246
273.214	885
273.274	1023
273.334	4168
273.394	3509
273.455	820
273.515	3144
273.575	3463
273.635	2725
273.696	3354
273.756	4536
273.816	2110
273.876	1369
273.936	2843
273.997	3997
274.057	962
274.117	259
274.177	1224
274.237	6892
274.297	4128
274.358	2499
274.418	3312
274.478	1625
274.538	911
274.598	838
274.658	4251
274.718	3167
274.778	664
274.838	509
274.898	1709
274.958	5384
275.018	5381
275.078	2058
275.138	1212
275.198	36
275.258	282
275.318	320
275.378	88
275.438	685
275.498	900
275.558	3507
275.618	4746
275.678	1802
275.738	1507
275.798	978
275.858	687
275.918	511
275.978	1309
276.038	937
276.098	733
276.157	1273
276.217	1733
276.277	889
276.337	211
276.397	198
276.457	239
276.517	756
276.576	-171
276.636	-171
276.696	501
276.756	2338
276.815	-3
276.875	426
276.935	570
276.995	763
277.055	1157
277.114	877
277.174	96
277.234	1123
277.293	1244
277.353	179
277.413	623
277.472	443
277.532	1513
277.592	1693
277.651	13339
277.711	11896
277.771	5183
277.830	18958
277.890	8772
277.950	15623
278.009	25836
278.069	7986
278.128	16053
278.188	12710
278.248	8611
278.307	21167
278.367	6724
278.426	3172
278.486	2106
278.545	1721
278.605	2008
278.664	1474
278.724	1409
278.783	3948
278.843	5903
278.902	1719
278.962	1429
279.021	3466
279.081	9895
279.140	5116
279.199	2789
279.259	3069
279.318	4377
279.378	6987
279.437	12719
279.496	45937
279.556	126652
279.615	63023
279.675	19851
279.734	13218
279.793	21760
279.853	17498
279.912	7399
279.971	4369
280.031	4899
280.090	7077
280.149	9526
280.208	25237
280.268	93930
280.327	52384
280.386	14511
280.445	8960
280.505	5550
280.564	4611
280.623	3116
280.682	3271
280.742	3001
280.801	1247
280.860	1298
280.919	731
280.978	1185
281.037	1307
281.097	1516
281.156	1842
281.215	1956
281.274	1950
281.333	3882
281.392	1751
281.451	854
281.510	1355
281.569	704
281.628	1511
281.688	1155
281.747	1671
281.806	317
281.865	377
281.924	561
281.983	1254
282.042	525
282.101	1064
282.160	1164
282.219	199
282.278	427
282.337	960
282.396	1122
282.454	1320
282.513	506
282.572	2005
282.631	751
282.690	1386
282.749	19
282.808	1104
282.867	1394
282.926	958
282.985	959
283.043	740
283.102	919
283.161	919
283.220	1999
283.279	2584
283.338	1055
283.396	576
283.455	1469
283.514	855
283.573	1502
283.631	1543
283.690	946
283.749	1304
283.808	1995
283.866	2006
283.925	1582
283.984	1607
284.043	1473
284.101	1666
284.160	1859
284.219	2748
284.277	1648
284.336	2555
284.395	5142
284.453	3157
284.512	3644
284.570	3320
284.629	4723
284.688	4438
284.746	6062
284.805	6845
284.863	8871
284.922	12063
284.981	15042
285.039	22753
285.098	39819
285.156	69363
285.215	68665
285.273	71723
285.332	56250
285.390	35463
285.449	23343
285.507	16504
285.566	12493
285.624	9877
285.683	7299
285.741	5872
285.799	4526
285.858	4181
285.916	3543
285.975	3369
286.033	2149
286.091	1925
286.150	2330
286.208	2198
286.267	2740
286.325	2175
286.383	2013
286.442	1952
286.500	1805
286.558	1815
286.616	1426
286.675	1479
286.733	1251
286.791	1349
286.850	725
286.908	1459
286.966	974
287.024	882
287.083	1162
287.141	1101
287.199	1838
287.257	1426
287.315	1345
287.374	795
287.432	1912
287.490	1612
287.548	1118
287.606	1246
287.664	1330
287.723	1663
287.781	1507
287.839	1595
287.897	1619
287.955	2537
288.013	3821
288.071	11616
288.129	52449
288.187	81003
288.245	27584
288.303	10100
288.361	6098
288.419	4560
288.477	3251
288.535	2865
288.593	1577
288.651	1690
288.709	563
288.767	1134
288.825	76
288.883	1117
288.941	1051
288.999	950
289.057	424
289.115	792
289.173	1001
289.231	229
289.289	379
289.346	568
289.404	1197
289.462	529
289.520	479
289.578	1466
289.636	76
289.694	823
289.751	-32
289.809	862
289.867	744
289.925	578
289.983	91
290.040	712
290.098	173
290.156	-11
290.214	232
290.271	293
290.329	1282
290.387	952
290.444	584
290.502	20
290.560	556
290.617	-96
290.675	-3
290.733	805
290.790	506
290.848	890
290.906	714
290.963	547
291.021	369
291.078	329
291.136	354
291.194	1665
291.251	2452
291.309	709
291.366	256
291.424	35
291.481	785
291.539	1285
291.596	1200
291.654	481
291.711	258
291.769	921
291.826	693
291.884	169
291.941	-446
291.999	-368
292.056	175
292.114	108
292.171	858
292.228	1392
292.286	482
292.343	340
292.401	316
292.458	831
292.515	244
292.573	1196
292.630	1516
292.687	-32
292.745	9
292.802	1010
292.859	3074
292.917	3713
292.974	1598
293.031	892
293.089	591
293.146	400
293.203	328
293.260	-296
293.318	573
293.375	957
293.432	215
293.489	1272
293.546	839
293.604	1587
293.661	6709
293.718	7840
293.775	3453
293.832	2925
293.889	1826
293.947	2035
294.004	1154
294.061	461
294.118	2191
294.175	4099
294.232	5389
294.289	2659
294.346	1091
294.403	889
294.460	711
294.517	582
294.574	326
294.631	840
294.688	550
294.745	3244
294.802	8343
294.859	6735
294.916	1812
294.973	1128
295.030	59
295.087	637
295.144	891
295.201	1031
295.258	-104
295.315	1292
295.372	3727
295.429	3526
295.486	1567
295.542	791
295.599	4831
295.656	4711
295.713	4369
295.770	3336
295.827	888
295.883	1070
295.940	341
295.997	1095
296.054	282
296.111	1404
296.167	223
296.224	802
296.281	481
296.338	396
296.394	292
296.451	975
296.508	2666
296.564	2718
296.621	2173
296.678	6689
296.734	6516
296.791	1611
296.848	1338
296.904	1919
296.961	2557
297.018	5160
297.074	2454
297.131	1066
297.187	1082
297.244	2206
297.301	7577
297.357	8860
297.414	2499
297.470	1425
297.527	604
297.583	1618
297.640	329
297.696	937
297.753	845
297.809	73
297.866	519
297.922	608
297.979	-49
298.035	-451
298.092	1250
298.148	3274
298.204	2105
298.261	1479
298.317	3340
298.374	7228
298.430	2641
298.486	1475
298.543	630
298.599	1233
298.656	988
298.712	3813
298.768	9459
298.824	4184
298.881	1999
298.937	1810
298.993	784
299.050	1469
299.106	429
299.162	616
299.218	471
299.275	581
299.331	1479
299.387	3660
299.443	9897
299.500	15446
299.556	7769
299.612	4588
299.668	3837
299.724	13172
299.780	9629
299.837	4775
299.893	4964
299.949	12664
300.005	12875
300.061	13955
300.117	17109
300.173	6190
300.229	2941
300.285	2831
300.341	2652
300.397	1603
300.453	1271
300.510	971
300.566	2518
300.622	6564
300.678	20603
300.734	18560
300.790	10684
300.845	9558
300.901	13478
300.957	13948
301.013	6210
301.069	2899
301.125	2233
301.181	2130
301.237	1747
301.293	1034
301.349	1088
301.405	716
301.461	797
301.516	583
301.572	853
301.628	1119
301.684	301
301.740	1552
301.796	2594
301.851	1442
301.907	2599
301.963	3537
302.019	7717
302.074	18286
302.130	14829
302.186	6451
302.242	2133
302.297	1866
302.353	2386
302.409	2241
302.464	1837
302.520	2746
302.576	6173
302.631	4492
302.687	2252
302.743	1220
302.798	414
302.854	1219
302.910	843
302.965	974
303.021	1848
303.076	1254
303.132	1838
303.187	1086
303.243	746
303.299	1184
303.354	627
303.410	1219
303.465	328
303.521	658
303.576	352
303.632	1179
303.687	3238
303.743	6863
303.798	4151
303.853	1384
303.909	1085
303.964	1248
304.020	1685
304.075	1116
304.130	1726
304.186	2021
304.241	1880
304.297	1906
304.352	1115
304.358	1055
304.407	569
304.449	671
304.463	705
304.518	419
304.539	531
304.573	713
304.629	1215
304.630	1230
304.684	1922
304.720	3973
304.739	5029
304.794	5450
304.811	4597
304.850	2505
304.902	1338
304.905	1267
304.960	1033
304.992	1293
305.015	1461
305.071	1251
305.083	1071
305.126	486
305.173	349
305.181	310
305.236	665
305.264	586
305.292	563
305.347	715
305.354	729
305.402	742
305.445	969
305.457	1050
305.512	1281
305.535	1218
305.567	1066
305.622	998
305.626	1070
305.678	2515
305.716	5241
305.733	6333
305.788	4651
305.807	4472
305.843	4141
305.897	6435
305.898	6465
305.953	4168
305.988	2658
306.008	1838
306.063	1405
306.078	1373
306.118	1275
306.168	713
306.173	673
306.228	1471
306.259	969
306.283	583
306.338	980
306.349	972
306.393	923
306.440	1443
306.448	1526
306.503	1274
306.530	1249
306.558	1336
306.613	2536
306.620	2680
306.668	3555
306.711	4449
306.723	4629
306.778	2974
306.801	2569
306.833	2004
306.888	751
306.892	768
306.943	1188
306.982	1228
306.997	1245
307.052	1158
307.072	1049
307.107	839
307.162	994
307.163	998
307.217	1691
307.253	2002
307.272	2143
307.327	2455
307.343	2425
307.381	2066
307.434	1720
307.436	1740
307.491	3137
307.524	3885
307.546	4114
307.600	3879
307.614	3482
307.655	2104
307.704	1663
307.710	1669
307.765	1563
307.795	2080
307.819	2810
307.874	5205
307.885	5251
307.929	4296
307.975	3673
307.984	3782
308.038	6356
308.065	8395
308.093	12950
308.148	29492
308.156	33167
308.202	57593
308.246	65661
308.257	62701
308.312	32222
308.336	21606
308.366	15230
308.421	8263
308.426	7862
308.475	5692
308.517	4487
308.530	4288
308.585	3869
308.607	3698
308.639	3536
308.694	3204
308.697	3250
308.748	4850
308.787	6389
308.803	6626
308.857	5718
308.877	5491
308.912	5108
308.967	5331
308.967	5348
309.021	7336
309.058	9607
309.076	11591
309.130	19638
309.148	23300
309.185	39698
309.238	71235
309.239	71667
309.293	88909
309.328	87312
309.348	74241
309.402	36722
309.418	27328
309.457	19466
309.508	12490
309.511	12267
309.566	11472
309.598	12390
309.620	14542
309.674	20940
309.688	22450
309.729	22661
309.778	19243
309.783	18635
309.837	12359
309.868	8966
309.892	7702
309.946	6004
309.959	5880
310.001	6208
310.049	6102
310.055	5931
310.109	4400
310.139	3475
310.163	3117
310.218	3036
310.229	3019
310.272	2570
310.319	2177
310.326	2130
310.381	1860
310.409	1576
310.435	1531
310.489	1678
310.499	1740
310.543	1756
310.589	1697
310.598	1648
310.652	1215
310.679	1071
310.706	1237
310.760	1493
310.769	1544
310.814	1321
310.859	1018
310.868	1080
310.923	1487
310.948	1749
310.977	1868
311.031	1902
311.038	1918
311.085	1701
311.128	1355
311.139	1287
311.193	1224
311.218	1067
311.247	1157
311.301	1425
311.308	1459
311.356	1305
311.398	1206
311.410	1237
311.464	1196
311.488	1267
311.518	1346
311.572	1419
311.578	1425
311.626	1213
311.668	1064
311.680	1070
311.734	1022
311.758	1037
311.788	1288
311.842	1707
311.847	1752
311.896	1828
311.937	1915
311.950	1831
312.004	1438
312.027	1281
312.058	1087
312.112	744
312.117	716
312.165	1344
312.207	1895
312.297	1056
312.386	1555
312.476	947
312.566	1316
312.656	966
312.745	1275
312.835	1207
312.925	1522
313.015	1268
313.104	1595
313.194	694
313.284	1293
313.374	1391
313.463	1371
313.553	1451
313.643	1602
313.732	1957
313.822	1568
313.912	1685
314.001	2253
314.091	2186
314.180	2084
314.270	1854
314.360	2618
314.449	2140
314.539	1886
314.628	2383
314.718	2040
314.808	2147
314.897	2460
314.987	2305
315.076	3318
315.166	2764
315.255	3073
315.345	2406
315.434	2415
315.524	2150
315.613	3301
315.703	4938
315.792	15169
315.881	66109
315.971	37668
316.060	6172
316.150	4123
316.239	3375
316.328	3210
316.418	1882
316.507	1908
316.597	2805
316.686	2558
316.775	2957
316.865	4405
316.954	2125
317.043	2505
317.133	1782
317.222	1712
317.311	1542
317.400	1807
317.490	2633
317.579	3359
317.668	3999
317.757	8439
317.847	25372
317.936	102844
318.025	49497
318.114	24752
318.203	15711
318.293	4648
318.382	4193
318.471	3905
318.560	3273
318.649	6882
318.738	2655
318.828	2340
318.917	1669
319.006	2784
319.095	3067
319.184	7009
319.273	4151
319.362	2013
319.451	795
319.540	1281
319.629	2376
319.718	1862
319.807	2041
319.896	3377
319.985	8766
320.074	4746
320.163	1079
320.252	2441
320.341	1721
320.430	1790
320.519	1793
320.608	2181
320.697	1088
320.786	2645
320.875	1981
320.964	2517
321.053	2767
321.142	3872
321.230	3309
321.319	4028
321.408	5196
321.497	4748
321.586	3495
321.675	3595
321.764	3504
321.852	2865
321.941	2558
322.030	3487
322.119	3432
322.207	5815
322.296	5557
322.385	6173
322.474	6376
322.562	7896
322.651	5918
322.740	3838
322.829	3092
322.917	4413
323.006	2770
323.095	2779
323.183	1672
323.272	2555
323.361	4218
323.449	10743
323.538	4743
323.626	7067
323.715	6158
323.804	2302
323.892	5447
323.981	5159
324.069	1735
324.158	3973
324.246	4096
324.335	1409
324.424	1221
324.512	1715
324.601	1193
324.689	1472
324.778	1422
324.866	2359
324.954	1510
325.043	1041
325.131	311
325.220	3239
325.308	3027
325.397	2665
325.485	1778
325.574	1845
325.662	1175
325.750	1157
325.839	788
325.927	677
326.015	1639
326.104	1052
326.192	2229
326.280	1184
326.369	658
326.457	925
326.545	690
326.634	1075
326.722	467
326.810	1164
326.898	1222
326.987	1427
327.075	1180
327.163	2187
327.251	942
327.340	1444
327.428	1579
327.516	1912
327.604	1518
327.692	1269
327.781	1653
327.869	1808
327.957	798
328.045	1116
328.133	668
328.221	1519
328.309	740
328.397	1272
328.485	1102
328.574	1903
328.662	3498
328.750	2804
328.838	1545
328.926	964
329.014	1538
329.102	1099
329.190	1299
329.278	1256
329.366	1382
329.454	1044
329.542	1056
329.630	1116
329.718	729
329.806	1342
329.893	643
329.981	291
330.069	834
330.157	1189
330.245	1284
330.333	1352
330.421	1035
330.509	1139
330.597	1016
330.684	2040
330.772	1260
330.860	1214
330.948	1242
331.036	1554
331.123	751
331.211	556
331.299	1369
331.387	1583
331.475	2342
331.562	1240
331.650	1051
331.738	1552
331.825	1331
331.913	910
332.001	984
332.089	972
332.176	911
332.264	2530
332.352	3546
332.439	785
332.527	634
332.614	617
332.702	1479
332.790	1028
332.877	1646
332.965	4262
333.052	2249
333.140	2800
333.228	5673
333.315	2994
333.403	1164
333.490	1989
333.578	2908
333.665	7994
333.753	4387
333.840	1577
333.928	1522
334.015	3717
334.103	4243
334.190	11104
334.278	7004
334.365	6378
334.452	6168
334.540	3703
334.627	3484
334.715	4382
334.802	6607
334.889	18311
334.977	29499
335.064	12960
335.151	4753
335.239	4423
335.326	2700
335.413	6430
335.501	8944
335.588	3670
335.675	2632
335.762	3339
335.850	5300
335.937	7746
336.024	14134
336.111	30212
336.199	29441
336.286	11013
336.373	5072
336.460	3641
336.547	2168
336.635	2734
336.722	2064
336.809	1647
336.896	1359
336.983	2729
337.070	6250
337.157	11904
337.245	7962
337.332	8183
337.419	1959
337.506	1436
337.593	2100
337.680	2801
337.767	5840
337.854	2196
337.941	1737
338.028	2752
338.115	781
338.202	1737
338.289	2402
338.376	6888
338.463	3349
338.550	3214
338.637	4497
338.724	2083
338.811	2497
338.898	1005
338.984	903
339.071	1265
339.158	495
339.245	1307
339.332	1601
339.419	1484
339.506	1919
339.593	784
339.679	914
339.766	1072
339.853	1098
339.940	728
340.027	803
340.113	1330
340.200	854
340.287	1135
340.374	978
340.460	960
340.547	493
340.634	930
340.720	1599
340.807	1272
340.894	16
340.980	558
341.067	980
341.154	1372
341.240	1194
341.327	931
341.414	312
341.500	1107
341.587	728
341.674	1213
341.760	592
341.847	1180
341.933	709
342.020	640
342.106	794
342.193	600
342.279	798
342.366	896
342.452	1218
342.539	1346
342.625	1111
342.712	1739
342.798	994
342.885	1377
342.971	440
343.058	1102
343.144	802
343.230	615
343.317	222
343.403	515
343.490	461
343.576	545
343.662	305
343.749	828
343.835	1240
343.921	1548
344.008	5334
344.094	15801
344.180	4460
344.267	1828
344.353	2578
344.439	4048
344.525	1677
344.612	725
344.698	1860
344.784	700
344.870	639
344.957	1534
345.043	763
345.129	1025
345.215	1030
345.301	1299
345.387	-294
345.474	643
345.560	190
345.646	607
345.732	705
345.818	1077
345.904	412
345.990	355
346.076	1108
346.162	1050
346.249	963
346.335	1212
346.421	1185
346.507	2053
346.593	3966
346.679	1733
346.765	110
346.851	2124
346.937	1367
347.023	1882
347.108	580
347.194	1142
347.280	775
347.366	1625
347.452	3797
347.538	9245
347.624	4396
347.710	3413
347.796	1291
347.882	862
347.967	697
348.053	770
348.139	810
348.225	1074
348.311	715
348.397	1870
348.482	1170
348.568	1148
348.654	971
348.740	5022
348.825	6140
348.911	2292
348.997	3078
349.083	7045
349.168	1783
349.254	1283
349.340	239
349.425	940
349.511	425
349.597	902
349.682	1472
349.768	2486
349.854	984
349.939	929
350.025	-54
350.110	705
350.196	215
350.282	1074
350.367	790
350.453	911
350.538	1239
350.624	1024
350.709	902
350.795	793
350.880	250
350.966	1001
351.051	721
351.137	935
351.222	184
351.308	1201
351.393	1954
351.479	871
351.564	466
351.649	1671
351.735	666
351.820	1125
351.906	94
351.991	807
352.076	790
352.162	2596
352.247	525
352.332	988
352.418	607
352.503	536
352.588	2699
352.673	2008
352.759	752
352.844	753
352.929	156
353.014	487
353.100	557
353.185	674
353.270	321
353.355	1653
353.441	1291
353.526	767
353.611	711
353.696	1357
353.781	877
353.866	245
353.952	811
354.037	794
354.122	530
354.207	2000
354.292	1447
354.377	543
354.462	599
354.547	1599
354.632	1134
354.717	1004
354.802	806
354.887	819
354.972	370
355.057	1092
355.142	664
355.227	1390
355.312	827
355.397	1772
355.482	1838
355.567	1190
355.652	1886
355.737	932
355.822	2196
355.907	3091
355.991	1087
356.076	1013
356.161	749
356.246	293
356.331	291
356.416	1632
356.501	5053
356.585	8381
356.670	1341
356.755	1305
356.840	1256
356.924	3890
357.009	16225
357.094	8332
357.179	1075
357.263	1716
357.348	868
357.433	715
357.517	1010
357.602	1284
357.687	732
357.771	1361
357.856	2997
357.941	2747
358.025	2958
358.110	20738
358.195	12894
358.279	1951
358.364	1770
358.448	2064
358.533	4461
358.617	3558
358.702	3689
358.787	2321
358.871	622
358.956	1060
359.040	887
359.125	1129
359.209	834
359.294	2188
359.378	3264
359.462	1948
359.547	1909
359.631	1369
359.716	-17
359.800	957
359.885	975
359.969	325
360.053	1063
360.138	953
360.222	46
360.306	690
360.391	976
360.475	1038
360.559	2527
360.644	1828
360.728	1472
360.812	3369
360.896	9248
360.981	4091
361.065	1660
361.149	1199
361.233	183
361.318	934
361.402	215
361.486	1259
361.570	385
361.654	1784
361.739	1102
361.823	5554
361.907	11228
361.991	4238
362.075	1637
362.159	3331
362.243	4723
362.327	12330
362.411	26289
362.495	12696
362.580	3920
362.664	3232
362.748	3148
362.832	5765
362.916	9849
363.000	34547
363.084	71052
363.168	39544
363.252	10404
363.336	4152
363.420	3305
363.503	7479
363.587	10713
363.671	3687
363.755	2250
363.839	2544
363.923	2545
364.007	3905
364.091	4735
364.175	7721
364.258	22698
364.342	42137
364.426	96324
364.510	66249
364.594	15908
364.677	6991
364.761	9169
364.845	9763
364.929	3285
365.013	2035
365.096	1697
365.180	2034
365.264	2429
365.347	12471
365.431	6487
365.515	1880
365.598	765
365.682	1601
365.766	1240
365.849	1701
365.933	1325
366.017	1274
366.100	1305
366.184	924
366.267	1329
366.351	623
366.435	643
366.518	653
366.602	104
366.685	643
366.769	234
366.852	798
366.936	1524
367.019	1747
367.103	632
367.186	2664
367.270	1083
367.353	795
367.436	1994
367.520	1532
367.603	876
367.687	816
367.770	1044
367.853	1404
367.937	1962
368.020	3645
368.104	1319
368.187	900
368.270	1017
368.353	1802
368.437	1031
368.520	4482
368.603	3065
368.687	2060
368.770	3371
368.853	1443
368.936	1146
369.020	2400
369.103	192
369.186	353
369.269	326
369.352	695
369.436	329
369.519	942
369.602	402
369.685	1068
369.768	726
369.851	1341
369.934	-75
370.018	912
370.101	1212
370.184	1917
370.267	933
370.350	1585
370.433	2355
370.516	7191
370.599	29937
370.682	21366
370.765	4064
370.848	3219
370.931	4917
371.014	2837
371.097	1092
371.180	1479
371.263	518
371.346	520
371.429	869
371.511	559
371.594	746
371.677	1599
371.760	2183
371.843	2088
371.926	5999
372.009	19640
372.091	8677
372.174	3357
372.257	5622
372.340	3556
372.423	2300
372.505	3249
372.588	1061
372.671	1542
372.754	4293
372.836	3897
372.919	2281
373.002	6176
373.085	2137
373.167	1832
373.250	1844
373.332	5455
373.415	8912
373.498	25388
373.580	14174
373.663	37748
373.746	63416
373.828	12545
373.911	2875
373.993	2764
374.076	5364
374.159	6841
374.241	2383
374.324	3885
374.406	3181
374.489	5060
374.571	16262
374.654	7636
374.736	2765
374.819	8621
374.901	13378
374.983	18085
375.066	4702
375.148	3074
375.231	4460
375.313	11332
375.395	4467
375.478	2354
375.560	1648
375.643	2425
375.725	2653
375.807	11424
375.890	11621
375.972	5152
376.054	2009
376.136	4503
376.219	2560
376.301	2687
376.383	7893
376.465	4911
376.548	1119
376.630	1713
376.712	5972
376.794	3674
376.877	1145
376.959	452
377.041	675
377.123	996
377.205	1457
377.287	990
377.369	600
377.452	1360
377.534	1115
377.616	1670
377.698	-152
377.780	1057
377.862	957
377.944	1362
378.026	132
378.108	1192
378.190	716
378.272	1063
378.354	894
378.436	664
378.518	503
378.600	1513
378.682	1280
378.764	2052
378.846	2127
378.928	915
379.010	917
379.091	1141
379.173	978
379.255	713
379.337	199
379.419	1854
379.501	3118
379.583	2186
379.664	1145
379.746	1596
379.828	1977
379.910	2581
379.991	3054
380.073	839
380.155	968
380.237	996
380.318	366
380.400	661
380.482	290
380.564	1805
380.645	1504
380.727	1201
380.809	1219
380.890	838
380.972	167
381.053	894
381.135	798
381.217	1360
381.298	2595
381.380	1891
381.461	1401
381.543	5770
381.624	9261
381.706	3110
381.787	1944
381.869	2032
381.951	3543
382.032	15916
382.113	13403
382.195	2699
382.276	2354
382.358	2979
382.439	6395
382.521	9417
382.602	15806
382.684	8970
382.765	10184
382.846	21387
382.928	61118
383.009	42955
383.090	21181
383.172	74347
383.253	149085
383.334	53051
383.416	18986
383.497	12249
383.578	9400
383.659	17387
383.741	59345
383.822	193094
383.903	127143
383.984	24386
384.066	15996
384.147	9448
384.228	5300
384.309	4949
384.390	4421
384.471	4211
384.553	3065
384.634	2883
384.715	2814
384.796	3277
384.877	2200
384.958	4153
385.039	4880
385.120	3152
385.201	2359
385.282	2440
385.363	2885
385.444	3531
385.525	3782
385.606	6630
385.687	7196
385.768	3603
385.849	2692
385.930	7335
386.011	17002
386.092	6705
386.173	3159
386.254	3377
386.335	2904
386.416	1448
386.496	2595
386.577	4592
386.658	2723
386.739	2303
386.820	2697
386.901	2402
386.981	2658
387.062	3732
387.143	3563
387.224	5226
387.304	6074
387.385	4733
387.466	3931
387.547	5023
387.627	4596
387.708	5539
387.789	7309
387.869	8893
387.950	4718
388.031	3053
388.111	1469
388.192	4133
388.273	4692
388.353	3886
388.434	2221
388.514	2728
388.595	7061
388.676	8865
388.756	4409
388.837	2879
388.917	2795
388.998	1882
389.078	1422
389.159	1480
389.239	1591
389.320	2487
389.400	787
389.480	2140
389.561	3320
389.641	3507
389.722	1837
389.802	2050
389.883	1774
389.963	4867
390.043	3689
390.124	2365
390.204	2044
390.284	3448
390.365	2589
390.445	4444
390.525	16033
390.605	18448
390.686	4984
390.766	2591
390.846	2047
390.927	2701
391.007	1431
391.087	2417
391.167	2275
391.247	1859
391.328	2247
391.408	3810
391.488	3091
391.568	2174
391.648	2707
391.728	3188
391.808	2667
391.888	3789
391.969	4323
392.049	5211
392.129	4764
392.209	5074
392.289	7773
392.369	7109
392.449	6542
392.529	6900
392.609	8007
392.689	8271
392.769	10986
392.849	14490
392.929	16356
393.009	24648
393.089	34570
393.169	60743
393.248	148082
393.328	407289
393.408	518277
393.488	247311
393.568	85949
393.648	40688
393.728	24399
393.807	17154
393.887	13269
393.967	11181
394.047	9564
394.127	8583
394.206	9232
394.286	16927
394.366	77086
394.446	119673
394.525	31756
394.605	8763
394.685	6435
394.764	7326
394.844	10362
394.924	13739
395.003	5688
395.083	3765
395.163	3868
395.242	3429
395.322	4022
395.402	3001
395.481	4340
395.561	5455
395.640	13021
395.720	25796
395.799	19676
395.879	12456
395.958	9225
396.038	21481
396.117	100077
396.197	156217
396.276	47759
396.356	15071
396.435	13406
396.515	15362
396.594	21707
396.673	42860
396.753	129594
396.832	377059
396.912	364041
396.991	114735
397.070	37969
397.150	19963
397.229	14021
397.308	17187
397.388	35432
397.467	22106
397.546	7081
397.625	4771
397.705	4373
397.784	4529
397.863	3433
397.942	3104
398.022	2856
398.101	3832
398.180	7123
398.259	4993
398.338	2848
398.417	2310
398.497	1970
398.576	2372
398.655	1395
398.734	1685
398.813	1288
398.892	3022
398.971	7366
399.050	5302
399.129	1073
399.208	1409
399.287	876
399.366	1125
399.445	705
399.524	852
399.603	378
399.682	237
399.761	1209
399.840	7361
399.919	7925
399.998	1855
400.077	886
400.156	429
400.235	1739
400.313	12
400.392	139
400.471	1197
400.550	1624
400.629	287
400.708	673
400.786	448
400.865	1159
400.944	785
401.023	1424
401.102	374
401.180	596
401.259	538
401.338	-229
401.416	162
401.495	139
401.574	895
401.652	-770
401.731	662
401.810	193
401.888	470
401.967	304
402.046	588
402.124	770
402.203	-50
402.281	330
402.360	226
402.438	1214
402.517	752
402.596	420
402.674	696
402.753	-510
402.831	1093
402.910	431
402.988	642
403.066	1645
403.145	2106
403.223	1043
403.302	2264
403.380	1278
403.459	1683
403.537	690
403.615	908
403.694	-406
403.772	1327
403.850	186
403.929	506
404.007	-830
404.085	306
404.164	624
404.242	314
404.320	2102
404.398	7852
404.477	7912
404.555	8753
404.633	9423
404.711	6378
404.789	4930
404.868	1029
404.946	-85
405.024	427
405.102	-64
405.180	320
405.258	-942
405.336	1102
405.415	-655
405.493	989
405.571	390
405.649	-236
405.727	-361
405.805	856
405.883	694
405.961	1004
406.039	-132
406.117	-854
406.195	72
406.273	147
406.351	5171
406.429	4746
406.507	263
406.585	378
406.663	-397
406.740	111
406.818	-563
406.896	-203
406.974	1251
407.052	-50
407.130	1761
407.208	4729
407.285	482
407.363	-123
407.441	316
407.519	68
407.596	-246
407.674	1985
407.752	14822
407.830	19360
407.907	3178
407.985	459
408.063	633
408.141	-280
408.218	216
408.296	-119
408.373	181
408.451	868
408.529	-293
408.606	304
408.684	204
408.762	-131
408.839	128
408.917	980
408.994	848
409.072	680
409.149	595
409.227	3076
409.304	4235
409.382	5445
409.459	4762
409.537	9134
409.614	7933
409.692	5391
409.769	4457
409.846	8270
409.924	11537
410.001	7900
410.079	4691
410.156	3000
410.233	2256
410.311	1747
410.388	958
410.465	1058
410.543	1170
410.620	1608
410.697	689
410.775	1904
410.852	93
410.929	1932
411.006	1655
411.083	904
411.161	408
411.238	1147
411.315	1002
411.392	1045
411.469	651
411.547	1377
411.624	-86
411.701	307
411.778	-9
411.855	93
411.932	194
412.009	50
412.086	260
412.163	322
412.240	-611
412.317	384
412.394	-615
412.471	298
412.548	87
412.625	-561
412.702	-539
412.779	223
412.856	380
412.933	-238
413.010	92
413.087	523
413.164	150
413.241	1803
413.318	-347
413.395	1010
413.471	-1160
413.548	-189
413.625	213
413.702	815
413.779	-209
413.855	124
413.932	-995
414.009	-598
414.086	481
414.162	23
414.239	-247
414.316	484
414.393	1267
414.469	-78
414.546	-995
414.623	-259
414.699	-1025
414.776	-279
414.853	-1028
414.929	1025
415.006	-362
415.082	-366
415.159	-613
415.236	594
415.312	425
415.389	43
415.465	-628
415.542	383
415.618	-488
415.695	587
415.771	-859
415.848	-336
415.924	-639
416.000	155
416.077	186
416.153	-301
416.230	-1387
416.306	-62
416.383	-485
416.459	438
416.535	-1329
416.612	-522
416.688	19
416.764	-376
416.841	-840
416.917	-464
416.993	-241
417.069	-254
417.146	-354
417.222	354
417.298	-387
417.374	-277
417.451	-306
417.527	-838
417.603	-1310
417.679	-360
417.755	524
417.831	-948
417.908	104
417.984	-322
418.060	-1074
418.136	-135
418.212	-227
418.288	-279
418.364	-277
418.440	-1249
418.516	164
418.592	-219
418.668	249
418.744	156
418.820	638
418.896	-267
418.972	-877
419.048	295
419.124	-282
419.200	-513
419.276	-137
419.352	-242
419.428	-82
419.504	-434
419.579	-444
419.655	-414
419.731	442
419.807	545
419.883	475
419.959	893
420.034	228
420.110	64
420.186	911
420.262	2118
420.337	30
420.413	544
420.489	49
420.565	1222
420.640	107
420.716	721
420.792	599
420.867	1250
420.943	-362
421.019	916
421.094	771
421.170	1465
421.245	426
421.321	2688
421.397	1016
421.472	4189
421.548	10537
421.623	11329
421.699	4205
421.774	4453
421.850	3626
421.925	5248
422.001	5500
422.076	7335
422.152	8333
422.227	12626
422.302	17683
422.378	25668
422.453	42695
422.529	82391
422.604	154253
422.679	184983
422.755	181869
422.830	128453
422.905	65832
422.981	38805
423.056	25355
423.131	17665
423.207	12567
423.282	10091
423.357	7556
423.432	7182
423.508	5683
423.583	4773
423.658	4469
423.733	3997
423.808	2475
423.883	3604
423.959	3100
424.034	4839
424.109	5185
424.184	2554
424.259	1621
424.334	1540
424.409	758
424.484	1468
424.559	599
424.634	1252
424.709	580
424.784	657
424.859	624
424.934	68
425.009	443
425.084	1757
425.159	614
425.234	335
425.309	-21
425.384	470
425.459	280
425.534	649
425.609	-759
425.683	286
425.758	-495
425.833	544
425.908	560
425.983	125
426.058	510
426.132	1109
426.207	73
426.282	638
426.357	-420
426.431	-332
426.506	-172
426.581	208
426.655	448
426.730	127
426.805	-476
426.879	830
426.954	-626
427.029	-560
427.103	871
427.178	3408
427.253	2845
427.327	538
427.402	-780
427.476	981
427.551	382
427.625	416
427.700	-388
427.774	-351
427.849	-24
427.923	14
427.998	-1271
428.072	-393
428.147	1718
428.221	7842
428.296	47372
428.370	48861
428.444	7494
428.519	2060
428.593	783
428.667	1720
428.742	1141
428.816	3626
428.890	20271
428.965	59981
429.039	24570
429.113	3726
429.188	1010
429.262	810
429.336	77
429.410	343
429.485	566
429.559	636
429.633	1160
429.707	1329
429.781	2008
429.855	19849
429.930	53907
430.004	23025
430.078	8754
430.152	13790
430.226	52892
430.300	95278
430.374	27015
430.448	5177
430.522	2695
430.596	6328
430.670	8164
430.744	28139
430.818	60871
430.892	18304
430.966	1715
431.040	1013
431.114	132
431.188	-477
431.262	65
431.336	-293
431.410	246
431.484	685
431.557	560
431.631	497
431.705	445
431.779	5909
431.853	41259
431.927	53986
432.000	10743
432.074	1551
432.148	-89
432.222	379
432.295	95
432.369	-214
432.443	-1015
432.516	632
432.590	3428
432.664	2636
432.737	-294
432.811	-330
432.885	-1016
432.958	-139
433.032	-889
433.106	-1412
433.179	-631
433.253	-801
433.326	-1980
433.400	-199
433.473	-360
433.547	-1013
433.620	-568
433.694	-846
433.767	-385
433.841	-176
433.914	-148
433.988	-19
434.061	-496
434.134	-479
434.208	-1896
434.281	-555
434.355	-1348
434.428	-804
434.501	-1272
434.575	-613
434.648	-1137
434.721	-1096
434.795	-808
434.868	-724
434.941	-564
435.014	-728
435.088	-1121
435.161	-19
435.234	65
435.307	446
435.381	-138
435.454	1028
435.527	4276
435.600	5772
435.673	4242
435.746	1903
435.819	1683
435.892	903
435.966	127
436.039	-62
436.112	-215
436.185	-1051
436.258	-683
436.331	-1188
436.404	-817
436.477	-309
436.550	-706
436.623	-472
436.696	-471
436.769	-463
436.842	-1079
436.915	-911
436.987	-589
437.060	-1121
437.133	-308
437.206	-1042
437.279	-624
437.352	-731
437.425	-1865
437.498	-1169
437.570	-584
437.643	-551
437.716	-1070
437.789	-528
437.861	-1549
437.934	-883
438.007	-566
438.080	-672
438.152	-1358
438.225	-643
438.298	394
438.370	7153
438.443	5409
438.516	702
438.588	-980
438.661	-1240
438.734	-1369
438.806	-1303
438.879	-595
438.951	-767
439.024	-309
439.096	-1321
439.169	-729
439.241	-1224
439.314	-1559
439.386	-950
439.459	22
439.531	-1029
439.604	-798
439.676	-525
439.749	-1453
439.821	-369
439.893	-552
439.966	-651
440.038	-1506
440.110	-478
440.183	-833
440.255	-961
440.327	-827
440.400	-279
440.472	1743
440.544	3714
440.617	90
440.689	240
440.761	-630
440.833	-659
440.905	-922
440.978	-171
441.050	-466
441.122	-586
441.194	-854
441.266	-717
441.338	-726
441.411	-817
441.483	-565
441.555	986
441.627	-231
441.699	-358
441.771	-248
441.843	-21
441.915	-1067
441.987	-452
442.059	-758
442.131	733
442.203	3
442.275	857
442.347	1868
442.419	3875
442.491	19864
442.563	84947
442.635	66627
442.706	15310
442.778	5471
442.850	2795
442.922	1278
442.994	1073
443.066	680
443.137	2414
443.209	1798
443.281	3911
443.353	7346
443.425	25394
443.496	108301
443.568	168470
443.640	99799
443.711	28362
443.783	7593
443.855	3097
443.926	2107
443.998	1198
444.070	289
444.141	1115
444.213	578
444.285	1052
444.356	26
444.428	1446
444.499	-34
444.571	-310
444.642	1113
444.714	876
444.785	-99
444.857	849
444.928	1100
445.000	1570
445.071	2054
445.143	2576
445.214	3879
445.285	6873
445.357	16715
445.428	54738
445.500	166821
445.571	156537
445.642	116288
445.714	51822
445.785	17098
445.856	6547
445.928	2665
445.999	2004
446.070	796
446.141	838
446.213	1211
446.284	124
446.355	-87
446.426	-128
446.497	-416
446.569	-197
446.640	-265
446.711	602
446.782	-825
446.853	-687
446.924	327
446.995	-347
447.066	-254
447.138	-470
447.209	-1124
447.280	-973
447.351	-1471
447.422	-681
447.493	-1561
447.564	-716
447.635	-1247
447.706	-811
447.777	-1095
447.847	-690
447.918	-1099
447.989	-701
448.060	-986
448.131	434
448.202	-473
448.273	-286
448.344	-476
448.414	-1268
448.485	-1139
448.556	-202
448.627	-1537
448.698	-399
448.768	-603
448.839	-1703
448.910	-1747
448.981	-17
449.051	-1182
449.122	-915
449.193	-1298
449.263	-584
449.334	-869
449.405	-577
449.475	-734
449.546	-674
449.616	-496
449.687	335
449.758	-12
449.828	-534
449.899	-1674
449.969	-737
450.040	-463
450.110	-586
450.181	-461
450.251	-1250
450.322	-1145
450.392	-536
450.463	-920
450.533	-898
450.604	-1409
450.674	-544
450.744	-1
450.815	-674
450.885	-656
450.955	63
451.026	-740
451.096	-377
451.166	-463
451.237	187
451.307	362
451.377	1264
451.447	-555
451.518	-329
451.588	-795
451.658	-484
451.728	-756
451.799	721
451.869	839
451.939	-141
452.009	-1258
452.079	-1051
452.149	-507
452.219	114
452.289	191
452.360	867
452.430	-12
452.500	-716
452.570	364
452.640	2251
452.710	8060
452.780	15561
452.850	11231
452.920	5145
452.990	1282
453.060	1361
453.129	-861
453.199	-129
453.269	-173
453.339	3865
453.409	7911
453.479	5465
453.549	7653
453.619	9544
453.688	5638
453.758	1548
453.828	-1024
453.898	36
453.968	-764
454.037	167
454.087	-172
454.107	-332
454.168	-385
454.177	-418
454.247	-1247
454.249	-1190
454.316	-350
454.330	-376
454.386	-613
454.411	-425
454.456	-270
454.492	117
454.525	426
454.574	359
454.595	312
454.655	-907
454.665	-1125
454.734	-232
454.736	-210
454.804	-549
454.817	-231
454.873	689
454.898	1071
454.943	1524
454.979	1239
455.013	1046
455.060	504
455.082	272
455.141	208
455.152	208
455.221	1490
455.222	1570
455.291	3976
455.303	4099
455.360	4399
455.384	6773
455.430	9021
455.465	8764
455.499	8748
455.546	4571
455.569	2677
455.627	1895
455.638	1761
455.707	523
455.708	543
455.777	210
455.789	169
455.846	-123
455.869	54
455.916	188
455.950	213
455.985	307
456.031	-166
456.054	-428
456.112	202
456.124	275
456.193	829
456.193	807
456.262	569
456.274	611
456.332	707
456.355	738
456.401	578
456.436	615
456.470	697
456.516	631
456.540	530
456.597	209
456.609	101
456.678	1265
456.678	1247
456.747	585
456.759	743
456.817	1311
456.840	1238
456.886	1143
456.920	1567
456.955	1911
457.001	1705
457.024	1614
457.082	1965
457.093	1999
457.162	2151
457.163	2179
457.232	2728
457.243	2699
457.301	2171
457.324	2146
457.370	2324
457.405	2279
457.439	2223
457.485	2600
457.508	2815
457.566	3550
457.577	3789
457.646	5493
457.647	5543
457.715	12046
457.727	13538
457.784	28811
457.808	36737
457.853	45362
457.889	56294
457.922	51761
457.969	37183
457.991	41079
458.050	47198
458.060	50378
458.129	81349
458.130	82612
458.198	78399
458.211	74969
458.267	50240
458.292	34370
458.336	24543
458.372	19686
458.405	22865
458.453	32312
458.474	44572
458.533	83459
458.543	87331
458.611	131318
458.614	133323
458.680	85798
458.694	69933
458.749	42081
458.775	27946
458.818	15815
458.855	11594
458.887	9287
458.936	7224
458.955	6437
459.016	5653
459.024	5591
459.093	4884
459.097	4876
459.162	4508
459.177	4457
459.230	4140
459.257	4198
459.299	4565
459.338	4754
459.368	4717
459.418	4474
459.437	4327
459.499	4166
459.505	4106
459.574	4018
459.579	3922
459.643	2955
459.659	3129
459.711	3835
459.740	3933
459.780	3845
459.820	3868
459.849	4021
459.900	4334
459.917	4349
459.981	4397
459.986	4387
460.054	3980
460.061	4062
460.123	4694
460.141	4637
460.191	4834
460.222	5146
460.260	5433
460.302	5598
460.328	5442
460.382	5360
460.397	5477
460.462	5552
460.465	5633
460.534	8592
460.543	8837
460.602	22463
460.623	27852
460.671	50056
460.703	66125
460.739	57769
460.783	50173
460.808	41909
460.864	13064
460.876	12000
460.944	5750
460.945	5684
461.013	4544
461.024	4493
461.081	4215
461.104	4299
461.150	4591
461.184	4501
461.218	4581
461.264	4891
461.286	4800
461.345	4401
461.355	4329
461.423	4394
461.425	4381
461.491	4056
461.505	4112
461.559	5271
461.585	5603
461.628	7181
461.665	8960
461.696	9856
461.745	11250
461.764	9850
461.825	4875
461.832	4860
461.901	4611
461.905	4620
461.969	4587
461.985	4542
462.037	4450
462.065	4358
462.105	4493
462.145	4892
462.173	5596
462.225	6638
462.241	7087
462.305	9184
462.310	9045
462.378	6713
462.385	6429
462.446	5513
462.465	5228
462.514	5222
462.545	5327
462.582	5201
462.625	4673
462.650	4514
462.705	4581
462.718	4727
462.785	5495
462.786	5499
462.854	5147
462.865	5145
462.922	6606
462.945	7213
462.990	6309
463.025	5427
463.058	5207
463.104	4960
463.126	4832
463.184	4408
463.194	4459
463.262	4679
463.264	4698
463.330	4717
463.344	4692
463.398	5430
463.424	5620
463.466	5104
463.504	4846
463.533	5124
463.583	5403
463.601	5509
463.663	5988
463.669	6010
463.737	6307
463.743	6317
463.805	7656
463.823	7977
463.873	9655
463.903	10891
463.940	12106
463.982	13063
464.008	11110
464.062	7137
464.076	6865
464.142	5581
464.144	5593
464.211	5541
464.221	5571
464.279	5758
464.301	5783
464.347	5963
464.381	5953
464.414	6005
464.461	6246
464.482	6443
464.540	6881
464.550	6902
464.617	7084
464.620	7071
464.685	6226
464.699	6087
464.753	8017
464.779	8840
464.820	9540
464.859	10269
464.888	9992
464.938	9440
464.956	9436
465.018	9438
465.023	9402
465.091	8439
465.098	8350
465.158	8363
465.177	8296
465.226	8142
465.257	8123
465.293	8208
465.336	8105
465.361	8110
465.416	8337
465.428	8563
465.495	9423
465.496	9462
465.563	12795
465.575	13335
465.631	15272
465.654	16153
465.698	12467
465.734	9278
465.765	8812
465.813	7981
465.833	8003
465.893	8100
465.900	8110
465.968	8128
465.972	8100
466.035	8204
466.052	8252
466.102	8131
466.131	8006
466.170	7941
466.210	7860
466.237	8140
466.290	8574
466.304	8546
466.369	8365
466.372	8376
466.439	8097
466.449	8052
466.506	8197
466.528	8195
466.573	9392
466.607	10323
466.641	12424
466.687	15228
466.708	16768
466.766	20902
466.775	19838
466.842	11571
466.845	11152
466.909	9792
466.925	9438
466.977	10084
467.004	10416
467.044	10129
467.083	9766
467.111	11077
467.163	13501
467.178	13611
467.242	13903
467.245	13870
467.312	12530
467.321	12324
467.379	11977
467.400	11811
467.446	12274
467.480	12564
467.559	12196
467.638	11683
467.717	11891
467.796	12088
467.875	12662
467.955	13693
468.034	14616
468.113	23238
468.192	31865
468.271	21505
468.350	22964
468.429	32387
468.508	34811
468.588	25114
468.667	17454
468.746	15173
468.825	13498
468.904	11934
468.983	12395
469.062	13446
469.141	14437
469.220	10815
469.299	11032
469.378	11122
469.456	13850
469.535	12709
469.614	12314
469.693	12657
469.772	12981
469.851	14467
469.930	13977
470.009	11976
470.088	13107
470.166	15177
470.245	21137
470.324	27335
470.403	21932
470.482	15701
470.560	12413
470.639	11341
470.718	12059
470.797	12059
470.875	11080
470.954	12029
471.033	12731
471.111	9720
471.190	10842
471.269	9968
471.347	9353
471.426	10176
471.505	11791
471.583	12546
471.662	12397
471.740	11184
471.819	11107
471.898	11027
471.976	10814
472.055	10053
472.133	11432
472.212	12973
472.290	12285
472.369	10704
472.447	10289
472.526	9349
472.604	10558
472.683	9939
472.761	10503
472.839	9609
472.918	10232
472.996	10540
473.075	11550
473.153	10719
473.231	9684
473.310	10722
473.388	10944
473.466	11354
473.545	11470
473.623	11929
473.701	11987
473.780	11037
473.858	10790
473.936	10354
474.014	10369
474.093	11531
474.171	13327
474.249	15021
474.327	12045
474.405	10755
474.484	10211
474.562	9472
474.640	9522
474.718	9598
474.796	9570
474.874	9626
474.952	9113
475.030	9617
475.108	9612
475.187	9465
475.265	9217
475.343	9700
475.421	11086
475.499	9422
475.577	9850
475.655	10822
475.733	14041
475.811	18976
475.889	17630
475.966	15369
476.044	9683
476.122	9415
476.200	10071
476.278	9102
476.356	9414
476.434	9482
476.512	9589
476.590	9831
476.667	10170
476.745	8514
476.823	9671
476.901	9293
476.979	9769
477.056	8129
477.134	9838
477.212	9926
477.290	8653
477.367	8907
477.445	7844
477.523	8995
477.601	8997
477.678	8065
477.756	8840
477.834	8748
477.911	8413
477.989	8924
478.066	9246
478.144	9104
478.222	8588
478.299	9672
478.377	10209
478.454	9512
478.532	8379
478.609	7872
478.687	9082
478.764	8633
478.842	8344
478.919	9086
478.997	9005
479.074	8682
479.152	8927
479.229	9907
479.307	7809
479.384	8118
479.461	8022
479.539	8696
479.616	9219
479.694	8141
479.771	8363
479.848	7928
479.926	9635
480.003	10193
480.080	9478
480.157	8429
480.235	7934
480.312	8338
480.389	8763
480.467	10125
480.544	12677
480.621	9675
480.698	9817
480.775	10365
480.853	10256
480.930	9967
481.007	9512
481.084	10452
481.161	13894
481.238	12016
481.315	8666
481.392	8746
481.470	8942
481.547	8906
481.624	9023
481.701	8927
481.778	9265
481.855	9957
481.932	11004
482.009	14517
482.086	13869
482.163	12604
482.240	13888
482.317	13779
482.393	12319
482.470	11617
482.547	11498
482.624	10119
482.701	10572
482.778	10305
482.855	10496
482.932	9845
483.009	10593
483.085	12531
483.162	15475
483.239	16363
483.316	14836
483.393	13920
483.469	12674
483.546	11431
483.623	11340
483.699	8735
483.776	9143
483.853	10559
483.930	10822
484.006	16107
484.083	26350
484.160	21694
484.236	33590
484.313	27653
484.389	23266
484.466	21764
484.543	22554
484.619	25808
484.696	28025
484.772	23698
484.849	21301
484.925	19237
485.002	18538
485.078	18922
485.155	17726
485.231	17260
485.308	17279
485.384	16904
485.461	17693
485.537	20510
485.614	23574
485.690	16171
485.766	16126
485.843	15359
485.919	15828
485.995	17276
486.072	14603
486.148	15043
486.224	14444
486.301	14697
486.377	15898
486.453	16893
486.530	15974
486.606	21893
486.682	23167
486.758	22460
486.835	22772
486.911	19683
486.987	25842
487.063	23593
487.139	23840
487.215	25534
487.292	23375
487.368	23573
487.444	28155
487.520	36898
487.596	54130
487.672	95269
487.748	275809
487.824	536268
487.900	222791
487.976	61455
488.052	36266
488.128	27390
488.204	22448
488.280	18738
488.356	18893
488.432	22703
488.508	30736
488.584	18711
488.660	15149
488.736	15880
488.812	15046
488.888	16419
488.964	16675
489.039	18484
489.115	22322
489.191	19140
489.267	15482
489.343	14191
489.418	13938
489.494	13097
489.570	12607
489.646	13731
489.722	12643
489.797	13802
489.873	14900
489.949	21801
490.024	22478
490.100	12342
490.176	13639
490.251	12101
490.327	13963
490.403	12083
490.478	12570
490.554	11097
490.629	11342
490.705	11145
490.781	12246
490.856	11626
490.932	12539
491.007	11980
491.083	12793
491.158	11568
491.234	11963
491.309	17330
491.385	18995
491.460	11022
491.536	12222
491.611	11241
491.686	10119
491.762	10729
491.837	11649
491.913	16218
491.988	18162
492.063	21473
492.139	13096
492.214	11995
492.289	9678
492.365	8724
492.440	10760
492.515	9967
492.590	10487
492.666	9479
492.741	10210
492.816	12580
492.891	10082
492.967	10442
493.042	10430
493.117	10416
493.192	10615
493.267	13705
493.342	35020
493.418	59628
493.493	16219
493.568	9846
493.643	8552
493.718	10037
493.793	10983
493.868	10992
493.943	8858
494.018	8279
494.093	8792
494.168	8656
494.243	8292
494.318	8724
494.393	8458
494.468	8718
494.543	8730
494.618	9087
494.693	9061
494.768	8099
494.842	9344
494.917	7970
494.992	8885
495.067	8578
495.142	8657
495.217	9215
495.292	8011
495.366	8845
495.441	9492
495.516	9973
495.591	9224
495.665	14303
495.740	27111
495.815	17227
495.890	9876
495.964	8021
496.039	9527
496.114	9781
496.188	13839
496.263	12976
496.338	8358
496.412	9488
496.487	10566
496.561	8780
496.636	9121
496.710	9095
496.785	9550
496.860	10077
496.934	8764
497.009	8347
497.083	8546
497.158	9367
497.232	9524
497.307	10788
497.381	9815
497.455	9870
497.530	11376
497.604	9443
497.679	8821
497.753	11444
497.827	13045
497.902	12160
497.976	14370
498.050	24292
498.125	93299
498.199	123787
498.273	18366
498.348	10860
498.422	10679
498.496	10581
498.570	11562
498.645	9898
498.719	9166
498.793	10598
498.867	13700
498.941	17395
499.016	34119
499.090	115335
499.164	51937
499.238	9833
499.312	9020
499.386	10391
499.460	10507
499.534	10946
499.609	11491
499.683	14186
499.757	12492
499.831	18118
499.905	64077
499.979	80258
500.053	13737
500.127	13098
500.201	9765
500.275	8906
500.349	9600
500.422	10241
500.496	11777
500.570	16438
500.644	33874
500.718	81520
500.792	22975
500.866	9233
500.940	10446
501.013	9647
501.087	8167
501.161	9749
501.235	12491
501.309	21494
501.382	54923
501.456	61528
501.530	14986
501.603	21541
501.677	12356
501.751	7800
501.825	9220
501.898	10954
501.972	24375
502.046	20525
502.119	8172
502.193	11177
502.266	27220
502.340	17264
502.413	12600
502.487	24632
502.561	16529
502.634	8517
502.708	7711
502.781	7310
502.855	7071
502.928	6742
503.002	6951
503.075	6834
503.149	7559
503.222	6627
503.295	8199
503.369	7867
503.442	10260
503.516	17413
503.589	45038
503.662	36938
503.736	17335
503.809	30347
503.882	33080
503.956	45765
504.029	69694
504.102	143547
504.175	265612
504.249	122398
504.322	42568
504.395	24516
504.468	15707
504.542	12184
504.615	9760
504.688	8996
504.761	7902
504.834	7983
504.907	7888
504.980	8635
505.053	6912
505.127	5503
505.200	7842
505.273	7349
505.346	5917
505.419	6286
505.492	6589
505.565	5833
505.638	5122
505.711	5462
505.784	5620
505.857	4573
505.930	5616
506.003	4647
506.076	6188
506.149	6181
506.221	6337
506.294	6766
506.367	10215
506.440	29192
506.513	21699
506.586	6700
506.659	5456
506.731	5260
506.804	5084
506.877	5286
506.950	5927
507.022	5341
507.095	4747
507.168	6019
507.241	5037
507.313	3770
507.386	3932
507.459	5562
507.531	4793
507.604	4708
507.677	5460
507.749	4020
507.822	5043
507.894	8741
507.967	12029
508.040	8944
508.112	7908
508.185	7902
508.257	7061
508.330	8066
508.402	7053
508.475	7495
508.547	7106
508.620	7014
508.692	9132
508.765	8031
508.837	6541
508.909	7128
508.982	5656
509.054	6146
509.127	6282
509.199	5943
509.271	6555
509.344	6076
509.416	6010
509.488	6058
509.560	6722
509.633	7518
509.705	6470
509.777	6536
509.849	7316
509.922	6947
509.994	7992
510.066	7607
510.138	7427
510.210	12912
510.283	13038
510.355	9892
510.427	9398
510.499	8339
510.571	7032
510.643	7134
510.715	9017
510.787	7786
510.859	8436
510.931	8141
511.003	7682
511.076	9110
511.148	8099
511.219	8107
511.291	9627
511.363	11005
511.435	7961
511.507	7356
511.579	7011
511.651	7302
511.723	7023
511.795	6441
511.867	7508
511.939	7754
512.010	9919
512.082	9530
512.154	6527
512.226	7477
512.298	9171
512.369	12181
512.441	10541
512.513	8863
512.585	8183
512.656	7931
512.728	8491
512.800	7502
512.871	8050
512.943	7401
513.015	7425
513.086	6692
513.158	7707
513.230	7940
513.301	8114
513.373	7941
513.444	7855
513.516	7868
513.588	7257
513.659	7373
513.731	7328
513.802	6467
513.874	8562
513.945	9655
514.016	7275
514.088	7127
514.159	6845
514.231	7365
514.302	11251
514.374	9604
514.445	9030
514.516	12019
514.588	11602
514.659	8013
514.730	10631
514.802	9922
514.873	6435
514.944	8591
515.016	8234
515.087	7627
515.158	8591
515.229	11027
515.301	8033
515.372	8423
515.443	7328
515.514	7744
515.585	7609
515.656	8704
515.728	8503
515.799	7411
515.870	8369
515.941	8688
516.012	8780
516.083	10051
516.154	11293
516.225	11480
516.296	12657
516.367	13761
516.438	14771
516.509	19915
516.580	27689
516.651	63325
516.722	266317
516.793	154618
516.864	27859
516.935	23653
517.006	29864
517.077	38916
517.148	71285
517.219	265713
517.289	589769
517.360	131593
517.431	37370
517.502	18066
517.573	14950
517.643	14337
517.714	14974
517.785	15917
517.856	16017
517.926	21393
517.997	24724
518.068	33733
518.138	45695
518.209	67757
518.280	178735
518.350	678839
518.421	443299
518.492	64773
518.562	41823
518.633	46202
518.703	59739
518.774	107782
518.845	272423
518.915	333333
518.986	106664
519.056	43497
519.127	29952
519.197	27688
519.268	40099
519.338	34574
519.408	14725
519.479	11946
519.549	11726
519.620	10849
519.690	10069
519.760	9532
519.831	8453
519.901	8134
519.971	9241
520.042	9319
520.112	8910
520.182	9474
520.253	9807
520.323	7380
520.393	9092
520.463	12659
520.534	8631
520.604	14377
520.674	9834
520.744	9153
520.814	14275
520.885	14955
520.955	13474
521.025	38546
521.095	23811
521.165	8791
521.235	8328
521.305	7155
521.375	7411
521.445	7998
521.515	7182
521.585	7959
521.655	7491
521.725	8060
521.795	7901
521.865	6723
521.935	9143
522.005	8287
522.075	6832
522.145	7672
522.215	7638
522.285	9943
522.355	9701
522.424	13596
522.494	13264
522.564	9296
522.634	9701
522.704	13724
522.774	10555
522.843	7477
522.913	6819
522.983	7881
523.053	7788
523.122	6791
523.192	7842
523.262	9141
523.331	10359
523.401	7603
523.471	6512
523.540	7303
523.610	6434
523.680	7156
523.749	7938
523.819	8536
523.888	8666
523.958	7811
524.027	7466
524.097	6860
524.166	7384
524.236	6465
524.305	7740
524.375	6439
524.444	6672
524.514	8337
524.583	8224
524.653	7569
524.722	8190
524.791	7744
524.861	8293
524.930	7766
524.999	7682
525.069	8149
525.138	7912
525.207	8749
525.277	9594
525.346	8041
525.415	9321
525.484	9834
525.554	11611
525.623	13081
525.692	15288
525.761	18750
525.830	23615
525.900	32068
525.969	50394
526.038	96428
526.107	162092
526.176	526044
526.245	549340
526.314	154301
526.383	236977
526.452	432407
526.522	455979
526.591	629223
526.660	110831
526.729	56872
526.797	61066
526.867	82190
526.935	188667
527.004	694803
527.073	689425
527.142	95941
527.211	35627
527.280	22904
527.349	17583
527.418	13325
527.487	11611
527.555	10288
527.624	9465
527.693	8751
527.762	9267
527.831	8334
527.899	8646
527.968	7732
528.037	7111
528.106	8327
528.174	8621
528.243	8282
528.312	8204
528.380	9022
528.449	7590
528.518	7872
528.586	5866
528.655	6707
528.723	7319
528.792	6234
528.861	7293
528.929	7297
528.998	9318
529.066	10550
529.135	20401
529.203	19181
529.272	24874
529.340	32912
529.409	29578
529.477	25804
529.545	26866
529.614	27474
529.682	33516
529.751	38554
529.819	37130
529.887	44604
529.956	41931
530.024	37941
530.092	35973
530.161	35438
530.229	35092
530.297	39941
530.365	39545
530.434	39591
530.502	43403
530.570	38228
530.638	33163
530.707	31964
530.775	29693
530.843	30292
530.911	35574
530.979	34079
531.047	40007
531.115	39257
531.183	34983
531.252	32995
531.320	30571
531.388	31351
531.456	35766
531.524	39506
531.592	39870
531.660	45516
531.728	41646
531.796	39211
531.864	39248
531.932	37666
532.000	38457
532.067	41490
532.135	44147
532.203	44498
532.271	49410
532.339	47844
532.407	47467
532.475	45837
532.542	42902
532.610	42364
532.678	44077
532.746	50649
532.814	62907
532.881	53699
532.949	46436
533.017	43880
533.084	40858
533.152	39133
533.220	39747
533.287	39676
533.355	42713
533.423	41511
533.490	44607
533.558	42181
533.625	39954
533.693	38952
533.761	37691
533.828	37334
533.896	35982
533.963	41740
534.031	42031
534.098	44490
534.166	42787
534.233	39866
534.300	39470
534.368	38953
534.435	36852
534.503	37586
534.570	41044
534.637	43406
534.705	49456
534.772	53881
534.840	71179
534.907	199661
534.974	385778
535.041	75453
535.109	37804
535.176	32348
535.243	33601
535.310	31925
535.378	33179
535.445	29670
535.512	28686
535.579	27807
535.646	26816
535.714	26798
535.781	28669
535.848	29001
535.915	30177
535.982	29807
536.049	30570
536.116	28025
536.183	26005
536.250	23420
536.317	23872
536.384	24806
536.451	22930
536.518	24113
536.585	24498
536.652	26513
536.719	24943
536.786	22636
536.853	21490
536.920	23016
536.987	22418
537.053	21579
537.120	26941
537.187	29311
537.254	22739
537.321	21482
537.388	23842
537.454	20211
537.521	19890
537.588	19553
537.654	19893
537.721	21079
537.788	21548
537.855	20644
537.921	20021
537.988	20744
538.055	19577
538.121	17888
538.188	17553
538.254	17675
538.321	17926
538.388	18620
538.454	18489
538.521	18834
538.587	19178
538.654	18284
538.720	19231
538.787	18450
538.853	17962
538.920	17435
538.986	16643
539.053	16130
539.119	16983
539.185	16632
539.252	17212
539.318	17940
539.385	20213
539.451	18259
539.517	17626
539.583	16856
539.650	17370
539.716	21423
539.782	16935
539.849	15438
539.915	15463
539.981	16567
540.047	16427
540.114	15524
540.180	15676
540.246	16173
540.312	17501
540.378	17113
540.444	17540
540.510	16767
540.576	21439
540.643	17848
540.709	14991
540.775	16012
540.841	15258
540.907	15218
540.973	17333
541.039	16340
541.105	15822
541.171	16706
541.237	15882
541.303	16835
541.369	15881
541.435	16643
541.500	16346
541.566	14378
541.632	13580
541.698	13363
541.764	15104
541.830	14710
541.896	13930
541.961	14219
542.027	14185
542.093	14939
542.159	15353
542.224	14190
542.290	16699
542.356	15424
542.421	16336
542.487	14073
542.553	13445
542.618	13956
542.684	14311
542.750	13770
542.815	14878
542.881	14440
542.947	19034
543.012	19022
543.078	13554
543.143	14170
543.209	14265
543.274	13599
543.340	13836
543.405	14714
543.471	17038
543.536	14254
543.602	15009
543.667	14122
543.732	14819
543.798	14242
543.863	15043
543.928	14669
543.994	13608
544.059	14097
544.124	14339
544.190	14432
544.255	15045
544.320	14576
544.386	14697
544.451	16533
544.516	16509
544.581	14995
544.646	17084
544.712	20896
544.777	17421
544.842	15816
544.907	15390
544.972	16193
545.037	16206
545.102	16177
545.168	16826
545.233	16132
545.298	17434
545.363	17349
545.428	17949
545.493	19531
545.558	20035
545.623	19015
545.688	16697
545.753	18872
545.818	18776
545.883	19425
545.947	20230
546.012	20123
546.077	21082
546.142	22372
546.207	22337
546.272	24093
546.337	24671
546.401	25793
546.466	26455
546.531	26584
546.596	28734
546.661	29973
546.725	31710
546.790	32012
546.855	35258
546.919	38200
546.984	43931
547.049	45967
547.113	51589
547.178	57230
547.243	64032
547.307	73429
547.372	83149
547.436	84382
547.501	87288
547.565	94983
547.630	90011
547.695	83720
547.759	85552
547.823	84489
547.888	85963
547.952	90310
548.017	93406
548.081	97093
548.146	96427
548.210	96369
548.274	102356
548.339	103387
548.403	93554
548.468	88402
548.532	86328
548.596	88770
548.660	88506
548.725	95331
548.789	105122
548.853	104699
548.917	97652
548.982	96159
549.046	87580
549.110	78051
549.174	78476
549.238	89859
549.303	100316
549.367	105379
549.431	101068
549.495	94139
549.559	93796
549.623	105118
549.687	120752
549.751	116345
549.815	134554
549.879	145109
549.943	133680
550.007	139219
550.071	140441
550.135	127878
550.199	119101
550.263	118336
550.327	112824
550.391	114380
550.455	124656
550.519	131262
550.582	138938
550.646	157444
550.710	162924
550.774	158476
550.838	161078
550.901	165898
550.965	175034
551.029	182435
551.093	197880
551.156	212182
551.220	236127
551.284	265224
551.347	221560
551.411	185148
551.475	175987
551.538	173879
551.602	166277
551.666	155152
551.729	148185
551.793	141814
551.856	141995
551.920	137453
551.983	137817
552.047	135841
552.110	135443
552.174	136875
552.237	141125
552.301	134195
552.364	127945
552.428	121780
552.491	123845
552.554	130813
552.618	128375
552.681	132337
552.745	128353
552.808	134752
552.871	151466
552.934	143416
552.998	132022
553.061	127612
553.124	123973
553.187	121916
553.251	125770
553.314	126547
553.377	128680
553.440	137611
553.503	151579
553.567	177445
553.630	144015
553.693	135829
553.756	135257
553.819	135020
553.882	131019
553.945	129781
554.008	131814
554.071	130507
554.134	133697
554.197	127792
554.260	121466
554.323	125312
554.386	125617
554.449	130229
554.512	132514
554.575	125937
554.638	125421
554.701	122417
554.764	123373
554.827	119824
554.889	115997
554.952	110572
555.015	106819
555.078	107323
555.141	110507
555.203	106796
555.266	106001
555.329	106691
555.391	101689
555.454	101539
555.517	98073
555.580	93051
555.642	91422
555.705	89268
555.768	89926
555.830	87274
555.893	82181
555.955	80585
556.018	78113
556.080	77086
556.143	80747
556.206	79714
556.268	76537
556.330	75708
556.393	72338
556.455	72429
556.518	70598
556.580	69988
556.643	65409
556.705	63515
556.767	61954
556.830	62763
556.892	61115
556.955	60313
557.017	58612
557.079	58306
557.142	56818
557.204	55709
557.266	55482
557.328	53344
557.391	48704
557.453	46732
557.515	47079
557.577	47478
557.639	47532
557.701	48872
557.764	47483
557.826	49761
557.888	52517
557.950	55685
558.012	60375
558.074	72290
558.136	117523
558.198	330425
558.260	191849
558.322	56310
558.384	54190
558.446	56554
558.508	61800
558.570	71270
558.632	85079
558.694	110217
558.756	162026
558.818	332661
558.880	867441
558.942	527557
559.003	345611
559.065	258280
559.127	82728
559.189	74462
559.251	83662
559.312	108003
559.374	192295
559.436	593690
559.498	514599
559.559	107245
559.621	78714
559.683	85138
559.744	117112
559.806	274842
559.868	598411
559.929	199351
559.991	84280
560.052	108686
560.114	286657
560.176	285951
560.237	151972
560.299	323428
560.360	116677
560.422	34797
560.483	28736
560.545	26012
560.606	23365
560.667	21894
560.729	20516
560.790	19951
560.852	20783
560.913	20133
560.974	19497
561.036	18804
561.097	19488
561.158	18053
561.220	18808
561.281	17906
561.342	17041
561.403	17370
561.465	17081
561.526	18704
561.587	19739
561.648	16600
561.709	16835
561.771	14620
561.832	15305
561.893	15612
561.954	15323
562.015	14357
562.076	14349
562.137	14775
562.198	14544
562.259	14690
562.320	13657
562.381	15144
562.442	14812
562.503	13967
562.564	13457
562.625	13183
562.686	13007
562.747	13801
562.808	13652
562.869	12662
562.930	13410
562.991	13678
563.051	12792
563.112	12596
563.173	12486
563.234	11728
563.294	12450
563.355	12465
563.416	12190
563.477	12239
563.537	12304
563.598	12758
563.659	12757
563.720	11687
563.780	12213
563.841	11109
563.901	11672
563.962	11278
564.023	11089
564.083	10835
564.144	11324
564.204	11996
564.265	12084
564.325	11713
564.386	12699
564.446	13873
564.507	11011
564.567	10657
564.628	10805
564.688	10486
564.749	10215
564.809	11362
564.869	10670
564.930	10943
564.990	11149
565.050	9918
565.111	10474
565.171	10301
565.231	10728
565.292	11332
565.352	10177
565.412	10824
565.472	9501
565.532	9714
565.593	10746
565.653	10462
565.713	10266
565.773	10910
565.833	10099
565.893	11151
565.953	10391
566.013	10394
566.074	10361
566.134	10000
566.194	10343
566.254	11661
566.314	11050
566.374	9593
566.434	10074
566.494	9951
566.554	9919
566.614	10213
566.673	10389
566.733	10581
566.793	10346
566.853	9916
566.913	9875
566.973	10124
567.033	10599
567.092	9779
567.152	10688
567.212	10684
567.272	11074
567.331	10666
567.391	11009
567.451	10400
567.511	12254
567.570	12073
567.630	11905
567.690	10025
567.749	10600
567.809	10186
567.868	10095
567.928	10574
567.988	10269
568.047	10275
568.107	11008
568.166	10478
568.226	10101
568.285	11255
568.345	11886
568.404	10555
568.464	11511
568.523	10124
568.582	10716
568.642	10767
568.701	10964
568.761	10897
568.820	10955
568.879	12207
568.939	11186
568.998	11228
569.057	11026
569.116	11022
569.176	10651
569.235	9295
569.294	10236
569.353	10197
569.413	9467
569.472	8992
569.531	9447
569.590	9198
569.649	9809
569.708	10111
569.767	10201
569.827	10075
569.886	9254
569.945	9261
570.004	9785
570.063	9408
570.122	9331
570.181	10294
570.240	9066
570.299	10888
570.358	10596
570.417	10479
570.475	10536
570.534	10454
570.593	10087
570.652	10077
570.711	10695
570.770	9953
570.829	9333
570.887	10182
570.946	10502
571.005	10865
571.064	10132
571.122	11421
571.181	10702
571.240	10141
571.299	9593
571.357	10505
571.416	9953
571.475	8870
571.533	10767
571.592	10908
571.650	10559
571.709	11042
571.768	11579
571.826	12591
571.885	11677
571.943	11374
572.002	9976
572.060	9949
572.119	9569
572.177	10520
572.236	8954
572.294	9687
572.352	10543
572.411	10304
572.469	9812
572.528	9662
572.586	10863
572.644	8484
572.703	10561
572.761	9456
572.819	9487
572.877	8522
572.936	8476
572.994	8290
573.052	8564
573.110	8845
573.169	9448
573.227	9856
573.285	9440
573.343	8357
573.401	9114
573.459	9537
573.517	9424
573.576	9661
573.634	10228
573.692	9221
573.750	9864
573.808	9454
573.866	9592
573.924	9157
573.982	8940
574.040	9070
574.098	8578
574.155	8824
574.213	9081
574.271	8586
574.329	9481
574.387	8828
574.445	7737
574.503	7927
574.560	7770
574.618	7786
574.676	7601
574.734	7822
574.792	7678
574.849	7716
574.907	7174
574.965	7180
575.022	6250
575.080	6615
575.138	6408
575.195	6686
575.253	7033
575.311	6377
575.368	6886
575.426	6291
575.483	6740
575.541	7175
575.598	7608
575.656	7528
575.713	5860
575.771	6965
575.828	6965
575.886	6632
575.943	6473
576.001	6795
576.058	6545
576.115	6034
576.173	7751
576.230	7411
576.287	7255
576.345	7244
576.402	7363
576.459	7045
576.517	6991
576.574	6650
576.631	6639
576.688	6089
576.746	6070
576.803	6220
576.860	6604
576.917	5743
576.974	6742
577.031	6606
577.089	6484
577.146	6035
577.203	6171
577.260	6249
577.317	6926
577.374	5764
577.431	5919
577.488	6001
577.545	5916
577.602	5876
577.659	6189
577.716	6185
577.773	6120
577.830	5872
577.886	6873
577.943	5999
578.000	5969
578.057	6288
578.114	7002
578.171	8030
578.227	10011
578.284	9875
578.341	7678
578.398	7378
578.454	6538
578.511	6790
578.568	7260
578.625	7326
578.681	6327
578.738	6876
578.794	6427
578.851	6958
578.908	6051
578.964	7128
579.021	7029
579.077	6212
579.134	6217
579.190	6946
579.247	5838
579.303	5694
579.360	6004
579.416	5502
579.473	6820
579.529	6858
579.586	6993
579.642	6000
579.698	7180
579.755	7727
579.811	7765
579.867	8231
579.924	7394
579.980	8497
580.036	8952
580.093	9750
580.149	12480
580.205	15200
580.261	12690
580.317	10964
580.374	9138
580.430	9612
580.486	8927
580.542	8422
580.598	8257
580.619	8243
580.654	8232
580.692	8973
580.710	9359
580.765	8901
580.767	8898
580.823	9118
580.838	9076
580.879	8990
580.911	8965
580.935	8975
580.984	8908
580.991	8912
581.047	9675
581.057	9575
581.103	9200
581.130	9527
581.159	9879
581.203	9815
581.215	9813
581.270	11184
581.276	11045
581.326	9872
581.349	9577
581.382	9146
581.422	9233
581.438	9290
581.494	9107
581.494	9104
581.550	9750
581.567	9644
581.606	9410
581.640	9464
581.661	9518
581.713	10591
581.717	10685
581.773	10579
581.786	10297
581.829	9382
581.859	9664
581.885	9926
581.932	10097
581.940	10155
581.996	10346
582.004	10308
582.052	9932
582.077	9747
582.107	9646
582.150	10063
582.163	10171
582.219	10510
582.223	10483
582.274	10349
582.296	10487
582.330	10709
582.368	11063
582.386	11211
582.441	10705
582.441	10710
582.497	11148
582.514	11572
582.552	12617
582.587	12251
582.608	11964
582.659	12270
582.663	12299
582.719	12707
582.732	12641
582.774	12528
582.805	12790
582.830	13019
582.877	13091
582.885	13095
582.941	15590
582.950	15715
582.996	16455
583.023	17091
583.052	17791
583.095	19306
583.107	19750
583.162	19095
583.168	19062
583.218	18432
583.240	17353
583.273	15948
583.313	15192
583.328	14857
583.384	13897
583.385	13855
583.439	12687
583.458	12622
583.494	12461
583.531	11694
583.549	11343
583.603	11356
583.605	11353
583.660	11390
583.676	11422
583.715	11578
583.748	11429
583.770	11263
583.820	10593
583.825	10525
583.881	10971
583.893	10874
583.936	10562
583.965	10407
583.991	10294
584.038	10877
584.046	10937
584.101	11515
584.110	11316
584.156	10670
584.183	10970
584.211	11190
584.255	11053
584.266	11018
584.321	12049
584.328	12093
584.376	12151
584.400	11921
584.431	11810
584.472	11869
584.486	11768
584.541	11691
584.545	11742
584.596	13028
584.617	12906
584.651	12356
584.689	11988
584.706	11869
584.761	12557
584.762	12570
584.816	13144
584.834	13052
584.871	12716
584.906	13144
584.926	13388
584.978	13922
584.980	13936
585.035	14357
585.051	14583
585.090	15219
585.123	15785
585.145	16100
585.195	17210
585.200	17302
585.254	19654
585.267	20164
585.309	22291
585.340	24784
585.364	26492
585.412	31644
585.419	32391
585.473	38039
585.484	39671
585.528	46690
585.556	54795
585.583	65043
585.628	94192
585.637	103850
585.692	198277
585.700	224238
585.747	381050
585.772	371330
585.801	300132
585.845	138248
585.856	103058
585.910	42087
585.917	37301
585.965	26970
585.989	23423
586.019	20647
586.061	18719
586.074	18191
586.128	16841
586.133	16720
586.183	15210
586.205	14730
586.237	14014
586.277	13538
586.292	13427
586.346	13222
586.349	13224
586.401	12594
586.421	12355
586.455	12032
586.493	12131
586.509	12169
586.564	12116
586.565	12148
586.618	13282
586.637	13751
586.672	14361
586.709	14537
586.727	14813
586.781	17310
586.781	17290
586.835	14596
586.853	13742
586.889	12066
586.925	11075
586.944	10638
586.996	10204
586.998	10188
587.052	9774
587.068	9708
587.106	9277
587.140	9392
587.161	9649
587.212	9608
587.215	9574
587.269	9814
587.284	9884
587.323	9852
587.356	9727
587.377	9686
587.427	9746
587.431	9742
587.485	9666
587.499	9838
587.539	10253
587.571	10432
587.593	10521
587.643	10565
587.648	10535
587.702	10729
587.715	10792
587.755	11163
587.786	11265
587.810	11235
587.858	11263
587.864	11200
587.917	10855
587.930	10889
587.971	11272
588.001	11269
588.025	11349
588.073	11995
588.079	11969
588.133	11192
588.145	11194
588.187	11662
588.217	12012
588.241	12244
588.288	12746
588.295	12793
588.348	13824
588.360	13921
588.402	13956
588.431	14358
588.456	14634
588.503	15578
588.510	15807
588.564	18135
588.575	18767
588.617	20621
588.646	22056
588.671	23290
588.718	26507
588.725	27012
588.778	32918
588.789	34710
588.832	45594
588.861	56623
588.886	78993
588.932	132964
588.939	145601
588.993	259222
589.004	268837
589.047	192503
589.075	132220
589.100	86822
589.147	31480
589.154	29688
589.207	24197
589.218	23445
589.261	23014
589.290	23320
589.314	23911
589.361	26394
589.368	26763
589.421	31140
589.433	33131
589.475	52332
589.504	69288
589.528	100259
589.576	176251
589.582	179599
589.635	171504
589.647	164214
589.689	77250
589.718	30639
589.742	23997
589.790	15478
589.795	15105
589.849	13461
589.861	13181
589.902	12906
589.932	12669
589.955	12101
590.004	11032
590.009	10944
590.062	10275
590.075	10297
590.115	10340
590.146	10228
590.168	10174
590.218	10274
590.222	10209
590.275	9702
590.289	9635
590.328	10121
590.360	10477
590.381	10299
590.431	10197
590.435	10171
590.488	9941
590.503	10029
590.541	10292
590.574	10497
590.594	10623
590.645	11037
590.647	10977
590.700	10267
590.716	10057
590.753	10555
590.787	11159
590.806	11083
590.859	11115
590.859	11081
590.912	11321
590.930	11462
590.965	11545
591.001	11669
591.018	11628
591.071	11548
591.072	11588
591.124	11255
591.143	11149
591.177	11051
591.214	11088
591.230	11108
591.283	11492
591.285	11540
591.336	11535
591.356	11621
591.389	11584
591.427	11668
591.442	11509
591.495	10954
591.498	10963
591.547	10936
591.569	10980
591.600	10974
591.640	11064
591.653	11020
591.706	10973
591.711	11028
591.759	11659
591.782	12017
591.811	11604
591.853	11184
591.864	11362
591.917	12414
591.924	12626
591.969	12268
591.995	12122
592.022	11735
592.066	11254
592.075	11283
592.127	11837
592.137	12002
592.180	12313
592.208	12573
592.233	12477
592.279	12517
592.285	12556
592.338	13398
592.350	13643
592.390	13328
592.421	13204
592.443	13412
592.491	14068
592.495	13994
592.548	13777
592.562	13778
592.600	13718
592.633	13794
592.653	13619
592.704	13268
592.705	13339
592.775	13193
592.846	13289
592.916	13888
592.987	13890
593.058	14221
593.128	13279
593.199	15081
593.270	14706
593.341	14160
593.411	14962
593.482	15278
593.553	16271
593.623	16501
593.694	15942
593.764	17307
593.835	16133
593.906	17214
593.976	17076
594.047	17443
594.117	18010
594.188	19068
594.258	19448
594.329	18257
594.399	20132
594.470	20238
594.540	20531
594.611	22440
594.681	21485
594.751	22119
594.822	22277
594.892	22627
594.963	23585
595.033	23338
595.103	25527
595.174	25131
595.244	25486
595.314	26600
595.384	27648
595.455	28208
595.525	28819
595.595	29588
595.665	30008
595.736	30196
595.806	29369
595.876	30083
595.946	30356
596.016	32218
596.087	33322
596.157	33636
596.227	32669
596.297	35058
596.367	36079
596.437	39438
596.507	39450
596.577	39961
596.647	40802
596.717	41812
596.787	42738
596.857	43871
596.927	43753
596.997	44876
597.067	44113
597.137	45456
597.207	45508
597.277	46159
597.347	44183
597.417	43825
597.487	43726
597.557	42625
597.626	45163
597.696	46540
597.766	45847
597.836	44806
597.906	41979
597.975	41013
598.045	40626
598.115	42640
598.185	44190
598.254	49424
598.324	53933
598.394	56119
598.464	56873
598.533	55218
598.603	52996
598.672	50367
598.742	50824
598.812	52074
598.881	53129
598.951	53299
599.020	53223
599.090	54846
599.159	57316
599.229	55794
599.299	54504
599.368	53983
599.437	55791
599.507	52620
599.576	49714
599.646	49353
599.715	49607
599.785	48718
599.854	47959
599.924	47489
599.993	48431
600.062	48547
600.132	50125
600.201	51402
600.270	56558
600.340	64180
600.409	61864
600.478	62757
600.547	61509
600.617	63403
600.686	53571
600.755	46541
600.824	45302
600.894	45581
600.963	45629
601.032	45740
601.101	44439
601.170	44146
601.239	44465
601.308	42892
601.378	43594
601.447	43994
601.516	45223
601.585	46898
601.654	47664
601.723	48399
601.792	48065
601.861	50549
601.930	52814
601.999	53479
602.068	54651
602.137	54831
602.206	54154
602.275	55786
602.343	55393
602.412	57364
602.481	57660
602.550	58268
602.619	57792
602.688	60163
602.756	59261
602.825	59391
602.894	60586
602.963	61661
603.032	61953
603.100	64016
603.169	62212
603.238	63236
603.307	62945
603.375	63451
603.444	64065
603.513	65258
603.581	62196
603.650	67867
603.719	63805
603.787	58151
603.856	59938
603.924	60504
603.993	63394
604.061	66411
604.130	67746
604.198	70517
604.267	72451
604.335	72579
604.404	73995
604.472	75636
604.541	75834
604.609	77056
604.678	81101
604.746	79039
604.815	81477
604.883	82581
604.951	80425
605.020	81541
605.088	82265
605.156	79360
605.225	79657
605.293	81551
605.361	79205
605.429	82389
605.498	81371
605.566	83635
605.634	84956
605.702	90643
605.771	89224
605.839	92435
605.907	90992
605.975	87593
606.043	87989
606.111	83543
606.180	85763
606.248	86425
606.316	80861
606.384	84046
606.452	83400
606.520	74202
606.588	76260
606.656	77907
606.724	77172
606.792	73956
606.860	66287
606.928	62252
606.996	57064
607.064	56420
607.132	56913
607.200	59274
607.267	61483
607.335	63335
607.403	64967
607.471	65255
607.539	60064
607.607	63033
607.674	56346
607.742	53692
607.810	53586
607.878	53223
607.946	54033
608.013	55953
608.081	57676
608.149	58527
608.216	59524
608.284	62812
608.352	61462
608.419	62026
608.487	60006
608.555	59867
608.622	59559
608.690	62846
608.757	67497
608.825	73374
608.893	71645
608.960	68550
609.028	64955
609.095	63960
609.163	63431
609.230	60826
609.298	53149
609.365	53695
609.432	56835
609.500	60931
609.567	68639
609.635	79928
609.702	86387
609.769	87118
609.837	76875
609.904	58606
609.971	58180
610.039	63813
610.106	75381
610.173	117296
610.241	268774
610.308	357527
610.375	117401
610.442	70987
610.509	60713
610.577	59111
610.644	57693
610.711	61003
610.778	62379
610.845	63770
610.912	68423
610.980	70422
611.047	72256
611.114	73677
611.181	68130
611.248	68515
611.315	69881
611.382	72583
611.449	75276
611.516	77908
611.583	76897
611.650	77442
611.717	78959
611.784	79488
611.851	82863
611.918	87735
611.984	97414
612.051	122824
612.118	198864
612.185	446472
612.252	654252
612.319	203177
612.386	112094
612.452	99957
612.519	91940
612.586	88312
612.653	88072
612.719	89255
612.786	91550
612.853	85505
612.919	80431
612.986	81719
613.053	78024
613.120	74490
613.186	68753
613.253	69919
613.319	69059
613.386	68344
613.453	70258
613.519	71235
613.586	69483
613.652	70254
613.719	69398
613.785	69825
613.852	72026
613.918	72471
613.985	70525
614.051	75164
614.118	76483
614.184	79561
614.250	72124
614.317	72353
614.383	70954
614.449	72707
614.516	72953
614.582	72865
614.648	72940
614.715	70491
614.781	70671
614.847	69757
614.914	70427
614.980	67536
615.046	67067
615.112	67572
615.179	69573
615.245	70090
615.311	71038
615.377	70733
615.443	72468
615.509	72702
615.575	74090
615.642	75112
615.708	75894
615.774	79670
615.840	82879
615.906	89099
615.972	99910
616.038	132721
616.104	227141
616.170	490834
616.236	832280
616.302	316315
616.368	152498
616.434	120133
616.500	92138
616.565	95149
616.631	119047
616.697	121435
616.763	101800
616.829	127270
616.895	222234
616.961	318400
617.026	183611
617.092	90440
617.158	77776
617.224	73396
617.289	69639
617.355	67125
617.421	62540
617.487	63872
617.552	60512
617.618	59238
617.684	59589
617.749	60156
617.815	58090
617.880	56431
617.946	54961
618.012	56909
618.077	57180
618.143	57675
618.208	54889
618.274	58021
618.339	60787
618.405	56232
618.470	49443
618.536	50038
618.601	48004
618.667	47181
618.732	43921
618.798	42857
618.863	42688
618.928	41853
618.994	41779
619.059	42260
619.124	43025
619.190	43862
619.255	41718
619.320	43186
619.386	41923
619.451	42837
619.516	40649
619.581	40426
619.647	41430
619.712	43517
619.777	42064
619.842	41081
619.907	40904
619.972	41891
620.038	42740
620.103	40136
620.168	40481
620.233	42077
620.298	41171
620.363	41628
620.428	42330
620.493	44662
620.558	44042
620.623	45831
620.688	46062
620.753	46327
620.818	45197
620.883	46827
620.948	47531
621.013	46359
621.078	45359
621.143	45758
621.207	46946
621.272	45943
621.337	45069
621.402	44191
621.467	43453
621.532	43350
621.596	44014
621.661	42853
621.726	41501
621.791	42027
621.855	41305
621.920	41737
621.985	40742
622.049	43623
622.114	43978
622.179	43589
622.243	44152
622.308	44361
622.373	46666
622.437	47680
622.502	45398
622.566	44469
622.631	43795
622.695	43792
622.760	44443
622.824	43903
622.889	44016
622.953	44605
623.018	44891
623.082	47458
623.147	47461
623.211	46307
623.276	45128
623.340	45862
623.404	42997
623.469	42472
623.533	43301
623.597	43901
623.662	41769
623.726	41671
623.790	37905
623.854	35420
623.919	35895
623.983	36123
624.047	37567
624.111	37504
624.176	38948
624.240	39054
624.304	39904
624.368	38418
624.432	38006
624.496	38300
624.560	40820
624.625	42450
624.689	40544
624.753	42513
624.817	42356
624.881	39716
624.945	38551
625.009	35220
625.073	35437
625.137	35368
625.201	38078
625.265	39515
625.329	37452
625.393	37232
625.456	37233
625.520	38087
625.584	38669
625.648	39843
625.712	40208
625.776	42670
625.839	42974
625.903	37650
625.967	30296
626.031	31704
626.095	35318
626.158	40539
626.222	32044
626.286	27328
626.349	25600
626.413	24306
626.477	22401
626.540	23743
626.604	23008
626.668	24382
626.731	22760
626.795	22422
626.858	22860
626.922	22797
626.986	22503
627.049	22786
627.113	22641
627.176	23521
627.240	21291
627.303	22004
627.366	20700
627.430	20998
627.493	20858
627.557	21255
627.620	20816
627.684	21604
627.747	22091
627.810	21634
627.874	19049
627.937	17779
628.000	17764
628.064	18833
628.127	16043
628.190	16038
628.253	15160
628.317	15427
628.380	14489
628.443	13968
628.506	12952
628.569	13420
628.632	11749
628.696	13129
628.759	12001
628.822	11309
628.885	11542
628.948	11569
629.011	11014
629.074	12188
629.137	9928
629.200	10574
629.263	10073
629.326	9638
629.389	10086
629.452	9958
629.515	9604
629.578	9506
629.641	9921
629.704	9586
629.767	9001
629.830	9866
629.892	9421
629.955	9119
630.018	9431
630.081	9141
630.144	9043
630.207	9168
630.269	8825
630.332	9198
630.395	8819
630.458	8994
630.520	7701
630.583	7600
630.646	7719
630.708	8764
630.771	8342
630.834	9617
630.896	8926
630.959	8534
631.021	8869
631.084	8268
631.146	7655
631.209	8607
631.272	8857
631.334	9306
631.397	9445
631.459	9800
631.522	9438
631.584	10227
631.646	10682
631.709	11875
631.771	11975
631.834	11687
631.896	10653
631.958	9775
632.021	10177
632.083	8531
632.145	8940
632.208	8438
632.270	8266
632.332	8610
632.395	8004
632.457	8568
632.519	8139
632.581	9058
632.643	7687
632.706	7961
632.768	7414
632.830	7913
632.892	8088
632.954	8270
633.016	8260
633.078	7973
633.141	7958
633.203	8663
633.265	8006
633.327	7698
633.389	7188
633.451	8724
633.513	7805
633.575	8741
633.637	8115
633.698	8194
633.760	8622
633.822	9608
633.884	8815
633.946	9750
634.008	9885
634.070	10476
634.132	11234
634.193	12476
634.255	13561
634.317	14624
634.379	14847
634.441	13359
634.502	11780
634.564	10301
634.626	9303
634.687	9384
634.749	8109
634.811	8132
634.873	7343
634.934	8353
634.996	7179
635.057	8583
635.119	8205
635.181	8963
635.242	8353
635.304	8460
635.365	9125
635.427	8473
635.488	8546
635.550	8405
635.611	7933
635.673	8452
635.734	9045
635.796	9666
635.857	10206
635.918	11844
635.980	12802
636.041	13900
636.102	15374
636.164	15953
636.225	16255
636.286	14414
636.348	12459
636.409	10496
636.470	9494
636.531	9104
636.593	8640
636.654	7707
636.715	6860
636.776	7746
636.838	6890
636.899	7292
636.960	6914
637.021	6962
637.082	6434
637.143	6793
637.204	6262
637.265	5701
637.326	6472
637.387	6464
637.448	6630
637.509	6379
637.570	6193
637.631	6250
637.692	5784
637.753	6045
637.814	5932
637.875	5979
637.936	6440
637.997	5899
638.058	5126
638.119	5938
638.179	6407
638.240	5394
638.301	5500
638.362	5634
638.423	5538
638.483	5719
638.544	5050
638.605	5545
638.666	5007
638.726	5320
638.787	5239
638.848	5073
638.908	4925
638.969	5038
639.030	5415
639.090	5292
639.151	4876
639.211	5065
639.272	4981
639.332	5297
639.393	5083
639.453	5124
639.514	6500
639.574	5912
639.635	4788
639.695	5047
639.756	4860
639.816	4945
639.877	3822
639.937	4879
639.997	4550
640.058	4968
640.118	4920
640.178	3776
640.239	3739
640.299	4383
640.359	5262
640.420	5481
640.480	5340
640.540	6438
640.600	7113
640.661	7081
640.721	5544
640.781	6259
640.841	6433
640.901	4779
640.961	4974
641.021	5097
641.082	5382
641.142	5153
641.202	4615
641.262	4331
641.322	4677
641.382	4044
641.442	4551
641.502	3528
641.562	5149
641.622	4873
641.682	3988
641.742	5606
641.802	5903
641.861	4614
641.921	4688
641.981	4385
642.041	4158
642.101	4442
642.161	3226
642.221	4103
642.280	3579
642.340	4454
642.400	4145
642.460	4355
642.519	3950
642.579	4455
642.639	4586
642.698	3747
642.758	5526
642.818	4379
642.877	4207
642.937	4416
642.997	4670
643.056	4395
643.116	3406
643.175	4572
643.235	4736
643.294	5132
643.354	4888
643.414	6050
643.473	7059
643.532	8695
643.592	11189
643.651	17748
643.711	29088
643.770	54358
643.830	111256
643.889	307568
643.948	299543
644.008	42639
644.067	14875
644.126	10435
644.186	6818
644.245	6604
644.304	5145
644.363	5612
644.423	4750
644.482	5082
644.541	5169
644.600	4544
644.659	6704
644.719	8986
644.778	11643
644.837	20551
644.896	38427
644.955	94291
645.014	115293
645.073	18351
645.132	7118
645.191	6462
645.250	4607
645.309	6831
645.368	6115
645.427	7934
645.486	9997
645.545	25853
645.604	21554
645.663	5514
645.722	4566
645.781	5863
645.840	5645
645.898	6880
645.957	10784
646.016	16329
646.075	28425
646.134	52297
646.192	107323
646.251	298786
646.310	180396
646.369	24182
646.427	11273
646.486	9257
646.545	6622
646.603	6035
646.662	4725
646.721	4243
646.779	4346
646.838	4242
646.896	5874
646.955	8231
647.014	12111
647.072	21217
647.131	51445
647.189	93466
647.248	17837
647.306	5916
647.365	4047
647.423	3169
647.481	3056
647.540	2047
647.598	3387
647.657	2631
647.715	2741
647.773	3399
647.832	2704
647.890	3110
647.948	1798
648.007	3153
648.065	1509
648.123	2147
648.181	2895
648.240	1621
648.298	2781
648.356	2467
648.414	2610
648.472	2717
648.531	2232
648.589	2189
648.647	1533
648.705	2890
648.763	1988
648.821	2368
648.879	2364
648.937	2983
648.995	3524
649.053	5850
649.111	7495
649.169	13187
649.227	23863
649.285	44109
649.343	113231
649.401	207469
649.459	39370
649.516	8932
649.574	5050
649.632	5982
649.690	8063
649.748	8334
649.806	7689
649.863	16731
649.921	34704
649.979	74606
650.037	19555
650.094	3359
650.152	2214
650.210	2727
650.268	1754
650.325	2138
650.383	2158
650.440	1365
650.498	2025
650.556	1550
650.613	1154
650.671	1698
650.728	1025
650.786	2009
650.843	1247
650.901	2348
650.958	525
651.016	1994
651.073	437
651.131	1388
651.188	484
651.246	899
651.303	228
651.360	1675
651.418	346
651.475	1972
651.532	-235
651.590	924
651.647	-307
651.704	687
651.762	1001
651.819	538
651.876	-633
651.933	491
651.990	797
652.048	509
652.105	883
652.162	917
652.219	254
652.276	453
652.333	61
652.390	1023
652.448	910
652.505	774
652.562	860
652.619	757
652.676	901
652.733	1306
652.790	556
652.847	-368
652.904	695
652.961	228
653.017	-457
653.074	617
653.131	234
653.188	530
653.245	653
653.302	568
653.359	-790
653.415	1300
653.472	387
653.529	324
653.586	-298
653.642	269
653.699	899
653.756	-425
653.813	43
653.869	109
653.926	-309
653.983	710
654.039	-19
654.096	427
654.152	491
654.209	282
654.266	341
654.322	-64
654.379	574
654.435	167
654.492	-200
654.548	746
654.605	-1144
654.661	1731
654.717	51
654.774	180
654.830	465
654.887	754
654.943	-43
655.000	575
655.056	724
655.112	1084
655.168	222
655.225	1143
655.281	814
655.337	568
655.394	-185
655.450	781
655.506	590
655.562	775
655.618	790
655.675	830
655.731	526
655.787	942
655.843	2041
655.899	59
655.955	1977
656.011	1358
656.067	1333
656.123	2137
656.179	2143
656.235	4009
656.291	2030
656.347	3067
656.403	1553
656.459	1761
656.515	1514
656.571	1052
656.627	886
656.683	1023
656.739	1818
656.795	514
656.850	791
656.906	194
656.962	563
657.018	1374
657.074	15
657.129	1289
657.185	1561
657.241	4695
657.297	7586
657.352	2726
657.408	-273
657.464	1144
657.519	573
657.575	-546
657.630	-236
657.686	349
657.742	-817
657.797	-347
657.853	-809
657.908	403
657.964	-160
658.019	-132
658.075	-156
658.130	-92
658.186	-139
658.241	305
658.297	477
658.352	-574
658.407	-239
658.463	-804
658.518	91
658.573	-413
658.629	-308
658.684	562
658.739	-39
658.795	189
658.850	-166
658.905	-308
658.960	-131
659.016	-381
659.071	-164
659.126	-636
659.181	-1197
659.236	21
659.291	241
659.346	-712
659.401	-557
659.457	667
659.512	-387
659.567	647
659.622	-484
659.677	-455
659.732	-775
659.787	-568
659.842	-852
659.897	-311
659.952	124
660.007	-219
660.061	-272
660.116	-901
660.171	-834
660.226	-263
660.281	118
660.336	-489
660.391	26
660.445	-681
660.500	387
660.555	-409
660.610	-1596
660.664	638
660.719	-27
660.774	-292
660.828	-569
660.883	80
660.938	-522
660.992	-694
661.047	-469
661.101	-548
661.156	-624
661.211	51
661.265	-925
661.320	93
661.374	309
661.429	-53
661.483	-749
661.538	-93
661.592	-1055
661.647	29
661.701	-862
661.755	57
661.810	-269
661.864	-607
661.919	-514
661.973	-480
662.027	-533
662.081	-953
662.136	-1338
662.190	-343
662.244	-713
662.299	-150
662.353	-28
662.407	-338
662.461	-371
662.515	553
662.569	-632
662.624	586
662.678	-1024
662.732	-306
662.786	-4
662.840	46
662.894	-1399
662.948	-1102
663.002	-566
663.056	-663
663.110	-717
663.164	-381
663.218	286
663.272	111
663.326	-78
663.380	-654
663.434	408
663.488	-390
663.542	171
663.595	345
663.649	-711
663.703	257
663.757	-128
663.811	-713
663.864	-239
663.918	338
663.972	-496
664.026	318
664.079	-455
664.133	-160
664.187	218
664.240	46
664.294	-307
664.348	-347
664.401	-271
664.455	358
664.508	-111
664.562	308
664.615	-137
664.669	-208
664.722	-471
664.776	37
664.829	-1027
664.883	-182
664.936	-585
664.990	152
665.043	2
665.097	-530
665.150	-267
665.203	205
665.257	-19
665.310	-124
665.363	-34
665.417	-129
665.470	-27
665.523	-371
665.576	-441
665.630	187
665.683	-792
665.736	-251
665.789	635
665.842	-377
665.895	-1275
665.949	646
666.002	-1115
666.055	171
666.108	-158
666.161	-445
666.214	-74
666.267	55
666.320	-877
666.373	755
666.426	-167
666.479	-851
666.532	415
666.585	-346
666.638	387
666.691	185
666.744	364
666.796	-240
666.849	113
666.902	304
666.955	-264
667.008	-261
667.060	-986
667.113	-289
667.166	-324
667.219	322
667.271	-178
667.324	510
667.377	53
667.430	195
667.482	-1070
667.535	625
667.587	4
667.640	74
667.693	-644
667.745	-85
667.798	292
667.850	66
667.903	-508
667.955	-455
668.008	-248
668.060	-578
668.113	-500
668.165	26
668.218	-282
668.270	333
668.322	-1009
668.375	6
668.427	491
668.479	-420
668.532	123
668.584	229
668.636	-720
668.689	-98
668.741	-827
668.793	652
668.845	-265
668.898	-217
668.950	-552
669.002	166
669.054	-665
669.106	-595
669.158	-590
669.211	-208
669.263	-291
669.315	144
669.367	-268
669.419	99
669.471	-53
669.523	14
669.575	522
669.627	81
669.679	-353
669.731	-458
669.783	200
669.835	-143
669.886	-412
669.938	150
669.990	225
670.042	-452
670.094	504
670.146	419
670.197	-128
670.249	1249
670.301	-222
670.353	1959
670.404	1870
670.456	2730
670.508	5322
670.560	9340
670.611	15561
670.663	27398
670.715	51287
670.766	134038
670.818	152143
670.869	34350
670.921	6313
670.972	3464
671.024	1580
671.075	1968
671.127	1628
671.178	938
671.230	860
671.281	1412
671.333	738
671.384	955
671.436	1071
671.487	2215
671.538	3143
671.590	5228
671.641	9359
671.692	15326
671.744	31897
671.795	53994
671.846	26473
671.897	7839
671.949	3543
672.000	2451
672.051	1867
672.102	961
672.153	220
672.204	-7
672.256	-200
672.307	482
672.358	-198
672.409	642
672.460	232
672.511	-15
672.562	-679
672.613	-101
672.664	-640
672.715	-271
672.766	-354
672.817	375
672.868	-513
672.919	1
672.970	-1179
673.021	-36
673.071	-265
673.122	-152
673.173	-150
673.224	132
673.275	53
673.326	-606
673.376	167
673.427	-922
673.478	-363
673.528	-206
673.579	-226
673.630	-171
673.680	-561
673.731	-355
673.782	-897
673.832	-166
673.883	-275
673.934	405
673.984	256
674.035	-405
674.085	-32
674.136	-843
674.186	-588
674.237	173
674.287	-438
674.338	67
674.388	-575
674.438	-382
674.489	557
674.539	-169
674.589	-311
674.640	-119
674.690	302
674.740	-1118
674.791	-219
674.841	143
674.891	-196
674.942	-807
674.992	-796
675.042	-128
675.092	-606
675.142	52
675.193	-865
675.243	-435
675.293	-1267
675.343	-925
675.393	-629
675.443	349
675.493	-178
675.543	-1350
675.593	-502
675.643	-426
675.693	-333
675.743	-416
675.793	-39
675.843	-975
675.893	-442
675.943	-345
675.993	-1004
676.043	-170
676.093	-257
676.142	-1216
676.192	-349
676.242	-804
676.292	-889
676.341	-293
676.391	-13
676.441	-266
676.491	-858
676.540	-764
676.590	-489
676.640	-573
676.689	-849
676.739	-946
676.789	-817
676.838	-1282
676.888	-597
676.937	-696
676.987	-936
677.037	-468
677.086	-705
677.136	-584
677.185	-922
677.235	-936
677.284	-627
677.333	-1261
677.383	-559
677.432	86
677.482	-659
677.531	-783
677.580	-1225
677.630	-477
677.679	-913
677.728	-539
677.778	-33
677.827	291
677.876	-1516
677.925	-1203
677.975	-957
678.024	-633
678.073	-916
678.122	283
678.171	-979
678.220	14
678.269	-398
678.319	-331
678.368	-595
678.417	283
678.466	-73
678.515	-539
678.564	-1310
678.613	-830
678.662	-505
678.711	-354
678.760	-932
678.809	-966
678.857	-978
678.906	-318
678.955	-1477
679.004	-252
679.053	-398
679.102	-1011
679.151	-717
679.199	-670
679.248	-1506
679.297	-588
679.346	-1267
679.394	-800
679.443	-675
679.492	-715
679.540	-860
679.589	-590
679.638	-717
679.686	-1127
679.735	-568
679.784	-464
679.832	-444
679.881	-321
679.929	-1294
679.978	-776
680.026	-1005
680.075	-870
680.123	-668
680.172	-1064
680.220	-497
680.268	-856
680.317	-1121
680.365	-433
680.414	-1723
680.462	-960
680.510	-1491
680.559	-768
680.607	-1170
680.655	-169
680.703	-1016
680.752	-795
680.800	-494
680.848	-615
680.896	-977
680.945	-845
680.993	-1648
681.041	-882
681.089	-1488
681.137	-438
681.185	-1612
681.233	-1123
681.258	-1397
681.281	-1670
681.329	-779
681.377	-1125
681.380	-1082
681.425	-530
681.473	-966
681.502	-732
681.521	-588
681.569	-281
681.617	-351
681.624	-360
681.665	-513
681.713	-753
681.745	-350
681.761	-178
681.809	-994
681.857	-750
681.867	-669
681.904	-427
681.952	-363
681.989	-175
682.000	-144
682.048	-698
682.096	-346
682.111	-364
682.143	-428
682.191	-520
682.233	-400
682.239	-391
682.286	81
682.334	-723
682.354	-342
682.382	132
682.430	-632
682.476	153
682.477	157
682.525	-477
682.572	-550
682.598	-465
682.620	-385
682.667	-242
682.715	216
682.720	236
682.763	289
682.810	-699
682.841	-412
682.857	-274
682.905	-28
682.952	476
682.963	213
683.000	-782
683.047	779
683.085	280
683.095	134
683.142	130
683.190	-464
683.206	-148
683.237	384
683.284	-345
683.328	140
683.332	174
683.379	69
683.426	388
683.449	66
683.473	-276
683.521	895
683.568	24
683.571	71
683.615	602
683.662	222
683.693	584
683.709	727
683.757	206
683.804	573
683.814	452
683.851	42
683.898	714
683.936	193
683.945	59
683.992	521
684.039	503
684.057	301
684.086	-16
684.133	273
684.179	752
684.180	757
684.227	694
684.274	863
684.300	944
684.321	1022
684.368	722
684.415	451
684.422	526
684.462	931
684.509	1050
684.543	756
684.556	629
684.603	1310
684.649	1517
684.665	1313
684.696	869
684.743	912
684.786	605
684.790	577
684.837	1198
684.883	797
684.908	1182
684.930	1532
684.977	453
685.023	1380
685.029	1364
685.070	1205
685.117	1477
685.150	1595
685.164	1585
685.210	1200
685.257	921
685.272	947
685.303	1140
685.350	1141
685.393	1537
685.396	1550
685.443	1244
685.490	1996
685.514	1550
685.536	1149
685.583	1384
685.629	1292
685.636	1360
685.675	1918
685.722	1112
685.757	1672
685.768	1807
685.815	1029
685.861	1562
685.878	1607
685.908	1694
685.954	1380
686.000	1552
686.000	1552
686.047	1449
686.093	1087
686.121	1165
686.139	1273
686.185	1570
686.232	2355
686.242	2180
686.278	1500
686.324	2399
686.363	2035
686.370	1928
686.416	1813
686.463	1440
686.484	1436
686.509	1657
686.555	2144
686.601	2374
686.606	2345
686.647	1798
686.693	2357
686.727	1944
686.739	1821
686.785	2092
686.831	1704
686.848	2012
686.877	2480
686.923	1527
686.969	1906
686.969	1908
687.015	1640
687.061	1949
687.090	2065
687.107	2126
687.153	2415
687.199	1811
687.211	2032
687.245	2716
687.291	2035
687.332	2431
687.336	2441
687.382	2242
687.428	1941
687.453	2010
687.474	2202
687.520	2506
687.565	2108
687.574	2267
687.611	2801
687.657	2581
687.695	2524
687.702	2550
687.748	3094
687.794	3367
687.816	3308
687.839	3179
687.885	3333
687.931	2667
687.937	2776
687.976	3103
688.022	2689
688.058	2278
688.067	2252
688.113	2549
688.158	2537
688.179	2517
688.204	2465
688.249	3098
688.295	2610
688.300	2658
688.340	3050
688.386	3058
688.421	2860
688.431	2789
688.477	2304
688.522	2972
688.542	2854
688.567	2736
688.613	3024
688.658	2850
688.663	2814
688.703	2682
688.749	2820
688.784	2960
688.794	2950
688.839	3087
688.884	2815
688.905	2623
688.930	2522
688.975	3311
689.020	3202
689.026	3179
689.065	2838
689.110	2546
689.146	3064
689.155	3231
689.201	2650
689.246	2801
689.267	2977
689.291	3252
689.336	3332
689.381	3281
689.388	3398
689.426	3772
689.471	2811
689.509	3322
689.516	3449
689.561	3195
689.606	3323
689.630	3167
689.651	3096
689.696	3607
689.741	3650
689.750	3614
689.785	3261
689.830	3191
689.871	3074
689.875	3088
689.920	3223
689.965	3278
689.992	3298
690.010	3273
690.054	3586
690.099	3066
690.112	3098
690.144	3355
690.189	3262
690.233	3736
690.233	3744
690.278	3372
690.323	3333
690.354	3227
690.367	3297
690.412	3610
690.457	3662
690.474	3822
690.501	3974
690.546	3734
690.590	3873
690.595	3828
690.635	3514
690.680	3773
690.716	3630
690.724	3642
690.769	4062
690.813	4185
690.836	4507
690.857	5001
690.902	5218
690.946	6256
690.957	6334
690.991	7426
691.035	9089
691.077	11122
691.080	11375
691.124	15517
691.168	19239
691.198	21732
691.213	20394
691.257	16492
691.301	11950
691.318	10563
691.346	9729
691.390	7798
691.434	5955
691.439	5733
691.478	5076
691.522	4731
691.559	3930
691.567	3932
691.611	4284
691.655	4432
691.680	4541
691.699	4531
691.743	4612
691.787	4413
691.800	4454
691.831	4652
691.875	4349
691.919	4509
691.921	4492
691.964	4234
692.008	4578
692.041	4334
692.052	4293
692.096	4282
692.139	4232
692.162	4367
692.183	4430
692.227	4118
692.271	4147
692.282	4039
692.315	3869
692.359	3973
692.402	4023
692.403	4033
692.447	4230
692.490	3918
692.523	3908
692.534	3906
692.578	3799
692.622	3788
692.643	3635
692.666	3540
692.709	3842
692.753	3287
692.763	3359
692.797	4022
692.840	4345
692.884	4998
692.884	5010
692.928	4612
692.971	4719
693.004	4214
693.015	4134
693.059	4309
693.102	4233
693.124	4279
693.146	4412
693.189	4502
693.233	4704
693.245	4690
693.276	4718
693.320	5201
693.363	5021
693.365	5021
693.407	5305
693.450	5489
693.485	5570
693.493	5710
693.537	6335
693.580	6875
693.605	7065
693.624	7412
693.667	8708
693.710	9678
693.725	10080
693.753	13203
693.797	17885
693.840	23073
693.845	23633
693.883	31198
693.926	39374
693.966	46450
693.970	45638
694.013	36571
694.056	27387
694.086	21255
694.099	19945
694.142	15067
694.185	10723
694.206	8422
694.229	7962
694.272	7456
694.315	6714
694.326	6513
694.358	6232
694.401	5850
694.444	5381
694.446	5341
694.487	5350
694.530	5613
694.566	5702
694.573	5662
694.616	5089
694.659	4860
694.686	4500
694.702	4513
694.745	4791
694.787	5032
694.806	4973
694.830	4969
694.873	5308
694.916	5471
694.926	5508
694.959	5462
695.002	5451
695.044	5310
695.046	5288
695.087	5261
695.130	5367
695.166	5398
695.172	5410
695.215	5459
695.258	5241
695.286	5287
695.301	5355
695.343	5177
695.386	5175
695.406	5175
695.428	5326
695.471	5705
695.514	5819
695.526	5830
695.556	5906
695.599	6369
695.641	6508
695.646	6511
695.684	6723
695.726	7008
695.766	7066
695.769	7060
695.811	6931
695.854	6596
695.886	6512
695.896	6575
695.938	6436
695.981	6472
696.005	6357
696.023	6352
696.065	6652
696.108	6606
696.125	6679
696.150	7016
696.192	7435
696.235	7998
696.245	8041
696.277	7922
696.319	7897
696.361	7799
696.365	7785
696.404	7979
696.446	7977
696.485	7999
696.488	8015
696.530	7823
696.572	7798
696.604	7698
696.614	7749
696.656	7913
696.698	8083
696.724	8079
696.740	7875
696.783	7399
696.825	7058
696.844	6756
696.867	6933
696.909	7406
696.951	7682
696.964	7803
696.992	7759
697.034	7577
697.076	7531
697.083	7462
697.118	7534
697.160	7757
697.202	7840
697.203	7824
697.244	8325
697.286	8570
697.323	8834
697.327	8834
697.369	8549
697.411	8318
697.442	8097
697.453	8154
697.494	8288
697.536	8415
697.562	8522
697.578	8501
697.620	8246
697.661	7994
697.682	7920
697.703	8088
697.744	8289
697.786	8487
697.801	8555
697.828	8700
697.869	8752
697.911	8895
697.921	8902
697.952	8851
697.994	8709
698.035	8633
698.040	8597
698.077	8564
698.118	8452
698.160	8380
698.160	8355
698.201	8330
698.243	8259
698.279	8252
698.284	8333
698.325	8806
698.367	9257
698.399	9602
698.408	9675
698.449	9870
698.491	10089
698.518	10184
698.532	10280
698.573	10512
698.614	10717
698.638	10821
698.656	10644
698.697	10111
698.738	9622
698.757	9355
698.779	9620
698.820	10089
698.862	10529
698.877	10670
698.903	10809
698.944	10970
698.985	11138
698.996	11153
699.026	10781
699.067	10226
699.116	9536
699.235	10173
699.354	10011
699.474	9202
699.593	9974
699.713	9223
699.832	9884
699.951	9134
700.070	9459
700.190	9111
700.309	9261
700.428	8448
700.547	9359
700.667	8352
700.786	8622
700.905	8628
701.024	8304
701.143	8981
701.262	9301
701.381	8027
701.500	9324
701.619	8830
701.738	8853
701.857	8134
701.976	8753
702.095	7832
702.214	8398
702.333	8190
702.452	8075
702.571	8306
702.690	9055
702.809	7739
702.928	8308
703.047	7997
703.165	8249
703.284	8161
703.403	8057
703.522	8007
703.640	7569
703.759	7263
703.878	7612
703.997	6821
704.115	7806
704.234	6793
704.353	8115
704.471	7688
704.590	7264
704.708	6635
704.827	6833
704.946	6591
705.064	7166
705.183	7052
705.301	7080
705.420	7320
705.538	7515
705.656	6834
705.775	6727
705.893	7915
706.012	10359
706.130	8288
706.249	6973
706.367	7052
706.485	7186
706.604	6704
706.722	5812
706.840	6237
706.958	8599
707.077	9616
707.195	6980
707.313	6604
707.431	6500
707.549	6225
707.668	6448
707.786	5263
707.904	6706
708.022	5502
708.140	5604
708.258	5718
708.376	6082
708.494	5430
708.612	5750
708.730	6531
708.848	6505
708.966	6033
709.084	6795
709.202	6845
709.320	6117
709.438	5871
709.556	6176
709.674	5672
709.791	5424
709.909	4861
710.027	5589
710.145	5539
710.263	4863
710.380	4693
710.498	6038
710.616	5156
710.733	5310
710.851	5112
710.969	5185
711.086	5044
711.204	4927
711.322	4947
711.439	5136
711.557	4969
711.674	4675
711.792	4122
711.909	5053
712.027	5124
712.144	5546
712.262	5057
712.379	4960
712.497	5013
712.614	5846
712.732	5493
712.849	5491
712.966	5036
713.084	5934
713.201	5141
713.318	4756
713.436	4750
713.553	6268
713.670	5540
713.787	6396
713.905	5526
714.022	5517
714.139	5784
714.256	7403
714.373	8992
714.490	15189
714.608	31059
714.725	105567
714.842	395116
714.959	162241
715.076	18709
715.193	8540
715.310	7679
715.427	6539
715.544	5526
715.661	5928
715.778	4900
715.895	5685
716.011	4876
716.128	5212
716.245	4670
716.362	5155
716.479	4434
716.596	4230
716.713	4650
716.829	4296
716.946	3535
717.063	4326
717.180	3728
717.296	3978
717.413	3315
717.530	4589
717.646	3212
717.763	4003
717.880	3210
717.996	3859
718.113	3348
718.229	4084
718.346	3285
718.462	3442
718.579	3324
718.695	3941
718.812	3781
718.928	3576
719.045	3296
719.161	4181
719.277	3625
719.394	4545
719.510	3611
719.626	4607
719.743	4706
719.859	7150
719.975	13733
720.092	35416
720.208	157778
720.324	173895
720.440	13489
720.557	5384
720.673	5251
720.789	5071
720.905	4724
721.021	6031
721.137	3588
721.253	4093
721.369	2995
721.486	2999
721.602	3353
721.718	3563
721.834	3041
721.950	3186
722.066	2010
722.181	2887
722.297	2707
722.413	3554
722.529	2858
722.645	3335
722.761	3786
722.877	3139
722.993	2449
723.108	3729
723.224	4982
723.340	3771
723.456	2614
723.571	3055
723.687	2515
723.803	2210
723.918	2384
724.034	3244
724.150	3096
724.265	2773
724.381	2464
724.497	3090
724.612	2739
724.728	2803
724.843	2867
724.959	3101
725.074	2987
725.190	3597
725.305	2364
725.421	2966
725.536	2288
725.651	2972
725.767	2811
725.882	2625
725.997	2109
726.113	2300
726.228	2038
726.343	2103
726.459	1965
726.574	2552
726.689	2030
726.804	2548
726.920	1856
727.035	1997
727.150	2494
727.265	2420
727.380	1851
727.495	2199
727.610	1928
727.725	2497
727.841	2357
727.956	3244
728.071	3861
728.186	2435
728.301	1669
728.416	2318
728.531	1761
728.645	2114
728.760	2277
728.875	2137
728.990	1953
729.105	2111
729.220	2025
729.335	2008
729.449	2184
729.564	1696
729.679	2318
729.794	1941
729.908	2414
730.023	2734
730.138	2080
730.253	2643
730.367	1484
730.482	2493
730.596	1692
730.711	1985
730.826	2931
730.940	4260
731.055	3718
731.169	2626
731.284	3191
731.398	3549
731.513	3255
731.627	3887
731.742	3434
731.856	4264
731.970	5233
732.085	5942
732.199	7724
732.313	13330
732.428	27108
732.542	84063
732.656	198559
732.771	60354
732.885	14298
732.999	8966
733.113	7157
733.227	6944
733.342	5932
733.456	6423
733.570	6175
733.684	5472
733.798	5149
733.912	5192
734.026	5069
734.140	4691
734.254	5311
734.368	4478
734.482	5672
734.596	5951
734.710	4596
734.824	4762
734.938	3654
735.052	4892
735.166	4159
735.280	4905
735.393	4321
735.507	4960
735.621	4315
735.735	4737
735.849	4344
735.962	3943
736.076	3903
736.190	4871
736.303	4676
736.417	4662
736.531	4051
736.644	4635
736.758	3637
736.872	4606
736.985	3687
737.099	4131
737.212	3092
737.326	4567
737.439	3971
737.553	3617
737.666	3571
737.780	3888
737.893	3527
738.007	4068
738.120	3198
738.233	4181
738.347	3156
738.460	3845
738.573	2868
738.687	4162
738.800	4173
738.913	3020
739.026	3656
739.140	2868
739.253	2549
739.366	3618
739.479	3638
739.592	2957
739.705	2488
739.818	3789
739.932	3616
740.045	3174
740.158	3860
740.271	3160
740.384	3300
740.497	2494
740.610	3412
740.723	3621
740.836	3404
740.949	3614
741.062	3025
741.174	3105
741.287	3162
741.400	4231
741.513	3480
741.626	3324
741.739	2833
741.851	2571
741.964	2974
742.077	4133
742.189	3160
742.302	3996
742.415	4973
742.527	3709
742.640	2975
742.753	3245
742.865	2804
742.978	2839
743.090	3246
743.203	2110
743.316	3134
743.428	2681
743.541	1856
743.653	3428
743.766	2390
743.878	3075
743.990	2755
744.103	3169
744.215	4310
744.327	5172
744.440	2830
744.552	3245
744.664	2101
744.777	2799
744.889	2810
745.001	2866
745.113	1509
745.226	3235
745.338	2469
745.450	2637
745.562	2987
745.674	2665
745.786	2049
745.898	2628
746.010	2856
746.122	2143
746.234	2797
746.347	3048
746.459	3419
746.570	2674
746.682	2707
746.794	6678
746.906	6305
747.018	2994
747.130	2097
747.242	2444
747.354	2223
747.466	2410
747.577	2666
747.689	2880
747.801	2387
747.913	2475
748.024	1890
748.136	2125
748.248	2030
748.359	1630
748.471	2557
748.583	2187
748.694	1755
748.806	2495
748.918	2604
749.029	2852
749.141	2271
749.252	2582
749.364	1605
749.475	1798
749.587	2059
749.698	1910
749.809	2353
749.921	2160
750.032	2610
750.144	1464
750.255	1677
750.366	2244
750.478	1836
750.589	1803
750.700	1539
750.811	1823
750.923	2354
751.034	1394
751.145	2025
751.256	1977
751.367	2215
751.479	1876
751.590	1698
751.701	1923
751.812	1231
751.923	1922
752.034	2645
752.145	1842
752.256	1281
752.367	2000
752.478	1788
752.589	1592
752.700	1763
752.811	2223
752.922	1830
753.032	1717
753.143	2031
753.254	1512
753.365	1657
753.476	2328
753.586	1190
753.697	2390
753.808	2067
753.919	1586
754.029	1365
754.140	2115
754.251	1533
754.361	1949
754.472	1786
754.582	2350
754.693	1903
754.804	2394
754.914	1522
755.025	1248
755.135	1243
755.246	1720
755.356	1598
755.466	1713
755.577	1604
755.687	2199
755.798	1222
755.908	1948
756.018	1260
756.129	1936
756.239	1889
756.349	1709
756.460	801
756.570	2691
756.680	1897
756.790	2295
756.900	2267
757.011	1626
757.121	2794
757.231	2005
757.341	1416
757.451	1834
757.561	1305
757.671	1903
757.781	1910
757.891	2187
758.001	1752
758.111	2536
758.221	1041
758.331	2491
758.441	2501
758.551	1817
758.661	1949
758.771	2732
758.880	2343
758.990	2507
759.100	1646
759.210	2447
759.320	1770
759.429	2490
759.539	2877
759.649	2997
759.758	2796
759.868	3925
759.978	3338
760.087	3910
760.197	3604
760.307	3571
760.416	3063
760.526	3161
760.635	3060
760.745	3318
760.854	4039
760.964	4399
761.073	4456
761.182	4356
761.292	4166
761.401	4493
761.511	3414
761.620	3709
761.729	2851
761.839	2631
761.948	3448
762.057	3140
762.166	2218
762.276	3143
762.385	3277
762.494	3027
762.603	3587
762.712	4196
762.822	3075
762.931	3662
763.040	3159
763.149	3438
763.258	3372
763.367	4120
763.476	4642
763.585	4416
763.694	4287
763.803	4760
763.912	4864
764.021	5354
764.130	5538
764.238	5762
764.347	5895
764.456	7578
764.565	6489
764.674	8726
764.783	8419
764.891	9278
765.000	10082
765.109	12270
765.217	13012
765.326	14416
765.435	17551
765.543	20740
765.652	25284
765.761	31976
765.869	41460
765.978	56481
766.086	78811
766.195	116791
766.303	180712
766.412	260176
766.520	253768
766.629	225907
766.737	194863
766.846	132127
766.954	89255
767.062	64394
767.171	47035
767.279	36006
767.387	28092
767.496	22852
767.604	19898
767.712	17721
767.820	14059
767.928	13367
768.037	12034
768.145	11020
768.253	10354
768.361	9792
768.469	9677
768.577	9986
768.685	10009
768.793	11284
768.901	11207
769.009	13474
769.117	14437
769.225	17988
769.333	23468
769.441	34136
769.549	51250
769.657	85068
769.765	152956
769.873	243230
769.981	209842
770.088	171500
770.196	103781
770.304	60950
770.412	41671
770.519	30448
770.627	22683
770.735	18795
770.842	15943
770.950	13289
771.058	11291
771.165	10188
771.273	10155
771.380	8824
771.488	7219
771.595	8624
771.703	7794
771.810	7442
771.918	7068
772.025	6755
772.133	6782
772.240	7155
772.348	6766
772.455	7537
772.562	6385
772.670	6309
772.777	6289
772.884	5480
772.991	5999
773.099	5449
773.206	5285
773.313	4721
773.420	4664
773.528	4842
773.635	4288
773.742	5186
773.849	5027
773.956	4522
774.063	4376
774.170	4350
774.277	4116
774.384	4362
774.491	3806
774.598	3868
774.705	3869
774.812	4080
774.919	3904
775.026	4358
775.133	3594
775.239	3900
775.346	3756
775.453	3857
775.560	3151
775.667	3435
775.773	3129
775.880	3616
775.987	3945
776.093	3485
776.200	3403
776.307	3085
776.413	1806
776.520	3196
776.627	3032
776.733	2979
776.840	3086
776.946	4251
777.053	4891
777.159	9407
777.266	11568
777.372	8048
777.478	11040
777.585	8451
777.691	4020
777.798	2750
777.904	2783
778.010	2358
778.117	2146
778.223	3592
778.329	2044
778.435	2067
778.542	2553
778.648	2769
778.754	1895
778.860	2456
778.966	2083
779.072	2528
779.178	2358
779.284	2500
779.391	1676
779.497	2162
779.603	3737
779.708	3226
779.815	3943
779.920	7740
780.026	25330
780.132	29881
780.238	3748
780.344	2765
780.450	2446
780.556	2532
780.661	2240
780.767	2548
780.873	2213
780.979	1548
781.085	2064
781.190	1942
781.296	1884
781.402	1862
781.507	1878
781.613	1780
781.719	468
781.824	2003
781.930	1729
782.035	2069
782.141	2025
782.246	1820
782.352	2212
782.457	2011
782.563	1704
782.668	1388
782.773	1111
782.879	1231
782.984	931
783.090	1601
783.195	1391
783.300	1725
783.405	1548
783.511	1434
783.616	1436
783.721	2623
783.826	654
783.932	1469
784.037	1286
784.142	1954
784.247	1381
784.352	1818
784.457	1608
784.562	1018
784.667	985
784.772	2105
784.877	1120
784.982	1859
785.087	1636
785.192	1216
785.297	1099
785.402	721
785.507	1616
785.611	1431
785.716	431
785.821	1154
785.926	1223
786.031	1344
786.135	562
786.240	1466
786.345	1287
786.450	383
786.554	906
786.659	1361
786.763	-434
786.868	1234
786.973	239
787.077	644
787.182	378
787.286	813
787.391	861
787.495	1333
787.600	618
787.704	202
787.809	746
787.913	1519
788.017	204
788.122	1287
788.226	-104
788.330	148
788.435	-34
788.539	1696
788.643	783
788.747	920
788.852	1288
788.956	695
789.060	619
789.164	897
789.268	312
789.372	1559
789.476	856
789.580	1615
789.684	231
789.788	926
789.892	691
789.996	1166
790.100	179
790.204	128
790.308	458
790.412	1402
790.516	-169
790.620	1183
790.724	309
790.828	1231
790.931	233
791.035	619
791.139	-172
791.242	711
791.346	477
791.450	668
791.554	801
791.657	151
791.761	371
791.864	1070
791.968	42
792.072	919
792.175	642
792.279	324
792.382	505
792.486	1238
792.589	52
792.693	574
792.796	579
792.899	766
793.003	149
793.106	473
793.209	798
793.313	635
793.416	-267
793.519	227
793.623	12
793.726	1175
793.829	124
793.932	939
794.035	15
794.138	364
794.242	437
794.345	835
794.448	-66
794.551	1841
794.654	3892
794.757	12997
794.860	16978
794.963	2276
795.066	619
795.169	1249
795.272	253
795.375	773
795.477	634
795.580	1165
795.683	-708
795.786	-348
795.889	-865
795.991	977
796.094	127
796.197	-46
796.300	194
796.402	497
796.505	216
796.608	-263
796.710	362
796.813	805
796.915	383
797.018	604
797.120	469
797.223	-333
797.326	572
797.428	42
797.530	-517
797.633	367
797.735	67
797.838	361
797.940	725
798.042	765
798.145	-34
798.247	-182
798.349	-405
798.452	946
798.554	689
798.656	161
798.758	220
798.860	-50
798.962	-91
799.065	-312
799.167	-1376
799.269	765
799.371	20
799.473	863
799.575	148
799.677	722
799.779	300
799.881	-352
799.983	-365
800.085	441
800.187	-442
800.289	-515
800.390	-337
800.492	736
800.594	536
800.696	459
800.798	-801
800.899	-133
801.001	-294
801.103	-626
801.205	-298
801.306	127
801.408	-196
801.509	771
801.611	-26
801.713	50
801.814	-367
801.916	-677
802.017	-33
802.119	-185
802.220	-683
802.322	138
802.423	222
802.525	-269
802.626	6
802.727	-87
802.829	-851
802.930	-731
803.031	-363
803.133	-64
803.234	-593
803.335	-464
803.436	119
803.538	-602
803.639	-1092
803.740	178
803.841	-1103
803.942	283
804.043	-420
804.144	-316
804.245	-789
804.346	-15
804.447	-572
804.548	52
804.649	-149
804.750	337
804.851	-286
804.952	442
805.053	-538
805.154	-402
805.255	-248
805.355	-192
805.456	-80
805.557	-752
805.658	-855
805.758	640
805.859	-108
805.960	-426
806.061	-375
806.161	-86
806.262	194
806.362	-180
806.463	-224
806.564	-414
806.664	-112
806.765	330
806.865	-150
806.966	-220
807.066	-562
807.166	-110
807.267	-599
807.367	89
807.468	-542
807.568	-1285
807.668	-564
807.769	-61
807.869	121
807.969	575
808.069	-760
808.170	-128
808.270	-801
808.370	-99
808.470	-1170
808.570	-528
808.670	-314
808.770	435
808.870	-330
808.970	37
809.070	-1006
809.170	-41
809.271	-452
809.370	-681
809.470	-133
809.570	-648
809.670	-344
809.770	-711
809.870	-515
809.970	640
810.070	-1112
810.169	8
810.269	-1047
810.369	686
810.469	-482
810.568	-586
810.668	-818
810.768	16
810.867	-775
810.967	-504
811.066	-672
811.166	-744
811.265	-363
811.365	734
811.464	-605
811.564	-538
811.663	-490
811.763	-235
811.862	-203
811.962	-569
812.061	-549
812.160	-537
812.260	-363
812.359	-708
812.458	-915
812.557	757
812.657	498
812.756	2428
812.855	124
812.954	-361
813.053	-359
813.153	343
813.252	-1094
813.351	-664
813.450	-563
813.549	173
813.648	-453
813.747	-124
813.846	-470
813.945	103
814.044	-695
814.143	-66
814.242	-660
814.341	393
814.439	-614
814.538	324
814.637	-624
814.736	153
814.835	-536
814.933	-426
815.032	-111
815.131	182
815.229	555
815.328	1822
815.427	1885
815.525	1992
815.624	876
815.722	700
815.821	1003
815.919	1370
816.018	657
816.116	1339
816.215	675
816.313	1351
816.412	1763
816.510	1537
816.609	1450
816.707	1771
816.805	1441
816.904	2312
817.002	1928
817.100	2505
817.198	2046
817.296	2285
817.395	1029
817.493	2172
817.591	1313
817.689	1156
817.787	730
817.885	2120
817.983	1741
818.081	1829
818.179	2419
818.277	3643
818.375	7467
818.473	5647
818.571	2520
818.669	2251
818.767	1835
818.865	3849
818.963	1622
819.061	875
819.158	1149
819.256	2605
819.354	2996
819.452	6482
819.549	11448
819.647	6387
819.745	2084
819.842	1910
819.940	1482
820.038	1336
820.135	1121
820.233	978
820.330	597
820.428	975
820.525	1134
820.623	1363
820.720	243
820.818	1021
820.915	1638
821.012	974
821.110	729
821.207	1755
821.304	1090
821.402	1680
821.499	1579
821.596	3508
821.693	3149
821.791	2150
821.888	1220
821.985	1227
822.082	631
822.179	1443
822.276	2007
822.373	1975
822.470	913
822.567	2039
822.664	492
822.761	649
822.858	988
822.955	1410
823.052	1099
823.149	406
823.246	184
823.343	1216
823.440	1224
823.536	1264
823.633	592
823.730	1009
823.827	469
823.923	934
824.020	1594
824.117	725
824.213	1243
824.310	2510
824.407	774
824.503	-123
824.600	368
824.696	499
824.793	293
824.889	657
824.986	1111
825.082	883
825.179	374
825.275	763
825.371	400
825.468	1946
825.564	584
825.660	539
825.757	194
825.853	1120
825.949	39
826.045	297
826.142	59
826.238	889
826.334	603
826.430	329
826.526	291
826.622	-225
826.718	-200
826.814	634
826.910	1052
827.006	564
827.102	-648
827.198	763
827.294	-211
827.390	731
827.486	-343
827.582	907
827.678	-709
827.774	654
827.869	418
827.965	575
828.061	-866
828.157	112
828.252	-257
828.348	-217
828.444	-54
828.539	483
828.635	326
828.731	481
828.826	-199
828.922	556
829.017	-91
829.113	875
829.208	600
829.304	-172
829.399	469
829.495	810
829.590	462
829.685	671
829.781	228
829.876	124
829.971	21
830.066	347
830.162	-54
830.257	645
830.352	794
830.447	602
830.543	-572
830.638	91
830.733	837
830.828	912
830.923	-306
831.018	469
831.113	28
831.208	631
831.303	-504
831.398	-564
831.493	-62
831.588	421
831.683	-344
831.778	471
831.873	-390
831.967	629
832.062	-74
832.157	350
832.252	622
832.346	399
832.441	-45
832.536	1127
832.631	-31
832.725	310
832.820	-813
832.914	-93
833.009	-377
833.104	-261
833.198	-160
833.293	254
833.387	-415
833.482	-39
833.576	-615
833.670	302
833.765	-526
833.859	496
833.954	217
834.048	-84
834.142	-585
834.237	-603
834.331	-81
834.425	388
834.519	-49
834.613	244
834.708	-812
834.802	40
834.896	-492
834.990	651
835.084	223
835.178	89
835.272	-317
835.366	-460
835.460	390
835.554	380
835.648	-49
835.742	-348
835.836	-1417
835.930	-666
836.024	-443
836.117	121
836.211	-433
836.305	263
836.399	-245
836.493	-936
836.586	-196
836.680	-244
836.774	-968
836.867	224
836.961	-196
837.055	-64
837.148	-103
837.242	390
837.335	-620
837.429	-768
837.522	-1091
837.616	-388
837.709	-723
837.803	-185
837.896	-545
837.989	-202
838.083	-263
838.176	-229
838.269	-339
838.363	391
838.456	-810
838.549	-250
838.642	185
838.735	-114
838.829	36
838.922	-131
839.015	-150
839.108	-981
839.201	-145
839.294	-551
839.387	120
839.480	-530
839.573	-639
839.666	-59
839.759	-1627
839.852	-473
839.945	-331
840.038	374
840.131	-430
840.223	-249
840.316	-123
840.409	37
840.502	-543
840.594	476
840.687	-422
840.780	-445
840.873	-1150
840.965	-139
841.058	-762
841.150	-404
841.243	-260
841.336	-846
841.428	-713
841.521	-460
841.613	-1156
841.706	300
841.798	-733
841.890	-739
841.983	-1038
842.075	460
842.167	-585
842.260	-1143
842.352	-265
842.444	-512
842.537	-254
842.629	-148
842.721	-831
842.813	39
842.905	-1432
842.997	480
843.090	-945
843.182	-265
843.274	-529
843.366	-181
843.458	-35
843.550	1475
843.642	-750
843.734	-676
843.826	-993
843.918	-74
844.009	-514
844.101	-800
844.193	86
844.285	-194
844.377	-101
844.469	332
844.560	-315
844.652	1164
844.744	983
844.835	-88
844.927	-418
845.019	-374
845.110	-774
845.202	-896
845.293	-839
845.385	-231
845.476	-64
845.568	-559
845.659	-449
845.751	286
845.842	-1436
845.934	-697
846.025	-1038
846.116	186
846.208	-366
846.299	-711
846.390	-479
846.482	-419
846.573	-727
846.664	-534
846.755	-1305
846.846	-268
846.937	-878
847.029	-554
847.120	-1442
847.211	-611
847.302	177
847.393	-254
847.484	-640
847.575	-907
847.666	-256
847.757	-787
847.847	-933
847.938	-271
848.029	-510
848.120	-351
848.211	-315
848.302	-680
848.392	-1523
848.483	-384
848.574	-702
848.664	-1176
848.755	-482
848.846	-720
848.936	-552
849.027	-250
849.118	-666
849.208	126
849.299	-417
849.389	787
849.480	1873
849.570	5709
849.661	12110
849.751	24114
849.841	32728
849.932	8782
850.022	561
850.112	343
850.203	-158
850.293	-295
850.383	-552
850.474	-928
850.564	-1274
850.654	-84
850.744	-342
850.834	-473
850.924	-526
851.014	-349
851.104	-746
851.194	-505
851.284	-957
851.374	-634
851.464	-939
851.554	-901
851.644	-1211
851.734	-806
851.824	-677
851.914	-195
852.004	-285
852.094	-578
852.183	-452
852.273	-583
852.363	-127
852.452	-277
852.542	-905
852.632	-447
852.721	-1176
852.811	-798
852.901	-1066
852.990	-182
853.080	-433
853.169	562
853.259	-568
853.348	-445
853.438	-34
853.527	227
853.617	1763
853.706	3940
853.795	6354
853.885	13315
853.974	28261
854.063	49968
854.152	92319
854.242	108895
854.331	37763
854.420	9188
854.509	3620
854.598	2251
854.687	1237
854.777	946
854.866	475
854.955	827
855.044	-707
855.133	-79
855.222	-624
855.311	-1293
855.400	176
855.488	-1202
855.577	-1636
855.666	-151
855.755	-259
855.844	-1105
855.933	-1281
856.021	455
856.110	-610
856.199	-787
856.288	-823
856.376	-1066
856.465	-815
856.554	-451
856.642	-1327
856.731	-663
856.819	-448
856.908	-155
856.996	-805
857.085	23
857.173	-995
857.262	-659
857.350	-783
857.438	-575
857.527	-565
857.615	-798
857.703	-1301
857.792	-492
857.880	-764
857.968	-1283
858.056	-1159
858.145	-781
858.233	-1426
858.321	-905
858.409	-950
858.497	-223
858.585	-1341
858.673	-557
858.761	-1025
858.849	-847
858.937	-354
859.025	-16
859.113	-404
859.201	-1081
859.289	-582
859.377	-747
859.465	-698
859.552	-352
859.640	-1208
859.728	-830
859.816	-1548
859.903	-441
859.991	-2039
860.079	-270
860.166	-1517
860.254	149
860.342	-603
860.429	-770
860.517	-1208
860.604	-540
860.692	-1062
860.779	-1073
860.867	-933
860.954	-630
861.042	-773
861.129	-482
861.216	-844
861.304	-844
861.391	-857
861.478	-595
861.565	-771
861.653	-743
861.740	-1364
861.827	-518
861.914	-663
862.001	-529
862.089	-578
862.176	259
862.263	-665
862.350	-1108
862.437	-1847
862.524	-870
862.611	-976
862.698	344
862.785	-1089
862.871	-231
862.958	282
863.045	-290
863.132	-6
863.219	-94
863.306	-1425
863.392	-226
863.479	-835
863.566	-563
863.652	-479
863.739	-448
863.826	-1568
863.912	-648
863.999	-1472
864.086	-421
864.172	-906
864.259	-819
864.345	-134
864.432	-888
864.518	-418
864.604	-262
864.691	-687
864.777	668
864.863	-894
864.950	260
865.036	321
865.122	1919
865.209	1855
865.295	2751
865.381	2209
865.467	2415
865.553	2239
865.639	2608
865.726	4213
865.812	8758
865.898	16200
865.984	29210
866.070	40630
866.156	74890
866.242	63899
866.328	18321
866.414	5973
866.499	3493
866.585	2815
866.671	2731
866.757	2254
866.843	2182
866.928	1089
867.014	896
867.100	1557
867.186	1835
867.271	1592
867.357	629
867.442	846
867.528	1826
867.614	1756
867.699	2238
867.785	2024
867.870	2416
867.956	2762
868.041	3897
868.127	1983
868.212	1792
868.297	2057
868.383	2215
868.468	1442
868.553	2153
868.639	1229
868.724	1278
868.809	758
868.894	1631
868.979	387
869.065	1249
869.150	750
869.235	769
869.320	395
869.405	1483
869.490	311
869.575	577
869.660	1372
869.745	1165
869.830	664
869.915	1172
870.000	863
870.085	715
870.169	-142
870.254	1435
870.339	288
870.424	15
870.509	1022
870.593	829
870.678	1241
870.763	575
870.847	161
870.932	228
871.016	1037
871.101	885
871.186	632
871.270	968
871.355	504
871.439	279
871.523	-49
871.608	719
871.692	647
871.777	561
871.861	1872
871.945	294
872.030	386
872.114	841
872.198	-5
872.282	710
872.367	795
872.451	662
872.535	276
872.619	828
872.703	748
872.787	536
872.871	1270
872.955	865
873.039	-262
873.123	-256
873.207	527
873.291	1106
873.375	-437
873.459	1530
873.543	736
873.627	987
873.711	-251
873.794	96
873.878	93
873.962	-300
874.045	387
874.129	-403
874.137	-389
874.213	-247
874.245	77
874.296	602
874.352	-92
874.380	-429
874.460	535
874.464	572
874.547	164
874.568	94
874.631	-116
874.676	47
874.714	191
874.784	925
874.798	1064
874.881	499
874.892	368
874.965	-474
874.999	-298
875.048	-82
875.107	507
875.131	737
875.215	365
875.215	365
875.298	397
875.323	78
875.381	-647
875.430	-50
875.465	368
875.538	459
875.548	467
875.631	1162
875.646	847
875.714	-693
875.753	-399
875.798	9
875.861	119
875.881	110
875.964	899
875.968	828
876.047	-347
876.076	-181
876.130	163
876.183	340
876.213	436
876.291	1025
876.296	1057
876.379	68
876.398	73
876.462	229
876.506	-80
876.545	-407
876.613	48
876.628	164
876.711	427
876.721	442
876.794	637
876.828	696
876.877	620
876.935	595
876.960	587
877.043	-60
877.043	-61
877.125	43
877.150	205
877.208	398
877.258	597
877.291	759
877.365	207
877.374	137
877.456	256
877.472	239
877.539	260
877.579	486
877.622	713
877.687	760
877.704	794
877.787	1108
877.794	1092
877.869	783
877.901	869
877.952	934
878.008	568
878.034	431
878.115	195
878.117	194
878.199	7
878.222	249
878.282	981
878.329	769
878.364	587
878.437	1068
878.447	1106
878.529	644
878.544	635
878.611	594
878.651	730
878.694	1025
878.758	898
878.776	845
878.858	748
878.865	754
878.941	561
878.972	295
879.023	12
879.078	290
879.105	490
879.185	501
879.187	503
879.269	929
879.292	897
879.351	678
879.399	944
879.433	1113
879.506	528
879.516	474
879.598	796
879.613	724
879.680	374
879.720	362
879.762	484
879.827	1016
879.844	1045
879.926	285
879.933	215
880.007	8
880.040	288
880.089	636
880.147	571
880.171	526
880.253	1095
880.254	1093
880.335	1676
880.360	1823
880.417	1767
880.467	2366
880.499	3338
880.574	5414
880.580	5433
880.662	4806
880.680	4320
880.744	2251
880.787	1298
880.825	748
880.893	362
880.907	452
880.989	712
881.000	832
881.070	1138
881.106	954
881.152	783
881.213	965
881.233	973
881.315	55
881.319	92
881.396	1243
881.426	1107
881.478	566
881.532	632
881.559	964
881.639	1738
881.641	1732
881.722	1050
881.745	697
881.803	406
881.852	496
881.885	579
881.958	777
881.966	759
882.047	958
882.064	857
882.129	694
882.171	717
882.210	830
882.277	723
882.291	674
882.372	704
882.383	735
882.454	1137
882.489	1286
882.535	1211
882.596	850
882.616	954
882.697	1659
882.702	1675
882.778	1314
882.808	1275
882.859	1198
882.914	764
882.940	596
883.020	751
883.021	763
883.102	1492
883.127	1593
883.183	1375
883.233	1132
883.264	1192
883.339	1570
883.345	1542
883.426	977
883.445	886
883.507	972
883.551	747
883.587	595
883.657	986
883.668	1146
883.749	1614
883.763	1745
883.830	1496
883.869	1145
883.910	976
883.975	1046
883.991	1057
884.072	582
884.081	586
884.152	1203
884.187	1306
884.233	1470
884.292	1921
884.314	1835
884.394	1339
884.398	1306
884.475	917
884.504	771
884.555	1068
884.610	1278
884.636	1081
884.716	418
884.716	428
884.797	1487
884.821	1704
884.877	2009
884.927	2292
884.958	1996
885.033	1212
885.038	1184
885.118	590
885.139	428
885.199	613
885.244	845
885.279	951
885.350	750
885.359	792
885.439	1731
885.456	1809
885.520	1423
885.561	1401
885.600	1535
885.667	1346
885.680	1280
885.760	1124
885.773	1084
885.840	875
885.878	712
885.920	705
885.984	652
886.000	774
886.080	1441
886.089	1513
886.160	1813
886.195	1951
886.240	2067
886.300	1912
886.320	1651
886.400	938
886.406	886
886.480	1366
886.511	1468
886.560	1195
886.616	860
886.640	926
886.720	1347
886.722	1346
886.800	1289
886.827	1304
886.879	1708
886.932	1940
886.959	1722
887.038	1300
887.039	1316
887.119	1971
887.143	2163
887.198	1812
887.248	1431
887.278	1457
887.354	1532
887.358	1518
887.437	1064
887.459	952
887.517	1243
887.564	1502
887.596	1504
887.669	1261
887.676	1271
887.755	1422
887.774	1452
887.835	998
887.880	625
887.914	1088
887.985	2080
887.994	2085
888.073	1923
888.090	1900
888.153	2383
888.195	2640
888.232	2500
888.300	2303
888.311	2213
888.391	1406
888.405	1270
888.470	1082
888.510	920
888.549	1220
888.615	1754
888.628	1753
888.708	1629
888.720	1613
888.787	2243
888.825	2549
888.866	1756
888.930	516
888.945	726
889.024	1858
889.035	2000
889.103	1944
889.140	1891
889.182	1767
889.245	1567
889.261	1571
889.340	1565
889.349	1560
889.419	1617
889.454	1632
889.498	1443
889.559	1173
889.577	1328
889.656	1990
889.664	2051
889.735	1671
889.768	1478
889.814	1684
889.873	1948
889.978	1721
890.083	2295
890.187	1023
890.292	2156
890.397	1845
890.501	2055
890.606	1399
890.710	1544
890.815	1753
890.919	2313
891.024	1712
891.128	2162
891.233	1220
891.337	1672
891.442	1892
891.546	1721
891.650	1497
891.755	1271
891.859	1919
891.963	1942
892.068	1369
892.172	1644
892.276	903
892.380	1648
892.484	1249
892.589	3200
892.693	2046
892.797	1721
892.901	1165
893.005	826
893.109	1842
893.213	3029
893.317	2018
893.421	1722
893.525	1011
893.629	1057
893.733	1820
893.837	1770
893.941	1175
894.045	2146
894.148	852
894.252	1838
894.356	1106
894.460	2458
894.564	1457
894.667	1878
894.771	1281
894.875	848
894.978	1158
895.082	1291
895.186	965
895.289	1731
895.393	917
895.496	1783
895.600	2252
895.703	339
895.807	1020
895.910	1696
896.014	1254
896.117	1506
896.221	742
896.324	2057
896.427	1476
896.531	1494
896.634	856
896.737	1657
896.840	1385
896.944	1727
897.047	1763
897.150	1706
897.253	1006
897.356	1075
897.460	617
897.563	900
897.666	1330
897.769	2231
897.872	1547
897.975	1371
898.078	1299
898.181	775
898.284	25
898.387	683
898.490	2134
898.593	1650
898.695	886
898.798	707
898.901	1453
899.004	1272
899.107	637
899.209	1720
899.312	808
899.415	1694
899.518	587
899.620	809
899.723	875
899.826	649
899.928	815
900.031	1089
900.133	1915
900.236	1792
900.338	844
900.441	927
900.543	546
900.646	729
900.748	1081
900.851	1724
900.953	1009
901.055	492
901.158	331
901.260	1709
901.362	806
901.465	1004
901.567	494
901.669	1510
901.771	601
901.873	1308
901.976	1279
902.078	1803
902.180	630
902.282	1217
902.384	902
902.486	1332
902.588	1731
902.690	1529
902.792	830
902.894	1248
902.996	972
903.098	1469
903.200	848
903.302	1724
903.404	983
903.505	1271
903.607	898
903.709	1806
903.811	663
903.913	1733
904.014	519
904.116	711
904.218	737
904.319	569
904.421	1594
904.523	3755
904.624	2693
904.726	2017
904.827	1152
904.929	1758
905.030	2328
905.132	1954
905.233	1771
905.335	1282
905.436	516
905.537	531
905.639	462
905.740	1226
905.841	864
905.943	2162
906.044	1682
906.145	1956
906.247	267
906.348	1335
906.449	838
906.550	1099
906.651	1061
906.752	1651
906.854	1194
906.955	1020
907.056	233
907.157	396
907.258	871
907.359	1187
907.460	-21
907.561	421
907.662	350
907.762	533
907.863	830
907.964	1229
908.065	1561
908.166	503
908.267	502
908.367	1261
908.468	417
908.569	1358
908.670	1042
908.770	1091
908.871	870
908.971	1344
909.072	1523
909.173	1150
909.273	70
909.374	1303
909.474	1841
909.575	1037
909.675	521
909.776	689
909.876	1465
909.977	1509
910.077	1143
910.177	834
910.278	884
910.378	854
910.478	1209
910.579	953
910.679	938
910.779	1371
910.879	1209
910.980	1403
911.080	1528
911.180	997
911.280	494
911.380	1001
911.480	1310
911.580	1569
911.680	1665
911.780	764
911.880	1022
911.980	547
912.080	934
912.180	819
912.280	766
912.380	1004
912.480	243
912.580	142
912.679	143
912.779	1836
912.879	1212
912.979	1387
913.078	1356
913.178	1146
913.278	817
913.377	933
913.477	477
913.577	1078
913.676	875
913.776	1512
913.875	2432
913.975	1495
914.074	519
914.174	589
914.273	1020
914.373	1154
914.472	665
914.572	989
914.671	880
914.770	595
914.870	249
914.969	992
915.068	1418
915.167	1239
915.267	1056
915.366	195
915.465	732
915.564	1058
915.663	1167
915.763	1476
915.862	1342
915.961	1206
916.060	1038
916.159	553
916.258	701
916.357	1556
916.456	751
916.555	1182
916.654	1072
916.752	1278
916.851	1666
916.950	1495
917.049	372
917.148	609
917.247	619
917.345	1267
917.444	672
917.543	656
917.642	481
917.740	1121
917.839	1386
917.937	1865
918.036	1436
918.135	1278
918.233	1244
918.332	798
918.430	857
918.529	317
918.627	1046
918.726	2034
918.824	830
918.923	822
919.021	284
919.119	980
919.218	-114
919.316	1004
919.414	748
919.512	1034
919.611	917
919.709	1032
919.807	1160
919.905	1574
920.003	2044
920.102	2331
920.200	1113
920.298	2483
920.396	1771
920.494	1275
920.592	1649
920.690	1830
920.788	2506
920.886	1102
920.984	2573
921.082	2041
921.180	1956
921.277	2361
921.375	2190
921.473	2589
921.571	3422
921.669	3551
921.766	2383
921.864	2699
921.962	2888
922.060	2980
922.157	2966
922.255	2770
922.352	2811
922.450	3108
922.548	3332
922.645	2999
922.743	3974
922.840	5868
922.938	8511
923.035	8818
923.133	7127
923.230	7372
923.327	9286
923.425	10097
923.522	8743
923.619	9946
923.717	7839
923.814	7710
923.911	7028
924.008	7362
924.106	7871
924.203	7042
924.300	7511
924.397	8067
924.494	7411
924.591	7259
924.688	7630
924.786	7511
924.883	7262
924.979	7903
925.077	7842
925.173	7947
925.270	6541
925.367	7634
925.464	7532
925.561	8165
925.658	7857
925.755	7779
925.852	7278
925.948	7776
926.045	7952
926.142	8176
926.239	9885
926.335	8933
926.432	7473
926.529	9291
926.625	9071
926.722	9101
926.818	7123
926.915	7623
927.011	7583
927.108	7456
927.204	6415
927.301	6842
927.397	5936
927.494	8281
927.590	7455
927.687	5651
927.783	6575
927.879	7374
927.976	7349
928.072	5552
928.168	5737
928.264	7013
928.361	5827
928.457	6922
928.553	6735
928.649	5295
928.745	5638
928.841	5675
928.937	4704
929.033	6617
929.129	5242
929.225	6150
929.321	7070
929.417	4420
929.513	5260
929.609	5421
929.705	5121
929.801	5612
929.897	5818
929.993	5150
930.089	4748
930.184	5020
930.280	4367
930.376	6817
930.471	6247
930.567	4944
930.663	4688
930.758	5589
930.854	5648
930.950	5241
931.045	5263
931.141	4350
931.236	4655
931.332	7657
931.427	4073
931.523	5283
931.618	6416
931.714	4766
931.809	4519
931.905	5429
932.000	5193
932.095	3160
932.191	4988
932.286	6381
932.381	5839
932.476	4074
932.572	3465
932.667	5620
932.762	3773
932.857	4441
932.952	4794
933.047	6274
933.142	3670
933.237	3807
933.332	5256
933.427	5611
933.522	5217
933.617	3963
933.712	4089
933.807	4440
933.902	5580
933.997	5086
934.092	5299
934.187	4208
934.282	4821
934.376	4767
934.471	4577
934.566	4677
934.661	3912
934.755	4454
934.850	4707
934.945	5117
935.039	3694
935.134	3396
935.228	3289
935.323	5364
935.417	5540
935.512	3132
935.606	2920
935.701	4198
935.795	5028
935.890	5068
935.984	3309
936.079	3144
936.173	3009
936.267	4935
936.362	2995
936.456	3725
936.550	4757
936.644	5419
936.738	4189
936.833	3222
936.927	2414
937.021	2116
937.115	3880
937.209	3808
937.303	3760
937.397	2915
937.491	2542
937.585	4500
937.679	4364
937.773	3303
937.867	2868
937.961	2425
938.055	2983
938.149	5103
938.243	3253
938.337	2757
938.430	2631
938.524	4197
938.618	6112
938.712	5783
938.805	3516
938.899	3628
938.993	4529
939.086	5470
939.180	4428
939.274	6439
939.367	5128
939.461	3904
939.554	3480
939.648	3519
939.741	2771
939.835	3612
939.928	3620
940.022	3712
940.115	3966
940.208	4192
940.302	4180
940.395	4683
940.488	3618
940.582	3169
940.675	2997
940.768	2621
940.861	2643
940.954	3689
941.048	3590
941.141	2183
941.234	2332
941.327	3365
941.420	3118
941.513	3687
941.606	3433
941.699	2916
941.792	3263
941.885	4611
941.978	2815
942.071	3838
942.164	2552
942.257	2411
942.349	2064
942.442	3168
942.535	2860
942.628	2156
942.721	2704
942.813	2538
942.906	3012
942.999	2581
943.091	1829
943.184	2571
943.277	2715
943.369	2904
943.462	1707
943.554	2506
943.647	2106
943.739	2697
943.832	3558
943.924	2633
944.017	1251
944.109	1304
944.201	1941
944.294	1557
944.386	2226
944.478	2333
944.571	1949
944.663	2079
944.755	1752
944.847	2543
944.940	3066
945.032	2260
945.124	877
945.216	1770
945.308	1960
945.400	2954
945.492	2136
945.584	2036
945.676	2864
945.768	3261
945.860	3056
945.952	3246
946.044	2768
946.136	2053
946.228	2188
946.320	2187
946.412	1884
946.503	2641
946.595	2692
946.687	1720
946.779	1271
946.870	1241
946.962	1145
947.054	1871
947.145	2328
947.237	2689
947.329	2082
947.420	2634
947.512	2240
947.603	2023
947.695	620
947.786	1040
947.878	1442
947.969	2029
948.061	2055
948.152	2574
948.243	1052
948.335	1070
948.426	1203
948.517	2026
948.609	1685
948.700	2837
948.791	2284
948.882	1304
948.973	987
949.065	2251
949.156	2553
949.247	1581
949.338	1757
949.429	1239
949.520	599
949.611	1446
949.702	1726
949.793	2347
949.884	1501
949.975	1852
950.066	1301
950.157	927
950.247	1707
950.338	1292
950.429	183
950.520	1673
950.611	973
950.701	859
950.792	1886
950.883	2900
950.973	1868
951.064	1618
951.155	1745
951.245	1977
951.336	1080
951.427	1893
951.517	2868
951.608	2660
951.698	1669
951.788	1365
951.879	365
951.969	1337
952.060	1208
952.150	2311
952.240	1109
952.331	1288
952.421	2246
952.511	897
952.602	1031
952.692	1249
952.782	1353
952.872	654
952.962	1561
953.052	1577
953.143	837
953.233	992
953.323	244
953.413	1669
953.503	1693
953.593	1933
953.683	1510
953.773	914
953.863	419
953.953	897
954.042	1081
954.132	1623
954.222	2548
954.312	1397
954.402	1493
954.492	1971
954.581	573
954.671	1294
954.761	1338
954.850	2310
954.940	282
955.030	279
955.119	377
955.209	304
955.298	397
955.388	1711
955.477	1041
955.567	1494
955.656	625
955.746	1130
955.835	700
955.925	864
956.014	1119
956.103	1933
956.193	1739
956.282	2751
956.371	1486
956.461	760
956.550	1558
956.639	1042
956.728	131
956.817	1026
956.906	1120
956.995	1360
957.085	789
957.174	1503
957.263	1074
957.352	1029
957.441	241
957.530	1308
957.619	562
957.708	1088
957.796	1070
957.885	1476
957.974	891
958.063	1080
958.152	697
958.241	735
958.329	1369
958.418	814
958.507	901
958.596	1867
958.684	921
958.773	907
958.861	364
958.950	1690
959.039	439
959.127	942
959.216	1334
959.304	1969
959.393	178
959.481	1409
959.570	1203
959.658	892
959.746	610
959.835	619
959.923	729
960.011	983
960.100	1427
960.188	1641
960.276	1419
960.365	1556
960.453	668
960.541	667
960.629	779
960.717	455
960.805	-349
960.893	-102
960.981	362
961.069	2003
961.158	1046
961.245	2285
961.333	1442
961.421	1918
961.509	1032
961.597	539
961.685	1031
961.773	423
961.861	1127
961.949	1368
962.036	934
962.124	783
962.212	-262
962.299	-196
962.387	-251
962.475	665
962.562	-29
962.650	248
962.738	112
962.825	158
962.913	-55
963.000	105
963.088	272
963.175	1102
963.263	801
963.350	-27
963.438	1843
963.525	160
963.612	221
963.700	1096
963.787	1280
963.874	1752
963.962	1009
964.049	465
964.136	-64
964.223	-61
964.310	610
964.398	58
964.485	-409
964.572	562
964.659	1183
964.746	-154
964.833	-229
964.920	372
965.007	448
965.094	156
965.181	-198
965.268	776
965.355	287
965.441	548
965.528	-434
965.615	706
965.702	540
965.789	-168
965.875	59
965.962	1130
966.049	134
966.136	1755
966.222	499
966.309	961
966.395	1296
966.482	1303
966.569	265
966.655	610
966.742	923
966.828	156
966.915	-448
967.001	1260
967.087	-402
967.174	411
967.260	323
967.347	287
967.433	820
967.519	734
967.605	628
967.692	683
967.778	461
967.864	187
967.950	-180
968.036	-65
968.123	29
968.209	358
968.295	-641
968.381	-31
968.467	444
968.553	101
968.639	-102
968.725	582
968.811	-30
968.897	1624
968.983	612
969.069	96
969.154	-159
969.240	366
969.326	-303
969.412	808
969.497	-581
969.583	4
969.669	-179
969.755	346
969.840	289
969.926	1227
970.012	792
970.097	2105
970.183	1930
970.268	1395
970.354	366
970.439	621
970.525	65
970.610	71
970.696	-255
970.781	731
970.866	-414
970.952	-275
971.037	-747
971.122	-61
971.208	249
971.293	94
971.378	-957
971.463	190
971.549	309
971.634	-60
971.719	-389
971.804	-23
971.889	-210
971.974	55
972.059	-51
972.144	-430
972.229	-219
972.314	-606
972.399	36
972.484	52
972.569	454
972.654	-521
972.739	95
972.824	5
972.908	422
972.993	-224
973.078	-832
973.163	-10
973.247	262
973.332	-120
973.417	453
973.501	192
973.586	-65
973.671	-279
973.755	-698
973.840	-15
973.924	-290
974.009	89
974.093	438
974.178	710
974.262	-258
974.346	176
974.431	-8
974.515	392
974.600	-157
974.684	-302
974.768	-525
974.852	542
974.937	-505
975.021	1485
975.105	30
975.189	223
975.273	-673
975.358	3
975.442	-133
975.526	-453
975.610	-140
975.694	317
975.778	-233
975.862	378
975.946	-1171
976.030	95
976.114	75
976.198	305
976.281	-82
976.365	443
976.449	137
976.533	-249
976.617	-601
976.700	-234
976.784	-213
976.868	-357
976.951	-582
977.035	439
977.119	-456
977.202	-206
977.286	-806
977.369	627
977.453	889
977.536	1349
977.620	-336
977.703	1153
977.787	-820
977.870	1089
977.953	1005
978.037	-1041
978.120	-287
978.203	-85
978.287	86
978.370	1446
978.453	638
978.536	650
978.620	-406
978.703	415
978.786	430
978.869	-57
978.952	-359
979.035	1251
979.118	-627
979.201	20
979.284	-613
979.367	-518
979.450	387
979.533	329
979.616	-359
979.699	-46
979.782	-424
979.865	1060
979.948	268
980.030	-443
980.113	-535
980.196	-574
980.279	167
980.361	565
980.444	-270
980.526	-62
980.609	562
980.692	1542
980.774	1794
980.857	564
980.939	612
981.022	1024
981.104	-130
981.187	-132
981.269	819
981.352	29
981.434	-93
981.516	610
981.599	491
981.681	770
981.763	604
981.846	196
981.928	295
982.010	375
982.092	160
982.174	431
982.256	762
982.339	840
982.421	71
982.503	207
982.585	-82
982.667	375
982.749	-60
982.831	1261
982.913	-538
982.995	101
983.077	-373
983.158	520
983.240	-145
983.322	488
983.404	716
983.486	2122
983.568	1558
983.649	1514
983.731	381
983.813	1202
983.894	788
983.976	947
984.058	1245
984.139	357
984.221	412
984.302	890
984.384	-152
984.465	-267
984.547	895
984.628	452
984.710	793
984.791	252
984.872	492
984.954	673
985.035	778
985.116	1334
985.198	392
985.279	1430
985.360	952
985.441	691
985.522	415
985.604	989
985.685	414
985.766	1055
985.847	741
985.928	1032
986.009	-245
986.090	686
986.171	363
986.252	1068
986.333	941
986.414	1051
986.495	1580
986.576	2190
986.656	834
986.737	1349
986.818	956
986.899	899
986.980	753
987.060	1325
987.141	620
987.222	1044
987.302	661
987.383	1872
987.464	1785
987.544	1763
987.625	2066
987.705	1825
987.786	1572
987.866	1734
987.947	1539
988.027	1512
988.108	1577
988.188	1243
988.268	1352
988.349	1486
988.429	1787
988.509	1874
988.589	460
988.670	328
988.750	2122
988.830	1090
988.910	607
988.990	1994
989.070	1014
989.151	845
989.231	1605
989.311	1453
989.391	508
989.471	543
989.551	883
989.631	1335
989.711	908
989.791	1253
989.870	459
989.950	965
990.030	536
990.110	1334
990.190	934
990.269	1103
990.349	-420
990.429	912
990.509	590
990.588	-27
990.668	537
990.747	521
990.827	654
990.907	1689
990.986	757
991.066	1064
991.145	639
991.225	141
991.304	1678
991.383	50
991.463	547
991.542	883
991.622	990
991.701	-110
991.780	-341
991.859	720
991.939	75
992.018	778
992.097	1128
992.176	683
992.256	-65
992.335	-248
992.414	689
992.493	120
992.572	-429
992.651	641
992.730	302
992.809	871
992.888	-154
992.967	389
993.046	-278
993.125	314
993.203	-54
993.282	662
993.361	-70
993.440	1258
993.519	-312
993.597	-575
993.676	-171
993.755	250
993.834	48
993.912	267
993.991	181
994.069	-429
994.148	202
994.226	406
994.305	-1245
994.384	-557
994.462	30
994.540	239
994.619	-667
994.697	434
994.776	-165
994.854	209
994.932	321
995.011	-1015
995.089	-1004
995.167	-135
995.245	-276
995.324	260
995.402	-189
995.480	-679
995.558	-255
995.636	-687
995.714	-57
995.792	46
995.870	569
995.948	-222
996.026	-592
996.104	-874
996.182	668
996.260	-467
996.338	-194
996.416	-355
996.494	-302
996.572	257
996.649	-373
996.727	-611
996.805	113
996.883	-447
996.960	-441
997.038	-55
997.116	180
997.193	-340
997.271	359
997.348	-833
997.426	-790
997.504	-500
997.581	-276
997.658	498
997.736	-986
997.813	-722
997.891	-752
997.968	-568
998.046	544
998.123	-340
998.200	-53
998.277	-434
998.355	-76
998.432	-986
998.509	-580
998.586	-309
998.663	-800
998.741	-365
998.818	-437
998.895	-1110
998.972	-658
999.049	-44
999.126	-274
999.203	564
999.280	-1369
999.357	-771
999.434	-1180
999.511	-145
999.587	-298
999.664	-327
999.741	-900
999.818	-161
999.895	-41
999.971	-1135
1000.048	-128
1000.125	-56
1000.202	-1666
1000.278	-236
1000.355	-464
1000.431	-176
1000.508	-1262
1000.584	-751
1000.661	-505
1000.738	-720
1000.814	-708
1000.890	-565
1000.967	-395
1001.043	-412
1001.120	-1440
1001.196	-633
1001.272	-1203
1001.349	-678
1001.425	-939
1001.501	-360
1001.577	-818
1001.654	-402
1001.730	-1137
1001.806	-836
1001.882	-1097
1001.958	-975
1002.034	-682
1002.110	-649
1002.186	-1434
1002.262	-1028
1002.338	-701
1002.414	-53
1002.490	-481
1002.566	-1503
1002.642	-915
1002.718	-479
1002.794	-1337
1002.870	-639
1002.945	-1199
1003.021	-1063
1003.097	-1852
1003.173	142
1003.248	-1318
1003.324	-598
1003.400	-887
1003.475	-849
1003.551	-1467
1003.626	-1709
1003.702	-1794
1003.777	-1017
1003.853	-853
1003.928	-711
1004.004	-1758
1004.079	-878
1004.155	-1407
1004.230	-789
1004.305	-1046
1004.381	-1259
1004.456	-380
1004.531	-1245
1004.607	-1580
1004.682	-941
1004.757	-1157
1004.832	-1782
1004.907	-1035
1004.982	-599
1005.057	-1363
1005.133	-1292
1005.208	-673
1005.283	-1297
1005.358	-885
1005.433	-1405
1005.508	-1462
1005.583	-1486
1005.657	-1165
1005.732	-934
1005.807	-1338
1005.882	-1384
1005.957	-990
1006.032	-211
1006.106	-1391
1006.181	-804
1006.256	-1555
1006.331	-302
1006.405	-1502
1006.480	-1067
1006.554	-1806
1006.629	-1357
1006.704	-1711
1006.778	-1184
1006.853	-1360
1006.927	-1309
1007.002	-785
1007.076	-805
1007.150	-2363
1007.225	-1378
1007.299	-1620
1007.373	-903
1007.448	-1384
1007.522	-896
1007.596	-1676
1007.671	-1246
1007.745	-1453
1007.819	-1641
1007.893	-1888
1007.967	-1708
1008.041	-1568
1008.115	-1345
1008.190	-1572
1008.264	-1130
1008.338	-2064
1008.412	-365
1008.486	-1789
1008.560	-1361
1008.633	-1589
1008.707	-1708
1008.781	-832
1008.855	-1496
1008.929	-1285
1009.003	-933
1009.076	-1410
1009.150	-1713
1009.224	-1993
1009.298	-707
1009.371	-1877
1009.445	-416
1009.519	-1600
1009.592	-1388
1009.666	-921
1009.739	-1198
1009.813	-1392
1009.886	-1049
1009.960	-2179
1010.033	-1022
1010.107	-927
1010.180	-818
1010.253	-1650
1010.327	-1990
1010.400	-1633
1010.473	-1262
1010.547	-1139
1010.620	-1276
1010.693	-584
1010.766	-1905
1010.840	-1360
1010.913	-1134
1010.986	-1588
1011.059	-1998
1011.132	-1787
1011.205	-998
1011.278	-1441
1011.351	-1307
1011.424	-1280
1011.497	-857
1011.570	-1373
1011.643	-687
1011.716	-1894
1011.789	-904
1011.862	-1142
1011.934	-1130
1012.007	-2275
1012.080	-693
1012.153	-1623
1012.225	-1180
1012.298	-1580
1012.371	-2197
1012.443	-1794
1012.516	-1151
1012.588	-1605
1012.661	-513
1012.733	-2565
1012.806	-1369
1012.879	-2347
1012.951	-1261
1013.023	-1988
1013.096	-1217
1013.168	-1556
1013.241	-1084
1013.313	-1901
1013.385	-1526
1013.458	-1971
1013.530	-1381
1013.602	-2357
1013.674	-1352
1013.746	-2865
1013.819	-2326
1013.891	-1477
1013.963	-1311
1014.035	-1522
1014.107	-1176
1014.179	-2182
1014.251	-2294
1014.323	-1288
1014.395	-2065
1014.467	-1652
1014.539	-1787
1014.611	-2049
1014.683	-1769
1014.754	-1403
1014.826	-1959
1014.898	-1286
1014.970	-1437
1015.042	-909
1015.113	-951
1015.185	-1297
1015.257	-1534
1015.328	-1674
1015.400	-2012
1015.471	-1997
1015.543	-2139
1015.615	-1048
1015.686	-1452
1015.757	-1915
1015.829	-1915
1015.901	-1888
1015.972	-1280
1016.043	-1302
1016.115	-2350
1016.186	-2034
1016.257	-1414
1016.328	-1192
1016.400	-947
1016.471	-1959
1016.542	-2135
1016.613	-1632
1016.685	-1372
1016.756	-1380
1016.827	-1366
1016.898	-2867
1016.969	-868
1017.040	-2341
1017.111	-1334
1017.182	-2246
1017.253	-840
1017.324	-2768
1017.395	-1732
1017.466	-1522
1017.537	-1060
1017.608	-1001
1017.678	-2213
1017.749	-1676
1017.820	-1421
1017.891	-2494
1017.961	-1750
1018.032	-1555
1018.103	-1548
1018.173	-2397
1018.244	-1376
1018.315	-2103
1018.385	-1537
1018.456	-1689
1018.526	-2153
1018.597	-2037
1018.667	-1274
1018.738	-2558
1018.808	-1644
1018.878	-1938
1018.949	-2375
1019.019	-1666
1019.089	-2425
1019.160	-2249
1019.230	-2030
1019.300	-1856
1019.371	-1993
1019.441	-1867
1019.511	-1847
1019.581	-1912
1019.651	-1937
1019.721	-2845
1019.791	-2054
1019.861	-1597
1019.931	-1511
1020.001	-2461
1020.071	-1665
1020.141	-2008
1020.211	-1290
1020.281	-2193
1020.351	-1652
1020.421	-1694
1020.491	-1356
1020.560	-1936
1020.630	-2126
1020.700	-2542
1020.770	-1983
1020.839	-1637
1020.909	-2093
1020.979	-2223
1021.048	-2208
1021.118	-2241
1021.187	-1397
1021.257	-1866
1021.326	-1563
1021.396	-2344
1021.465	-1919
1021.535	-1493
1021.604	-2305
1021.674	-2171
1021.743	-2064
1021.812	-1180
1021.882	-1593
1021.951	-1382
1022.020	-1984
1022.089	-2668
1022.159	-2223
1022.228	-2334
1022.297	-1608
1022.366	-2611
1022.435	-1512
1022.504	-1402
1022.573	-2200
1022.642	-1380
1022.711	-2103
1022.781	-1344
1022.849	-1371
1022.918	-2851
1022.987	-2074
1023.056	-2934
1023.125	-2180
1023.194	-2312
1023.263	-1958
1023.331	-1729
1023.400	-1137
1023.469	-1680
1023.538	-1089
1023.606	-2887
1023.675	-1272
1023.744	-2204
1023.812	-2147
1023.881	-2022
1023.949	-1465
1024.018	-2104
1024.086	-1912
1024.155	-2348
1024.223	-2124
1024.292	-1624
1024.360	-2090
1024.429	-1958
1024.497	-2073
1024.565	-1663
1024.634	-2168
1024.702	-1862
1024.770	-1267
1024.838	-1935
1024.907	-1958
1024.975	-2338
1025.043	-1983
1025.111	-2182
1025.179	-1493
1025.247	-1787
1025.315	-2217
1025.383	-2070
1025.451	-1510
1025.519	-2481
1025.587	-2097
1025.655	-2085
1025.723	-2077
1025.791	-2236
1025.859	-1437
1025.927	-1810
1025.995	-2108
1026.062	-1365
1026.130	-1469
1026.198	-2035
1026.266	-1657
1026.333	-1791
1026.401	-1675
1026.469	-2139
1026.536	-1379
1026.604	-1670
1026.671	-1944
1026.739	-2150
1026.806	-2158
1026.874	-2059
1026.941	-1384
1027.009	-1950
1027.076	-1950
1027.144	-1997
1027.211	-1741
1027.278	-2005
1027.345	-1605
1027.413	-1609
1027.480	-1647
1027.547	-1960
1027.614	-2656
1027.682	-1319
1027.749	-2065
1027.816	-2382
1027.883	-2123
1027.950	-1638
1028.017	-1553
1028.084	-1691
1028.151	-2220
1028.218	-1977
1028.285	-1671
1028.352	-1785
1028.419	-1139
1028.486	-2078
1028.553	-1748
1028.619	-2051
1028.686	-1340
1028.753	-2475
1028.820	-1349
1028.886	-2118
1028.953	-789
1029.020	-2081
1029.086	-2190
1029.153	-1952
1029.220	-1670
1029.286	-2678
1029.353	-1343
1029.419	-2451
1029.486	-1194
1029.552	-2062
1029.619	-2371
1029.685	-2528
1029.751	-1571
1029.818	-1455
1029.884	-1721
1029.951	-1713
1030.017	-1978
1030.083	-1774
1030.149	-1799
1030.216	-1757
1030.282	-1843
1030.348	-2288
1030.414	-1777
1030.480	-1848
1030.546	-795
1030.612	-2657
1030.678	-2088
1030.744	-2736
1030.810	-1884
1030.876	-2443
1030.942	-2001
1031.008	-1455
1031.074	-1291
1031.140	-1320
1031.206	-1776
1031.272	-2114
1031.337	-2300
1031.403	-2106
1031.469	-2058
1031.534	-1863
1031.600	-1697
1031.666	-1857
1031.731	-1808
1031.797	-2187
1031.863	-2067
1031.928	-1815
1031.994	-1718
1032.059	-1854
1032.125	-1545
1032.190	-1863
1032.256	-1692
1032.321	-2117
1032.386	-1996
1032.452	-2249
1032.517	-1541
1032.582	-2375
1032.647	-1378
1032.713	-2951
1032.778	-2111
1032.843	-2700
1032.908	-1377
1032.974	-2419
1033.039	-1968
1033.104	-1839
1033.169	-2062
1033.234	-1854
1033.299	-683
1033.364	-1501
1033.429	-2038
1033.494	-1781
1033.559	-1821
1033.624	-1427
1033.688	-1921
1033.753	-2326
1033.818	-1418
1033.883	-1845
1033.948	-1389
1034.013	-1429
1034.077	-640
1034.142	-1546
1034.207	-811
1034.271	-680
1034.336	921
1034.400	1222
1034.465	949
1034.530	-72
1034.594	-1156
1034.658	-2052
1034.723	-1627
1034.787	-2093
1034.852	-1213
1034.916	-2008
1034.981	-2069
1035.045	-2459
1035.109	-2049
1035.173	-1931
1035.238	-1084
1035.302	-2492
1035.366	-1836
1035.430	-2593
1035.495	-1644
1035.559	-1895
1035.623	-1109
1035.687	-2282
1035.751	-1328
1035.815	-1781
1035.879	-2108
1035.943	-2243
1036.007	-2457
1036.071	-1811
1036.135	-970
1036.198	-2601
1036.262	-1444
1036.326	-1263
1036.390	-1135
1036.454	-1992
1036.517	-1906
1036.581	-1694
1036.645	-1380
1036.709	-2391
1036.772	-1584
1036.836	-1705
1036.900	-1471
1036.963	-1745
1037.026	-1901
1037.090	-1362
1037.154	-2232
1037.217	-1804
1037.280	-2503
1037.344	-1229
1037.407	-2179
1037.471	-2053
1037.534	-2168
1037.597	-1766
1037.661	-880
1037.724	-1523
1037.787	-1737
1037.850	-1784
1037.913	-2302
1037.977	-1845
1038.040	-2331
1038.103	-2557
1038.166	-1359
1038.229	-1907
1038.292	-1631
1038.355	-2171
1038.418	-2171
1038.481	-1363
1038.544	-2552
1038.607	-1957
1038.670	-1448
1038.732	-1563
1038.795	-1618
1038.858	-1996
1038.921	-1470
1038.984	-1091
1039.046	-1880
1039.109	-1691
1039.172	-2124
1039.234	-1654
1039.297	-1858
1039.360	-2230
1039.422	-1572
1039.485	-2419
1039.547	-2045
1039.610	-1598
1039.672	-2151
1039.734	-2386
1039.797	-1337
1039.859	-2180
1039.922	-1886
1039.984	-1904
1040.046	-1670
1040.109	-2033
1040.171	-1762
1040.233	-2104
1040.295	-1510
1040.358	-2193
1040.420	-1951
1040.482	-1629
1040.544	-1824
1040.606	-1496
1040.668	-2182
1040.730	-1802
1040.792	-2079
1040.854	-2391
1040.916	-1876
1040.978	-1476
1041.040	-1303
1041.102	-2173
1041.164	-2438
1041.225	-2535
1041.287	-1095
1041.349	-1819
1041.411	-1323
1041.472	-2081
1041.534	-1819
1041.596	-2922
1041.657	-1444
1041.719	-1669
1041.781	-1082
1041.842	-1911
1041.904	-2090
1041.965	-1361
1042.027	-2232
1042.088	-1186
1042.150	-1438
1042.211	-1201
1042.272	-473
1042.334	-1609
1042.395	-1975
1042.456	-1599
1042.518	-2363
1042.579	-1994
1042.640	-1715
1042.701	-2311
1042.763	-1775
1042.824	-2290
1042.885	-2421
1042.946	-2277
1043.007	-1116
1043.068	-1594
1043.129	-1823
1043.190	-2281
1043.251	-1288
1043.312	-2179
1043.373	-2016
1043.434	-1426
1043.495	-1768
1043.556	-1387
1043.616	-1386
1043.677	-2047
1043.738	-1561
1043.799	-2100
1043.859	-1093
1043.920	-1991
1043.981	-2123
1044.041	-1660
1044.102	-1748
1044.162	-1813
1044.223	-2121
1044.284	-2008
1044.344	-1831
1044.405	-1689
1044.465	-2005
1044.525	-2133
1044.586	-2109
1044.646	-1916
1044.707	-1408
1044.767	-2404
1044.827	-1250
1044.887	-2121
1044.948	-1995
1045.008	-2081
1045.068	-1577
1045.128	-2258
1045.188	-1271
1045.249	-1782
1045.309	-1954
1045.369	-1907
1045.429	-1330
1045.489	-1976
1045.549	-1336
1045.609	-1326
1045.669	-1751
1045.729	-2480
1045.789	-1696
1045.848	-1670
1045.908	-1393
1045.968	-1483
1046.028	-794
1046.088	-2347
1046.147	-1289
1046.207	-1637
1046.267	-1740
1046.326	-1319
1046.386	-1521
1046.446	-1529
1046.505	-1045
1046.565	-1581
1046.624	-1009
1046.684	-1628
1046.743	-875
1046.803	-624
1046.862	-482
1046.922	0
