'Start Wavelength	183.907
'End Wavelength	1046.922
'Gate Delay	5.000
'Gate Width (ms)	1.050
'Laser Output Level	0.000
'X Position	0.000
'Y Position	0.000
'Z Position	0.000
'Grid Point Number	1.000
'Shot Number	100.000
183.907	1152.000
183.977	85.000
184.047	838
184.116	1274
184.186	118
184.256	467
184.325	1345
184.395	534
184.465	509
184.534	599
184.604	359
184.674	411
184.743	65
184.813	415
184.883	441
184.952	238
185.022	1002
185.092	661
185.161	802
185.231	754
185.301	1250
185.370	1167
185.440	823
185.509	-205
185.579	889
185.649	564
185.718	817
185.788	799
185.857	235
185.927	330
185.996	438
186.066	174
186.136	877
186.205	522
186.275	734
186.344	1174
186.414	1874
186.483	1
186.553	2291
186.622	2114
186.692	622
186.761	198
186.831	1211
186.900	277
186.970	1385
187.039	1487
187.109	1854
187.178	1495
187.248	1292
187.317	2318
187.387	999
187.456	1999
187.526	2647
187.595	1313
187.664	1433
187.734	2500
187.803	1956
187.873	967
187.942	1750
188.012	1783
188.081	1093
188.150	1076
188.220	3505
188.289	1969
188.358	3003
188.428	1157
188.497	1383
188.567	1998
188.636	1471
188.705	1754
188.775	1843
188.844	1252
188.913	2202
188.983	1089
189.052	1449
189.121	1432
189.191	1840
189.260	2059
189.329	2555
189.399	1084
189.468	1832
189.537	1619
189.606	966
189.676	2270
189.745	1948
189.814	2966
189.883	1627
189.953	1770
190.022	3172
190.091	9133
190.161	7896
190.230	3007
190.299	1577
190.368	1539
190.437	1366
190.507	1270
190.576	1137
190.645	1490
190.714	1377
190.783	1008
190.853	915
190.922	1776
190.991	2213
191.060	2218
191.129	638
191.198	1064
191.268	1429
191.337	1450
191.406	2385
191.475	1986
191.544	398
191.613	1242
191.682	1838
191.752	1511
191.821	1726
191.890	2127
191.959	2165
192.028	895
192.097	1352
192.166	908
192.235	579
192.304	927
192.373	657
192.442	1163
192.511	1045
192.580	921
192.650	1618
192.719	949
192.788	1209
192.857	1282
192.926	1839
192.995	1733
193.064	1788
193.133	913
193.202	2264
193.271	2737
193.340	2072
193.409	3559
193.478	3580
193.547	3079
193.615	3237
193.684	4275
193.753	2030
193.822	2633
193.891	2215
193.960	2510
194.029	2766
194.098	2400
194.167	1727
194.236	1504
194.305	992
194.374	1532
194.443	3030
194.512	2992
194.580	3070
194.649	4712
194.718	4099
194.787	1993
194.856	2011
194.925	2327
194.994	4481
195.062	3055
195.131	5276
195.200	7171
195.269	6723
195.338	3092
195.407	2160
195.475	3300
195.544	5311
195.613	4437
195.682	2757
195.751	6074
195.819	6388
195.888	4169
195.957	7020
196.026	5942
196.094	6438
196.163	7758
196.232	5453
196.301	5209
196.369	5099
196.438	2762
196.507	3608
196.576	2408
196.644	1957
196.713	1758
196.782	1876
196.850	2188
196.919	2143
196.988	2547
197.056	2019
197.125	2953
197.194	3277
197.262	1387
197.331	2249
197.400	2268
197.468	2274
197.537	1994
197.606	2725
197.674	6378
197.743	9655
197.812	3847
197.880	10559
197.949	5771
198.017	9533
198.086	5713
198.155	3163
198.223	4496
198.292	11478
198.360	4815
198.429	2785
198.497	3723
198.566	8495
198.635	8746
198.703	3624
198.772	4030
198.840	13988
198.909	10541
198.977	4649
199.046	2799
199.114	3245
199.183	3560
199.251	2463
199.320	2826
199.388	2213
199.457	3466
199.525	3880
199.594	3230
199.662	3004
199.731	2471
199.799	3175
199.867	3638
199.936	4353
200.004	2651
200.073	3260
200.141	2417
200.210	2405
200.278	2821
200.346	3036
200.415	4913
200.483	5417
200.552	3507
200.620	3252
200.688	3153
200.757	2242
200.825	3407
200.893	3967
200.962	2429
201.030	2480
201.098	2553
201.167	3100
201.235	2947
201.303	3621
201.372	4500
201.440	3430
201.508	4926
201.577	4606
201.645	3692
201.713	3316
201.781	4625
201.850	6339
201.918	2482
201.986	3202
202.055	3243
202.123	3425
202.191	3126
202.259	3487
202.327	3187
202.396	3598
202.464	4339
202.532	9027
202.600	25166
202.669	11561
202.737	5167
202.805	3460
202.873	3462
202.941	4251
203.009	3247
203.078	2720
203.146	2786
203.214	2704
203.282	2893
203.350	3227
203.418	2468
203.487	3115
203.555	2668
203.623	2687
203.691	2042
203.759	2588
203.827	1998
203.895	3472
203.963	2974
204.031	3320
204.099	2854
204.168	3000
204.236	3068
204.304	3578
204.372	3495
204.440	2464
204.508	2801
204.576	1920
204.644	2347
204.712	2425
204.780	2843
204.848	3235
204.916	2864
204.984	2980
205.052	3225
205.120	3769
205.188	3421
205.256	2962
205.324	2809
205.392	3118
205.460	3980
205.528	3626
205.596	2838
205.664	3858
205.732	4112
205.799	16692
205.867	17867
205.935	5106
206.003	3959
206.071	3701
206.139	3885
206.207	3776
206.275	3457
206.343	3830
206.411	3085
206.478	3575
206.546	3532
206.614	2873
206.682	3173
206.750	3901
206.818	5402
206.885	4311
206.953	2906
207.021	3635
207.089	2764
207.157	3056
207.225	3950
207.292	3002
207.360	3131
207.428	3342
207.496	2765
207.563	3156
207.631	2711
207.699	3865
207.767	4364
207.834	4019
207.902	3947
207.970	4712
208.038	3250
208.105	3692
208.173	5416
208.241	6639
208.309	5161
208.376	6874
208.444	13863
208.512	5867
208.579	3885
208.647	5430
208.715	5363
208.782	5312
208.850	3989
208.918	4216
208.985	3463
209.053	6127
209.120	5109
209.188	3730
209.256	5130
209.323	5680
209.391	9898
209.459	5594
209.526	3939
209.594	3867
209.661	4990
209.729	4217
209.796	4761
209.864	4892
209.932	5016
209.999	6268
210.067	7591
210.134	7221
210.202	8048
210.269	9783
210.337	8635
210.404	5139
210.472	5073
210.539	4764
210.607	7957
210.674	9335
210.742	5775
210.809	6207
210.877	9548
210.944	9174
211.012	8675
211.079	7481
211.146	5390
211.214	5664
211.281	9252
211.349	7752
211.416	6423
211.484	8865
211.551	6331
211.618	6469
211.686	5098
211.753	5184
211.821	5346
211.888	5707
211.955	5924
212.023	5971
212.090	6046
212.157	6790
212.225	8577
212.292	16046
212.359	31459
212.427	61271
212.494	24136
212.561	12033
212.629	8670
212.696	8231
212.763	7535
212.831	6034
212.898	6915
212.965	5135
213.032	6125
213.100	10050
213.167	8983
213.234	8521
213.301	5811
213.369	5939
213.436	5316
213.503	7035
213.570	7235
213.638	7296
213.705	6076
213.772	5932
213.839	10913
213.906	9724
213.973	10190
214.041	6808
214.108	6867
214.175	8793
214.242	6190
214.309	6090
214.376	7028
214.444	8078
214.511	9587
214.578	7831
214.645	7986
214.712	9600
214.779	8527
214.846	8216
214.913	7605
214.980	8608
215.048	10422
215.115	12648
215.182	13017
215.249	10045
215.316	8705
215.383	7986
215.450	8658
215.517	8213
215.584	8205
215.651	7927
215.718	8368
215.785	12743
215.852	13865
215.919	12962
215.986	13073
216.053	8479
216.120	8484
216.187	12607
216.254	11392
216.321	11290
216.388	12299
216.455	13211
216.522	11034
216.589	18319
216.656	29003
216.722	20679
216.789	10793
216.856	10497
216.923	8601
216.990	9182
217.057	9439
217.124	15647
217.191	11195
217.258	13438
217.324	12750
217.391	10274
217.458	8708
217.525	8572
217.592	8258
217.659	10316
217.725	11293
217.792	21752
217.859	14756
217.926	9701
217.993	7108
218.059	8682
218.126	7742
218.193	8221
218.260	7020
218.327	7174
218.393	10952
218.460	8419
218.527	8012
218.594	11886
218.660	23587
218.727	20049
218.794	8921
218.860	8805
218.927	7388
218.994	7528
219.061	10234
219.127	13982
219.194	19663
219.261	9298
219.327	8406
219.394	7776
219.461	6022
219.527	8332
219.594	15907
219.661	10395
219.727	7282
219.794	8786
219.860	7433
219.927	9175
219.994	15984
220.060	27628
220.127	14680
220.193	9877
220.260	8371
220.326	10100
220.393	11135
220.460	12617
220.526	10205
220.593	8960
220.659	10651
220.726	13116
220.792	32036
220.859	18875
220.925	16976
220.992	20636
221.058	36641
221.125	38543
221.191	29890
221.258	12059
221.324	9938
221.391	11803
221.457	8312
221.524	9527
221.590	16039
221.657	49889
221.723	26055
221.789	31790
221.856	22914
221.922	15456
221.989	11483
222.055	11579
222.121	10782
222.188	16207
222.254	13076
222.321	10512
222.387	8104
222.453	7374
222.520	8320
222.586	8501
222.652	7892
222.719	7730
222.785	10053
222.851	9675
222.918	8709
222.984	9143
223.050	7810
223.116	8989
223.183	7352
223.249	6821
223.315	6785
223.382	8305
223.448	7163
223.514	7551
223.580	7386
223.647	8068
223.713	8047
223.779	8082
223.845	8483
223.911	8204
223.978	8156
224.044	9503
224.110	8532
224.176	8818
224.242	8070
224.309	7523
224.375	8121
224.441	7578
224.507	7339
224.573	9774
224.639	8615
224.705	7727
224.772	7296
224.838	9325
224.904	11108
224.970	8980
225.036	10063
225.102	11541
225.168	9798
225.234	8720
225.300	10127
225.366	8155
225.432	7556
225.499	8288
225.565	12046
225.631	11766
225.697	10567
225.763	12313
225.829	12211
225.895	14960
225.961	24296
226.027	18875
226.093	15129
226.159	13982
226.225	15474
226.291	24560
226.357	30357
226.423	25030
226.489	21630
226.554	14083
226.620	13180
226.686	24997
226.752	29382
226.818	23543
226.884	46992
226.950	30455
227.016	16617
227.082	17082
227.148	18953
227.214	21325
227.279	17883
227.345	13217
227.411	16653
227.477	17520
227.543	35189
227.609	31462
227.674	17621
227.740	16813
227.806	13911
227.872	12316
227.938	14026
228.003	21470
228.069	12070
228.135	10241
228.201	10301
228.267	12699
228.332	18335
228.398	23643
228.464	12568
228.530	9842
228.595	9442
228.661	12304
228.727	25037
228.792	16306
228.858	13024
228.924	15421
228.990	17088
229.055	21253
229.121	19005
229.187	13610
229.252	18031
229.318	11603
229.384	14591
229.449	18239
229.515	10692
229.581	8001
229.646	12669
229.712	16831
229.777	38428
229.843	32924
229.909	27569
229.974	24657
230.040	23233
230.105	19630
230.171	23325
230.236	24004
230.302	35188
230.368	29020
230.433	18314
230.499	16131
230.564	15442
230.630	14562
230.695	12828
230.761	12794
230.826	12693
230.892	24406
230.957	14333
231.023	13238
231.088	14252
231.154	13405
231.219	14209
231.284	24181
231.350	19842
231.415	13253
231.481	11537
231.546	10727
231.612	11996
231.677	10727
231.742	10730
231.808	13613
231.873	11266
231.939	12197
232.004	27956
232.069	20822
232.135	13471
232.200	11582
232.265	11101
232.331	10894
232.396	9845
232.461	9967
232.527	11418
232.592	13244
232.657	11933
232.723	25811
232.788	15495
232.853	11502
232.918	11762
232.984	11223
233.049	11823
233.114	24314
233.179	17859
233.245	31615
233.310	28153
233.375	12511
233.440	12711
233.506	11722
233.571	12048
233.636	11588
233.701	12865
233.766	28779
233.832	26191
233.897	18212
233.962	22244
234.027	22789
234.092	18628
234.157	18277
234.222	18671
234.288	29277
234.353	64787
234.418	57118
234.483	35759
234.548	30264
234.613	24378
234.678	23174
234.743	29597
234.808	73722
234.873	36798
234.938	22493
235.004	19303
235.069	19701
235.134	16993
235.199	16827
235.264	15035
235.329	14133
235.394	15997
235.459	21472
235.524	19216
235.589	15697
235.654	13450
235.719	12933
235.784	14816
235.849	21079
235.913	36836
235.978	46343
236.043	39920
236.108	18251
236.173	21623
236.238	18720
236.303	14244
236.368	14800
236.433	27553
236.498	38005
236.563	20242
236.627	31260
236.692	71790
236.757	40746
236.822	33796
236.887	33277
236.952	24067
237.017	22662
237.081	24536
237.146	29769
237.211	30229
237.276	80507
237.341	123087
237.405	58133
237.470	35747
237.535	29729
237.600	19870
237.664	18336
237.729	18389
237.794	19827
237.859	23497
237.923	32649
237.988	20716
238.053	37089
238.118	33383
238.182	93022
238.247	54112
238.312	44667
238.376	26975
238.441	25826
238.506	20571
238.570	14288
238.635	14975
238.700	15223
238.764	16096
238.829	45780
238.893	40040
238.958	28860
239.023	26183
239.087	17563
239.152	21124
239.216	15821
239.281	14701
239.346	15764
239.410	16715
239.475	24394
239.539	89074
239.604	47554
239.668	21835
239.733	17234
239.797	26703
239.862	57486
239.926	63468
239.991	23957
240.055	17957
240.120	18238
240.184	18934
240.249	17789
240.313	16607
240.378	20614
240.442	60755
240.507	62349
240.571	23546
240.635	46870
240.700	43144
240.764	22726
240.829	17552
240.893	14281
240.957	17202
241.022	55907
241.086	73353
241.151	36728
241.215	19245
241.279	31183
241.344	43724
241.408	25224
241.472	23169
241.537	23212
241.601	20709
241.665	19792
241.730	19495
241.794	20798
241.858	19590
241.922	21990
241.987	20672
242.051	18721
242.115	17833
242.179	16890
242.244	17706
242.308	19829
242.372	20356
242.436	23339
242.501	21108
242.565	19326
242.629	17300
242.693	17458
242.757	15816
242.822	17987
242.886	19174
242.950	21298
243.014	23085
243.078	29547
243.142	27287
243.206	25009
243.271	23904
243.335	24807
243.399	33714
243.463	127691
243.527	201133
243.591	66256
243.655	39921
243.719	26126
243.783	32584
243.847	51353
243.911	54077
243.975	87426
244.040	50327
244.104	26226
244.168	23052
244.232	53913
244.296	54504
244.360	52574
244.424	33000
244.488	25913
244.552	24371
244.615	19980
244.679	19305
244.743	35826
244.807	29617
244.871	20455
244.935	19090
244.999	20136
245.063	22696
245.127	26693
245.191	45776
245.255	35884
245.319	40981
245.383	33056
245.446	24490
245.510	23475
245.574	28356
245.638	26236
245.702	32986
245.766	59010
245.829	34441
245.893	29611
245.957	24641
246.021	29240
246.085	32708
246.149	39307
246.212	94789
246.276	108540
246.340	53124
246.404	37833
246.467	44807
246.531	60037
246.595	35248
246.659	36644
246.722	40858
246.786	48236
246.850	52746
246.913	51910
246.977	29778
247.041	30454
247.104	33639
247.168	34208
247.232	97527
247.295	153263
247.359	61739
247.423	42763
247.486	70387
247.550	40588
247.614	42127
247.677	50480
247.741	31403
247.804	29534
247.868	35913
247.932	98451
247.995	133539
248.059	51027
248.122	36139
248.186	45220
248.249	92570
248.313	265190
248.376	222432
248.440	141168
248.503	61129
248.567	56130
248.630	91411
248.694	115308
248.757	151589
248.821	253406
248.884	141090
248.948	162037
249.011	202386
249.075	299795
249.138	211537
249.202	96181
249.265	69365
249.328	72602
249.392	61863
249.455	47668
249.519	41716
249.582	62265
249.645	87423
249.709	51417
249.772	38958
249.835	39584
249.899	44149
249.962	36684
250.025	41239
250.089	119105
250.152	120815
250.215	62989
250.279	49236
250.342	50576
250.405	43900
250.468	44687
250.532	63884
250.595	88123
250.658	289634
250.721	295855
250.785	133026
250.848	71511
250.911	50224
250.974	46626
251.038	90191
251.101	138063
251.164	75507
251.227	88843
251.290	72014
251.354	114918
251.417	356405
251.480	254142
251.543	255995
251.606	544830
251.669	324673
251.732	171219
251.795	204451
251.859	194559
251.922	360030
251.985	167669
252.048	83605
252.111	76821
252.174	86267
252.237	183091
252.300	287567
252.363	325428
252.426	418762
252.489	185873
252.552	105621
252.615	84668
252.678	104845
252.741	232297
252.804	281812
252.867	446084
252.930	289165
252.993	159959
253.056	110973
253.119	78750
253.182	72809
253.245	113498
253.308	84947
253.371	108088
253.434	83174
253.497	88521
253.559	149272
253.622	101200
253.685	172818
253.748	137617
253.811	70105
253.874	92884
253.937	81547
254.000	67976
254.062	132900
254.125	139258
254.188	140770
254.251	98217
254.314	66928
254.376	136191
254.439	130549
254.502	116979
254.565	136222
254.628	184655
254.690	124751
254.753	72749
254.816	66300
254.878	67400
254.941	128222
255.004	90568
255.067	59849
255.129	61311
255.192	34333
255.255	40564
255.317	43402
255.380	27993
255.443	23388
255.505	26791
255.568	27110
255.631	28543
255.693	31248
255.756	24299
255.819	24502
255.881	23017
255.944	20873
256.006	22760
256.069	24610
256.132	23901
256.194	41969
256.257	82685
256.319	60489
256.382	50486
256.444	30777
256.507	25739
256.569	24003
256.632	27173
256.694	39841
256.757	54752
256.819	88190
256.882	47865
256.944	38011
257.007	38713
257.069	48249
257.132	26965
257.194	23827
257.257	31253
257.319	28274
257.381	27204
257.444	46353
257.506	142982
257.569	171165
257.631	158427
257.693	82842
257.756	44397
257.818	42460
257.880	28932
257.943	28791
258.005	30690
258.067	27362
258.130	27415
258.192	49091
258.254	90638
258.317	40247
258.379	36683
258.441	102254
258.503	60792
258.566	110420
258.628	85786
258.690	34059
258.753	46175
258.815	85290
258.877	40092
258.939	27733
259.001	26174
259.064	25856
259.126	44606
259.188	44963
259.250	36562
259.312	56110
259.375	131856
259.437	62266
259.499	32232
259.561	33887
259.623	33628
259.685	29074
259.747	34470
259.809	110644
259.872	134209
259.934	244573
259.996	134896
260.058	46701
260.120	29939
260.182	25944
260.244	25259
260.306	24766
260.368	29852
260.430	30696
260.492	49757
260.554	110793
260.616	78978
260.678	164934
260.740	130059
260.802	47470
260.864	45816
260.926	38693
260.988	36462
261.050	37630
261.112	57621
261.174	152252
261.236	89609
261.298	46861
261.359	94514
261.421	85084
261.483	36506
261.545	34104
261.607	25782
261.669	27673
261.731	73004
261.793	123941
261.854	58591
261.916	38339
261.978	29716
262.040	31243
262.102	29658
262.164	62754
262.225	36814
262.287	35718
262.349	94944
262.411	50942
262.472	30292
262.534	74442
262.596	92715
262.658	35692
262.719	30422
262.781	49423
262.843	104651
262.904	43736
262.966	41932
263.028	48171
263.090	241782
263.151	325385
263.213	115904
263.275	72431
263.336	36537
263.398	29952
263.459	26487
263.521	34348
263.583	84707
263.644	44626
263.706	25846
263.767	20368
263.829	17958
263.891	16958
263.952	17487
264.014	16222
264.075	24724
264.137	40758
264.198	32773
264.260	16988
264.321	18361
264.383	63880
264.444	61090
264.506	23735
264.567	21587
264.629	31813
264.690	37118
264.752	32048
264.813	25116
264.875	19715
264.936	17711
264.998	16353
265.059	17146
265.120	18093
265.182	25860
265.243	46536
265.305	31307
265.366	19684
265.427	17938
265.489	16207
265.550	16015
265.611	29780
265.673	24183
265.734	17047
265.795	16262
265.857	16908
265.918	16755
265.979	24765
266.040	77351
266.102	44673
266.163	35117
266.224	41213
266.286	24565
266.347	21689
266.408	26751
266.469	27426
266.530	21413
266.592	23706
266.653	68834
266.714	79080
266.775	30034
266.836	23352
266.898	23117
266.959	33282
267.020	23686
267.081	22278
267.142	22464
267.203	21903
267.264	23286
267.326	29525
267.387	23525
267.448	20118
267.509	23908
267.570	22096
267.631	21196
267.692	18770
267.753	21530
267.814	22449
267.875	63024
267.936	84319
267.997	37114
268.058	36923
268.119	28578
268.180	30710
268.241	23635
268.302	20142
268.363	22472
268.424	27325
268.485	24010
268.546	17333
268.607	16168
268.668	16577
268.729	18422
268.790	22924
268.851	23985
268.912	80399
268.972	72836
269.033	40344
269.094	21820
269.155	18721
269.216	19832
269.277	23523
269.338	19233
269.398	23079
269.459	34527
269.520	44080
269.581	64304
269.642	65998
269.702	43460
269.763	28150
269.824	26612
269.885	45985
269.945	50489
270.006	23447
270.067	17847
270.128	18294
270.188	20598
270.249	22013
270.310	17232
270.370	20541
270.431	20137
270.492	18631
270.553	27956
270.613	72223
270.674	98342
270.734	38395
270.795	27644
270.856	47865
270.916	31735
270.977	25579
271.038	35688
271.098	32430
271.159	67422
271.219	41895
271.280	23495
271.340	21291
271.401	39204
271.462	67373
271.522	38365
271.583	28342
271.643	29932
271.704	28545
271.764	40882
271.825	103755
271.885	276037
271.946	241316
272.006	95753
272.066	172659
272.127	179763
272.187	60041
272.248	43272
272.308	58949
272.369	151989
272.429	69483
272.489	89079
272.550	70177
272.610	92349
272.671	54437
272.731	63185
272.791	86080
272.852	55628
272.912	47174
272.972	29617
273.033	33710
273.093	57036
273.153	42813
273.214	35054
273.274	44664
273.334	144842
273.394	192958
273.455	101443
273.515	123744
273.575	181369
273.635	81210
273.696	154620
273.756	195677
273.816	84172
273.876	59826
273.936	136962
273.997	131226
274.057	51282
274.117	51705
274.177	89637
274.237	291507
274.297	183353
274.358	159486
274.418	179886
274.478	115512
274.538	53122
274.598	59918
274.658	167537
274.718	163876
274.778	67027
274.838	45968
274.898	127697
274.958	236601
275.018	214632
275.078	115956
275.138	58914
275.198	36406
275.258	31323
275.318	50218
275.378	93692
275.438	81567
275.498	56259
275.558	148901
275.618	219840
275.678	122279
275.738	107065
275.798	57813
275.858	31656
275.918	26106
275.978	42421
276.038	32310
276.098	31273
276.157	92793
276.217	159339
276.277	72836
276.337	58642
276.397	38649
276.457	46959
276.517	28318
276.576	24473
276.636	28626
276.696	60328
276.756	115190
276.815	61599
276.875	40591
276.935	51843
276.995	36040
277.055	26816
277.114	27083
277.174	64571
277.234	127873
277.293	54368
277.353	38908
277.413	28281
277.472	39698
277.532	36563
277.592	45891
277.651	174775
277.711	171198
277.771	96801
277.830	297032
277.890	158346
277.950	203099
278.009	331330
278.069	120107
278.128	204529
278.188	186253
278.248	117941
278.307	257179
278.367	101789
278.426	49078
278.486	35989
278.545	30335
278.605	29557
278.664	30831
278.724	36604
278.783	118710
278.843	166003
278.902	55316
278.962	53923
279.021	51527
279.081	73878
279.140	64323
279.199	60370
279.259	56510
279.318	63074
279.378	85685
279.437	173706
279.496	502087
279.556	944834
279.615	574478
279.675	222242
279.734	150811
279.793	252728
279.853	255326
279.912	101655
279.971	78142
280.031	76601
280.090	156955
280.149	183308
280.208	225010
280.268	702465
280.327	474410
280.386	171972
280.445	159118
280.505	105945
280.564	57334
280.623	53283
280.682	100719
280.742	95710
280.801	42987
280.860	37217
280.919	32006
280.978	32145
281.037	29975
281.097	29128
281.156	31630
281.215	29440
281.274	45352
281.333	147157
281.392	69448
281.451	28912
281.510	26455
281.569	26316
281.628	21742
281.688	23414
281.747	30091
281.806	26541
281.865	21924
281.924	26901
281.983	22780
282.042	19292
282.101	21348
282.160	21704
282.219	21710
282.278	34434
282.337	97230
282.396	46472
282.454	29415
282.513	52455
282.572	136466
282.631	56879
282.690	31100
282.749	29078
282.808	34396
282.867	35224
282.926	31832
282.985	22967
283.043	21733
283.102	25759
283.161	29666
283.220	84776
283.279	107411
283.338	40954
283.396	33155
283.455	32260
283.514	38786
283.573	54714
283.631	38654
283.690	29666
283.749	32683
283.808	79973
283.866	59536
283.925	33608
283.984	33055
284.043	51186
284.101	44113
284.160	34868
284.219	39648
284.277	42973
284.336	83383
284.395	195947
284.453	110489
284.512	69391
284.570	99260
284.629	80078
284.688	87741
284.746	97643
284.805	118462
284.863	160571
284.922	186862
284.981	224326
285.039	323067
285.098	549305
285.156	929092
285.215	852843
285.273	1000082
285.332	785566
285.390	486817
285.449	316679
285.507	220618
285.566	165898
285.624	127293
285.683	103927
285.741	86730
285.799	76034
285.858	69171
285.916	63707
285.975	50614
286.033	44229
286.091	40568
286.150	36902
286.208	36945
286.267	40388
286.325	47192
286.383	67859
286.442	45230
286.500	30202
286.558	26729
286.616	28074
286.675	41076
286.733	34993
286.791	33138
286.850	37557
286.908	57212
286.966	68411
287.024	30992
287.083	24691
287.141	21630
287.199	30223
287.257	40772
287.315	27772
287.374	41281
287.432	79050
287.490	42126
287.548	33526
287.606	23876
287.664	26726
287.723	42222
287.781	39732
287.839	30338
287.897	38186
287.955	43750
288.013	61298
288.071	132346
288.129	526775
288.187	817161
288.245	315927
288.303	128813
288.361	77845
288.419	55165
288.477	38981
288.535	32763
288.593	29132
288.651	26396
288.709	22460
288.767	25916
288.825	22339
288.883	17610
288.941	18064
288.999	19872
289.057	16910
289.115	16582
289.173	19068
289.231	21014
289.289	20770
289.346	18812
289.404	28377
289.462	51275
289.520	43005
289.578	19530
289.636	13992
289.694	13270
289.751	13142
289.809	14046
289.867	17567
289.925	26889
289.983	26059
290.040	14946
290.098	16853
290.156	25384
290.214	27824
290.271	16145
290.329	13518
290.387	12686
290.444	12878
290.502	9402
290.560	11892
290.617	13132
290.675	14881
290.733	18035
290.790	18291
290.848	13997
290.906	19997
290.963	18971
291.021	16048
291.078	14898
291.136	18979
291.194	68627
291.251	84871
291.309	24237
291.366	16100
291.424	19237
291.481	19548
291.539	22934
291.596	18024
291.654	13478
291.711	13405
291.769	27784
291.826	52894
291.884	26334
291.941	18105
291.999	19339
292.056	26299
292.114	23750
292.171	17698
292.228	20566
292.286	30249
292.343	60289
292.401	57088
292.458	31097
292.515	28075
292.573	35078
292.630	32143
292.687	28338
292.745	21733
292.802	26436
292.859	68563
292.917	136946
292.974	60387
293.031	27444
293.089	20990
293.146	17489
293.203	16525
293.260	16875
293.318	27743
293.375	20187
293.432	16459
293.489	17115
293.546	18367
293.604	34499
293.661	116274
293.718	171768
293.775	78370
293.832	56252
293.889	51112
293.947	54205
294.004	34669
294.061	38597
294.118	83141
294.175	99903
294.232	71529
294.289	35941
294.346	25730
294.403	22466
294.460	25145
294.517	22577
294.574	19226
294.631	18400
294.688	27164
294.745	82360
294.802	190646
294.859	118920
294.916	76979
294.973	54573
295.030	52339
295.087	37750
295.144	25730
295.201	21511
295.258	21087
295.315	34679
295.372	115966
295.429	131488
295.486	54180
295.542	32952
295.599	53729
295.656	58773
295.713	96588
295.770	113651
295.827	41480
295.883	27831
295.940	33081
295.997	62942
296.054	45544
296.111	24740
296.167	18453
296.224	16507
296.281	14857
296.338	15735
296.394	19341
296.451	27408
296.508	90145
296.564	105277
296.621	82603
296.678	211031
296.734	181413
296.791	64574
296.848	45747
296.904	68883
296.961	138748
297.018	169234
297.074	87167
297.131	41977
297.187	37356
297.244	61420
297.301	210075
297.357	217429
297.414	71581
297.470	38485
297.527	27423
297.583	25276
297.640	26004
297.696	19583
297.753	17446
297.809	15500
297.866	13993
297.922	15870
297.979	17374
298.035	23465
298.092	46404
298.148	112372
298.204	76688
298.261	45175
298.317	100182
298.374	185503
298.430	86446
298.486	56795
298.543	41248
298.599	36315
298.656	43741
298.712	97516
298.768	163764
298.824	79495
298.881	35761
298.937	24944
298.993	26242
299.050	36524
299.106	26706
299.162	26904
299.218	25738
299.275	20490
299.331	26034
299.387	69270
299.443	201039
299.500	139549
299.556	56178
299.612	37811
299.668	35961
299.724	39957
299.780	33695
299.837	30195
299.893	62534
299.949	180804
300.005	147111
300.061	170690
300.117	204177
300.173	85452
300.229	58161
300.285	86339
300.341	75978
300.397	39664
300.453	28498
300.510	27586
300.566	28458
300.622	37734
300.678	103793
300.734	158701
300.790	154230
300.845	149370
300.901	113262
300.957	165085
301.013	95210
301.069	42978
301.125	42789
301.181	41631
301.237	29286
301.293	22210
301.349	19965
301.405	19451
301.461	22185
301.516	25570
301.572	38710
301.628	63001
301.684	50373
301.740	89556
301.796	102618
301.851	85774
301.907	140249
301.963	119035
302.019	247070
302.074	493545
302.130	372693
302.186	156179
302.242	78668
302.297	56618
302.353	66602
302.409	111495
302.464	75888
302.520	93379
302.576	212866
302.631	184327
302.687	98757
302.743	45323
302.798	30403
302.854	23264
302.910	26455
302.965	39830
303.021	70779
303.076	63871
303.132	99981
303.187	90947
303.243	41486
303.299	24836
303.354	20474
303.410	18359
303.465	18809
303.521	18233
303.576	20381
303.632	26783
303.687	69030
303.743	155901
303.798	94621
303.853	42455
303.909	27500
303.964	29339
304.020	60484
304.075	70679
304.130	78604
304.186	136573
304.241	118575
304.297	84704
304.352	43773
304.358	42392
304.407	31220
304.449	33784
304.463	34664
304.518	33769
304.539	31052
304.573	26788
304.629	27440
304.630	27976
304.684	53573
304.720	113348
304.739	142937
304.794	140560
304.811	117650
304.850	63670
304.902	35115
304.905	33330
304.960	23854
304.992	21725
305.015	20282
305.071	21282
305.083	20477
305.126	17286
305.173	13546
305.181	13005
305.236	13626
305.264	17355
305.292	21088
305.347	25879
305.354	25724
305.402	24781
305.445	26025
305.457	26409
305.512	36503
305.535	36238
305.567	35966
305.622	35224
305.626	36791
305.678	70536
305.716	138321
305.733	162306
305.788	137579
305.807	121970
305.843	99283
305.897	153154
305.898	153729
305.953	112096
305.988	72601
306.008	52699
306.063	35875
306.078	33015
306.118	26535
306.168	19070
306.173	18422
306.228	15637
306.259	14485
306.283	13782
306.338	13781
306.349	13836
306.393	13885
306.440	13860
306.448	13955
306.503	15637
306.530	17798
306.558	23819
306.613	49857
306.620	55259
306.668	95965
306.711	147148
306.723	153660
306.778	97863
306.801	73406
306.833	48517
306.888	26569
306.892	25635
306.943	18936
306.982	16728
306.997	15913
307.052	15010
307.072	14365
307.107	13830
307.162	16125
307.163	16177
307.217	21351
307.253	24222
307.272	24902
307.327	25767
307.343	24978
307.381	25331
307.434	30017
307.436	31045
307.491	63359
307.524	98913
307.546	109673
307.600	98619
307.614	86200
307.655	48337
307.704	25500
307.710	24629
307.765	27756
307.795	33223
307.819	35828
307.874	39682
307.885	38145
307.929	29410
307.975	25951
307.984	26657
308.038	33363
308.065	39510
308.093	65743
308.148	144015
308.156	162335
308.202	227468
308.246	214849
308.257	206336
308.312	129646
308.336	118852
308.366	111681
308.421	74560
308.426	70757
308.475	41832
308.517	28888
308.530	27213
308.585	25663
308.607	25524
308.639	27269
308.694	31205
308.697	31723
308.748	44566
308.787	55940
308.803	56112
308.857	44110
308.877	40554
308.912	42146
308.967	50530
308.967	50738
309.021	84242
309.058	114238
309.076	136358
309.130	216503
309.148	240242
309.185	331534
309.238	505461
309.239	506194
309.293	513249
309.328	442575
309.348	378523
309.402	203398
309.418	161421
309.457	128093
309.508	100072
309.511	101335
309.566	141422
309.598	175093
309.620	219688
309.674	356800
309.688	385380
309.729	338464
309.778	238569
309.783	231657
309.837	156889
309.868	122816
309.892	145971
309.946	224216
309.959	246072
310.001	269675
310.049	266398
310.055	255537
310.109	137335
310.139	77822
310.163	61503
310.218	38614
310.229	34819
310.272	27691
310.319	21658
310.326	20835
310.381	16440
310.409	14747
310.435	14186
310.489	13151
310.499	13072
310.543	12718
310.589	12676
310.598	12573
310.652	12077
310.679	11764
310.706	11063
310.760	9658
310.769	9486
310.814	9380
310.859	9553
310.868	9758
310.923	10851
310.948	11591
310.977	13383
311.031	16828
311.038	17284
311.085	15904
311.128	14164
311.139	13827
311.193	12624
311.218	11902
311.247	11091
311.301	9636
311.308	9510
311.356	9448
311.398	9251
311.410	9282
311.464	9588
311.488	9689
311.518	11703
311.572	15695
311.578	16196
311.626	22787
311.668	28168
311.680	26304
311.734	17154
311.758	13233
311.788	13166
311.842	13257
311.847	13283
311.896	18323
311.937	22762
311.950	22526
312.004	21306
312.027	20750
312.058	17921
312.112	12880
312.117	12383
312.165	11066
312.207	9973
312.297	11047
312.386	9790
312.476	23861
312.566	50252
312.656	15388
312.745	7381
312.835	9689
312.925	12524
313.015	9368
313.104	8144
313.194	10837
313.284	12838
313.374	26033
313.463	17267
313.553	11177
313.643	9004
313.732	7940
313.822	8028
313.912	11007
314.001	15973
314.091	12296
314.180	15438
314.270	23684
314.360	25608
314.449	20483
314.539	10608
314.628	9335
314.718	12505
314.808	13604
314.897	10169
314.987	13262
315.076	24652
315.166	25104
315.255	18653
315.345	23386
315.434	17049
315.524	17236
315.613	28550
315.703	41472
315.792	62384
315.881	117500
315.971	40710
316.060	47883
316.150	40350
316.239	29772
316.328	12183
316.418	12196
316.507	16687
316.597	26182
316.686	18065
316.775	24011
316.865	25349
316.954	9714
317.043	10241
317.133	15092
317.222	11560
317.311	13157
317.400	14040
317.490	31538
317.579	28753
317.668	16670
317.757	38847
317.847	104753
317.936	223429
318.025	103378
318.114	55037
318.203	31435
318.293	43449
318.382	68837
318.471	60246
318.560	58854
318.649	57680
318.738	19715
318.828	33346
318.917	26470
319.006	25061
319.095	59562
319.184	116333
319.273	124011
319.362	71049
319.451	23591
319.540	28399
319.629	99097
319.718	105244
319.807	28709
319.896	77774
319.985	154202
320.074	66965
320.163	17685
320.252	22424
320.341	16555
320.430	25348
320.519	61676
320.608	22846
320.697	17404
320.786	22585
320.875	38683
320.964	57047
321.053	96065
321.142	153346
321.230	110025
321.319	109426
321.408	195665
321.497	63505
321.586	78231
321.675	59804
321.764	50103
321.852	48710
321.941	132017
322.030	61377
322.119	101616
322.207	203779
322.296	54615
322.385	33904
322.474	101837
322.562	280194
322.651	90203
322.740	117874
322.829	113030
322.917	63122
323.006	67899
323.095	57898
323.183	24479
323.272	50502
323.361	95276
323.449	128131
323.538	50948
323.626	116192
323.715	46779
323.804	35604
323.892	116424
323.981	66075
324.069	19613
324.158	43105
324.246	33077
324.335	53561
324.424	74855
324.512	21142
324.601	33544
324.689	57750
324.778	74925
324.866	45098
324.954	14488
325.043	24339
325.131	35676
325.220	37618
325.308	42077
325.397	46529
325.485	22721
325.574	16035
325.662	16795
325.750	21199
325.839	13723
325.927	12699
326.015	19916
326.104	19600
326.192	19829
326.280	11259
326.369	14257
326.457	41540
326.545	68554
326.634	17476
326.722	9148
326.810	13795
326.898	11563
326.987	20193
327.075	64911
327.163	32095
327.251	13095
327.340	27660
327.428	26178
327.516	10555
327.604	13369
327.692	9861
327.781	10547
327.869	17321
327.957	20496
328.045	23900
328.133	9615
328.221	12784
328.309	13840
328.397	14700
328.485	21234
328.574	50126
328.662	152945
328.750	41496
328.838	12898
328.926	10408
329.014	11963
329.102	25015
329.190	51841
329.278	34184
329.366	8066
329.454	6637
329.542	7432
329.630	7472
329.718	10569
329.806	18643
329.893	9988
329.981	6316
330.069	7431
330.157	21183
330.245	45679
330.333	21934
330.421	13035
330.509	56423
330.597	199270
330.684	82545
330.772	19235
330.860	14816
330.948	16304
331.036	13010
331.123	6882
331.211	7840
331.299	8896
331.387	24999
331.475	37585
331.562	12389
331.650	9535
331.738	12124
331.825	9825
331.913	8352
332.001	8785
332.089	11910
332.176	18556
332.264	42434
332.352	32715
332.439	18079
332.527	12669
332.614	8935
332.702	10145
332.790	13129
332.877	39356
332.965	59710
333.052	30213
333.140	59051
333.228	107205
333.315	20470
333.403	15494
333.490	29654
333.578	69129
333.665	168998
333.753	50215
333.840	14148
333.928	15784
334.015	28348
334.103	52981
334.190	106550
334.278	25344
334.365	18608
334.452	16652
334.540	10807
334.627	12607
334.715	16905
334.802	41758
334.889	161980
334.977	115931
335.064	23388
335.151	15212
335.239	11266
335.326	19214
335.413	73266
335.501	65258
335.588	16173
335.675	13030
335.762	13620
335.850	16547
335.937	19678
336.024	58648
336.111	155361
336.199	61905
336.286	18084
336.373	10497
336.460	8146
336.547	9162
336.635	17030
336.722	15482
336.809	10470
336.896	29413
336.983	62707
337.070	116883
337.157	112452
337.245	95109
337.332	42137
337.419	9851
337.506	7618
337.593	9667
337.680	31615
337.767	56349
337.854	35261
337.941	38067
338.028	44225
338.115	15128
338.202	15695
338.289	42129
338.376	99620
338.463	28745
338.550	44602
338.637	31443
338.724	22545
338.811	22832
338.898	8794
338.984	8716
339.071	11176
339.158	30037
339.245	83053
339.332	36488
339.419	30904
339.506	20107
339.593	9185
339.679	14166
339.766	12751
339.853	30157
339.940	61675
340.027	14644
340.113	24047
340.200	30767
340.287	17211
340.374	39031
340.460	53912
340.547	22710
340.634	59565
340.720	185381
340.807	71594
340.894	13258
340.980	16439
341.067	16262
341.154	19762
341.240	53405
341.327	82552
341.414	25455
341.500	29730
341.587	16017
341.674	18905
341.760	68771
341.847	67794
341.933	17022
342.020	7229
342.106	9335
342.193	28850
342.279	44149
342.366	40652
342.452	57412
342.539	32815
342.625	105710
342.712	184529
342.798	70310
342.885	23791
342.971	8189
343.058	8043
343.144	12585
343.230	12285
343.317	16048
343.403	11772
343.490	7704
343.576	8775
343.662	15128
343.749	19920
343.835	21766
343.921	55333
344.008	343246
344.094	513991
344.180	100285
344.267	63830
344.353	194187
344.439	137273
344.525	80279
344.612	28976
344.698	29106
344.784	18468
344.870	12855
344.957	20730
345.043	31703
345.129	31173
345.215	55360
345.301	32232
345.387	17462
345.474	7846
345.560	8751
345.646	10969
345.732	11756
345.818	21612
345.904	18963
345.990	22966
346.076	17381
346.162	23317
346.249	15007
346.335	11191
346.421	18186
346.507	102464
346.593	216916
346.679	41544
346.765	11696
346.851	18105
346.937	16634
347.023	12795
347.108	22749
347.194	16196
347.280	13950
347.366	26173
347.452	102738
347.538	286536
347.624	211797
347.710	130544
347.796	18903
347.882	10663
347.967	9340
348.053	10161
348.139	10198
348.225	12729
348.311	14964
348.397	12460
348.482	23818
348.568	22513
348.654	10787
348.740	16378
348.825	18195
348.911	39436
348.997	167803
349.083	205383
349.168	27214
349.254	18685
349.340	17039
349.425	12825
349.511	26453
349.597	27127
349.682	83818
349.768	188461
349.854	61115
349.939	10127
350.025	10850
350.110	10082
350.196	12030
350.282	9905
350.367	7852
350.453	16364
350.538	17626
350.624	25241
350.709	17169
350.795	12820
350.880	15842
350.966	16545
351.051	19995
351.137	12243
351.222	22103
351.308	88970
351.393	161687
351.479	38457
351.564	15944
351.649	14423
351.735	9867
351.820	10368
351.906	13812
351.991	27850
352.076	135334
352.162	141704
352.247	29423
352.332	27085
352.418	56016
352.503	86006
352.588	290114
352.673	191207
352.759	46742
352.844	22385
352.929	32902
353.014	40668
353.100	29869
353.185	66794
353.270	90675
353.355	63671
353.441	16399
353.526	22225
353.611	74159
353.696	73807
353.781	39656
353.866	17228
353.952	24747
354.037	84919
354.122	162404
354.207	131468
354.292	40075
354.377	17332
354.462	17544
354.547	30188
354.632	22949
354.717	43620
354.802	68568
354.887	21061
354.972	11773
355.057	10385
355.142	11354
355.227	22869
355.312	48640
355.397	123639
355.482	245575
355.567	99099
355.652	80956
355.737	96274
355.822	233381
355.907	137222
355.991	23117
356.076	15412
356.161	12121
356.246	11679
356.331	17445
356.416	75944
356.501	346846
356.585	264631
356.670	44795
356.755	30871
356.840	73096
356.924	360486
357.009	800346
357.094	252565
357.179	73062
357.263	47820
357.348	48257
357.433	45042
357.517	45640
357.602	34604
357.687	27923
357.771	48871
357.856	85396
357.941	66956
358.025	253746
358.110	706547
358.195	279658
358.279	51122
358.364	57394
358.448	226953
358.533	448534
358.617	320054
358.702	280904
358.787	100224
358.871	74202
358.956	51980
359.040	16739
359.125	12553
359.209	15923
359.294	43591
359.378	68885
359.462	54380
359.547	26326
359.631	14360
359.716	12931
359.800	13818
359.885	21314
359.969	20032
360.053	13605
360.138	15865
360.222	42224
360.306	72806
360.391	47213
360.475	90871
360.559	174240
360.644	178885
360.728	122283
360.812	234639
360.896	429358
360.981	192268
361.065	98030
361.149	30051
361.233	32107
361.318	27358
361.402	30856
361.486	24310
361.570	20304
361.654	36773
361.739	117247
361.823	375640
361.907	399568
361.991	74864
362.075	72775
362.159	143822
362.243	85465
362.327	70884
362.411	67039
362.495	38987
362.580	20647
362.664	13386
362.748	15018
362.832	18846
362.916	35408
363.000	134496
363.084	419644
363.168	480413
363.252	114320
363.336	45322
363.420	64905
363.503	110520
363.587	91826
363.671	37419
363.755	41580
363.839	56052
363.923	31120
364.007	71655
364.091	60020
364.175	55606
364.258	144894
364.342	140419
364.426	187226
364.510	104182
364.594	56990
364.677	127358
364.761	410769
364.845	239351
364.929	120511
365.013	98194
365.096	85643
365.180	84501
365.264	61359
365.347	126903
365.431	49153
365.515	27637
365.598	25223
365.682	17379
365.766	19062
365.849	19746
365.933	25865
366.017	21029
366.100	11438
366.184	8900
366.267	13435
366.351	15171
366.435	14742
366.518	10865
366.602	11266
366.685	17296
366.769	21950
366.852	32118
366.936	62833
367.019	42125
367.103	17236
367.186	15985
367.270	12403
367.353	11873
367.436	15155
367.520	15303
367.603	28930
367.687	55792
367.770	81493
367.853	52116
367.937	148117
368.020	183684
368.104	55887
368.187	69304
368.270	88579
368.353	71999
368.437	69312
368.520	75739
368.603	96986
368.687	193813
368.770	256996
368.853	68236
368.936	65733
369.020	42993
369.103	22439
369.186	14406
369.269	22905
369.352	62851
369.436	74430
369.519	40936
369.602	19053
369.685	22839
369.768	27522
369.851	17910
369.934	14390
370.018	33658
370.101	74850
370.184	43563
370.267	28239
370.350	56047
370.433	99710
370.516	230410
370.599	229592
370.682	105931
370.765	189485
370.848	230454
370.931	312942
371.014	90286
371.097	27123
371.180	20355
371.263	12845
371.346	11178
371.429	13595
371.511	21350
371.594	46285
371.677	51634
371.760	36766
371.843	77107
371.926	321183
372.009	529458
372.091	173112
372.174	161530
372.257	270522
372.340	101404
372.423	70054
372.505	51600
372.588	44012
372.671	160673
372.754	342240
372.836	139478
372.919	56860
373.002	77240
373.085	53732
373.167	77164
373.250	190485
373.332	323970
373.415	471312
373.498	742544
373.580	298403
373.663	410007
373.746	444020
373.828	113401
373.911	48590
373.993	50510
374.076	79601
374.159	69477
374.241	119305
374.324	301893
374.406	190951
374.489	304920
374.571	602115
374.654	233981
374.736	165318
374.819	420131
374.901	585911
374.983	500653
375.066	86270
375.148	33791
375.231	79347
375.313	115820
375.395	58926
375.478	21352
375.560	19047
375.643	42597
375.725	180300
375.807	483165
375.890	277195
375.972	88118
376.054	67968
376.136	53021
376.219	48857
376.301	198030
376.383	403013
376.465	157195
376.548	137247
376.630	184751
376.712	359689
376.794	141232
376.877	20008
376.959	15751
377.041	19227
377.123	17453
377.205	16224
377.287	9824
377.369	13746
377.452	16588
377.534	15235
377.616	16961
377.698	18001
377.780	15583
377.862	20182
377.944	17015
378.026	11340
378.108	12193
378.190	13355
378.272	11137
378.354	8706
378.436	9567
378.518	28979
378.600	71098
378.682	103880
378.764	221379
378.846	141602
378.928	49830
379.010	74124
379.091	35090
379.173	16726
379.255	18773
379.337	41706
379.419	142636
379.501	274486
379.583	93639
379.664	38712
379.746	114653
379.828	239576
379.910	293894
379.991	211945
380.073	38172
380.155	28170
380.237	22107
380.318	15227
380.400	23557
380.482	61794
380.564	93313
380.645	96973
380.727	80381
380.809	40138
380.890	31551
380.972	25201
381.053	21522
381.135	31801
381.217	107101
381.298	217926
381.380	102878
381.461	134131
381.543	412268
381.624	405022
381.706	78299
381.787	39051
381.869	59477
381.951	240789
382.032	593593
382.113	349050
382.195	87230
382.276	70144
382.358	185925
382.439	364755
382.521	412988
382.602	532794
382.684	320785
382.765	566005
382.846	807689
382.928	1185507
383.009	637901
383.090	606501
383.172	1646180
383.253	1912231
383.334	721411
383.416	559631
383.497	294725
383.578	209958
383.659	502398
383.741	1551025
383.822	2602216
383.903	1321982
383.984	564672
384.066	681906
384.147	385252
384.228	99362
384.309	82653
384.390	62322
384.471	44689
384.553	49862
384.634	68694
384.715	64733
384.796	36659
384.877	74941
384.958	217124
385.039	230905
385.120	84417
385.201	38890
385.282	41445
385.363	36748
385.444	46224
385.525	104039
385.606	255432
385.687	186291
385.768	45882
385.849	93756
385.930	324765
386.011	423809
386.092	112882
386.173	27831
386.254	19466
386.335	21546
386.416	45385
386.496	146551
386.577	190556
386.658	58714
386.739	37510
386.820	23221
386.901	18515
386.981	20127
387.062	22821
387.143	80576
387.224	215263
387.304	164815
387.385	56091
387.466	28946
387.547	27938
387.627	33627
387.708	121339
387.789	377108
387.869	376443
387.950	86999
388.031	14978
388.111	12911
388.192	23089
388.273	30658
388.353	29213
388.434	32284
388.514	104508
388.595	322812
388.676	379944
388.756	215922
388.837	208579
388.917	114994
388.998	22687
389.078	20861
389.159	20962
389.239	24968
389.320	39434
389.400	42947
389.480	94922
389.561	195309
389.641	87625
389.722	43255
389.802	75361
389.883	115245
389.963	222313
390.043	110167
390.124	33455
390.204	102306
390.284	245899
390.365	141058
390.445	134097
390.525	343993
390.605	316110
390.686	116987
390.766	38668
390.846	20307
390.927	16227
391.007	18664
391.087	19760
391.167	22012
391.247	17081
391.328	21416
391.408	22553
391.488	16294
391.568	15081
391.648	34227
391.728	48253
391.808	46093
391.888	62599
391.969	133212
392.049	170789
392.129	62824
392.209	109478
392.289	214933
392.369	93003
392.449	38843
392.529	39786
392.609	48420
392.689	94205
392.769	223547
392.849	168106
392.929	128462
393.009	259194
393.089	202003
393.169	206476
393.248	719060
393.328	1815335
393.408	1652637
393.488	460146
393.568	132987
393.648	69369
393.728	44686
393.807	32145
393.887	25010
393.967	23579
394.047	29103
394.127	32290
394.206	43256
394.286	158884
394.366	466906
394.446	392369
394.525	69860
394.605	21315
394.685	31698
394.764	61500
394.844	88722
394.924	66627
395.003	38945
395.083	29750
395.163	26774
395.242	25359
395.322	23960
395.402	14015
395.481	21501
395.561	60119
395.640	134632
395.720	119584
395.799	90331
395.879	56441
395.958	41146
396.038	197440
396.117	603361
396.197	525808
396.276	111215
396.356	46220
396.435	42244
396.515	48887
396.594	91826
396.673	211076
396.753	734434
396.832	1608139
396.912	1152018
396.991	306223
397.070	79273
397.150	47804
397.229	33825
397.308	44716
397.388	60604
397.467	29992
397.546	16873
397.625	19274
397.705	32255
397.784	35192
397.863	17291
397.942	9493
398.022	12914
398.101	36448
398.180	70941
398.259	35303
398.338	19993
398.417	22367
398.497	14838
398.576	14962
398.655	12609
398.734	10114
398.813	11297
398.892	35355
398.971	76771
399.050	36412
399.129	8381
399.208	7588
399.287	7820
399.366	6639
399.445	8398
399.524	10532
399.603	15542
399.682	39345
399.761	81825
399.840	105300
399.919	60673
399.998	11148
400.077	8486
400.156	8409
400.235	10572
400.313	9574
400.392	34911
400.471	139457
400.550	181540
400.629	48247
400.708	18380
400.786	12710
400.865	20217
400.944	28314
401.023	19873
401.102	7735
401.180	5935
401.259	6411
401.338	10856
401.416	22450
401.495	19028
401.574	9039
401.652	11269
401.731	20160
401.810	21855
401.888	10805
401.967	8079
402.046	13105
402.124	20177
402.203	25502
402.281	13787
402.360	19099
402.438	26930
402.517	17823
402.596	8909
402.674	7007
402.753	5878
402.831	7373
402.910	24682
402.988	125621
403.066	277528
403.145	145850
403.223	119916
403.302	246040
403.380	189086
403.459	175687
403.537	65649
403.615	22645
403.694	6374
403.772	6611
403.850	6057
403.929	6704
404.007	15211
404.085	43617
404.164	49819
404.242	14909
404.320	13177
404.398	36358
404.477	166896
404.555	479273
404.633	351464
404.711	51514
404.789	16082
404.868	20141
404.946	12318
405.024	6033
405.102	6625
405.180	8096
405.258	8110
405.336	8908
405.415	12260
405.493	26577
405.571	29561
405.649	11569
405.727	9493
405.805	16969
405.883	20810
405.961	16259
406.039	10685
406.117	11740
406.195	41066
406.273	181461
406.351	415927
406.429	204371
406.507	25876
406.585	12496
406.663	20537
406.740	29680
406.818	23955
406.896	10311
406.974	15618
407.052	79554
407.130	284335
407.208	317500
407.285	60972
407.363	13608
407.441	13553
407.519	12081
407.596	17200
407.674	28507
407.752	27515
407.830	28021
407.907	26756
407.985	19567
408.063	9790
408.141	6316
408.218	14544
408.296	22296
408.373	25553
408.451	24369
408.529	19546
408.606	8877
408.684	5025
408.762	4556
408.839	3875
408.917	4437
408.994	5675
409.072	5684
409.149	7284
409.227	12088
409.304	14651
409.382	11537
409.459	14609
409.537	20464
409.614	17918
409.692	11993
409.769	15502
409.846	23691
409.924	24500
410.001	18907
410.079	14018
410.156	10810
410.233	9851
410.311	9357
410.388	8397
410.465	10245
410.543	10085
410.620	8751
410.697	15626
410.775	19666
410.852	9428
410.929	16692
411.006	19810
411.083	11590
411.161	21630
411.238	18804
411.315	10136
411.392	9769
411.469	15239
411.547	12854
411.624	7106
411.701	8512
411.778	22318
411.855	43913
411.932	22723
412.009	9114
412.086	8352
412.163	9731
412.240	11293
412.317	11007
412.394	8168
412.471	5406
412.548	6860
412.625	9249
412.702	13559
412.779	22015
412.856	11855
412.933	5039
413.010	7079
413.087	34204
413.164	128980
413.241	153893
413.318	40672
413.395	25724
413.471	37547
413.548	15428
413.625	9482
413.702	13393
413.779	6314
413.855	3695
413.932	2686
414.009	3610
414.086	4928
414.162	6986
414.239	32120
414.316	141604
414.393	240230
414.469	77146
414.546	8437
414.623	5649
414.699	9293
414.776	13618
414.853	8554
414.929	8205
415.006	7433
415.082	5865
415.159	6269
415.236	7521
415.312	13799
415.389	35515
415.465	43531
415.542	19518
415.618	16736
415.695	27303
415.771	19860
415.848	14117
415.924	9879
416.000	5393
416.077	4991
416.153	3105
416.230	1876
416.306	3322
416.383	3404
416.459	4768
416.535	3810
416.612	4497
416.688	6280
416.764	10118
416.841	8921
416.917	8389
416.993	7907
417.069	13017
417.146	16139
417.222	17638
417.298	13372
417.374	8183
417.451	12155
417.527	22188
417.603	23991
417.679	15554
417.755	9573
417.831	5449
417.908	4480
417.984	4064
418.060	11786
418.136	40619
418.212	48327
418.288	15078
418.364	6629
418.440	11721
418.516	17949
418.592	20300
418.668	58544
418.744	95055
418.820	59399
418.896	12946
418.972	5880
419.048	14353
419.124	40786
419.200	30471
419.276	6805
419.352	2696
419.428	6324
419.504	13059
419.579	18623
419.655	12292
419.731	22030
419.807	71562
419.883	112842
419.959	66951
420.034	19641
420.110	59519
420.186	162684
420.262	108002
420.337	19428
420.413	15237
420.489	7880
420.565	5761
420.640	6898
420.716	8445
420.792	5367
420.867	8506
420.943	12007
421.019	25823
421.094	18370
421.170	6029
421.245	4008
421.321	7191
421.397	7356
421.472	9536
421.548	16175
421.623	20770
421.699	15562
421.774	16204
421.850	17260
421.925	31488
422.001	24454
422.076	15808
422.152	21847
422.227	38196
422.302	34152
422.378	47212
422.453	93739
422.529	247279
422.604	664277
422.679	958149
422.755	579973
422.830	193543
422.905	69952
422.981	39638
423.056	25778
423.131	18463
423.207	17017
423.282	29071
423.357	54861
423.432	37964
423.508	47011
423.583	95189
423.658	59073
423.733	15727
423.808	20552
423.883	27579
423.959	22909
424.034	15116
424.109	9548
424.184	5060
424.259	5890
424.334	5757
424.409	5029
424.484	7561
424.559	11084
424.634	11630
424.709	21418
424.784	22850
424.859	13970
424.934	40868
425.009	140489
425.084	183396
425.159	57875
425.234	7673
425.309	5166
425.384	17463
425.459	25830
425.534	9759
425.609	4709
425.683	4069
425.758	5052
425.833	7902
425.908	22225
425.983	99874
426.058	198648
426.132	74798
426.207	8978
426.282	7112
426.357	5108
426.431	4673
426.506	5641
426.581	5409
426.655	6472
426.730	7093
426.805	7796
426.879	7081
426.954	10949
427.029	48739
427.103	214400
427.178	371272
427.253	136649
427.327	13798
427.402	12730
427.476	24974
427.551	14163
427.625	4899
427.700	5019
427.774	2964
427.849	4269
427.923	2545
427.998	4613
428.072	6986
428.147	27930
428.221	112328
428.296	206696
428.370	88817
428.444	11942
428.519	10416
428.593	16119
428.667	13162
428.742	15344
428.816	34006
428.890	120541
428.965	166049
429.039	47891
429.113	16896
429.188	8788
429.262	7934
429.336	34760
429.410	86002
429.485	43343
429.559	12969
429.633	9100
429.707	7722
429.781	34084
429.855	141006
429.930	203185
430.004	82506
430.078	66769
430.152	109745
430.226	263431
430.300	225589
430.374	32201
430.448	12916
430.522	33798
430.596	69134
430.670	101416
430.744	334548
430.818	413460
430.892	83764
430.966	14261
431.040	5953
431.114	4036
431.188	1872
431.262	3137
431.336	3820
431.410	15396
431.484	38605
431.557	30530
431.631	6219
431.705	9152
431.779	56625
431.853	164998
431.927	100605
432.000	11269
432.074	4598
432.148	4334
432.222	2850
432.295	3155
432.369	5993
432.443	31241
432.516	175077
432.590	332826
432.664	106604
432.737	11423
432.811	3236
432.885	2045
432.958	2159
433.032	1911
433.106	761
433.179	1205
433.253	1324
433.326	1830
433.400	1340
433.473	1470
433.547	1728
433.620	7647
433.694	20943
433.767	15338
433.841	3274
433.914	1322
433.988	1594
434.061	2432
434.134	1811
434.208	1166
434.281	1236
434.355	2771
434.428	2741
434.501	1772
434.575	1181
434.648	2260
434.721	2419
434.795	1581
434.868	1432
434.941	1958
435.014	2644
435.088	6153
435.161	15107
435.234	27582
435.307	27624
435.381	10769
435.454	8632
435.527	11148
435.600	9089
435.673	5859
435.746	3720
435.819	4095
435.892	3429
435.966	2223
436.039	1560
436.112	1837
436.185	529
436.258	762
436.331	190
436.404	731
436.477	265
436.550	416
436.623	1254
436.696	2686
436.769	5746
436.842	3731
436.915	4526
436.987	8919
437.060	3097
437.133	1607
437.206	711
437.279	2126
437.352	1859
437.425	3111
437.498	7091
437.570	20880
437.643	19350
437.716	3413
437.789	2725
437.861	11173
437.934	25306
438.007	10245
438.080	3296
438.152	7875
438.225	40930
438.298	224982
438.370	431533
438.443	148574
438.516	26365
438.588	5804
438.661	2227
438.734	4476
438.806	6709
438.879	7352
438.951	8975
439.024	12603
439.096	5448
439.169	2138
439.241	420
439.314	1491
439.386	2522
439.459	6256
439.531	10344
439.604	3977
439.676	1092
439.749	720
439.821	462
439.893	1403
439.966	2113
440.038	3779
440.110	6576
440.183	3666
440.255	2794
440.327	14594
440.400	103920
440.472	300348
440.544	161158
440.617	15897
440.689	11129
440.761	17078
440.833	24414
440.905	13622
440.978	2037
441.050	859
441.122	1302
441.194	1052
441.266	1821
441.338	3143
441.411	27246
441.483	124576
441.555	142526
441.627	23132
441.699	5598
441.771	3632
441.843	1682
441.915	769
441.987	1897
442.059	1445
442.131	2919
442.203	6348
442.275	9828
442.347	7907
442.419	16416
442.491	86440
442.563	166794
442.635	59668
442.706	33309
442.778	26594
442.850	5359
442.922	2472
442.994	5623
443.066	10320
443.137	5988
443.209	4397
443.281	9193
443.353	26181
443.425	117363
443.496	334144
443.568	271318
443.640	83086
443.711	13021
443.783	6194
443.855	3622
443.926	2189
443.998	2665
444.070	3407
444.141	6056
444.213	18185
444.285	21522
444.356	12241
444.428	5682
444.499	1780
444.571	1654
444.642	2766
444.714	9045
444.785	16433
444.857	10106
444.928	9786
445.000	6161
445.071	9568
445.143	14500
445.214	13074
445.285	18136
445.357	58427
445.428	248019
445.500	464313
445.571	241722
445.642	117248
445.714	37164
445.785	23219
445.856	16674
445.928	23710
445.999	14254
446.070	10625
446.141	17240
446.213	22483
446.284	6298
446.355	3472
446.426	3819
446.497	5554
446.569	6987
446.640	21759
446.711	17891
446.782	3038
446.853	4477
446.924	8260
446.995	7024
447.066	3288
447.138	2988
447.209	1686
447.280	1356
447.351	628
447.422	373
447.493	3293
447.564	12314
447.635	19718
447.706	5221
447.777	372
447.847	136
447.918	405
447.989	3229
448.060	4911
448.131	9950
448.202	16543
448.273	15606
448.344	2770
448.414	4649
448.485	2818
448.556	1767
448.627	758
448.698	1033
448.768	-87
448.839	1655
448.910	3623
448.981	5932
449.051	4394
449.122	1447
449.193	6
449.263	-93
449.334	1475
449.405	9193
449.475	25237
449.546	9648
449.616	3838
449.687	2062
449.758	725
449.828	-184
449.899	1637
449.969	789
450.040	253
450.110	1280
450.181	1440
450.251	1396
450.322	705
450.392	308
450.463	-127
450.533	-54
450.604	34
450.674	-617
450.744	627
450.815	-194
450.885	-85
450.955	504
451.026	787
451.096	1078
451.166	1216
451.237	4026
451.307	7992
451.377	2065
451.447	852
451.518	-223
451.588	-202
451.658	928
451.728	2502
451.799	10426
451.869	8472
451.939	1015
452.009	-378
452.079	-10
452.149	-45
452.219	3167
452.289	11324
452.360	5277
452.430	1971
452.500	5784
452.570	6504
452.640	9312
452.710	21067
452.780	25548
452.850	42683
452.920	38138
452.990	6079
453.060	4226
453.129	9908
453.199	6909
453.269	20912
453.339	29451
453.409	38043
453.479	46870
453.549	59551
453.619	54895
453.688	14399
453.758	1840
453.828	365
453.898	681
453.968	63
454.037	227
454.087	198
454.107	170
454.168	-400
454.177	-507
454.247	328
454.249	341
454.316	-116
454.330	151
454.386	851
454.411	2273
454.456	4435
454.492	5259
454.525	6006
454.574	2215
454.595	609
454.655	939
454.665	958
454.734	2945
454.736	3124
454.804	6807
454.817	7924
454.873	11817
454.898	10976
454.943	9498
454.979	5922
455.013	2874
455.060	2189
455.082	1886
455.141	3042
455.152	3085
455.221	8202
455.222	8318
455.291	11085
455.303	9912
455.360	5318
455.384	5799
455.430	6385
455.465	6174
455.499	5618
455.546	8945
455.569	10161
455.627	7239
455.638	6772
455.707	1581
455.708	1594
455.777	224
455.789	287
455.846	621
455.869	744
455.916	824
455.950	1044
455.985	1226
456.031	1102
456.054	1030
456.112	1734
456.124	1832
456.193	666
456.193	643
456.262	758
456.274	970
456.332	1631
456.355	1685
456.401	1767
456.436	1621
456.470	1312
456.516	989
456.540	877
456.597	1336
456.609	1408
456.678	1550
456.678	1533
456.747	1041
456.759	994
456.817	872
456.840	914
456.886	970
456.920	1169
456.955	1450
457.001	1671
457.024	1846
457.082	3316
457.093	3415
457.162	4887
457.163	4913
457.232	3921
457.243	3387
457.301	1523
457.324	1339
457.370	1129
457.405	1496
457.439	1866
457.485	2185
457.508	2430
457.566	3082
457.577	3476
457.646	6108
457.647	6184
457.715	12746
457.727	14329
457.784	21462
457.808	26923
457.853	31412
457.889	31496
457.922	31724
457.969	24631
457.991	24419
458.050	32832
458.060	34056
458.129	54985
458.130	55472
458.198	41102
458.211	33787
458.267	15637
458.292	11747
458.336	11734
458.372	14410
458.405	21746
458.453	33686
458.474	39079
458.533	61521
458.543	61410
458.611	76619
458.614	76162
458.680	36833
458.694	27254
458.749	10252
458.775	7466
458.818	4686
458.855	3753
458.887	3434
458.936	3581
458.955	3626
459.016	3466
459.024	3654
459.093	5791
459.097	5894
459.162	6662
459.177	7109
459.230	9284
459.257	10553
459.299	9723
459.338	7456
459.368	6758
459.418	7021
459.437	6788
459.499	5017
459.505	4906
459.574	5071
459.579	5022
459.643	4220
459.659	4157
459.711	4660
459.740	5028
459.780	5318
459.820	5786
459.849	5646
459.900	4514
459.917	4326
459.981	4315
459.986	4350
460.054	5243
460.061	5333
460.123	8668
460.141	9695
460.191	12036
460.222	14094
460.260	14593
460.302	15830
460.328	13883
460.382	5853
460.397	5532
460.462	5485
460.465	5503
460.534	7101
460.543	7413
460.602	11235
460.623	12547
460.671	16679
460.703	20772
460.739	17338
460.783	11095
460.808	9798
460.864	4568
460.876	4322
460.944	5236
460.945	5235
461.013	6686
461.024	6926
461.081	9501
461.104	10883
461.150	8979
461.184	6594
461.218	6214
461.264	5850
461.286	5614
461.345	5207
461.355	5171
461.423	5074
461.425	5064
461.491	6066
461.505	6413
461.559	11294
461.585	13434
461.628	16302
461.665	19753
461.696	19563
461.745	19789
461.764	18143
461.825	8431
461.832	8337
461.901	9419
461.905	9586
461.969	6278
461.985	5045
462.037	4828
462.065	4948
462.105	5868
462.145	7139
462.173	8599
462.225	11174
462.241	11851
462.305	15499
462.310	15168
462.378	9284
462.385	8421
462.446	8293
462.465	8814
462.514	7931
462.545	7077
462.582	6514
462.625	5815
462.650	5507
462.705	4701
462.718	4839
462.785	6022
462.786	6062
462.854	8177
462.865	8531
462.922	8947
462.945	9231
462.990	8039
463.025	6563
463.058	5955
463.104	5274
463.126	5737
463.184	7369
463.194	7611
463.262	8843
463.264	8915
463.330	7939
463.344	7454
463.398	7082
463.424	7055
463.466	7093
463.504	7189
463.533	7857
463.583	8844
463.601	9518
463.663	11713
463.669	12170
463.737	18015
463.743	18540
463.805	20471
463.823	20737
463.873	22822
463.903	24372
463.940	22701
463.982	20980
464.008	17343
464.062	8520
464.076	8290
464.142	7157
464.144	7160
464.211	7670
464.221	7740
464.279	9964
464.301	10902
464.347	10398
464.381	9840
464.414	10610
464.461	11534
464.482	11620
464.540	12065
464.550	12444
464.617	14762
464.620	14834
464.685	17298
464.699	17815
464.753	14042
464.779	11974
464.820	10606
464.859	9126
464.888	8835
464.938	8642
464.956	8802
465.018	9188
465.023	9172
465.091	8878
465.098	8832
465.158	8930
465.177	8941
465.226	10184
465.257	11017
465.293	13428
465.336	16046
465.361	19146
465.416	26331
465.428	25837
465.495	23251
465.496	23297
465.563	24376
465.575	24616
465.631	24041
465.654	23874
465.698	15835
465.734	8645
465.765	8080
465.813	7500
465.833	7560
465.893	7771
465.900	7773
465.968	7657
465.972	7639
466.035	8019
466.052	8112
466.102	8776
466.131	9079
466.170	9141
466.210	9195
466.237	8858
466.290	8070
466.304	8319
466.369	9380
466.372	9441
466.439	10677
466.449	10830
466.506	14503
466.528	15879
466.573	25813
466.607	33183
466.641	41361
466.687	52681
466.708	53642
466.766	56135
466.775	52302
466.842	22342
466.845	20880
466.909	15725
466.925	14515
466.977	12650
467.004	11639
467.044	11960
467.083	12260
467.111	13014
467.163	14375
467.178	14614
467.242	15421
467.245	15531
467.312	17131
467.321	17307
467.379	14512
467.400	13450
467.446	14494
467.480	15200
467.559	13147
467.638	12369
467.717	18042
467.796	24589
467.875	30860
467.955	18791
468.034	28815
468.113	43908
468.192	51408
468.271	16526
468.350	20596
468.429	23416
468.508	23291
468.588	15982
468.667	14723
468.746	14632
468.825	13598
468.904	14589
468.983	19737
469.062	24876
469.141	27098
469.220	11992
469.299	11543
469.378	11316
469.456	12525
469.535	12716
469.614	12612
469.693	15881
469.772	19575
469.851	25444
469.930	18334
470.009	21987
470.088	32199
470.166	60382
470.245	101322
470.324	113552
470.403	56528
470.482	33055
470.560	27821
470.639	29768
470.718	37606
470.797	21462
470.875	28552
470.954	32941
471.033	24206
471.111	10638
471.190	10302
471.269	10667
471.347	10431
471.426	11662
471.505	10954
471.583	11642
471.662	10596
471.740	10418
471.819	10456
471.898	9852
471.976	9786
472.055	11701
472.133	12025
472.212	14635
472.290	12770
472.369	9608
472.447	9630
472.526	10395
472.604	15729
472.683	22435
472.761	24317
472.839	19482
472.918	14150
472.996	13815
473.075	14548
473.153	14206
473.231	13992
473.310	19735
473.388	18069
473.466	17946
473.545	32139
473.623	48752
473.701	37389
473.780	16229
473.858	15412
473.936	17461
474.014	15112
474.093	20519
474.171	20356
474.249	24183
474.327	15904
474.405	13561
474.484	14345
474.562	17645
474.640	13806
474.718	13790
474.796	12763
474.874	12202
474.952	11216
475.030	12851
475.108	12770
475.187	18476
475.265	40463
475.343	68227
475.421	61580
475.499	12478
475.577	13761
475.655	19964
475.733	30946
475.811	44221
475.889	37538
475.966	22667
476.044	27530
476.122	53585
476.200	67217
476.278	28299
476.356	13048
476.434	22491
476.512	42927
476.590	60352
476.667	31393
476.745	14774
476.823	16699
476.901	11990
476.979	11057
477.056	12949
477.134	14727
477.212	16419
477.290	14235
477.367	10056
477.445	9491
477.523	10670
477.601	11913
477.678	11879
477.756	11742
477.834	13347
477.911	11097
477.989	12301
478.066	13756
478.144	24824
478.222	59897
478.299	104666
478.377	55429
478.454	12591
478.532	13820
478.609	18907
478.687	19868
478.764	14246
478.842	21092
478.919	25232
478.997	16851
479.074	11519
479.152	12563
479.229	13555
479.307	9212
479.384	9340
479.461	10123
479.539	10946
479.616	11043
479.694	11525
479.771	12492
479.848	15109
479.926	16935
480.003	17852
480.080	12688
480.157	11382
480.235	12619
480.312	12672
480.389	13766
480.467	17226
480.544	18376
480.621	12750
480.698	15612
480.775	16597
480.853	13372
480.930	12016
481.007	11886
481.084	12567
481.161	11589
481.238	12228
481.315	10102
481.392	10380
481.470	11117
481.547	11018
481.624	10015
481.701	11358
481.778	12318
481.855	15103
481.932	19884
482.009	28542
482.086	20301
482.163	32881
482.240	83377
482.317	146710
482.393	59587
482.470	15889
482.547	15119
482.624	14476
482.701	15194
482.778	13385
482.855	11288
482.932	12032
483.009	12148
483.085	16139
483.162	19612
483.239	18374
483.316	14722
483.393	14551
483.469	13427
483.546	15378
483.623	13831
483.699	12550
483.776	14651
483.853	18311
483.930	30062
484.006	44489
484.083	57321
484.160	20870
484.236	25636
484.313	24019
484.389	18638
484.466	18650
484.543	18637
484.619	20984
484.696	22248
484.772	20237
484.849	20335
484.925	16618
485.002	17464
485.078	21003
485.155	20476
485.231	15530
485.308	15239
485.384	18483
485.461	28634
485.537	41618
485.614	38451
485.690	19232
485.766	23133
485.843	50182
485.919	92980
485.995	77580
486.072	18163
486.148	17874
486.224	17571
486.301	21628
486.377	25635
486.453	26206
486.530	18954
486.606	20998
486.682	25216
486.758	33872
486.835	39733
486.911	48058
486.987	120451
487.063	230681
487.139	323167
487.215	166695
487.292	30343
487.368	24750
487.444	32184
487.520	47473
487.596	55475
487.672	140523
487.748	316652
487.824	380022
487.900	83494
487.976	37279
488.052	37612
488.128	48879
488.204	32869
488.280	22571
488.356	32793
488.432	56996
488.508	74308
488.584	34702
488.660	31422
488.736	31798
488.812	40634
488.888	70476
488.964	169215
489.039	430487
489.115	525884
489.191	180248
489.267	26564
489.343	20153
489.418	16394
489.494	15949
489.570	15618
489.646	16899
489.722	15705
489.797	19949
489.873	31951
489.949	54253
490.024	34943
490.100	19117
490.176	28542
490.251	57457
490.327	82347
490.403	21438
490.478	15767
490.554	14556
490.629	15300
490.705	18277
490.781	21601
490.856	23727
490.932	36408
491.007	40951
491.083	24171
491.158	21929
491.234	29294
491.309	45417
491.385	36191
491.460	20563
491.536	24295
491.611	28588
491.686	45421
491.762	109902
491.837	262454
491.913	432322
491.988	558841
492.063	575608
492.139	56147
492.214	28521
492.289	21761
492.365	26042
492.440	31876
492.515	24119
492.590	18074
492.666	19556
492.741	26629
492.816	29133
492.891	17014
492.967	18026
493.042	17753
493.117	15405
493.192	20153
493.267	31059
493.342	44107
493.418	35235
493.493	15711
493.568	16225
493.643	18688
493.718	32482
493.793	64146
493.868	87260
493.943	45238
494.018	21233
494.093	15636
494.168	17450
494.243	17001
494.318	14400
494.393	14735
494.468	17239
494.543	24357
494.618	33755
494.693	19677
494.768	16281
494.842	18124
494.917	20838
494.992	24071
495.067	19748
495.142	20297
495.217	24820
495.292	25778
495.366	30621
495.441	40204
495.516	65820
495.591	212825
495.665	690405
495.740	1218179
495.815	245488
495.890	33945
495.964	23826
496.039	22330
496.114	21014
496.188	22382
496.263	21376
496.338	18707
496.412	22254
496.487	32826
496.561	55947
496.636	44865
496.710	25842
496.785	29000
496.860	28033
496.934	25553
497.009	28654
497.083	21507
497.158	22320
497.232	30567
497.307	38715
497.381	24226
497.455	27429
497.530	27619
497.604	21389
497.679	24997
497.753	38937
497.827	45035
497.902	39040
497.976	60998
498.050	190910
498.125	474621
498.199	349842
498.273	119358
498.348	98506
498.422	70194
498.496	80214
498.570	60832
498.645	26076
498.719	24699
498.793	34007
498.867	52888
498.941	86716
499.016	230731
499.090	437820
499.164	82671
499.238	24339
499.312	33809
499.386	51128
499.460	29387
499.534	26741
499.609	31082
499.683	34535
499.757	41546
499.831	124708
499.905	304771
499.979	186311
500.053	56377
500.127	95110
500.201	93101
500.275	36078
500.349	31234
500.422	50225
500.496	121167
500.570	263525
500.644	275307
500.718	276134
500.792	42068
500.866	24208
500.940	25568
501.013	25317
501.087	46767
501.161	102440
501.235	90873
501.309	127610
501.382	263556
501.456	186006
501.530	71481
501.603	73019
501.677	24374
501.751	20873
501.825	28531
501.898	47545
501.972	93681
502.046	42146
502.119	37012
502.193	81881
502.266	109501
502.340	40901
502.413	54276
502.487	81541
502.561	43691
502.634	30095
502.708	42114
502.781	33656
502.855	19787
502.928	15377
503.002	15061
503.075	14899
503.149	14694
503.222	14057
503.295	13419
503.369	16988
503.442	33183
503.516	95489
503.589	170021
503.662	86131
503.736	44972
503.809	89804
503.882	79798
503.956	125863
504.029	146510
504.102	240326
504.175	229653
504.249	59447
504.322	32304
504.395	27231
504.468	19127
504.542	16451
504.615	13474
504.688	15764
504.761	19706
504.834	34598
504.907	67549
504.980	103096
505.053	35693
505.127	63696
505.200	38116
505.273	19222
505.346	13910
505.419	12711
505.492	11226
505.565	10589
505.638	10855
505.711	11314
505.784	10417
505.857	10615
505.930	11641
506.003	10766
506.076	12397
506.149	15149
506.221	16642
506.294	23515
506.367	66418
506.440	150182
506.513	69008
506.586	22548
506.659	19172
506.731	24313
506.804	41463
506.877	60657
506.950	18373
507.022	16549
507.095	20329
507.168	26001
507.241	22869
507.313	22074
507.386	37715
507.459	55450
507.531	24428
507.604	18787
507.677	14675
507.749	17646
507.822	39367
507.894	67260
507.967	42856
508.040	15362
508.112	17184
508.185	18828
508.257	31027
508.330	48659
508.402	14392
508.475	13265
508.547	13877
508.620	16214
508.692	20957
508.765	12668
508.837	10397
508.909	12343
508.982	17239
509.054	24203
509.127	15689
509.199	11286
509.271	9776
509.344	10202
509.416	11133
509.488	11661
509.560	15293
509.633	26437
509.705	32537
509.777	31708
509.849	56508
509.922	22027
509.994	10109
510.066	11868
510.138	10325
510.210	14628
510.283	12829
510.355	14481
510.427	13534
510.499	13994
510.571	14854
510.643	28028
510.715	68479
510.787	42321
510.859	19716
510.931	33917
511.003	58548
511.076	31859
511.148	11556
511.219	12522
511.291	19025
511.363	17113
511.435	10312
511.507	10862
511.579	10538
511.651	11010
511.723	10795
511.795	11647
511.867	11372
511.939	16384
512.010	28633
512.082	21941
512.154	19134
512.226	18148
512.298	30302
512.369	45741
512.441	38323
512.513	48182
512.585	27810
512.656	27541
512.728	33128
512.800	16436
512.871	15541
512.943	16861
513.015	15927
513.086	23097
513.158	30150
513.230	42408
513.301	85502
513.373	81837
513.444	27603
513.516	19877
513.588	23397
513.659	36523
513.731	53643
513.802	61189
513.874	179180
513.945	249453
514.016	38938
514.088	23900
514.159	39650
514.231	54312
514.302	41421
514.374	17428
514.445	19117
514.516	33249
514.588	21144
514.659	23314
514.730	38268
514.802	40147
514.873	24928
514.944	21629
515.016	31444
515.087	42491
515.158	38399
515.229	30762
515.301	18095
515.372	19982
515.443	17634
515.514	17394
515.585	18280
515.656	19764
515.728	21010
515.799	23138
515.870	28618
515.941	29496
516.012	31772
516.083	41110
516.154	64513
516.225	99541
516.296	76574
516.367	69745
516.438	85875
516.509	135075
516.580	321924
516.651	1183661
516.722	2591837
516.793	623344
516.864	144317
516.935	122781
517.006	157527
517.077	345229
517.148	1079929
517.219	3102912
517.289	2744815
517.360	396764
517.431	111365
517.502	66768
517.573	57219
517.643	54766
517.714	56102
517.785	60449
517.856	69467
517.926	84810
517.997	107377
518.068	143555
518.138	243070
518.209	657028
518.280	2438805
518.350	4500962
518.421	1216601
518.492	203784
518.562	105832
518.633	86504
518.703	94785
518.774	170179
518.845	324705
518.915	217997
518.986	83906
519.056	102709
519.127	222326
519.197	276035
519.268	248335
519.338	77818
519.408	66594
519.479	129168
519.549	67177
519.620	34458
519.690	23219
519.760	24597
519.831	34979
519.901	28560
519.971	17496
520.042	20747
520.112	28973
520.182	56717
520.253	52452
520.323	24011
520.393	43500
520.463	53608
520.534	45020
520.604	68368
520.674	26254
520.744	45901
520.814	117249
520.885	76512
520.955	77188
521.025	162251
521.095	36730
521.165	17106
521.235	16100
521.305	16230
521.375	20052
521.445	37399
521.515	68104
521.585	79632
521.655	59930
521.725	47819
521.795	24888
521.865	15844
521.935	23006
522.005	17958
522.075	16044
522.145	19224
522.215	21213
522.285	28441
522.355	39608
522.424	59510
522.494	54714
522.564	84744
522.634	306019
522.704	614630
522.774	112142
522.843	31994
522.913	42743
522.983	59271
523.053	31675
523.122	44516
523.192	135206
523.262	447167
523.331	238667
523.401	27756
523.471	21482
523.540	25304
523.610	15005
523.680	14598
523.749	13224
523.819	17199
523.888	15639
523.958	14157
524.027	14634
524.097	16126
524.166	21266
524.236	35192
524.305	20547
524.375	15977
524.444	13372
524.514	14615
524.583	14524
524.653	17983
524.722	18106
524.791	14304
524.861	15914
524.930	17780
524.999	30562
525.069	39997
525.138	18884
525.207	19922
525.277	19205
525.346	23578
525.415	18800
525.484	24419
525.554	23966
525.623	20217
525.692	22294
525.761	25208
525.830	28486
525.900	37121
525.969	61153
526.038	115292
526.107	301356
526.176	623487
526.245	363662
526.314	191520
526.383	385472
526.452	431198
526.522	813929
526.591	556641
526.660	288541
526.729	104446
526.797	157111
526.867	543586
526.935	1677123
527.004	1803990
527.073	544913
527.142	56533
527.211	38580
527.280	60636
527.349	48748
527.418	20453
527.487	20596
527.555	17168
527.624	15084
527.693	14252
527.762	15919
527.831	15276
527.899	15928
527.968	17360
528.037	21480
528.106	48927
528.174	93042
528.243	49741
528.312	111249
528.380	112735
528.449	20876
528.518	14471
528.586	10094
528.655	11722
528.723	10949
528.792	13681
528.861	14522
528.929	10733
528.998	10401
529.066	10048
529.135	10266
529.203	10814
529.272	9612
529.340	12542
529.409	12559
529.477	11777
529.545	14139
529.614	16423
529.682	17601
529.751	17915
529.819	21981
529.887	14899
529.956	12874
530.024	14392
530.092	17016
530.161	42064
530.229	70021
530.297	19185
530.365	12763
530.434	10986
530.502	10285
530.570	12016
530.638	10736
530.707	20983
530.775	15675
530.843	11488
530.911	11270
530.979	11009
531.047	11030
531.115	12308
531.183	10979
531.252	11256
531.320	12051
531.388	12116
531.456	13318
531.524	12429
531.592	14942
531.660	17262
531.728	13496
531.796	13057
531.864	14800
531.932	16743
532.000	17469
532.067	20677
532.135	23951
532.203	29896
532.271	43386
532.339	137210
532.407	322060
532.475	93940
532.542	38019
532.610	53828
532.678	141359
532.746	652504
532.814	883276
532.881	138979
532.949	24923
533.017	20282
533.084	15307
533.152	15318
533.220	22620
533.287	28533
533.355	14417
533.423	13361
533.490	13203
533.558	13739
533.625	14113
533.693	14707
533.761	15308
533.828	19595
533.896	35207
533.963	100702
534.031	115502
534.098	150128
534.166	30106
534.233	15511
534.300	18265
534.368	19448
534.435	16280
534.503	18594
534.570	22601
534.637	19477
534.705	23347
534.772	36482
534.840	99008
534.907	372187
534.974	243335
535.041	29632
535.109	18953
535.176	14476
535.243	16972
535.310	25140
535.378	16993
535.445	13712
535.512	13498
535.579	14387
535.646	13055
535.714	14179
535.781	15228
535.848	15332
535.915	15054
535.982	15049
536.049	15858
536.116	19517
536.183	19726
536.250	23563
536.317	26552
536.384	47606
536.451	86066
536.518	69798
536.585	43479
536.652	71565
536.719	115135
536.786	64611
536.853	49688
536.920	101882
536.987	167455
537.053	213010
537.120	691252
537.187	274663
537.254	26740
537.321	23615
537.388	22442
537.454	16167
537.521	16917
537.588	16137
537.654	19626
537.721	23997
537.788	22492
537.855	17860
537.921	22890
537.988	21224
538.055	20176
538.121	25061
538.188	41076
538.254	109984
538.321	196382
538.388	63993
538.454	23095
538.521	18844
538.587	18025
538.654	18272
538.720	18173
538.787	18583
538.853	24270
538.920	34479
538.986	27257
539.053	22647
539.119	31086
539.185	30922
539.252	58626
539.318	90508
539.385	34644
539.451	31192
539.517	34163
539.583	62357
539.650	249303
539.716	381354
539.782	55570
539.849	29611
539.915	30728
539.981	41886
540.047	50909
540.114	34431
540.180	33880
540.246	44538
540.312	92769
540.378	205924
540.444	152299
540.510	276461
540.576	463054
540.643	65397
540.709	26606
540.775	24644
540.841	24639
540.907	35496
540.973	52802
541.039	87627
541.105	74748
541.171	28919
541.237	25722
541.303	30432
541.369	48361
541.435	101362
541.500	165085
541.566	61901
541.632	26151
541.698	21629
541.764	19295
541.830	19376
541.896	19662
541.961	23604
542.027	29289
542.093	26246
542.159	30616
542.224	43066
542.290	84931
542.356	191042
542.421	146373
542.487	42952
542.553	27415
542.618	26039
542.684	25138
542.750	30878
542.815	50917
542.881	157768
542.947	514248
543.012	168744
543.078	23960
543.143	21780
543.209	27663
543.274	35471
543.340	62130
543.405	226363
543.471	199246
543.536	24746
543.602	19405
543.667	18165
543.732	17476
543.798	16456
543.863	17220
543.928	15837
543.994	17018
544.059	18702
544.124	19069
544.190	19797
544.255	22767
544.320	25726
544.386	36379
544.451	68309
544.516	73719
544.581	101456
544.646	377126
544.712	305275
544.777	32557
544.842	23746
544.907	21216
544.972	21084
545.037	20679
545.102	23069
545.168	23389
545.233	26835
545.298	30180
545.363	41033
545.428	71401
545.493	225836
545.558	350101
545.623	61859
545.688	23552
545.753	21653
545.818	19993
545.883	22094
545.947	21468
546.012	24767
546.077	25042
546.142	29040
546.207	42222
546.272	74342
546.337	58478
546.401	31011
546.466	25728
546.531	26155
546.596	33954
546.661	34080
546.725	27360
546.790	25488
546.855	27599
546.919	28298
546.984	31645
547.049	38864
547.113	38673
547.178	38778
547.243	47129
547.307	56092
547.372	67018
547.436	56704
547.501	55195
547.565	69240
547.630	96734
547.695	71218
547.759	57161
547.823	51641
547.888	49465
547.952	50325
548.017	57678
548.081	68020
548.146	69186
548.210	60660
548.274	59944
548.339	55218
548.403	50866
548.468	50037
548.532	48828
548.596	50409
548.660	53756
548.725	66641
548.789	73479
548.853	61953
548.917	56332
548.982	60090
549.046	51699
549.110	43645
549.174	48646
549.238	53657
549.303	57008
549.367	58826
549.431	54362
549.495	51887
549.559	53894
549.623	67152
549.687	91263
549.751	117932
549.815	79327
549.879	71309
549.943	70531
550.007	78237
550.071	85254
550.135	106357
550.199	70341
550.263	63759
550.327	65858
550.391	68971
550.455	69967
550.519	75877
550.582	96243
550.646	147750
550.710	111680
550.774	84556
550.838	85200
550.901	88805
550.965	95527
551.029	103224
551.093	117939
551.156	147408
551.220	214196
551.284	210326
551.347	132482
551.411	143518
551.475	115586
551.538	90542
551.602	81061
551.666	81121
551.729	70146
551.793	69830
551.856	68241
551.920	69371
551.983	69129
552.047	70031
552.110	70420
552.174	70807
552.237	73137
552.301	66425
552.364	64514
552.428	66218
552.491	72041
552.554	77275
552.618	80335
552.681	94933
552.745	141705
552.808	298934
552.871	314509
552.934	139084
552.998	86464
553.061	73087
553.124	66555
553.187	64741
553.251	65555
553.314	64239
553.377	62882
553.440	70474
553.503	80502
553.567	75800
553.630	64999
553.693	65015
553.756	65430
553.819	63713
553.882	61131
553.945	59681
554.008	59364
554.071	60834
554.134	59135
554.197	57065
554.260	60559
554.323	67297
554.386	64649
554.449	62158
554.512	60518
554.575	59997
554.638	60641
554.701	58680
554.764	54738
554.827	53677
554.889	50350
554.952	50068
555.015	48882
555.078	49511
555.141	51289
555.203	49944
555.266	50495
555.329	52765
555.391	52858
555.454	62737
555.517	54917
555.580	46829
555.642	43854
555.705	43784
555.768	46129
555.830	43233
555.893	40810
555.955	42494
556.018	43416
556.080	43078
556.143	43896
556.206	45698
556.268	48647
556.330	53416
556.393	46674
556.455	47041
556.518	61484
556.580	54996
556.643	41111
556.705	42938
556.767	40627
556.830	47632
556.892	78831
556.955	129327
557.017	57306
557.079	43285
557.142	51013
557.204	94141
557.266	206487
557.328	92349
557.391	37366
557.453	36554
557.515	43481
557.577	73238
557.639	55688
557.701	36270
557.764	34121
557.826	37776
557.888	40551
557.950	43384
558.012	53783
558.074	94950
558.136	285608
558.198	408647
558.260	87894
558.322	52620
558.384	56187
558.446	66310
558.508	80957
558.570	130083
558.632	306843
558.694	339070
558.756	391524
558.818	1350799
558.880	1745527
558.942	437312
559.003	457273
559.065	128215
559.127	69350
559.189	76254
559.251	99412
559.312	201547
559.374	673006
559.436	1355731
559.498	311221
559.559	76376
559.621	73313
559.683	109426
559.744	261217
559.806	877950
559.868	655560
559.929	94948
559.991	93866
560.052	224493
560.114	472580
560.176	203768
560.237	370738
560.299	340922
560.360	50021
560.422	29078
560.483	26193
560.545	25689
560.606	23050
560.667	22989
560.729	21287
560.790	21425
560.852	20967
560.913	20802
560.974	21489
561.036	22495
561.097	23020
561.158	24511
561.220	25003
561.281	27627
561.342	31413
561.403	50863
561.465	113881
561.526	348636
561.587	248184
561.648	39086
561.709	25306
561.771	22668
561.832	24264
561.893	22316
561.954	21269
562.015	22054
562.076	19935
562.137	19969
562.198	20581
562.259	21973
562.320	26507
562.381	46354
562.442	76841
562.503	33680
562.564	20689
562.625	19789
562.686	21339
562.747	26176
562.808	19899
562.869	18803
562.930	19460
562.991	19657
563.051	18119
563.112	18034
563.173	17587
563.234	17554
563.294	19612
563.355	23354
563.416	22984
563.477	20050
563.537	20430
563.598	21156
563.659	21199
563.720	23411
563.780	28145
563.841	26671
563.901	17720
563.962	19032
564.023	18264
564.083	21665
564.144	21465
564.204	18714
564.265	18841
564.325	23624
564.386	35657
564.446	23656
564.507	16773
564.567	17421
564.628	17967
564.688	16441
564.749	16577
564.809	21852
564.869	20643
564.930	18708
564.990	19316
565.050	19529
565.111	17812
565.171	18162
565.231	17400
565.292	18441
565.352	18346
565.412	20571
565.472	25264
565.532	28658
565.593	21467
565.653	19395
565.713	23960
565.773	32599
565.833	60374
565.893	56622
565.953	21300
566.013	18240
566.074	20705
566.134	27805
566.194	45387
566.254	46115
566.314	22077
566.374	17726
566.434	16927
566.494	18320
566.554	17458
566.614	17769
566.673	18151
566.733	21275
566.793	19578
566.853	18418
566.913	18071
566.973	19013
567.033	23361
567.092	23920
567.152	23900
567.212	20566
567.272	18328
567.331	17668
567.391	17856
567.451	20355
567.511	25700
567.570	20802
567.630	17587
567.690	17043
567.749	18095
567.809	19605
567.868	23455
567.928	22258
567.988	21128
568.047	22169
568.107	23752
568.166	30565
568.226	42693
568.285	45011
568.345	37670
568.404	34811
568.464	30800
568.523	30567
568.582	36481
568.642	42796
568.701	42103
568.761	56405
568.820	71695
568.879	61826
568.939	50125
568.998	38627
569.057	32560
569.116	29726
569.176	25835
569.235	22189
569.294	22142
569.353	21470
569.413	18751
569.472	17741
569.531	17555
569.590	16121
569.649	15674
569.708	17266
569.767	22148
569.827	30333
569.886	19945
569.945	18232
570.004	20399
570.063	20282
570.122	28024
570.181	22793
570.240	20991
570.299	25198
570.358	24921
570.417	17349
570.475	19253
570.534	25207
570.593	25513
570.652	25579
570.711	23023
570.770	22067
570.829	27662
570.887	37160
570.946	36438
571.005	21973
571.064	27192
571.122	33939
571.181	26810
571.240	18054
571.299	14923
571.357	17371
571.416	17041
571.475	20886
571.533	18120
571.592	16350
571.650	16861
571.709	18552
571.768	20960
571.826	16672
571.885	14037
571.943	14016
572.002	13713
572.060	13468
572.119	12954
572.177	13121
572.236	11874
572.294	13993
572.352	14519
572.411	14131
572.469	12694
572.528	14204
572.586	16291
572.644	23149
572.703	26086
572.761	14865
572.819	13476
572.877	12485
572.936	11566
572.994	12564
573.052	14335
573.110	18027
573.169	17542
573.227	13654
573.285	12504
573.343	12921
573.401	12905
573.459	12600
573.517	11955
573.576	14259
573.634	14315
573.692	15621
573.750	13452
573.808	13721
573.866	13947
573.924	15435
573.982	13963
574.040	12534
574.098	12110
574.155	13559
574.213	12470
574.271	13940
574.329	13931
574.387	12309
574.445	11713
574.503	10847
574.560	11082
574.618	11831
574.676	11942
574.734	12114
574.792	11665
574.849	12368
574.907	10682
574.965	11098
575.022	10984
575.080	11380
575.138	13385
575.195	15985
575.253	19139
575.311	21863
575.368	12380
575.426	10070
575.483	10863
575.541	10636
575.598	11089
575.656	12617
575.713	11334
575.771	11246
575.828	11120
575.886	12662
575.943	11770
576.001	11994
576.058	11959
576.115	14456
576.173	18221
576.230	27721
576.287	35189
576.345	16832
576.402	11704
576.459	11589
576.517	11052
576.574	12584
576.631	11558
576.688	10039
576.746	10153
576.803	10316
576.860	10044
576.917	10116
576.974	10427
577.031	10637
577.089	10008
577.146	10104
577.203	11203
577.260	12528
577.317	11658
577.374	12442
577.431	13370
577.488	13818
577.545	10912
577.602	10719
577.659	9768
577.716	9456
577.773	9207
577.830	9690
577.886	9342
577.943	9973
578.000	11244
578.057	11984
578.114	10590
578.171	11047
578.227	10256
578.284	10219
578.341	11359
578.398	12473
578.454	12035
578.511	14688
578.568	13637
578.625	11431
578.681	10451
578.738	10544
578.794	9043
578.851	10457
578.908	10951
578.964	11870
579.021	11725
579.077	12816
579.134	11001
579.190	10096
579.247	10431
579.303	11850
579.360	11080
579.416	10691
579.473	9193
579.529	9819
579.586	9637
579.642	9683
579.698	10025
579.755	12259
579.811	10741
579.867	10934
579.924	9956
579.980	9291
580.036	9783
580.093	10098
580.149	10892
580.205	9939
580.261	10399
580.317	11105
580.374	12946
580.430	13941
580.486	11850
580.542	12231
580.598	12859
580.619	13139
580.654	13637
580.692	12358
580.710	11746
580.765	11544
580.767	11550
580.823	12174
580.838	12338
580.879	12810
580.911	11891
580.935	11225
580.984	9716
580.991	9526
581.047	10735
581.057	10628
581.103	10165
581.130	9749
581.159	9312
581.203	10959
581.215	11411
581.270	10257
581.276	10171
581.326	9432
581.349	9729
581.382	10174
581.422	11108
581.438	11524
581.494	11754
581.494	11762
581.550	13347
581.567	14114
581.606	15836
581.640	14100
581.661	13022
581.713	11241
581.717	11110
581.773	11101
581.786	10980
581.829	10592
581.859	10489
581.885	10410
581.932	10154
581.940	10113
581.996	10703
582.004	10701
582.052	10647
582.077	10325
582.107	9975
582.150	9780
582.163	9755
582.219	10416
582.223	10495
582.274	11304
582.296	11054
582.330	10770
582.368	10538
582.386	10398
582.441	10569
582.441	10570
582.497	10401
582.514	10466
582.552	10570
582.587	10264
582.608	10104
582.659	10476
582.663	10505
582.719	11299
582.732	11174
582.774	10839
582.805	10522
582.830	10229
582.877	10948
582.885	11060
582.941	10492
582.950	10681
582.996	11655
583.023	11521
583.052	11470
583.095	11080
583.107	10960
583.162	11197
583.168	11249
583.218	11469
583.240	10923
583.273	10339
583.313	11192
583.328	11467
583.384	10959
583.385	10973
583.439	11350
583.458	11319
583.494	11335
583.531	11148
583.549	11083
583.603	11459
583.605	11460
583.660	11419
583.676	11284
583.715	11132
583.748	10981
583.770	10859
583.820	11223
583.825	11262
583.881	11273
583.893	11073
583.936	10330
583.965	10628
583.991	10911
584.038	10653
584.046	10611
584.101	12083
584.110	11916
584.156	11214
584.183	11600
584.211	11858
584.255	10863
584.266	10611
584.321	11623
584.328	11539
584.376	11158
584.400	11701
584.431	12339
584.472	12008
584.486	11832
584.541	12279
584.545	12272
584.596	12583
584.617	12923
584.651	13346
584.689	13152
584.706	13033
584.761	13615
584.762	13614
584.816	14063
584.834	14184
584.871	14050
584.906	14218
584.926	14386
584.978	14431
584.980	14437
585.035	16326
585.051	16474
585.090	17038
585.123	18077
585.145	18629
585.195	19613
585.200	19783
585.254	21176
585.267	21825
585.309	23098
585.340	24019
585.364	25381
585.412	30516
585.419	31231
585.473	38403
585.484	41450
585.528	55043
585.556	71786
585.583	91584
585.628	153453
585.637	171285
585.692	382868
585.700	391927
585.747	424478
585.772	330762
585.801	168122
585.845	64981
585.856	52930
585.910	33185
585.917	31129
585.965	26278
585.989	24233
586.019	22017
586.061	21319
586.074	21362
586.128	21715
586.133	21877
586.183	24436
586.205	24233
586.237	23193
586.277	21247
586.292	20350
586.346	18183
586.349	18130
586.401	18399
586.421	18565
586.455	18691
586.493	19337
586.509	19857
586.564	23311
586.565	23450
586.618	31188
586.637	30058
586.672	25709
586.709	25363
586.727	25357
586.781	23878
586.781	23878
586.835	20677
586.853	20008
586.889	19081
586.925	18757
586.944	18957
586.996	19503
586.998	19526
587.052	19706
587.068	19676
587.106	19786
587.140	20008
587.161	20095
587.212	20478
587.215	20521
587.269	21365
587.284	21382
587.323	21492
587.356	21739
587.377	21923
587.427	22032
587.431	22100
587.485	23208
587.499	23429
587.539	23375
587.571	23778
587.593	24667
587.643	26053
587.648	26136
587.702	26566
587.715	26761
587.755	27424
587.786	27800
587.810	28324
587.858	29419
587.864	29598
587.917	31534
587.930	31855
587.971	33395
588.001	34638
588.025	35515
588.073	37297
588.079	37677
588.133	40894
588.145	41716
588.187	44464
588.217	46604
588.241	49065
588.288	53681
588.295	54508
588.348	62752
588.360	64167
588.402	69898
588.431	74319
588.456	78525
588.503	87957
588.510	89694
588.564	105778
588.575	109609
588.617	126531
588.646	140980
588.671	156486
588.718	196046
588.725	204842
588.778	297374
588.789	325386
588.832	507714
588.861	671777
588.886	931691
588.932	1474046
588.939	1540410
588.993	1786992
589.004	1791959
589.047	1095720
589.075	703294
589.100	516248
589.147	245148
589.154	235754
589.207	180523
589.218	170902
589.261	166357
589.290	167335
589.314	176295
589.361	205473
589.368	214735
589.421	317360
589.433	348078
589.475	592866
589.504	808977
589.528	1085705
589.576	1498007
589.582	1460596
589.635	893503
589.647	796174
589.689	414969
589.718	180584
589.742	147513
589.790	89431
589.795	87134
589.849	67864
589.861	63955
589.902	58625
589.932	53335
589.955	49176
590.004	41750
590.009	41510
590.062	39477
590.075	38866
590.115	37132
590.146	35901
590.168	35627
590.218	34982
590.222	34899
590.275	33256
590.289	32832
590.328	32923
590.360	32732
590.381	32236
590.431	31120
590.435	31119
590.488	30538
590.503	30396
590.541	31145
590.574	31324
590.594	30722
590.645	29268
590.647	29326
590.700	29832
590.716	29948
590.753	29840
590.787	29565
590.806	29632
590.859	29782
590.859	29838
590.912	30117
590.930	30122
590.965	30286
591.001	30385
591.018	30239
591.071	29446
591.072	29384
591.124	30072
591.143	30222
591.177	31136
591.214	32145
591.230	32337
591.283	32715
591.285	32690
591.336	33945
591.356	34412
591.389	35411
591.427	35748
591.442	34624
591.495	30684
591.498	30346
591.547	30123
591.569	30045
591.600	30078
591.640	29850
591.653	30002
591.706	30397
591.711	30392
591.759	30321
591.782	30201
591.811	30465
591.853	30561
591.864	30605
591.917	30598
591.924	30533
591.969	30966
591.995	31157
592.022	31016
592.066	30588
592.075	30933
592.127	32740
592.137	33025
592.180	33110
592.208	32928
592.233	32751
592.279	32356
592.285	32334
592.338	31564
592.350	31334
592.390	31233
592.421	31047
592.443	31465
592.491	32177
592.495	32248
592.548	32354
592.562	32325
592.600	32190
592.633	31959
592.653	31902
592.704	31428
592.705	31628
592.775	32668
592.846	32336
592.916	34784
592.987	37804
593.058	35939
593.128	32322
593.199	32637
593.270	32402
593.341	32504
593.411	33695
593.482	35949
593.553	34208
593.623	33153
593.694	33996
593.764	34489
593.835	33669
593.906	34347
593.976	33521
594.047	34194
594.117	36131
594.188	37560
594.258	36388
594.329	36115
594.399	35834
594.470	36651
594.540	37813
594.611	38442
594.681	37991
594.751	37896
594.822	40086
594.892	40961
594.963	41393
595.033	41186
595.103	43463
595.174	41657
595.244	45464
595.314	48736
595.384	44161
595.455	43900
595.525	44615
595.595	46136
595.665	47433
595.736	44772
595.806	46239
595.876	46141
595.946	46341
596.016	46760
596.087	49239
596.157	49059
596.227	49603
596.297	50348
596.367	53421
596.437	57301
596.507	57182
596.577	59279
596.647	58083
596.717	58775
596.787	60803
596.857	59280
596.927	59385
596.997	59295
597.067	60234
597.137	60254
597.207	62110
597.277	62426
597.347	59898
597.417	59909
597.487	60088
597.557	61126
597.626	61901
597.696	63195
597.766	62830
597.836	61738
597.906	56635
597.975	55281
598.045	55969
598.115	56073
598.185	59225
598.254	66676
598.324	72691
598.394	75124
598.464	74155
598.533	70197
598.603	65947
598.672	63862
598.742	65282
598.812	64137
598.881	65345
598.951	65572
599.020	64941
599.090	67487
599.159	69453
599.229	65942
599.299	62821
599.368	63940
599.437	65367
599.507	59572
599.576	59068
599.646	57817
599.715	56887
599.785	58224
599.854	55567
599.924	55894
599.993	55514
600.062	55639
600.132	56830
600.201	59446
600.270	69810
600.340	71895
600.409	68822
600.478	67605
600.547	67801
600.617	65719
600.686	55272
600.755	52040
600.824	51775
600.894	48982
600.963	45558
601.032	45688
601.101	43751
601.170	42939
601.239	42306
601.308	44751
601.378	45363
601.447	41894
601.516	42311
601.585	44811
601.654	51151
601.723	45587
601.792	44234
601.861	46456
601.930	50107
601.999	52986
602.068	51117
602.137	54376
602.206	57460
602.275	51346
602.343	56365
602.412	60513
602.481	50631
602.550	48204
602.619	51350
602.688	53244
602.756	51351
602.825	50909
602.894	52255
602.963	51371
603.032	54187
603.100	53179
603.169	52866
603.238	53681
603.307	54844
603.375	53540
603.444	54809
603.513	55031
603.581	56448
603.650	59044
603.719	56487
603.787	56430
603.856	58608
603.924	61018
603.993	62186
604.061	63936
604.130	68236
604.198	68822
604.267	68426
604.335	69344
604.404	70618
604.472	72199
604.541	71283
604.609	71267
604.678	73682
604.746	74129
604.815	73652
604.883	75341
604.951	76115
605.020	76360
605.088	77739
605.156	80130
605.225	79925
605.293	80207
605.361	81443
605.429	82330
605.498	83551
605.566	87989
605.634	90477
605.702	91917
605.771	94665
605.839	93639
605.907	91395
605.975	88616
606.043	87240
606.111	86894
606.180	86754
606.248	86233
606.316	85428
606.384	85536
606.452	89869
606.520	100669
606.588	96081
606.656	89802
606.724	87266
606.792	82117
606.860	75294
606.928	68896
606.996	66251
607.064	64561
607.132	67052
607.200	69267
607.267	74189
607.335	72781
607.403	76009
607.471	72986
607.539	70530
607.607	71880
607.674	65033
607.742	64456
607.810	66351
607.878	65875
607.946	65307
608.013	67780
608.081	68570
608.149	69738
608.216	72526
608.284	72903
608.352	72965
608.419	71675
608.487	73395
608.555	71608
608.622	73859
608.690	75685
608.757	82607
608.825	85548
608.893	84373
608.960	80124
609.028	79136
609.095	76244
609.163	75252
609.230	70105
609.298	63376
609.365	65783
609.432	71258
609.500	76486
609.567	86690
609.635	96736
609.702	103863
609.769	99582
609.837	82368
609.904	71216
609.971	75681
610.039	84924
610.106	103549
610.173	164941
610.241	373504
610.308	274518
610.375	97443
610.442	73794
610.509	69559
610.577	68604
610.644	70893
610.711	71382
610.778	74327
610.845	76826
610.912	80588
610.980	83557
611.047	84506
611.114	82659
611.181	82004
611.248	78987
611.315	82745
611.382	86202
611.449	88460
611.516	90391
611.583	89110
611.650	90439
611.717	92711
611.784	96418
611.851	103695
611.918	117427
611.984	137486
612.051	181250
612.118	311716
612.185	752762
612.252	622304
612.319	148278
612.386	117745
612.452	109551
612.519	103333
612.586	99946
612.653	101460
612.719	103264
612.786	102541
612.853	93619
612.919	90798
612.986	91881
613.053	88041
613.120	81506
613.186	78039
613.253	80189
613.319	80223
613.386	81747
613.453	82725
613.519	87416
613.586	92316
613.652	113565
613.719	102423
613.785	99021
613.852	84564
613.918	80996
613.985	82202
614.051	84700
614.118	86492
614.184	85028
614.250	80560
614.317	84806
614.383	81439
614.449	82711
614.516	82619
614.582	84613
614.648	81307
614.715	80763
614.781	80476
614.847	79541
614.914	78867
614.980	78160
615.046	77974
615.112	78981
615.179	79372
615.245	81752
615.311	79844
615.377	80944
615.443	84560
615.509	81469
615.575	85849
615.642	86315
615.708	90063
615.774	97761
615.840	105878
615.906	121414
615.972	148594
616.038	210871
616.104	376547
616.170	876155
616.236	985154
616.302	212359
616.368	142733
616.434	110139
616.500	100572
616.565	107455
616.631	132139
616.697	116541
616.763	114278
616.829	149977
616.895	258153
616.961	274338
617.026	122964
617.092	85372
617.158	80959
617.224	79685
617.289	76684
617.355	72522
617.421	70000
617.487	71620
617.552	68482
617.618	65750
617.684	64862
617.749	67137
617.815	65767
617.880	64470
617.946	63678
618.012	66487
618.077	66345
618.143	63780
618.208	63030
618.274	65437
618.339	68649
618.405	58989
618.470	56194
618.536	57668
618.601	55994
618.667	53428
618.732	50517
618.798	51024
618.863	49734
618.928	50021
618.994	52727
619.059	57055
619.124	70345
619.190	61230
619.255	49930
619.320	49475
619.386	50388
619.451	48715
619.516	49272
619.581	47281
619.647	48308
619.712	49483
619.777	46728
619.842	47284
619.907	47960
619.972	48774
620.038	49116
620.103	46345
620.168	46698
620.233	46561
620.298	47259
620.363	48097
620.428	49256
620.493	50546
620.558	51475
620.623	51320
620.688	51998
620.753	50999
620.818	51369
620.883	52864
620.948	52518
621.013	51970
621.078	49886
621.143	51438
621.207	53434
621.272	50733
621.337	52376
621.402	49911
621.467	50765
621.532	50372
621.596	50557
621.661	49274
621.726	47715
621.791	47698
621.855	50138
621.920	52846
621.985	49621
622.049	50537
622.114	50941
622.179	50011
622.243	51294
622.308	52675
622.373	55816
622.437	55026
622.502	51719
622.566	51355
622.631	50073
622.695	52084
622.760	52629
622.824	53086
622.889	55133
622.953	58011
623.018	72205
623.082	82604
623.147	57218
623.211	55208
623.276	56981
623.340	51652
623.404	49222
623.469	48684
623.533	48974
623.597	48207
623.662	48220
623.726	46605
623.790	43612
623.854	42009
623.919	43245
623.983	42690
624.047	45408
624.111	45188
624.176	45307
624.240	46134
624.304	49748
624.368	46263
624.432	45674
624.496	47588
624.560	50940
624.625	58488
624.689	49256
624.753	49069
624.817	48401
624.881	45402
624.945	44079
625.009	41726
625.073	44071
625.137	47234
625.201	54462
625.265	60158
625.329	46593
625.393	47575
625.456	46434
625.520	45980
625.584	49842
625.648	51587
625.712	51279
625.776	59437
625.839	64093
625.903	48833
625.967	37216
626.031	41285
626.095	51235
626.158	45794
626.222	34690
626.286	32731
626.349	31857
626.413	30474
626.477	30722
626.540	32076
626.604	29949
626.668	29830
626.731	27988
626.795	28690
626.858	29315
626.922	28224
626.986	28944
627.049	28408
627.113	29234
627.176	28910
627.240	28125
627.303	27973
627.366	28192
627.430	28535
627.493	28605
627.557	27047
627.620	27726
627.684	28427
627.747	28244
627.810	27237
627.874	25836
627.937	23028
628.000	26196
628.064	24367
628.127	22163
628.190	21946
628.253	21930
628.317	20597
628.380	19543
628.443	19794
628.506	20853
628.569	19007
628.632	17934
628.696	17346
628.759	17581
628.822	16607
628.885	17593
628.948	17918
629.011	17034
629.074	17733
629.137	16592
629.200	16270
629.263	17830
629.326	15289
629.389	15986
629.452	16058
629.515	16126
629.578	16279
629.641	17126
629.704	16827
629.767	17808
629.830	16473
629.892	16207
629.955	14941
630.018	18975
630.081	19920
630.144	26223
630.207	18020
630.269	18574
630.332	15300
630.395	15592
630.458	15413
630.520	14367
630.583	14577
630.646	14308
630.708	14748
630.771	14363
630.834	14911
630.896	13974
630.959	14864
631.021	14053
631.084	14636
631.146	15178
631.209	15314
631.272	14709
631.334	14090
631.397	14583
631.459	15828
631.522	17143
631.584	16044
631.646	17395
631.709	18932
631.771	22401
631.834	20264
631.896	16082
631.958	14052
632.021	14336
632.083	13470
632.145	15401
632.208	13920
632.270	16039
632.332	13398
632.395	12533
632.457	14273
632.519	12641
632.581	14156
632.643	12872
632.706	13025
632.768	12982
632.830	13222
632.892	13364
632.954	13382
633.016	14700
633.078	12896
633.141	14010
633.203	13126
633.265	13955
633.327	13582
633.389	14467
633.451	15233
633.513	20288
633.575	17533
633.637	18308
633.698	19486
633.760	15644
633.822	14489
633.884	15418
633.946	14372
634.008	15526
634.070	15837
634.132	15033
634.193	16553
634.255	18516
634.317	18139
634.379	19219
634.441	16859
634.502	15231
634.564	14591
634.626	14264
634.687	12991
634.749	13854
634.811	12859
634.873	11697
634.934	12275
634.996	13268
635.057	12421
635.119	12886
635.181	12664
635.242	12067
635.304	11915
635.365	15226
635.427	12108
635.488	14718
635.550	11722
635.611	13402
635.673	11401
635.734	13711
635.796	13652
635.857	15125
635.918	14843
635.980	15768
636.041	16729
636.102	18758
636.164	18350
636.225	19223
636.286	15970
636.348	16238
636.409	13695
636.470	12342
636.531	12907
636.593	11675
636.654	12270
636.715	11505
636.776	10532
636.838	11182
636.899	11599
636.960	10929
637.021	10558
637.082	10246
637.143	11263
637.204	9309
637.265	9953
637.326	10795
637.387	10395
637.448	10366
637.509	10629
637.570	10721
637.631	10933
637.692	10077
637.753	8975
637.814	9939
637.875	9752
637.936	11161
637.997	9503
638.058	10455
638.119	10014
638.179	9881
638.240	10009
638.301	10212
638.362	9499
638.423	9836
638.483	10217
638.544	8720
638.605	9576
638.666	8531
638.726	9239
638.787	9552
638.848	9207
638.908	9599
638.969	8948
639.030	9175
639.090	8303
639.151	9437
639.211	11248
639.272	13525
639.332	24657
639.393	19814
639.453	9258
639.514	10069
639.574	9391
639.635	8631
639.695	9181
639.756	9444
639.816	11522
639.877	12754
639.937	20975
639.997	34319
640.058	14866
640.118	8969
640.178	9049
640.239	8247
640.299	8757
640.359	9243
640.420	9013
640.480	9828
640.540	10076
640.600	10985
640.661	10293
640.721	9649
640.781	13746
640.841	9819
640.901	9206
640.961	9472
641.021	9889
641.082	12368
641.142	18740
641.202	14874
641.262	7552
641.322	8286
641.382	7737
641.442	8095
641.502	8211
641.562	7910
641.622	7629
641.682	9133
641.742	8985
641.802	9092
641.861	9914
641.921	9333
641.981	11670
642.041	11332
642.101	13626
642.161	12361
642.221	7276
642.280	7697
642.340	6815
642.400	7241
642.460	8865
642.519	7274
642.579	7961
642.639	7963
642.698	6650
642.758	10278
642.818	6940
642.877	8218
642.937	8701
642.997	10103
643.056	16890
643.116	12562
643.175	9142
643.235	8365
643.294	9245
643.354	10669
643.414	12602
643.473	15694
643.532	20583
643.592	30934
643.651	44447
643.711	67532
643.770	110307
643.830	216184
643.889	613701
643.948	296565
644.008	35275
644.067	18424
644.126	13842
644.186	11163
644.245	10214
644.304	8818
644.363	10323
644.423	8634
644.482	9482
644.541	9332
644.600	9074
644.659	13514
644.719	16242
644.778	21762
644.837	28329
644.896	52543
644.955	132368
645.014	89550
645.073	14592
645.132	9344
645.191	10230
645.250	8157
645.309	10248
645.368	9238
645.427	12016
645.486	14085
645.545	30353
645.604	17003
645.663	9405
645.722	9461
645.781	11443
645.840	14386
645.898	18813
645.957	27275
646.016	38971
646.075	61471
646.134	100630
646.192	212526
646.251	502711
646.310	147528
646.369	21630
646.427	15387
646.486	11763
646.545	10210
646.603	9269
646.662	9433
646.721	8272
646.779	8430
646.838	9528
646.896	12342
646.955	14079
647.014	18993
647.072	27957
647.131	74970
647.189	75923
647.248	12237
647.306	8058
647.365	7753
647.423	5176
647.481	7454
647.540	5665
647.598	6677
647.657	4955
647.715	6559
647.773	4682
647.832	6013
647.890	4579
647.948	5149
648.007	6219
648.065	5166
648.123	4740
648.181	7129
648.240	5334
648.298	4872
648.356	5734
648.414	5686
648.472	6083
648.531	6429
648.589	5189
648.647	5445
648.705	4662
648.763	6001
648.821	5817
648.879	6952
648.937	8550
648.995	11999
649.053	14190
649.111	21157
649.169	30407
649.227	44656
649.285	76449
649.343	216032
649.401	225366
649.459	50241
649.516	36423
649.574	12065
649.632	11132
649.690	12141
649.748	11212
649.806	14100
649.863	22752
649.921	49981
649.979	66690
650.037	13929
650.094	4879
650.152	6035
650.210	4388
650.268	6227
650.325	4631
650.383	4570
650.440	3249
650.498	4577
650.556	4533
650.613	3938
650.671	4363
650.728	4547
650.786	3688
650.843	4352
650.901	3582
650.958	3997
651.016	4532
651.073	3835
651.131	3724
651.188	3362
651.246	3717
651.303	3340
651.360	4575
651.418	3672
651.475	3972
651.532	3401
651.590	3987
651.647	2951
651.704	3107
651.762	3433
651.819	4186
651.876	3054
651.933	3121
651.990	4325
652.048	2441
652.105	3196
652.162	2872
652.219	2978
652.276	3239
652.333	3874
652.390	2656
652.448	3097
652.505	3609
652.562	3609
652.619	3438
652.676	3460
652.733	3815
652.790	3393
652.847	2462
652.904	3886
652.961	2057
653.017	2827
653.074	3744
653.131	3948
653.188	3103
653.245	3530
653.302	3304
653.359	2824
653.415	4256
653.472	3240
653.529	2972
653.586	2025
653.642	3009
653.699	3759
653.756	2962
653.813	2544
653.869	4122
653.926	3662
653.983	2217
654.039	3322
654.096	3269
654.152	3540
654.209	1569
654.266	3224
654.322	1615
654.379	3856
654.435	4247
654.492	4507
654.548	4333
654.605	9750
654.661	7735
654.717	3537
654.774	3935
654.830	3315
654.887	2720
654.943	2822
655.000	3462
655.056	3556
655.112	2110
655.168	2377
655.225	3136
655.281	3485
655.337	2852
655.394	4082
655.450	3952
655.506	3050
655.562	3178
655.618	5030
655.675	2316
655.731	3425
655.787	1498
655.843	3128
655.899	2115
655.955	4111
656.011	3928
656.067	2534
656.123	4106
656.179	3474
656.235	4891
656.291	3377
656.347	4375
656.403	3344
656.459	3345
656.515	4174
656.571	3082
656.627	3485
656.683	3212
656.739	4393
656.795	3063
656.850	4099
656.906	4901
656.962	5328
657.018	2803
657.074	3983
657.129	4395
657.185	5496
657.241	8463
657.297	10740
657.352	4442
657.408	2505
657.464	4876
657.519	3506
657.575	1724
657.630	2488
657.686	2469
657.742	2398
657.797	2309
657.853	2713
657.908	3071
657.964	2578
658.019	2293
658.075	2850
658.130	3007
658.186	1814
658.241	2025
658.297	1933
658.352	2610
658.407	3300
658.463	2313
658.518	2818
658.573	2795
658.629	2297
658.684	2665
658.739	3019
658.795	2178
658.850	3243
658.905	2338
658.960	3417
659.016	2078
659.071	3971
659.126	3588
659.181	3698
659.236	7107
659.291	11900
659.346	5092
659.401	4868
659.457	3410
659.512	2155
659.567	3791
659.622	2796
659.677	2921
659.732	2021
659.787	2924
659.842	2523
659.897	2576
659.952	3257
660.007	3468
660.061	2807
660.116	2672
660.171	1946
660.226	2302
660.281	3606
660.336	1646
660.391	3273
660.445	2059
660.500	3037
660.555	2475
660.610	2150
660.664	2569
660.719	3448
660.774	2854
660.828	2827
660.883	3727
660.938	3411
660.992	2263
661.047	3021
661.101	2316
661.156	2740
661.211	1692
661.265	2584
661.320	1662
661.374	2741
661.429	1868
661.483	2843
661.538	2769
661.592	2582
661.647	2568
661.701	3270
661.755	2731
661.810	3150
661.864	2747
661.919	1792
661.973	2659
662.027	2805
662.081	2014
662.136	1756
662.190	2719
662.244	3361
662.299	2340
662.353	2146
662.407	2292
662.461	2195
662.515	3463
662.569	2268
662.624	2833
662.678	2600
662.732	3145
662.786	2405
662.840	2680
662.894	3626
662.948	2862
663.002	3013
663.056	2688
663.110	2034
663.164	2670
663.218	3169
663.272	3013
663.326	3794
663.380	2859
663.434	2930
663.488	1877
663.542	2764
663.595	3064
663.649	2158
663.703	3186
663.757	3245
663.811	1275
663.864	1740
663.918	2796
663.972	1631
664.026	2863
664.079	2050
664.133	2912
664.187	2756
664.240	2223
664.294	1653
664.348	2096
664.401	2638
664.455	3056
664.508	2347
664.562	2277
664.615	2620
664.669	1804
664.722	3510
664.776	2365
664.829	2130
664.883	2849
664.936	2648
664.990	2396
665.043	3459
665.097	1534
665.150	3209
665.203	2288
665.257	2767
665.310	2220
665.363	2336
665.417	2706
665.470	2510
665.523	2111
665.576	3062
665.630	2334
665.683	2584
665.736	1926
665.789	2103
665.842	1502
665.895	2808
665.949	2758
666.002	2221
666.055	2216
666.108	3096
666.161	2507
666.214	3179
666.267	3509
666.320	4644
666.373	4326
666.426	2978
666.479	2890
666.532	2761
666.585	1568
666.638	2961
666.691	2772
666.744	3373
666.796	3051
666.849	3014
666.902	3131
666.955	3010
667.008	2297
667.060	2681
667.113	1672
667.166	2696
667.219	3305
667.271	3193
667.324	2519
667.377	3752
667.430	3164
667.482	3142
667.535	2562
667.587	3450
667.640	4213
667.693	5048
667.745	7589
667.798	12824
667.850	6206
667.903	2714
667.955	3083
668.008	2937
668.060	2439
668.113	2964
668.165	2880
668.218	2801
668.270	2995
668.322	3112
668.375	2635
668.427	3046
668.479	3162
668.532	2522
668.584	2518
668.636	2594
668.689	2273
668.741	3075
668.793	3482
668.845	2445
668.898	3306
668.950	2730
669.002	2853
669.054	2650
669.106	1846
669.158	2914
669.211	2412
669.263	3324
669.315	2394
669.367	2503
669.419	2440
669.471	3193
669.523	3089
669.575	3808
669.627	3093
669.679	2216
669.731	2357
669.783	3009
669.835	2792
669.886	2668
669.938	2825
669.990	2783
670.042	2464
670.094	3471
670.146	3281
670.197	4323
670.249	4671
670.301	6302
670.353	8367
670.404	11249
670.456	15373
670.508	20352
670.560	28289
670.611	38692
670.663	56095
670.715	105411
670.766	249147
670.818	185600
670.869	29468
670.921	9323
670.972	6721
671.024	5082
671.075	5255
671.127	4672
671.178	3233
671.230	4099
671.281	3917
671.333	4594
671.384	4979
671.436	5484
671.487	7313
671.538	8289
671.590	11052
671.641	15082
671.692	22149
671.744	46970
671.795	53612
671.846	17085
671.897	5874
671.949	4456
672.000	4352
672.051	3107
672.102	2902
672.153	2553
672.204	3309
672.256	2254
672.307	2812
672.358	3137
672.409	2728
672.460	3140
672.511	2517
672.562	2734
672.613	2628
672.664	2281
672.715	2321
672.766	2900
672.817	2593
672.868	1733
672.919	3089
672.970	2315
673.021	1891
673.071	1329
673.122	2224
673.173	2126
673.224	2799
673.275	2052
673.326	1425
673.376	2301
673.427	1754
673.478	2019
673.528	2685
673.579	2409
673.630	2511
673.680	3335
673.731	1437
673.782	1387
673.832	3002
673.883	2641
673.934	2515
673.984	2079
674.035	1978
674.085	3145
674.136	3551
674.186	2735
674.237	2316
674.287	2868
674.338	2737
674.388	2145
674.438	1450
674.489	2453
674.539	2217
674.589	3701
674.640	1783
674.690	2906
674.740	1249
674.791	2741
674.841	2113
674.891	3159
674.942	1780
674.992	3127
675.042	3005
675.092	1674
675.142	2226
675.193	2865
675.243	2225
675.293	2826
675.343	1346
675.393	1654
675.443	2927
675.493	2532
675.543	1275
675.593	1769
675.643	1205
675.693	1938
675.743	1833
675.793	1800
675.843	1067
675.893	1669
675.943	1310
675.993	2389
676.043	2140
676.093	2271
676.142	1273
676.192	2705
676.242	1446
676.292	2047
676.341	1550
676.391	2463
676.441	1224
676.491	1212
676.540	1836
676.590	1705
676.640	1432
676.689	2325
676.739	724
676.789	1932
676.838	1911
676.888	1792
676.937	1134
676.987	1497
677.037	1419
677.086	1411
677.136	1410
677.185	2174
677.235	1673
677.284	1622
677.333	1128
677.383	1377
677.432	1374
677.482	1564
677.531	1654
677.580	1217
677.630	1510
677.679	1570
677.728	1053
677.778	2176
677.827	850
677.876	1343
677.925	1523
677.975	1663
678.024	2109
678.073	1785
678.122	1068
678.171	1416
678.220	2618
678.269	1914
678.319	1731
678.368	2107
678.417	1141
678.466	2239
678.515	1583
678.564	2245
678.613	190
678.662	1000
678.711	1087
678.760	2211
678.809	1741
678.857	1521
678.906	1715
678.955	1611
679.004	1016
679.053	1230
679.102	849
679.151	1059
679.199	1286
679.248	1412
679.297	886
679.346	1473
679.394	958
679.443	1270
679.492	1182
679.540	1357
679.589	761
679.638	1297
679.686	1404
679.735	1654
679.784	1105
679.832	1742
679.881	1554
679.929	1079
679.978	691
680.026	903
680.075	1042
680.123	754
680.172	235
680.220	1526
680.268	1387
680.317	1436
680.365	910
680.414	902
680.462	101
680.510	2597
680.559	1280
680.607	978
680.655	1052
680.703	1558
680.752	436
680.800	1372
680.848	1093
680.896	1351
680.945	783
680.993	1865
681.041	1424
681.089	1886
681.137	1184
681.185	676
681.233	547
681.258	591
681.281	626
681.329	1236
681.377	1274
681.380	1271
681.425	1134
681.473	1281
681.502	1556
681.521	1738
681.569	842
681.617	1044
681.624	1089
681.665	1353
681.713	1482
681.745	1689
681.761	1784
681.809	1683
681.857	1766
681.867	1527
681.904	676
681.952	1906
681.989	1743
682.000	1689
682.048	1214
682.096	1154
682.111	1280
682.143	1543
682.191	1419
682.233	1410
682.239	1401
682.286	1054
682.334	1614
682.354	1649
682.382	1706
682.430	1320
682.476	1230
682.477	1224
682.525	1266
682.572	1529
682.598	1145
682.620	809
682.667	791
682.715	2298
682.720	2260
682.763	1877
682.810	2292
682.841	1361
682.857	869
682.905	1060
682.952	2012
682.963	1965
683.000	1753
683.047	995
683.085	1968
683.095	2243
683.142	522
683.190	1665
683.206	1278
683.237	542
683.284	1132
683.328	786
683.332	754
683.379	1391
683.426	1174
683.449	1044
683.473	902
683.521	1442
683.568	1765
683.571	1708
683.615	909
683.662	1576
683.693	1175
683.709	959
683.757	1250
683.804	1365
683.814	1239
683.851	776
683.898	1595
683.936	1722
683.945	1749
683.992	1311
684.039	1508
684.057	1469
684.086	1458
684.133	2559
684.179	1659
684.180	1621
684.227	1544
684.274	2255
684.300	2371
684.321	2499
684.368	1621
684.415	2220
684.422	2093
684.462	1176
684.509	1621
684.543	1289
684.556	1197
684.603	1162
684.649	1256
684.665	1360
684.696	1581
684.743	1256
684.786	1274
684.790	1271
684.837	1400
684.883	1468
684.908	1429
684.930	1370
684.977	1689
685.023	1339
685.029	1359
685.070	1486
685.117	1233
685.150	1502
685.164	1642
685.210	1414
685.257	1958
685.272	2063
685.303	2195
685.350	1685
685.393	1963
685.396	1996
685.443	2238
685.490	2433
685.514	2414
685.536	2225
685.583	1916
685.629	1602
685.636	1569
685.675	1689
685.722	1786
685.757	2039
685.768	2073
685.815	2276
685.861	1827
685.878	1740
685.908	1563
685.954	1952
686.000	2343
686.000	2349
686.047	1407
686.093	2287
686.121	1974
686.139	1797
686.185	2550
686.232	2306
686.242	2209
686.278	1735
686.324	1627
686.363	1603
686.370	1611
686.416	1161
686.463	2057
686.484	1891
686.509	1730
686.555	1597
686.601	1338
686.606	1428
686.647	2236
686.693	1491
686.727	1744
686.739	1848
686.785	2087
686.831	1740
686.848	1899
686.877	2006
686.923	1920
686.969	1247
686.969	1245
687.015	1807
687.061	1468
687.090	1844
687.107	2010
687.153	1710
687.199	1855
687.211	1727
687.245	1396
687.291	1542
687.332	1135
687.336	1099
687.382	1813
687.428	2055
687.453	1992
687.474	1931
687.520	1587
687.565	1621
687.574	1651
687.611	1803
687.657	1656
687.695	1867
687.702	1876
687.748	1755
687.794	1760
687.816	1682
687.839	1808
687.885	1590
687.931	1604
687.937	1688
687.976	1918
688.022	2213
688.058	1819
688.067	1747
688.113	2364
688.158	1823
688.179	2029
688.204	2249
688.249	1914
688.295	2134
688.300	2151
688.340	2312
688.386	2549
688.421	2428
688.431	2368
688.477	2154
688.522	2591
688.542	2656
688.567	2848
688.613	2532
688.658	2783
688.663	2789
688.703	2617
688.749	2387
688.784	2226
688.794	2223
688.839	1933
688.884	2352
688.905	2367
688.930	2377
688.975	2433
689.020	2290
689.026	2304
689.065	2334
689.110	2244
689.146	1837
689.155	1748
689.201	1931
689.246	2436
689.267	2386
689.291	2355
689.336	1752
689.381	2017
689.388	1996
689.426	1877
689.471	1992
689.509	2077
689.516	2128
689.561	2432
689.606	2396
689.630	2588
689.651	2583
689.696	2010
689.741	1984
689.750	1975
689.785	2211
689.830	2258
689.871	2221
689.875	2205
689.920	2414
689.965	2335
689.992	2390
690.010	2447
690.054	2419
690.099	2478
690.112	2461
690.144	2470
690.189	2448
690.233	2290
690.233	2293
690.278	2574
690.323	2615
690.354	2592
690.367	2604
690.412	2859
690.457	2962
690.474	2899
690.501	2683
690.546	2470
690.590	2376
690.595	2341
690.635	2233
690.680	2052
690.716	2296
690.724	2383
690.769	2408
690.813	2839
690.836	2774
690.857	2641
690.902	2447
690.946	2483
690.957	2565
690.991	2690
691.035	2374
691.077	2310
691.080	2334
691.124	2300
691.168	2614
691.198	2556
691.213	2434
691.257	2634
691.301	2511
691.318	2548
691.346	2628
691.390	2385
691.434	2456
691.439	2413
691.478	2371
691.522	2968
691.559	2923
691.567	2873
691.611	3392
691.655	3029
691.680	3092
691.699	3038
691.743	2802
691.787	2464
691.800	2231
691.831	2012
691.875	2377
691.919	2485
691.921	2484
691.964	2543
692.008	2638
692.041	2544
692.052	2534
692.096	2529
692.139	3026
692.162	2844
692.183	2597
692.227	3047
692.271	2435
692.282	2462
692.315	2679
692.359	2747
692.402	2882
692.403	2889
692.447	3045
692.490	3213
692.523	3186
692.534	3170
692.578	2929
692.622	3092
692.643	3087
692.666	3070
692.709	2537
692.753	2779
692.763	2730
692.797	2662
692.840	2815
692.884	2759
692.884	2766
692.928	2922
692.971	3085
693.004	3319
693.015	3288
693.059	2733
693.102	2529
693.124	2263
693.146	2324
693.189	2677
693.233	2852
693.245	3032
693.276	3287
693.320	3021
693.363	3116
693.365	3097
693.407	2844
693.450	3155
693.485	2958
693.493	2915
693.537	3193
693.580	2930
693.605	3015
693.624	3092
693.667	3138
693.710	3050
693.725	3034
693.753	3155
693.797	3281
693.840	3510
693.845	3533
693.883	3432
693.926	3322
693.966	3116
693.970	3118
694.013	2946
694.056	3043
694.086	2956
694.099	2938
694.142	2964
694.185	3188
694.206	3088
694.229	3043
694.272	3216
694.315	3601
694.326	3552
694.358	3600
694.401	4131
694.444	4441
694.446	4450
694.487	4403
694.530	4245
694.566	4034
694.573	4011
694.616	3836
694.659	3977
694.686	3720
694.702	3632
694.745	3874
694.787	3983
694.806	3981
694.830	3855
694.873	3519
694.916	3272
694.926	3233
694.959	3342
695.002	3413
695.044	3138
695.046	3143
695.087	3389
695.130	3187
695.166	3181
695.172	3234
695.215	3298
695.258	3508
695.286	3710
695.301	3828
695.343	3973
695.386	4114
695.406	4216
695.428	4052
695.471	3794
695.514	3422
695.526	3267
695.556	3415
695.599	3899
695.641	4142
695.646	4168
695.684	3927
695.726	3754
695.766	3231
695.769	3227
695.811	3517
695.854	3541
695.886	3506
695.896	3488
695.938	3473
695.981	3425
696.005	3424
696.023	3482
696.065	3506
696.108	3653
696.125	3675
696.150	3664
696.192	3645
696.235	3497
696.245	3521
696.277	3769
696.319	3759
696.361	3995
696.365	3986
696.404	3925
696.446	4026
696.485	4055
696.488	4075
696.530	4208
696.572	4344
696.604	4446
696.614	4446
696.656	4376
696.698	4244
696.724	4146
696.740	4175
696.783	4285
696.825	4506
696.844	4557
696.867	4486
696.909	4215
696.951	4031
696.964	3973
696.992	4115
697.034	4279
697.076	4363
697.083	4392
697.118	4456
697.160	4333
697.202	4324
697.203	4312
697.244	4261
697.286	4209
697.323	4038
697.327	4046
697.369	4139
697.411	4164
697.442	4194
697.453	4236
697.494	4336
697.536	4458
697.562	4536
697.578	4609
697.620	4687
697.661	4826
697.682	4915
697.703	5149
697.744	5410
697.786	5893
697.801	6006
697.828	6062
697.869	6117
697.911	6138
697.921	6142
697.952	5799
697.994	5296
698.035	4843
698.040	4776
698.077	4879
698.118	4907
698.160	4947
698.160	4934
698.201	4990
698.243	4967
698.279	4978
698.284	5007
698.325	5151
698.367	5314
698.399	5359
698.408	5365
698.449	5396
698.491	5407
698.518	5421
698.532	5446
698.573	5416
698.614	5457
698.638	5446
698.656	5523
698.697	5674
698.738	5816
698.757	5883
698.779	5778
698.820	5527
698.862	5276
698.877	5171
698.903	5379
698.944	5683
698.985	6000
698.996	6072
699.026	5927
699.067	5708
699.116	5434
699.235	5338
699.354	5099
699.474	5426
699.593	6010
699.713	5741
699.832	5846
699.951	6278
700.070	5689
700.190	5360
700.309	5689
700.428	4742
700.547	5462
700.667	4808
700.786	5104
700.905	5273
701.024	5423
701.143	5571
701.262	4967
701.381	5279
701.500	4959
701.619	6314
701.738	5112
701.857	5134
701.976	4915
702.095	5038
702.214	5644
702.333	6390
702.452	5704
702.571	5424
702.690	5486
702.809	5214
702.928	5143
703.047	4601
703.165	5174
703.284	5307
703.403	5620
703.522	5161
703.640	5671
703.759	5215
703.878	6436
703.997	4164
704.115	4250
704.234	5575
704.353	4189
704.471	5407
704.590	4483
704.708	4744
704.827	4402
704.946	3975
705.064	4040
705.183	4520
705.301	4348
705.420	5406
705.538	4991
705.656	4887
705.775	4770
705.893	5178
706.012	5347
706.130	5347
706.249	4672
706.367	4705
706.485	5527
706.604	4981
706.722	4847
706.840	6101
706.958	5375
707.077	5085
707.195	4752
707.313	5049
707.431	4497
707.549	4486
707.668	5136
707.786	4988
707.904	4925
708.022	4582
708.140	4547
708.258	4779
708.376	4486
708.494	4883
708.612	5430
708.730	5639
708.848	5412
708.966	5972
709.084	5972
709.202	5139
709.320	4520
709.438	4944
709.556	5250
709.674	5270
709.791	5037
709.909	4480
710.027	5456
710.145	5136
710.263	5033
710.380	4573
710.498	4455
710.616	4102
710.733	5409
710.851	4804
710.969	4852
711.086	4668
711.204	5087
711.322	4363
711.439	4881
711.557	4596
711.674	4715
711.792	3835
711.909	3954
712.027	3666
712.144	4013
712.262	3966
712.379	4675
712.497	5344
712.614	5772
712.732	5697
712.849	5187
712.966	5387
713.084	8121
713.201	4729
713.318	6014
713.436	5517
713.553	4762
713.670	6069
713.787	5209
713.905	5379
714.022	5293
714.139	5745
714.256	6382
714.373	8328
714.490	15138
714.608	33777
714.725	154916
714.842	226240
714.959	18641
715.076	7263
715.193	6526
715.310	6056
715.427	5731
715.544	4771
715.661	4934
715.778	5298
715.895	5807
716.011	5186
716.128	5259
716.245	5499
716.362	6670
716.479	7977
716.596	4722
716.713	5606
716.829	4731
716.946	4959
717.063	5019
717.180	5039
717.296	5104
717.413	4898
717.530	4388
717.646	3815
717.763	4330
717.880	3927
717.996	3562
718.113	4989
718.229	4402
718.346	4273
718.462	5018
718.579	6946
718.695	13463
718.812	9022
718.928	5404
719.045	5006
719.161	3929
719.277	4230
719.394	4994
719.510	5155
719.626	5137
719.743	5876
719.859	6657
719.975	11787
720.092	40933
720.208	119831
720.324	21790
720.440	5133
720.557	6089
720.673	10319
720.789	10317
720.905	9021
721.021	5931
721.137	4456
721.253	4604
721.369	4378
721.486	3876
721.602	4993
721.718	4391
721.834	3830
721.950	4254
722.066	4228
722.181	3929
722.297	4828
722.413	3700
722.529	4472
722.645	3437
722.761	3514
722.877	3409
722.993	3624
723.108	3616
723.224	4501
723.340	3640
723.456	3782
723.571	3922
723.687	3101
723.803	3593
723.918	3843
724.034	3648
724.150	3335
724.265	3839
724.381	4884
724.497	6271
724.612	3587
724.728	3471
724.843	3496
724.959	3976
725.074	4747
725.190	5581
725.305	4436
725.421	2935
725.536	3217
725.651	3212
725.767	3558
725.882	3290
725.997	3168
726.113	3589
726.228	3241
726.343	3373
726.459	2611
726.574	3375
726.689	3324
726.804	3076
726.920	3302
727.035	3472
727.150	3382
727.265	3191
727.380	3833
727.495	3943
727.610	3310
727.725	2935
727.841	3116
727.956	3394
728.071	3056
728.186	3586
728.301	2361
728.416	3959
728.531	3906
728.645	3469
728.760	3683
728.875	4745
728.990	4372
729.105	3912
729.220	3673
729.335	3757
729.449	3187
729.564	3486
729.679	3490
729.794	3711
729.908	3187
730.023	3399
730.138	3339
730.253	3064
730.367	2639
730.482	4032
730.596	3769
730.711	3730
730.826	3381
730.940	3547
731.055	3352
731.169	2890
731.284	2772
731.398	2681
731.513	2901
731.627	3609
731.742	3238
731.856	3741
731.970	3771
732.085	4471
732.199	4985
732.313	7410
732.428	16439
732.542	60651
732.656	51018
732.771	7053
732.885	4752
732.999	4713
733.113	4629
733.227	4613
733.342	4979
733.456	4752
733.570	4162
733.684	4555
733.798	4371
733.912	3753
734.026	4175
734.140	4119
734.254	3659
734.368	4596
734.482	5380
734.596	4049
734.710	3948
734.824	4127
734.938	3864
735.052	3650
735.166	4166
735.280	4210
735.393	3953
735.507	4301
735.621	4884
735.735	5061
735.849	4032
735.962	3859
736.076	3387
736.190	3738
736.303	4201
736.417	4363
736.531	3788
736.644	3942
736.758	4372
736.872	3287
736.985	3185
737.099	3196
737.212	2932
737.326	3173
737.439	4315
737.553	3704
737.666	3415
737.780	3372
737.893	3929
738.007	2969
738.120	3688
738.233	3550
738.347	4039
738.460	3489
738.573	4676
738.687	4318
738.800	4234
738.913	5312
739.026	4930
739.140	3627
739.253	2929
739.366	3211
739.479	3733
739.592	2752
739.705	2783
739.818	3668
739.932	3769
740.045	3440
740.158	4020
740.271	3015
740.384	3585
740.497	3702
740.610	4430
740.723	3169
740.836	4304
740.949	4261
741.062	5192
741.174	4833
741.287	2599
741.400	3706
741.513	3176
741.626	3133
741.739	3733
741.851	3249
741.964	3264
742.077	2919
742.189	3714
742.302	5261
742.415	4155
742.527	2987
742.640	3128
742.753	3240
742.865	2409
742.978	2518
743.090	2823
743.203	2554
743.316	3580
743.428	2345
743.541	2933
743.653	2523
743.766	2346
743.878	3462
743.990	2933
744.103	3868
744.215	4545
744.327	3467
744.440	3809
744.552	7700
744.664	3725
744.777	2223
744.889	2796
745.001	2713
745.113	2645
745.226	1857
745.338	2544
745.450	2812
745.562	2975
745.674	2275
745.786	2904
745.898	2986
746.010	2467
746.122	2759
746.234	2263
746.347	2565
746.459	2404
746.570	2542
746.682	3829
746.794	4892
746.906	3981
747.018	2757
747.130	2432
747.242	2642
747.354	2568
747.466	2818
747.577	2164
747.689	2651
747.801	3035
747.913	2257
748.024	1902
748.136	2721
748.248	2728
748.359	2659
748.471	2466
748.583	2905
748.694	1715
748.806	1632
748.918	2301
749.029	2325
749.141	3766
749.252	3266
749.364	4099
749.475	8770
749.587	4904
749.698	2699
749.809	3209
749.921	2518
750.032	2050
750.144	1167
750.255	2267
750.366	2001
750.478	2031
750.589	2562
750.700	2941
750.811	2123
750.923	3595
751.034	9213
751.145	10320
751.256	3042
751.367	1572
751.479	2426
751.590	1890
751.701	2433
751.812	1944
751.923	2022
752.034	2612
752.145	1938
752.256	2419
752.367	2424
752.478	2287
752.589	2784
752.700	1965
752.811	2135
752.922	1996
753.032	3193
753.143	3052
753.254	1838
753.365	2491
753.476	1582
753.586	1785
753.697	2073
753.808	2313
753.919	2180
754.029	1688
754.140	1311
754.251	2040
754.361	2144
754.472	1917
754.582	1748
754.693	2077
754.804	1894
754.914	1859
755.025	2207
755.135	1953
755.246	2032
755.356	2650
755.466	1778
755.577	2033
755.687	1986
755.798	2126
755.908	2158
756.018	1747
756.129	1514
756.239	1657
756.349	1861
756.460	1843
756.570	1764
756.680	1892
756.790	2116
756.900	2646
757.011	1110
757.121	1641
757.231	1959
757.341	1967
757.451	1648
757.561	1829
757.671	1493
757.781	1337
757.891	2455
758.001	1339
758.111	2364
758.221	2348
758.331	2051
758.441	2223
758.551	4174
758.661	3461
758.771	1840
758.880	1981
758.990	2127
759.100	2149
759.210	2079
759.320	1946
759.429	2080
759.539	1937
759.649	1187
759.758	1851
759.868	1717
759.978	1872
760.087	2684
760.197	2429
760.307	2338
760.416	2318
760.526	1415
760.635	2359
760.745	2078
760.854	2397
760.964	2618
761.073	2804
761.182	2379
761.292	1853
761.401	1728
761.511	2267
761.620	1816
761.729	2431
761.839	1905
761.948	1694
762.057	2083
762.166	1689
762.276	1152
762.385	2127
762.494	1735
762.603	1152
762.712	1848
762.822	1672
762.931	2044
763.040	1499
763.149	1612
763.258	1600
763.367	1939
763.476	1610
763.585	1894
763.694	1917
763.803	2078
763.912	1994
764.021	1951
764.130	1683
764.238	2750
764.347	1446
764.456	1650
764.565	2518
764.674	2322
764.783	2006
764.891	1762
765.000	2472
765.109	2607
765.217	1955
765.326	1546
765.435	2801
765.543	3124
765.652	3018
765.761	3698
765.869	5050
765.978	6424
766.086	11406
766.195	21772
766.303	63668
766.412	237436
766.520	273531
766.629	33792
766.737	9771
766.846	6475
766.954	4130
767.062	3506
767.171	3170
767.279	3210
767.387	2362
767.496	2667
767.604	2223
767.712	1784
767.820	1996
767.928	2069
768.037	2686
768.145	2121
768.253	2072
768.361	2138
768.469	1820
768.577	1326
768.685	2652
768.793	2314
768.901	1801
769.009	1916
769.117	2903
769.225	2290
769.333	3648
769.441	4347
769.549	11215
769.657	23304
769.765	77970
769.873	242019
769.981	76561
770.088	8336
770.196	4861
770.304	4118
770.412	3454
770.519	2783
770.627	2589
770.735	2770
770.842	2171
770.950	2040
771.058	1982
771.165	1832
771.273	2459
771.380	2428
771.488	2291
771.595	2035
771.703	2382
771.810	2566
771.918	2793
772.025	3094
772.133	2683
772.240	2350
772.348	3915
772.455	3024
772.562	2196
772.670	3021
772.777	3414
772.884	3140
772.991	2749
773.099	3126
773.206	3316
773.313	2315
773.420	2730
773.528	2083
773.635	2773
773.742	2840
773.849	3051
773.956	2628
774.063	2476
774.170	2449
774.277	2650
774.384	2526
774.491	2237
774.598	3131
774.705	2215
774.812	3653
774.919	2760
775.026	2310
775.133	2120
775.239	2792
775.346	2736
775.453	2174
775.560	1788
775.667	2480
775.773	2552
775.880	2405
775.987	2654
776.093	2722
776.200	2196
776.307	2063
776.413	1960
776.520	2004
776.627	2326
776.733	2344
776.840	1528
776.946	2847
777.053	2887
777.159	8434
777.266	5745
777.372	7133
777.478	7285
777.585	4522
777.691	1838
777.798	2604
777.904	2360
778.010	3994
778.117	3320
778.223	2617
778.329	2600
778.435	1712
778.542	2977
778.648	2015
778.754	1808
778.860	2118
778.966	2069
779.072	1620
779.178	2194
779.284	1209
779.391	2231
779.497	1702
779.603	2820
779.708	808
779.815	2733
779.920	3199
780.026	5493
780.132	2215
780.238	1446
780.344	1376
780.450	1950
780.556	1127
780.661	1268
780.767	1938
780.873	930
780.979	1921
781.085	2224
781.190	785
781.296	1454
781.402	1394
781.507	1624
781.613	1618
781.719	1499
781.824	1602
781.930	1347
782.035	833
782.141	1627
782.246	1215
782.352	1825
782.457	1136
782.563	1627
782.668	1957
782.773	1887
782.879	1689
782.984	1818
783.090	2610
783.195	3761
783.300	2677
783.405	1846
783.511	1799
783.616	763
783.721	1080
783.826	1137
783.932	1370
784.037	1151
784.142	1196
784.247	599
784.352	1528
784.457	1375
784.562	876
784.667	2042
784.772	729
784.877	1438
784.982	1400
785.087	1707
785.192	1654
785.297	1629
785.402	1495
785.507	1602
785.611	1739
785.716	1534
785.821	1268
785.926	1386
786.031	1256
786.135	1172
786.240	1541
786.345	763
786.450	1417
786.554	1111
786.659	1437
786.763	485
786.868	1727
786.973	1754
787.077	1356
787.182	1064
787.286	1298
787.391	1122
787.495	614
787.600	729
787.704	1318
787.809	572
787.913	800
788.017	1279
788.122	690
788.226	1655
788.330	1324
788.435	1134
788.539	741
788.643	1349
788.747	509
788.852	362
788.956	898
789.060	988
789.164	1538
789.268	1173
789.372	1281
789.476	351
789.580	852
789.684	970
789.788	1166
789.892	1131
789.996	976
790.100	366
790.204	1127
790.308	883
790.412	446
790.516	1671
790.620	1051
790.724	1954
790.828	1086
790.931	941
791.035	1317
791.139	69
791.242	739
791.346	1043
791.450	924
791.554	1619
791.657	715
791.761	1353
791.864	1365
791.968	1401
792.072	1229
792.175	1083
792.279	1038
792.382	246
792.486	686
792.589	989
792.693	1010
792.796	676
792.899	1584
793.003	1180
793.106	-169
793.209	1066
793.313	597
793.416	497
793.519	1742
793.623	3026
793.726	4785
793.829	1482
793.932	1890
794.035	-421
794.138	1464
794.242	1240
794.345	916
794.448	1694
794.551	3109
794.654	4475
794.757	3029
794.860	1201
794.963	808
795.066	-108
795.169	871
795.272	628
795.375	1209
795.477	492
795.580	791
795.683	-348
795.786	1222
795.889	-107
795.991	1292
796.094	1446
796.197	-62
796.300	1658
796.402	518
796.505	826
796.608	221
796.710	444
796.813	-215
796.915	641
797.018	135
797.120	774
797.223	-207
797.326	1379
797.428	580
797.530	956
797.633	125
797.735	929
797.838	677
797.940	1193
798.042	934
798.145	372
798.247	878
798.349	-72
798.452	1191
798.554	500
798.656	474
798.758	960
798.860	1011
798.962	316
799.065	107
799.167	-672
799.269	1615
799.371	897
799.473	1270
799.575	-120
799.677	288
799.779	2671
799.881	2036
799.983	2457
800.085	303
800.187	-22
800.289	63
800.390	743
800.492	1105
800.594	504
800.696	753
800.798	270
800.899	476
801.001	475
801.103	-145
801.205	318
801.306	677
801.408	319
801.509	305
801.611	1026
801.713	1304
801.814	-371
801.916	9
802.017	445
802.119	646
802.220	-83
802.322	-428
802.423	936
802.525	-340
802.626	494
802.727	507
802.829	305
802.930	-1650
803.031	1239
803.133	-316
803.234	-256
803.335	-115
803.436	224
803.538	62
803.639	-624
803.740	873
803.841	-465
803.942	1021
804.043	458
804.144	411
804.245	-243
804.346	727
804.447	98
804.548	1123
804.649	1884
804.750	739
804.851	678
804.952	-517
805.053	45
805.154	-88
805.255	1090
805.355	599
805.456	1052
805.557	336
805.658	-610
805.758	580
805.859	-127
805.960	529
806.061	-211
806.161	321
806.262	-483
806.362	156
806.463	242
806.564	521
806.664	87
806.765	-150
806.865	533
806.966	573
807.066	-13
807.166	-173
807.267	292
807.367	-294
807.468	-49
807.568	-38
807.668	700
807.769	570
807.869	-631
807.969	286
808.069	-47
808.170	-683
808.270	401
808.370	736
808.470	972
808.570	799
808.670	-495
808.770	286
808.870	-389
808.970	-228
809.070	512
809.170	704
809.271	773
809.370	-414
809.470	855
809.570	-7
809.670	8
809.770	782
809.870	828
809.970	-389
810.070	131
810.169	-98
810.269	-1525
810.369	330
810.469	-483
810.568	-15
810.668	-17
810.768	822
810.867	-189
810.967	-402
811.066	510
811.166	441
811.265	188
811.365	-93
811.464	-549
811.564	4
811.663	443
811.763	-504
811.862	-242
811.962	407
812.061	287
812.160	-673
812.260	505
812.359	-102
812.458	-124
812.557	-45
812.657	381
812.756	272
812.855	-409
812.954	-845
813.053	542
813.153	-621
813.252	210
813.351	-384
813.450	-6
813.549	-315
813.648	184
813.747	-274
813.846	220
813.945	481
814.044	216
814.143	68
814.242	1169
814.341	123
814.439	138
814.538	-457
814.637	-219
814.736	-354
814.835	907
814.933	-820
815.032	234
815.131	-18
815.229	1056
815.328	1536
815.427	663
815.525	1184
815.624	977
815.722	809
815.821	630
815.919	404
816.018	335
816.116	1731
816.215	886
816.313	1098
816.412	270
816.510	867
816.609	1202
816.707	900
816.805	626
816.904	650
817.002	592
817.100	967
817.198	1470
817.296	419
817.395	380
817.493	1956
817.591	331
817.689	1546
817.787	1019
817.885	1870
817.983	2784
818.081	5381
818.179	13164
818.277	37091
818.375	31364
818.473	5247
818.571	2493
818.669	2569
818.767	2444
818.865	2094
818.963	1415
819.061	2604
819.158	5680
819.256	12335
819.354	30052
819.452	76425
819.549	43227
819.647	7076
819.745	1928
819.842	2188
819.940	1959
820.038	625
820.135	1076
820.233	1204
820.330	656
820.428	523
820.525	1395
820.623	399
820.720	438
820.818	1279
820.915	577
821.012	1239
821.110	16
821.207	1248
821.304	-306
821.402	1044
821.499	2402
821.596	1863
821.693	1720
821.791	1546
821.888	1715
821.985	3973
822.082	3233
822.179	1625
822.276	1536
822.373	811
822.470	729
822.567	103
822.664	-67
822.761	1159
822.858	731
822.955	940
823.052	760
823.149	295
823.246	45
823.343	33
823.440	-45
823.536	352
823.633	318
823.730	287
823.827	374
823.923	-92
824.020	1104
824.117	425
824.213	503
824.310	1376
824.407	-227
824.503	972
824.600	-94
824.696	573
824.793	1762
824.889	-646
824.986	282
825.082	339
825.179	499
825.275	448
825.371	-469
825.468	943
825.564	-1014
825.660	67
825.757	767
825.853	582
825.949	274
826.045	-742
826.142	-371
826.238	49
826.334	355
826.430	-142
826.526	-206
826.622	485
826.718	794
826.814	518
826.910	300
827.006	-580
827.102	-711
827.198	161
827.294	-91
827.390	294
827.486	-54
827.582	-294
827.678	-1138
827.774	986
827.869	-440
827.965	576
828.061	-287
828.157	-27
828.252	53
828.348	-547
828.444	1245
828.539	-949
828.635	-215
828.731	174
828.826	64
828.922	-326
829.017	457
829.113	138
829.208	-117
829.304	261
829.399	1221
829.495	441
829.590	413
829.685	179
829.781	10
829.876	-414
829.971	-298
830.066	-204
830.162	-375
830.257	-123
830.352	-641
830.447	1150
830.543	-414
830.638	-1180
830.733	1538
830.828	-45
830.923	353
831.018	571
831.113	427
831.208	-566
831.303	-255
831.398	-340
831.493	21
831.588	774
831.683	-1364
831.778	-372
831.873	-357
831.967	513
832.062	-237
832.157	-570
832.252	511
832.346	-353
832.441	1231
832.536	679
832.631	4343
832.725	3875
832.820	-314
832.914	-21
833.009	23
833.104	581
833.198	1710
833.293	-329
833.387	318
833.482	-39
833.576	-459
833.670	505
833.765	-734
833.859	-69
833.954	999
834.048	229
834.142	375
834.237	-685
834.331	-482
834.425	-456
834.519	-333
834.613	-304
834.708	-298
834.802	-30
834.896	-189
834.990	-772
835.084	-384
835.178	369
835.272	-727
835.366	-390
835.460	1
835.554	293
835.648	160
835.742	-669
835.836	-449
835.930	-1248
836.024	-310
836.117	353
836.211	146
836.305	88
836.399	301
836.493	-551
836.586	704
836.680	-292
836.774	-56
836.867	-359
836.961	-711
837.055	-1020
837.148	108
837.242	-28
837.335	-673
837.429	-252
837.522	-700
837.616	-428
837.709	138
837.803	-12
837.896	102
837.989	-198
838.083	1
838.176	-466
838.269	-122
838.363	30
838.456	-298
838.549	2619
838.642	2506
838.735	4677
838.829	2033
838.922	-575
839.015	-635
839.108	-638
839.201	-1285
839.294	-285
839.387	231
839.480	-424
839.573	130
839.666	547
839.759	-650
839.852	74
839.945	-452
840.038	94
840.131	13
840.223	-822
840.316	580
840.409	-389
840.502	-420
840.594	3
840.687	-560
840.780	-275
840.873	-894
840.965	-937
841.058	-134
841.150	883
841.243	-678
841.336	-150
841.428	-643
841.521	-401
841.613	-553
841.706	-780
841.798	-224
841.890	-352
841.983	-1347
842.075	476
842.167	359
842.260	-832
842.352	168
842.444	-58
842.537	-106
842.629	503
842.721	-221
842.813	-341
842.905	-379
842.997	233
843.090	-939
843.182	781
843.274	-487
843.366	658
843.458	2206
843.550	1925
843.642	237
843.734	-571
843.826	-741
843.918	13
844.009	-7
844.101	-996
844.193	-927
844.285	-1025
844.377	630
844.469	-117
844.560	654
844.652	1515
844.744	261
844.835	-797
844.927	-910
845.019	-488
845.110	48
845.202	-242
845.293	-548
845.385	-587
845.476	-311
845.568	-424
845.659	-825
845.751	-305
845.842	16
845.934	-694
846.025	-562
846.116	-271
846.208	-188
846.299	-384
846.390	-22
846.482	304
846.573	79
846.664	189
846.755	774
846.846	691
846.937	-1611
847.029	-859
847.120	-989
847.211	-640
847.302	170
847.393	-1147
847.484	77
847.575	-1084
847.666	-628
847.757	-932
847.847	78
847.938	101
848.029	-1099
848.120	-577
848.211	-1040
848.302	-914
848.392	127
848.483	-938
848.574	-527
848.664	-279
848.755	-166
848.846	106
848.936	-1342
849.027	-923
849.118	-314
849.208	-383
849.299	175
849.389	992
849.480	4123
849.570	8148
849.661	14645
849.751	29521
849.841	13302
849.932	333
850.022	-63
850.112	111
850.203	-143
850.293	-237
850.383	-454
850.474	-674
850.564	-1191
850.654	-616
850.744	-518
850.834	-517
850.924	-875
851.014	-509
851.104	-50
851.194	-263
851.284	428
851.374	260
851.464	-178
851.554	-353
851.644	-1217
851.734	-472
851.824	-550
851.914	-1050
852.004	-36
852.094	-565
852.183	-766
852.273	522
852.363	-1185
852.452	-1231
852.542	-834
852.632	-224
852.721	76
852.811	-316
852.901	-529
852.990	235
853.080	-231
853.169	-1026
853.259	-141
853.348	-450
853.438	-49
853.527	1563
853.617	2459
853.706	6746
853.795	11969
853.885	28243
853.974	55280
854.063	89195
854.152	175434
854.242	82566
854.331	9706
854.420	1829
854.509	902
854.598	1331
854.687	1051
854.777	1172
854.866	287
854.955	335
855.044	-315
855.133	-635
855.222	60
855.311	-65
855.400	-349
855.488	-902
855.577	-543
855.666	-1005
855.755	-46
855.844	-574
855.933	-466
856.021	64
856.110	-483
856.199	-76
856.288	151
856.376	-693
856.465	-556
856.554	-65
856.642	-1294
856.731	-772
856.819	-464
856.908	-526
856.996	101
857.085	234
857.173	-851
857.262	-1398
857.350	-676
857.438	-1200
857.527	318
857.615	-318
857.703	-238
857.792	-263
857.880	-675
857.968	-18
858.056	-687
858.145	-222
858.233	-903
858.321	-248
858.409	100
858.497	-624
858.585	-1549
858.673	-502
858.761	-835
858.849	-66
858.937	-713
859.025	-762
859.113	-769
859.201	-991
859.289	-452
859.377	-317
859.465	454
859.552	-12
859.640	-1062
859.728	-573
859.816	-799
859.903	-804
859.991	-1422
860.079	-713
860.166	-267
860.254	-1535
860.342	-408
860.429	-981
860.517	-767
860.604	-756
860.692	-775
860.779	-669
860.867	-1879
860.954	-691
861.042	-81
861.129	-444
861.216	-400
861.304	-1094
861.391	-631
861.478	-1300
861.565	-1119
861.653	429
861.740	-769
861.827	-950
861.914	-103
862.001	-156
862.089	-389
862.176	-603
862.263	-419
862.350	-682
862.437	-712
862.524	-868
862.611	-1196
862.698	-748
862.785	-539
862.871	-202
862.958	-824
863.045	-1105
863.132	-951
863.219	-631
863.306	-855
863.392	-714
863.479	-917
863.566	-680
863.652	71
863.739	-1007
863.826	-880
863.912	-735
863.999	-589
864.086	-288
864.172	-665
864.259	-639
864.345	-537
864.432	-73
864.518	-556
864.604	-544
864.691	-225
864.777	56
864.863	102
864.950	-276
865.036	-631
865.122	1319
865.209	1580
865.295	205
865.381	1010
865.467	1101
865.553	2011
865.639	2706
865.726	6522
865.812	14442
865.898	27390
865.984	41140
866.070	72944
866.156	105140
866.242	32509
866.328	4864
866.414	1965
866.499	963
866.585	836
866.671	1038
866.757	436
866.843	383
866.928	-9
867.014	9
867.100	1210
867.186	172
867.271	261
867.357	-25
867.442	1868
867.528	-70
867.614	511
867.699	789
867.785	1022
867.870	188
867.956	1866
868.041	1580
868.127	789
868.212	342
868.297	1613
868.383	778
868.468	1568
868.553	3003
868.639	2853
868.724	5173
868.809	8253
868.894	1701
868.979	-191
869.065	443
869.150	-952
869.235	271
869.320	-40
869.405	113
869.490	-700
869.575	-231
869.660	-240
869.745	-371
869.830	67
869.915	-442
870.000	27
870.085	-540
870.169	271
870.254	1127
870.339	-688
870.424	-490
870.509	-283
870.593	-233
870.678	342
870.763	-384
870.847	-4
870.932	-128
871.016	381
871.101	-286
871.186	133
871.270	-191
871.355	-873
871.439	-663
871.523	-167
871.608	-557
871.692	-24
871.777	460
871.861	-462
871.945	-799
872.030	-767
872.114	-452
872.198	-486
872.282	-353
872.367	-288
872.451	-565
872.535	-706
872.619	163
872.703	47
872.787	38
872.871	-125
872.955	540
873.039	-883
873.123	-566
873.207	515
873.291	-480
873.375	-688
873.459	-58
873.543	-351
873.627	325
873.711	-299
873.794	603
873.878	-201
873.962	-454
874.045	-925
874.129	-366
874.137	-392
874.213	-649
874.245	-552
874.296	-399
874.352	-606
874.380	-706
874.460	-260
874.464	-244
874.547	288
874.568	167
874.631	-194
874.676	-335
874.714	-457
874.784	335
874.798	494
874.881	845
874.892	734
874.965	-15
874.999	-88
875.048	-190
875.107	-86
875.131	-60
875.215	624
875.215	624
875.298	-533
875.323	-610
875.381	-737
875.430	-278
875.465	88
875.538	640
875.548	691
875.631	-23
875.646	-18
875.714	7
875.753	-67
875.798	-115
875.861	-355
875.881	-457
875.964	-910
875.968	-911
876.047	-740
876.076	-515
876.130	-113
876.183	-301
876.213	-371
876.291	600
876.296	647
876.379	529
876.398	319
876.462	-328
876.506	-346
876.545	-345
876.613	-434
876.628	-434
876.711	-847
876.721	-664
876.794	767
876.828	556
876.877	101
876.935	-74
876.960	-51
877.043	114
877.043	114
877.125	138
877.150	196
877.208	469
877.258	114
877.291	-237
877.365	128
877.374	183
877.456	345
877.472	220
877.539	-291
877.579	-288
877.622	-257
877.687	348
877.704	538
877.787	307
877.794	343
877.869	581
877.901	410
877.952	146
878.008	240
878.034	310
878.115	-198
878.117	-205
878.199	107
878.222	217
878.282	330
878.329	394
878.364	540
878.437	465
878.447	437
878.529	372
878.544	307
878.611	-77
878.651	-113
878.694	59
878.758	422
878.776	548
878.858	634
878.865	665
878.941	565
878.972	680
879.023	1070
879.078	504
879.105	467
879.185	2133
879.187	2152
879.269	2042
879.292	1840
879.351	1150
879.399	739
879.433	718
879.506	882
879.516	906
879.598	1698
879.613	1535
879.680	707
879.720	617
879.762	683
879.827	725
879.844	674
879.926	1414
879.933	1391
880.007	1747
880.040	2185
880.089	3030
880.147	3951
880.171	4399
880.253	6818
880.254	6825
880.335	11956
880.360	13264
880.417	22071
880.467	32323
880.499	44640
880.574	72651
880.580	70729
880.662	32412
880.680	24906
880.744	11377
880.787	3774
880.825	2937
880.893	1860
880.907	1792
880.989	1891
881.000	1730
881.070	1166
881.106	1027
881.152	860
881.213	895
881.233	815
881.315	472
881.319	460
881.396	931
881.426	962
881.478	886
881.532	871
881.559	972
881.639	1490
881.641	1499
881.722	956
881.745	1076
881.803	1648
881.852	1729
881.885	1687
881.958	1399
881.966	1383
882.047	2216
882.064	2155
882.129	2433
882.171	3026
882.210	5257
882.277	9389
882.291	9384
882.372	7376
882.383	7156
882.454	3451
882.489	1723
882.535	1447
882.596	1025
882.616	1062
882.697	1150
882.702	1147
882.778	758
882.808	717
882.859	1007
882.914	1101
882.940	1093
883.020	1293
883.021	1299
883.102	1074
883.127	1049
883.183	1379
883.233	1760
883.264	1642
883.339	1286
883.345	1286
883.426	710
883.445	761
883.507	1029
883.551	862
883.587	1036
883.657	1701
883.668	1854
883.749	2592
883.763	2718
883.830	1708
883.869	1207
883.910	1272
883.975	1078
883.991	1025
884.072	973
884.081	946
884.152	1314
884.187	1536
884.233	1398
884.292	1174
884.314	1199
884.394	1272
884.398	1268
884.475	1038
884.504	959
884.555	1225
884.610	1324
884.636	1303
884.716	1404
884.716	1412
884.797	1246
884.821	1247
884.877	1478
884.927	1604
884.958	1510
885.033	1251
885.038	1262
885.118	1059
885.139	1077
885.199	1046
885.244	954
885.279	999
885.350	1225
885.359	1299
885.439	1863
885.456	1916
885.520	1735
885.561	1659
885.600	1398
885.667	997
885.680	1120
885.760	1910
885.773	1996
885.840	1721
885.878	1599
885.920	1657
885.984	1778
886.000	1821
886.080	1868
886.089	1867
886.160	2048
886.195	2123
886.240	2100
886.300	2023
886.320	1954
886.400	1642
886.406	1629
886.480	3155
886.511	3709
886.560	5336
886.616	7007
886.640	6269
886.720	3858
886.722	3782
886.800	2337
886.827	1778
886.879	1600
886.932	1436
886.959	1663
887.038	2297
887.039	2308
887.119	2101
887.143	2056
887.198	2023
887.248	1957
887.278	1842
887.354	1261
887.358	1271
887.437	1573
887.459	1628
887.517	1855
887.564	1984
887.596	2147
887.669	2414
887.676	2348
887.755	1511
887.774	1297
887.835	1640
887.880	1890
887.914	1660
887.985	1132
887.994	1195
888.073	1787
888.090	1860
888.153	1933
888.195	2074
888.232	2085
888.300	1998
888.311	1937
888.391	1440
888.405	1343
888.470	1701
888.510	1920
888.549	1776
888.615	1529
888.628	1694
888.708	2631
888.720	2764
888.787	2529
888.825	2371
888.866	2013
888.930	1426
888.945	1491
889.024	1867
889.035	1905
889.103	2002
889.140	2037
889.182	2148
889.245	2302
889.261	2280
889.340	2127
889.349	2102
889.419	1682
889.454	1451
889.498	1601
889.559	1801
889.577	1918
889.656	2403
889.664	2443
889.735	2612
889.768	2679
889.814	2315
889.873	1812
889.978	2160
890.083	924
890.187	2494
890.292	1776
890.397	2725
890.501	1747
890.606	2082
890.710	2457
890.815	2614
890.919	2740
891.024	2903
891.128	2548
891.233	2910
891.337	1664
891.442	2250
891.546	1695
891.650	2255
891.755	1785
891.859	3618
891.963	3082
892.068	2548
892.172	1809
892.276	2085
892.380	2233
892.484	2794
892.589	2834
892.693	3331
892.797	2695
892.901	3008
893.005	1880
893.109	2697
893.213	2980
893.317	2202
893.421	1530
893.525	1674
893.629	1701
893.733	2314
893.837	2199
893.941	2403
894.045	2029
894.148	1909
894.252	2201
894.356	2945
894.460	4043
894.564	2675
894.667	2295
894.771	1071
894.875	1447
894.978	1434
895.082	1959
895.186	1902
895.289	2223
895.393	2282
895.496	2240
895.600	1682
895.703	1479
895.807	2472
895.910	2417
896.014	1668
896.117	1375
896.221	1782
896.324	1401
896.427	1918
896.531	1334
896.634	1240
896.737	2050
896.840	1830
896.944	1578
897.047	1854
897.150	2754
897.253	2217
897.356	1952
897.460	2505
897.563	2497
897.666	1337
897.769	2182
897.872	1659
897.975	1745
898.078	2382
898.181	1719
898.284	1489
898.387	2343
898.490	1767
898.593	2099
898.695	1673
898.798	1214
898.901	1401
899.004	1788
899.107	1882
899.209	1290
899.312	3150
899.415	1804
899.518	2045
899.620	2286
899.723	3255
899.826	8056
899.928	14131
900.031	3287
900.133	2208
900.236	1342
900.338	1192
900.441	1308
900.543	1782
900.646	2207
900.748	1934
900.851	2718
900.953	1688
901.055	2693
901.158	3884
901.260	2583
901.362	2512
901.465	1287
901.567	2116
901.669	1002
901.771	767
901.873	1258
901.976	1815
902.078	2579
902.180	2249
902.282	1892
902.384	1830
902.486	2889
902.588	1653
902.690	1782
902.792	1434
902.894	1389
902.996	2472
903.098	1506
903.200	1343
903.302	2305
903.404	1542
903.505	901
903.607	1753
903.709	2115
903.811	2317
903.913	1142
904.014	2112
904.116	1598
904.218	1075
904.319	1868
904.421	1499
904.523	1981
904.624	2181
904.726	1614
904.827	1695
904.929	1838
905.030	1137
905.132	1852
905.233	1916
905.335	1716
905.436	1466
905.537	971
905.639	618
905.740	1248
905.841	1632
905.943	2357
906.044	1946
906.145	1729
906.247	2399
906.348	1833
906.449	1813
906.550	756
906.651	1827
906.752	1332
906.854	1303
906.955	1449
907.056	2110
907.157	1687
907.258	2073
907.359	1103
907.460	1838
907.561	1659
907.662	1774
907.762	1991
907.863	2494
907.964	3152
908.065	2345
908.166	1455
908.267	1956
908.367	1289
908.468	1606
908.569	1695
908.670	2306
908.770	5331
908.871	5106
908.971	2963
909.072	1895
909.173	1568
909.273	1274
909.374	1142
909.474	2326
909.575	1973
909.675	1663
909.776	2558
909.876	2143
909.977	1433
910.077	2119
910.177	1844
910.278	2158
910.378	1297
910.478	2036
910.579	2216
910.679	1771
910.779	1469
910.879	1973
910.980	1313
911.080	1751
911.180	1737
911.280	1602
911.380	1686
911.480	1817
911.580	1945
911.680	2232
911.780	3045
911.880	3815
911.980	1352
912.080	2060
912.180	1234
912.280	1455
912.380	1425
912.480	1559
912.580	1776
912.679	1694
912.779	1148
912.879	1826
912.979	411
913.078	1597
913.178	1386
913.278	782
913.377	1216
913.477	2203
913.577	1503
913.676	2366
913.776	1849
913.875	1422
913.975	1676
914.074	1316
914.174	806
914.273	1319
914.373	1683
914.472	1451
914.572	1359
914.671	1881
914.770	1335
914.870	1427
914.969	1809
915.068	1558
915.167	1543
915.267	899
915.366	864
915.465	2317
915.564	511
915.663	2187
915.763	1827
915.862	1990
915.961	1530
916.060	1095
916.159	1112
916.258	1121
916.357	1784
916.456	1373
916.555	1199
916.654	1849
916.752	1104
916.851	1692
916.950	1438
917.049	1648
917.148	1844
917.247	2157
917.345	1388
917.444	1460
917.543	1090
917.642	2136
917.740	1000
917.839	1937
917.937	1424
918.036	2635
918.135	1661
918.233	722
918.332	1344
918.430	1037
918.529	1871
918.627	1915
918.726	1330
918.824	1963
918.923	1565
919.021	1189
919.119	987
919.218	2108
919.316	882
919.414	1819
919.512	1746
919.611	1672
919.709	2153
919.807	1832
919.905	1838
920.003	2199
920.102	2166
920.200	1585
920.298	1966
920.396	1672
920.494	2535
920.592	1876
920.690	1849
920.788	1607
920.886	2117
920.984	2914
921.082	2172
921.180	2957
921.277	1632
921.375	2883
921.473	1955
921.571	2334
921.669	2584
921.766	2694
921.864	3130
921.962	2276
922.060	2084
922.157	2482
922.255	2006
922.352	2189
922.450	2349
922.548	3270
922.645	3010
922.743	3464
922.840	4105
922.938	5648
923.035	4233
923.133	3401
923.230	4493
923.327	5128
923.425	4904
923.522	5231
923.619	5342
923.717	4018
923.814	4081
923.911	4213
924.008	4382
924.106	4800
924.203	3528
924.300	5134
924.397	5308
924.494	4509
924.591	4597
924.688	4628
924.786	3947
924.883	5189
924.979	5247
925.077	4672
925.173	5001
925.270	4622
925.367	4919
925.464	5487
925.561	6079
925.658	6866
925.755	6426
925.852	8086
925.948	6430
926.045	5503
926.142	5502
926.239	5359
926.335	5193
926.432	6054
926.529	5108
926.625	5121
926.722	4831
926.818	4208
926.915	4374
927.011	4204
927.108	3873
927.204	5055
927.301	2936
927.397	4383
927.494	4793
927.590	3290
927.687	3583
927.783	4363
927.879	4081
927.976	4313
928.072	3072
928.168	4475
928.264	3446
928.361	3809
928.457	4822
928.553	3748
928.649	3297
928.745	4300
928.841	3271
928.937	3326
929.033	4213
929.129	3709
929.225	3961
929.321	4001
929.417	2764
929.513	3316
929.609	3090
929.705	3708
929.801	2868
929.897	3102
929.993	2845
930.089	3294
930.184	2865
930.280	3092
930.376	3349
930.471	3285
930.567	2461
930.663	3050
930.758	2768
930.854	4732
930.950	3433
931.045	2661
931.141	3421
931.236	3474
931.332	3431
931.427	2878
931.523	2691
931.618	4657
931.714	2919
931.809	2992
931.905	3804
932.000	3264
932.095	2217
932.191	2660
932.286	3365
932.381	2591
932.476	2545
932.572	2568
932.667	2765
932.762	3295
932.857	3677
932.952	2635
933.047	3367
933.142	3213
933.237	2531
933.332	3221
933.427	3200
933.522	2897
933.617	2063
933.712	2796
933.807	2963
933.902	3929
933.997	3241
934.092	2577
934.187	1877
934.282	2558
934.376	2755
934.471	3480
934.566	2535
934.661	2249
934.755	2484
934.850	2872
934.945	3113
935.039	2584
935.134	2536
935.228	2486
935.323	2800
935.417	2584
935.512	2391
935.606	1792
935.701	2440
935.795	3280
935.890	3346
935.984	1942
936.079	1721
936.173	2666
936.267	2166
936.362	2193
936.456	2646
936.550	2701
936.644	1967
936.738	1192
936.833	2346
936.927	2265
937.021	2374
937.115	2500
937.209	2004
937.303	3611
937.397	1560
937.491	2348
937.585	2577
937.679	2358
937.773	1532
937.867	1915
937.961	1810
938.055	3012
938.149	2145
938.243	2134
938.337	2512
938.430	2256
938.524	2132
938.618	2293
938.712	2644
938.805	3018
938.899	2043
938.993	3342
939.086	2406
939.180	2116
939.274	2661
939.367	3305
939.461	2762
939.554	2846
939.648	1616
939.741	2510
939.835	1998
939.928	3408
940.022	2934
940.115	2936
940.208	2128
940.302	2638
940.395	3592
940.488	1937
940.582	2680
940.675	1911
940.768	1968
940.861	3622
940.954	3080
941.048	2886
941.141	2994
941.234	4359
941.327	6977
941.420	8363
941.513	5282
941.606	2845
941.699	3207
941.792	3218
941.885	2212
941.978	2744
942.071	2044
942.164	2348
942.257	2930
942.349	2364
942.442	2562
942.535	1757
942.628	1882
942.721	1741
942.813	1655
942.906	2818
942.999	857
943.091	1932
943.184	1218
943.277	1993
943.369	1925
943.462	1985
943.554	2367
943.647	1630
943.739	2382
943.832	2718
943.924	1215
944.017	1371
944.109	1304
944.201	2132
944.294	992
944.386	2658
944.478	1870
944.571	2235
944.663	604
944.755	1727
944.847	1724
944.940	1814
945.032	770
945.124	1435
945.216	2706
945.308	2112
945.400	2263
945.492	2789
945.584	1776
945.676	2061
945.768	1349
945.860	2585
945.952	2537
946.044	1693
946.136	1266
946.228	1651
946.320	1143
946.412	1168
946.503	1120
946.595	2823
946.687	764
946.779	1007
946.870	1759
946.962	1550
947.054	1395
947.145	1367
947.237	1228
947.329	1650
947.420	1616
947.512	1511
947.603	902
947.695	768
947.786	554
947.878	1141
947.969	1084
948.061	1282
948.152	1609
948.243	932
948.335	1312
948.426	556
948.517	863
948.609	1626
948.700	928
948.791	583
948.882	370
948.973	1040
949.065	1150
949.156	850
949.247	622
949.338	543
949.429	1141
949.520	1625
949.611	804
949.702	882
949.793	1419
949.884	1229
949.975	1652
950.066	268
950.157	986
950.247	910
950.338	1182
950.429	901
950.520	895
950.611	1422
950.701	414
950.792	1198
950.883	1628
950.973	1374
951.064	1171
951.155	2184
951.245	1442
951.336	1621
951.427	901
951.517	1887
951.608	987
951.698	1465
951.788	306
951.879	265
951.969	518
952.060	-143
952.150	1159
952.240	976
952.331	930
952.421	1421
952.511	361
952.602	1134
952.692	583
952.782	1529
952.872	-68
952.962	1064
953.052	687
953.143	724
953.233	852
953.323	876
953.413	869
953.503	647
953.593	1622
953.683	1312
953.773	681
953.863	504
953.953	123
954.042	285
954.132	672
954.222	1242
954.312	649
954.402	476
954.492	1123
954.581	1726
954.671	900
954.761	586
954.850	1030
954.940	663
955.030	-538
955.119	742
955.209	902
955.298	351
955.388	201
955.477	1117
955.567	-32
955.656	371
955.746	906
955.835	258
955.925	169
956.014	406
956.103	644
956.193	1551
956.282	910
956.371	1154
956.461	641
956.550	-81
956.639	252
956.728	-139
956.817	536
956.906	1277
956.995	1646
957.085	750
957.174	399
957.263	1011
957.352	-713
957.441	1283
957.530	921
957.619	470
957.708	201
957.796	288
957.885	814
957.974	436
958.063	520
958.152	312
958.241	604
958.329	200
958.418	220
958.507	73
958.596	1486
958.684	-62
958.773	239
958.861	323
958.950	1307
959.039	564
959.127	-96
959.216	737
959.304	327
959.393	678
959.481	352
959.570	543
959.658	-212
959.746	411
959.835	846
959.923	547
960.011	516
960.100	1582
960.188	-122
960.276	664
960.365	414
960.453	251
960.541	300
960.629	558
960.717	122
960.805	301
960.893	529
960.981	195
961.069	861
961.158	824
961.245	869
961.333	804
961.421	-119
961.509	710
961.597	608
961.685	587
961.773	269
961.861	-429
961.949	277
962.036	66
962.124	733
962.212	56
962.299	542
962.387	149
962.475	950
962.562	804
962.650	1011
962.738	1225
962.825	-435
962.913	411
963.000	718
963.088	55
963.175	884
963.263	149
963.350	175
963.438	863
963.525	254
963.612	2026
963.700	3323
963.787	6735
963.874	3318
963.962	815
964.049	618
964.136	-11
964.223	-40
964.310	-366
964.398	142
964.485	446
964.572	892
964.659	1045
964.746	547
964.833	960
964.920	195
965.007	676
965.094	-121
965.181	815
965.268	630
965.355	717
965.441	353
965.528	219
965.615	296
965.702	573
965.789	24
965.875	768
965.962	327
966.049	303
966.136	733
966.222	312
966.309	585
966.395	218
966.482	1050
966.569	991
966.655	325
966.742	4
966.828	-38
966.915	-47
967.001	45
967.087	1092
967.174	-642
967.260	1316
967.347	1342
967.433	2835
967.519	3815
967.605	1344
967.692	543
967.778	1382
967.864	-234
967.950	675
968.036	355
968.123	195
968.209	220
968.295	-425
968.381	554
968.467	386
968.553	-179
968.639	748
968.725	719
968.811	1208
968.897	687
968.983	-192
969.069	-393
969.154	677
969.240	136
969.326	-29
969.412	-287
969.497	490
969.583	-294
969.669	979
969.755	-354
969.840	202
969.926	225
970.012	949
970.097	1975
970.183	1698
970.268	219
970.354	626
970.439	942
970.525	2010
970.610	915
970.696	795
970.781	85
970.866	-1151
970.952	-267
971.037	-358
971.122	-348
971.208	392
971.293	198
971.378	-88
971.463	-1
971.549	370
971.634	4
971.719	196
971.804	220
971.889	681
971.974	-33
972.059	-203
972.144	480
972.229	363
972.314	-112
972.399	831
972.484	-45
972.569	1037
972.654	-317
972.739	1552
972.824	988
972.908	1149
972.993	-211
973.078	5
973.163	-176
973.247	698
973.332	-719
973.417	1184
973.501	-650
973.586	1287
973.671	880
973.755	2329
973.840	2029
973.924	963
974.009	163
974.093	100
974.178	1641
974.262	911
974.346	982
974.431	561
974.515	704
974.600	-401
974.684	353
974.768	-304
974.852	355
974.937	-603
975.021	815
975.105	843
975.189	-80
975.273	682
975.358	-58
975.442	-826
975.526	-272
975.610	-3
975.694	-814
975.778	1177
975.862	-582
975.946	-963
976.030	1588
976.114	-828
976.198	-380
976.281	652
976.365	853
976.449	-31
976.533	-838
976.617	-430
976.700	-224
976.784	-110
976.868	-69
976.951	-264
977.035	209
977.119	-607
977.202	-801
977.286	-84
977.369	492
977.453	601
977.536	-262
977.620	-69
977.703	505
977.787	-825
977.870	377
977.953	984
978.037	405
978.120	1546
978.203	201
978.287	903
978.370	958
978.453	-405
978.536	461
978.620	218
978.703	543
978.786	-412
978.869	479
978.952	-780
979.035	517
979.118	633
979.201	-1257
979.284	-112
979.367	-658
979.450	289
979.533	-466
979.616	-419
979.699	-830
979.782	635
979.865	682
979.948	-643
980.030	121
980.113	-142
980.196	-536
980.279	-4
980.361	202
980.444	-330
980.526	80
980.609	-101
980.692	-361
980.774	647
980.857	-533
980.939	718
981.022	-467
981.104	-1071
981.187	-187
981.269	648
981.352	112
981.434	-883
981.516	-349
981.599	-165
981.681	193
981.763	209
981.846	-220
981.928	-662
982.010	15
982.092	-569
982.174	-94
982.256	424
982.339	-432
982.421	-199
982.503	-317
982.585	-741
982.667	126
982.749	-303
982.831	-18
982.913	-394
982.995	-127
983.077	309
983.158	-139
983.240	-302
983.322	493
983.404	1193
983.486	350
983.568	550
983.649	-517
983.731	385
983.813	-548
983.894	411
983.976	-812
984.058	-201
984.139	719
984.221	-565
984.302	95
984.384	-393
984.465	-889
984.547	-648
984.628	-437
984.710	544
984.791	-556
984.872	329
984.954	-603
985.035	467
985.116	-774
985.198	-880
985.279	404
985.360	157
985.441	-466
985.522	199
985.604	372
985.685	-1202
985.766	-159
985.847	371
985.928	-374
986.009	-53
986.090	-506
986.171	522
986.252	-464
986.333	-323
986.414	-346
986.495	451
986.576	-960
986.656	578
986.737	131
986.818	-67
986.899	-131
986.980	301
987.060	-457
987.141	-553
987.222	86
987.302	443
987.383	443
987.464	-490
987.544	-102
987.625	135
987.705	644
987.786	648
987.866	733
987.947	292
988.027	-167
988.108	109
988.188	128
988.268	645
988.349	5
988.429	-190
988.509	-628
988.589	-89
988.670	-769
988.750	1046
988.830	132
988.910	-358
988.990	199
989.070	896
989.151	-320
989.231	-596
989.311	-157
989.391	-350
989.471	-1052
989.551	388
989.631	-732
989.711	804
989.791	-741
989.870	-638
989.950	142
990.030	-128
990.110	-258
990.190	-1090
990.269	303
990.349	280
990.429	-533
990.509	-92
990.588	-905
990.668	-73
990.747	-221
990.827	324
990.907	-536
990.986	361
991.066	-553
991.145	-4
991.225	96
991.304	387
991.383	-74
991.463	-626
991.542	-379
991.622	-522
991.701	-150
991.780	-559
991.859	-914
991.939	-1026
992.018	-851
992.097	10
992.176	-1017
992.256	-255
992.335	-727
992.414	344
992.493	-1275
992.572	-1031
992.651	249
992.730	12
992.809	-595
992.888	-1020
992.967	105
993.046	-52
993.125	-1344
993.203	-1100
993.282	-1022
993.361	-556
993.440	-778
993.519	-1362
993.597	-554
993.676	-690
993.755	276
993.834	-336
993.912	-1361
993.991	-916
994.069	-1105
994.148	173
994.226	-490
994.305	-616
994.384	-1135
994.462	109
994.540	-1832
994.619	-419
994.697	-1099
994.776	-1335
994.854	-1062
994.932	-761
995.011	-444
995.089	-1046
995.167	-648
995.245	-528
995.324	-1322
995.402	220
995.480	-434
995.558	-828
995.636	-799
995.714	-906
995.792	-287
995.870	-588
995.948	-802
996.026	-301
996.104	-1304
996.182	-797
996.260	-1562
996.338	-256
996.416	-1778
996.494	-383
996.572	387
996.649	-1754
996.727	-1945
996.805	-28
996.883	-641
996.960	-932
997.038	-514
997.116	-464
997.193	-1268
997.271	-566
997.348	-1633
997.426	-370
997.504	-1513
997.581	101
997.658	-584
997.736	-1288
997.813	-1282
997.891	-751
997.968	-1247
998.046	-474
998.123	-1359
998.200	-931
998.277	-1109
998.355	-426
998.432	-2168
998.509	-325
998.586	-35
998.663	-1091
998.741	-1092
998.818	-1181
998.895	-1410
998.972	-558
999.049	-1677
999.126	-1884
999.203	-1175
999.280	-1428
999.357	-850
999.434	-619
999.511	-813
999.587	-717
999.664	-1525
999.741	-754
999.818	-676
999.895	-1216
999.971	-1029
1000.048	-1321
1000.125	-371
1000.202	-1806
1000.278	-1649
1000.355	-365
1000.431	-1245
1000.508	-1618
1000.584	-1185
1000.661	-1212
1000.738	-992
1000.814	-524
1000.890	-1359
1000.967	-1719
1001.043	-1382
1001.120	-1128
1001.196	-1115
1001.272	-1027
1001.349	-674
1001.425	-305
1001.501	-377
1001.577	-1895
1001.654	-1359
1001.730	-869
1001.806	-951
1001.882	-1777
1001.958	-1082
1002.034	-1350
1002.110	-1243
1002.186	-1623
1002.262	-1802
1002.338	-1661
1002.414	-1992
1002.490	-1351
1002.566	-1659
1002.642	-1769
1002.718	-954
1002.794	-1449
1002.870	-900
1002.945	-1233
1003.021	-1674
1003.097	-1604
1003.173	-864
1003.248	-1529
1003.324	-1746
1003.400	-1120
1003.475	-1954
1003.551	-1212
1003.626	-1653
1003.702	-1211
1003.777	-1336
1003.853	-1149
1003.928	-1532
1004.004	-10
1004.079	-877
1004.155	-797
1004.230	-1104
1004.305	-751
1004.381	-1487
1004.456	-678
1004.531	-1569
1004.607	-911
1004.682	-1215
1004.757	-936
1004.832	-799
1004.907	-1459
1004.982	-1116
1005.057	-982
1005.133	-2415
1005.208	-1304
1005.283	-1635
1005.358	-971
1005.433	-1586
1005.508	-1932
1005.583	-1411
1005.657	-1480
1005.732	-1308
1005.807	-1703
1005.882	-2122
1005.957	-944
1006.032	-914
1006.106	-1372
1006.181	-1988
1006.256	-248
1006.331	-2151
1006.405	-1755
1006.480	-1596
1006.554	-954
1006.629	-1752
1006.704	-1865
1006.778	-1716
1006.853	-894
1006.927	-1921
1007.002	-2000
1007.076	-1590
1007.150	-1841
1007.225	-1306
1007.299	-1620
1007.373	-1920
1007.448	-1402
1007.522	-1302
1007.596	-1550
1007.671	-1541
1007.745	-518
1007.819	-2554
1007.893	-1424
1007.967	-1673
1008.041	-1883
1008.115	-1390
1008.190	-1693
1008.264	-1675
1008.338	-1531
1008.412	-1590
1008.486	-1436
1008.560	-1554
1008.633	-1536
1008.707	-2004
1008.781	-1572
1008.855	-1594
1008.929	-1198
1009.003	-1985
1009.076	-1610
1009.150	-2274
1009.224	-1570
1009.298	-1451
1009.371	-1944
1009.445	-1516
1009.519	-1321
1009.592	-1971
1009.666	-1099
1009.739	-1598
1009.813	-2044
1009.886	-1524
1009.960	-1823
1010.033	-2091
1010.107	-1379
1010.180	-2371
1010.253	-848
1010.327	-2460
1010.400	-1992
1010.473	-2048
1010.547	-1716
1010.620	-2365
1010.693	-1840
1010.766	-2736
1010.840	-697
1010.913	-1019
1010.986	-1760
1011.059	-2444
1011.132	-1688
1011.205	-1029
1011.278	-1371
1011.351	-1575
1011.424	-1803
1011.497	-1721
1011.570	-1217
1011.643	-1029
1011.716	-2081
1011.789	-1790
1011.862	-1467
1011.934	-737
1012.007	-2305
1012.080	-1834
1012.153	-1498
1012.225	-817
1012.298	-2226
1012.371	-1974
1012.443	-1380
1012.516	-2001
1012.588	-1052
1012.661	-2189
1012.733	-1795
1012.806	-1555
1012.879	-1701
1012.951	-2265
1013.023	-1774
1013.096	-1574
1013.168	-1338
1013.241	-1240
1013.313	-1520
1013.385	-1867
1013.458	-2072
1013.530	-2042
1013.602	-2175
1013.674	-1913
1013.746	-1751
1013.819	-2458
1013.891	-1636
1013.963	-2042
1014.035	-1339
1014.107	-1495
1014.179	-1368
1014.251	-1831
1014.323	-2056
1014.395	-2149
1014.467	-1930
1014.539	-1030
1014.611	-1331
1014.683	-2031
1014.754	-1599
1014.826	-2684
1014.898	-1188
1014.970	-1933
1015.042	-1608
1015.113	-2092
1015.185	-1708
1015.257	-2377
1015.328	-1629
1015.400	-2327
1015.471	-2159
1015.543	-2601
1015.615	-1399
1015.686	-2141
1015.757	-2220
1015.829	-1520
1015.901	-1957
1015.972	-2025
1016.043	-2183
1016.115	-2532
1016.186	-1084
1016.257	-2787
1016.328	-1659
1016.400	-1665
1016.471	-2173
1016.542	-2408
1016.613	-2234
1016.685	-1630
1016.756	-1727
1016.827	-2927
1016.898	-2125
1016.969	-1383
1017.040	-2892
1017.111	-1902
1017.182	-1724
1017.253	-1734
1017.324	-2239
1017.395	-1629
1017.466	-1354
1017.537	-1841
1017.608	-1391
1017.678	-929
1017.749	-2553
1017.820	-1956
1017.891	-2469
1017.961	-2607
1018.032	-1786
1018.103	-1657
1018.173	-1817
1018.244	-1691
1018.315	-2081
1018.385	-2017
1018.456	-2067
1018.526	-2548
1018.597	-2387
1018.667	-2045
1018.738	-1899
1018.808	-2238
1018.878	-2179
1018.949	-2297
1019.019	-1792
1019.089	-2662
1019.160	-920
1019.230	-2431
1019.300	-1186
1019.371	-1515
1019.441	-1506
1019.511	-2690
1019.581	-2376
1019.651	-3402
1019.721	-2374
1019.791	-2287
1019.861	-2356
1019.931	-1724
1020.001	-2404
1020.071	-1751
1020.141	-2096
1020.211	-2068
1020.281	-2327
1020.351	-2671
1020.421	-1922
1020.491	-2354
1020.560	-2418
1020.630	-1937
1020.700	-2077
1020.770	-2433
1020.839	-2326
1020.909	-2291
1020.979	-1657
1021.048	-1590
1021.118	-2491
1021.187	-2176
1021.257	-2026
1021.326	-1719
1021.396	-2266
1021.465	-1834
1021.535	-1681
1021.604	-2349
1021.674	-1786
1021.743	-2116
1021.812	-1652
1021.882	-1943
1021.951	-1632
1022.020	-2537
1022.089	-1411
1022.159	-2449
1022.228	-1825
1022.297	-2119
1022.366	-2003
1022.435	-1958
1022.504	-2202
1022.573	-2638
1022.642	-1762
1022.711	-2337
1022.781	-1934
1022.849	-1428
1022.918	-1146
1022.987	-1404
1023.056	-1596
1023.125	-2059
1023.194	-2488
1023.263	-2041
1023.331	-1707
1023.400	-2417
1023.469	-2298
1023.538	-1619
1023.606	-2482
1023.675	-2189
1023.744	-1972
1023.812	-2348
1023.881	-1646
1023.949	-1235
1024.018	-1741
1024.086	-2489
1024.155	-2354
1024.223	-2711
1024.292	-1664
1024.360	-1656
1024.429	-2063
1024.497	-2878
1024.565	-1778
1024.634	-2441
1024.702	-1900
1024.770	-1803
1024.838	-2550
1024.907	-1673
1024.975	-1139
1025.043	-1990
1025.111	-1809
1025.179	-1375
1025.247	-839
1025.315	-1332
1025.383	-2495
1025.451	-2483
1025.519	-2339
1025.587	-1351
1025.655	-1703
1025.723	-2446
1025.791	-1923
1025.859	-2198
1025.927	-1608
1025.995	-2560
1026.062	-1716
1026.130	-2332
1026.198	-1842
1026.266	-1787
1026.333	-1951
1026.401	-2043
1026.469	-1620
1026.536	-1556
1026.604	-1612
1026.671	-2380
1026.739	-1495
1026.806	-2573
1026.874	-2544
1026.941	-2892
1027.009	-1641
1027.076	-2770
1027.144	-838
1027.211	-2477
1027.278	-2166
1027.345	-1287
1027.413	-1190
1027.480	-2665
1027.547	-1468
1027.614	-2050
1027.682	-1394
1027.749	-1473
1027.816	-1085
1027.883	-1415
1027.950	-1463
1028.017	-2187
1028.084	-903
1028.151	-2702
1028.218	-1973
1028.285	-1813
1028.352	-1654
1028.419	-2907
1028.486	-1732
1028.553	-2360
1028.619	-2436
1028.686	-2300
1028.753	-1886
1028.820	-2775
1028.886	-1801
1028.953	-1583
1029.020	-2155
1029.086	-2228
1029.153	-2155
1029.220	-1963
1029.286	-1077
1029.353	-1915
1029.419	-1772
1029.486	-2474
1029.552	-1918
1029.619	-1615
1029.685	-1546
1029.751	-2206
1029.818	-1574
1029.884	-1756
1029.951	-1429
1030.017	-1964
1030.083	-1585
1030.149	-2220
1030.216	-2036
1030.282	-2045
1030.348	-1551
1030.414	-2305
1030.480	-2520
1030.546	-1029
1030.612	-1494
1030.678	-2018
1030.744	-1913
1030.810	-1442
1030.876	-1741
1030.942	-2021
1031.008	-1989
1031.074	-1821
1031.140	-2998
1031.206	-1498
1031.272	-1989
1031.337	-1336
1031.403	-1373
1031.469	-2452
1031.534	-2257
1031.600	-1175
1031.666	-1962
1031.731	-2506
1031.797	-2171
1031.863	-1431
1031.928	-1969
1031.994	-2402
1032.059	-2203
1032.125	-2204
1032.190	-1512
1032.256	-2024
1032.321	-2259
1032.386	-1632
1032.452	-1017
1032.517	-2112
1032.582	-1729
1032.647	-1515
1032.713	-1996
1032.778	-1286
1032.843	-1785
1032.908	-2127
1032.974	-1497
1033.039	-1810
1033.104	-1238
1033.169	-1761
1033.234	-2138
1033.299	-1105
1033.364	-115
1033.429	-293
1033.494	-138
1033.559	-1371
1033.624	-1478
1033.688	-1711
1033.753	-2105
1033.818	-1224
1033.883	-1011
1033.948	-631
1034.013	-1233
1034.077	-472
1034.142	-56
1034.207	-69
1034.271	346
1034.336	1647
1034.400	1525
1034.465	1525
1034.530	2001
1034.594	414
1034.658	-1548
1034.723	-817
1034.787	-1712
1034.852	-2071
1034.916	-1127
1034.981	-796
1035.045	-817
1035.109	-1629
1035.173	-1816
1035.238	-1988
1035.302	-932
1035.366	-2426
1035.430	-2031
1035.495	-1927
1035.559	-1691
1035.623	-1702
1035.687	-1160
1035.751	-2067
1035.815	-1096
1035.879	-1869
1035.943	-1758
1036.007	-2037
1036.071	-983
1036.135	-1942
1036.198	-1220
1036.262	-1643
1036.326	-1316
1036.390	-1112
1036.454	396
1036.517	-586
1036.581	584
1036.645	1299
1036.709	2791
1036.772	1268
1036.836	-1201
1036.900	-893
1036.963	-2209
1037.026	-2231
1037.090	-1839
1037.154	-2078
1037.217	-1022
1037.280	-1857
1037.344	-1319
1037.407	-1421
1037.471	-1184
1037.534	-1796
1037.597	-1405
1037.661	-2448
1037.724	-1862
1037.787	-1708
1037.850	-1031
1037.913	-1330
1037.977	-658
1038.040	-1823
1038.103	-1583
1038.166	-1116
1038.229	-1930
1038.292	-1784
1038.355	-1891
1038.418	-1824
1038.481	-802
1038.544	-2119
1038.607	-2257
1038.670	-1814
1038.732	-1247
1038.795	-1079
1038.858	-2011
1038.921	-1521
1038.984	-892
1039.046	-1812
1039.109	-2034
1039.172	-2693
1039.234	-1515
1039.297	-2534
1039.360	-1798
1039.422	-2110
1039.485	-2105
1039.547	-1988
1039.610	-1435
1039.672	-969
1039.734	-1109
1039.797	-1426
1039.859	-1428
1039.922	-1788
1039.984	-1749
1040.046	-2028
1040.109	-1774
1040.171	-1494
1040.233	-1475
1040.295	-2086
1040.358	-1515
1040.420	-2369
1040.482	-1957
1040.544	-1991
1040.606	-1761
1040.668	-2058
1040.730	-1485
1040.792	-1577
1040.854	-1525
1040.916	-2136
1040.978	-2581
1041.040	-1620
1041.102	-1703
1041.164	-1647
1041.225	-1359
1041.287	-2201
1041.349	-1139
1041.411	-1372
1041.472	-1368
1041.534	-1847
1041.596	-2395
1041.657	-2034
1041.719	-1397
1041.781	-2050
1041.842	-2103
1041.904	-1836
1041.965	-1434
1042.027	-2697
1042.088	-1554
1042.150	-1398
1042.211	-1855
1042.272	-1317
1042.334	-1270
1042.395	-2061
1042.456	-1887
1042.518	-1212
1042.579	-1451
1042.640	-2254
1042.701	-2080
1042.763	-1287
1042.824	-1315
1042.885	-2388
1042.946	-2367
1043.007	-1574
1043.068	-1664
1043.129	-2269
1043.190	-1447
1043.251	-735
1043.312	-1546
1043.373	-1662
1043.434	-2022
1043.495	-1794
1043.556	-790
1043.616	-1953
1043.677	-2132
1043.738	-1984
1043.799	-1552
1043.859	-1548
1043.920	-1724
1043.981	-2059
1044.041	-1420
1044.102	-1562
1044.162	-2419
1044.223	-1810
1044.284	-1822
1044.344	-1533
1044.405	-1296
1044.465	-2198
1044.525	-1859
1044.586	-1231
1044.646	-1629
1044.707	-2171
1044.767	-1195
1044.827	-1514
1044.887	-2270
1044.948	-2025
1045.008	-1404
1045.068	-2452
1045.128	-1017
1045.188	-2064
1045.249	-1472
1045.309	-1943
1045.369	-994
1045.429	-2118
1045.489	-1324
1045.549	-1330
1045.609	-1678
1045.669	-1564
1045.729	-2282
1045.789	-1442
1045.848	-1214
1045.908	-1531
1045.968	-1935
1046.028	-1398
1046.088	-1510
1046.147	-1941
1046.207	-1327
1046.267	-1948
1046.326	-798
1046.386	-1404
1046.446	-184
1046.505	-1116
1046.565	-20
1046.624	-312
1046.684	-832
1046.743	-1058
1046.803	91
1046.862	-172
1046.922	0
