'Start Wavelength	183.907
'End Wavelength	1046.922
'Gate Delay	5.000
'Gate Width (ms)	1.050
'Laser Output Level	0.000
'X Position	0.000
'Y Position	0.000
'Z Position	0.000
'Grid Point Number	1.000
'Shot Number	100.000
183.907	398.000
183.977	-111.000
184.047	443
184.116	236
184.186	813
184.256	-204
184.325	671
184.395	-608
184.465	-194
184.534	-340
184.604	373
184.674	48
184.743	253
184.813	-170
184.883	727
184.952	313
185.022	568
185.092	320
185.161	410
185.231	689
185.301	725
185.370	841
185.440	59
185.509	544
185.579	690
185.649	1241
185.718	614
185.788	414
185.857	765
185.927	192
185.996	392
186.066	-336
186.136	-87
186.205	441
186.275	1075
186.344	500
186.414	649
186.483	585
186.553	2218
186.622	2264
186.692	1363
186.761	48
186.831	593
186.900	70
186.970	1368
187.039	672
187.109	1189
187.178	923
187.248	650
187.317	1051
187.387	994
187.456	1601
187.526	1240
187.595	620
187.664	593
187.734	1068
187.803	1033
187.873	1776
187.942	1846
188.012	1119
188.081	1058
188.150	1236
188.220	2362
188.289	2221
188.358	2075
188.428	346
188.497	1090
188.567	1516
188.636	725
188.705	242
188.775	1332
188.844	1253
188.913	755
188.983	404
189.052	815
189.121	449
189.191	796
189.260	2641
189.329	2307
189.399	1172
189.468	1406
189.537	1267
189.606	802
189.676	1491
189.745	1577
189.814	1454
189.883	1643
189.953	1751
190.022	3789
190.091	11048
190.161	10045
190.230	3273
190.299	2286
190.368	1359
190.437	1907
190.507	1615
190.576	1312
190.645	1275
190.714	1254
190.783	1041
190.853	1592
190.922	789
190.991	1999
191.060	991
191.129	1638
191.198	676
191.268	1136
191.337	709
191.406	1982
191.475	1023
191.544	1011
191.613	1684
191.682	1404
191.752	993
191.821	1662
191.890	1731
191.959	772
192.028	1352
192.097	1585
192.166	1329
192.235	1225
192.304	1656
192.373	999
192.442	1582
192.511	1918
192.580	696
192.650	1265
192.719	1738
192.788	1675
192.857	1874
192.926	2368
192.995	2862
193.064	6934
193.133	6351
193.202	6691
193.271	5367
193.340	4586
193.409	4308
193.478	5519
193.547	7781
193.615	10414
193.684	7726
193.753	4509
193.822	3032
193.891	2238
193.960	1986
194.029	2504
194.098	1544
194.167	1837
194.236	1633
194.305	1915
194.374	1644
194.443	2096
194.512	1502
194.580	2164
194.649	2978
194.718	2275
194.787	1268
194.856	1943
194.925	2362
194.994	2522
195.062	2152
195.131	2878
195.200	3012
195.269	3926
195.338	2211
195.407	1932
195.475	1984
195.544	2974
195.613	1801
195.682	1991
195.751	2074
195.819	3221
195.888	1984
195.957	3607
196.026	2426
196.094	3220
196.163	3825
196.232	2995
196.301	2819
196.369	2913
196.438	1668
196.507	2194
196.576	1504
196.644	2238
196.713	2075
196.782	1604
196.850	1446
196.919	2556
196.988	1713
197.056	2315
197.125	2856
197.194	2419
197.262	1751
197.331	2612
197.400	1840
197.468	2053
197.537	2260
197.606	3206
197.674	6125
197.743	9673
197.812	5070
197.880	11218
197.949	5358
198.017	11375
198.086	5088
198.155	3220
198.223	5738
198.292	11496
198.360	3095
198.429	4233
198.497	3244
198.566	9533
198.635	8837
198.703	3548
198.772	5461
198.840	16552
198.909	9126
198.977	4510
199.046	2889
199.114	3190
199.183	3645
199.251	2591
199.320	2749
199.388	2339
199.457	2312
199.525	2563
199.594	3071
199.662	2572
199.731	2414
199.799	2990
199.867	3460
199.936	3437
200.004	2875
200.073	3192
200.141	2677
200.210	2716
200.278	2055
200.346	3655
200.415	3905
200.483	3969
200.552	2622
200.620	2456
200.688	2840
200.757	2758
200.825	3134
200.893	3476
200.962	1716
201.030	2876
201.098	3341
201.167	3498
201.235	2114
201.303	3255
201.372	3055
201.440	4031
201.508	3122
201.577	3468
201.645	3111
201.713	3537
201.781	4348
201.850	3656
201.918	2612
201.986	3164
202.055	3276
202.123	3489
202.191	3066
202.259	2998
202.327	3145
202.396	3128
202.464	3289
202.532	5470
202.600	10688
202.669	4844
202.737	3633
202.805	3588
202.873	2698
202.941	3839
203.009	3484
203.078	3241
203.146	3705
203.214	3915
203.282	3373
203.350	3907
203.418	3832
203.487	3458
203.555	2905
203.623	3797
203.691	3491
203.759	2972
203.827	3433
203.895	4026
203.963	2824
204.031	3523
204.099	3587
204.168	3689
204.236	4232
204.304	4774
204.372	3907
204.440	3994
204.508	3229
204.576	4069
204.644	3933
204.712	4225
204.780	3671
204.848	3948
204.916	3596
204.984	4119
205.052	3539
205.120	4005
205.188	3490
205.256	3989
205.324	4253
205.392	4459
205.460	5117
205.528	4768
205.596	4206
205.664	4915
205.732	5902
205.799	23333
205.867	19127
205.935	7118
206.003	4904
206.071	5762
206.139	6382
206.207	5204
206.275	3999
206.343	3747
206.411	4504
206.478	3744
206.546	5068
206.614	5059
206.682	4768
206.750	4966
206.818	6703
206.885	6235
206.953	4437
207.021	5135
207.089	4494
207.157	4148
207.225	4341
207.292	4237
207.360	5665
207.428	5030
207.496	3632
207.563	4299
207.631	4565
207.699	4498
207.767	4182
207.834	4943
207.902	5825
207.970	4467
208.038	4428
208.105	4773
208.173	6505
208.241	7694
208.309	6551
208.376	7609
208.444	11880
208.512	6980
208.579	5184
208.647	7795
208.715	6023
208.782	6175
208.850	4092
208.918	5253
208.985	5172
209.053	5360
209.120	4564
209.188	5108
209.256	5228
209.323	5686
209.391	6842
209.459	5863
209.526	5300
209.594	5718
209.661	4749
209.729	4796
209.796	4871
209.864	5776
209.932	4475
209.999	5999
210.067	6158
210.134	5627
210.202	7164
210.269	8543
210.337	8830
210.404	5848
210.472	5436
210.539	5590
210.607	6338
210.674	6098
210.742	5323
210.809	5778
210.877	6907
210.944	7341
211.012	5773
211.079	6716
211.146	5823
211.214	7770
211.281	11508
211.349	8003
211.416	6904
211.484	6976
211.551	6495
211.618	6958
211.686	5924
211.753	5939
211.821	6730
211.888	6290
211.955	6044
212.023	6296
212.090	7357
212.157	6964
212.225	8842
212.292	18234
212.359	40366
212.427	62884
212.494	23048
212.561	12091
212.629	9129
212.696	8435
212.763	8015
212.831	7292
212.898	7221
212.965	6366
213.032	6913
213.100	6838
213.167	7625
213.234	7158
213.301	6973
213.369	7076
213.436	5880
213.503	8396
213.570	8526
213.638	9596
213.705	6147
213.772	5795
213.839	8607
213.906	7108
213.973	7973
214.041	6231
214.108	6606
214.175	6249
214.242	6515
214.309	7141
214.376	7411
214.444	7465
214.511	8334
214.578	7151
214.645	7892
214.712	8059
214.779	8036
214.846	8867
214.913	10453
214.980	10591
215.048	10495
215.115	10678
215.182	8958
215.249	8575
215.316	7174
215.383	6941
215.450	6511
215.517	6518
215.584	6401
215.651	6184
215.718	5581
215.785	8039
215.852	6809
215.919	7632
215.986	7028
216.053	6136
216.120	4910
216.187	6631
216.254	6882
216.321	6673
216.388	7065
216.455	7897
216.522	6983
216.589	9533
216.656	15786
216.722	12570
216.789	11649
216.856	12191
216.923	9951
216.990	9262
217.057	9453
217.124	11553
217.191	11286
217.258	14166
217.324	17322
217.391	16115
217.458	13482
217.525	10573
217.592	9623
217.659	9335
217.725	9431
217.792	14193
217.859	9419
217.926	6891
217.993	5953
218.059	6410
218.126	5694
218.193	5921
218.260	5593
218.327	5361
218.393	5606
218.460	5247
218.527	4845
218.594	7704
218.660	12635
218.727	10815
218.794	5884
218.860	5099
218.927	4937
218.994	5113
219.061	5223
219.127	7583
219.194	9659
219.261	5196
219.327	4241
219.394	4908
219.461	3323
219.527	4955
219.594	9012
219.661	5972
219.727	4642
219.794	6261
219.860	5280
219.927	6432
219.994	11857
220.060	18374
220.127	11569
220.193	9572
220.260	11235
220.326	16504
220.393	24987
220.460	26727
220.526	16487
220.593	12940
220.659	12151
220.726	17357
220.792	35683
220.859	30415
220.925	40914
220.992	46196
221.058	47425
221.125	40315
221.191	29024
221.258	13489
221.324	9947
221.391	9754
221.457	7543
221.524	9192
221.590	15442
221.657	44511
221.723	20548
221.789	28813
221.856	19084
221.922	11734
221.989	7304
222.055	5919
222.121	6631
222.188	8320
222.254	7196
222.321	5708
222.387	5302
222.453	4637
222.520	4481
222.586	4499
222.652	5677
222.719	4982
222.785	4701
222.851	2976
222.918	3327
222.984	4105
223.050	4571
223.116	4638
223.183	4551
223.249	3579
223.315	3610
223.382	4548
223.448	3342
223.514	3775
223.580	3378
223.647	3368
223.713	4162
223.779	3555
223.845	4167
223.911	4593
223.978	4288
224.044	4187
224.110	3575
224.176	3177
224.242	3517
224.309	3507
224.375	3432
224.441	3582
224.507	3844
224.573	3783
224.639	3327
224.705	2740
224.772	3655
224.838	3773
224.904	4244
224.970	3721
225.036	4101
225.102	4608
225.168	4278
225.234	4103
225.300	4354
225.366	4007
225.432	3908
225.499	4788
225.565	4993
225.631	6081
225.697	5555
225.763	7588
225.829	7704
225.895	9693
225.961	13764
226.027	11711
226.093	11114
226.159	13876
226.225	24059
226.291	61264
226.357	66229
226.423	31714
226.489	18219
226.554	13800
226.620	12702
226.686	17398
226.752	26689
226.818	57347
226.884	103278
226.950	66148
227.016	29605
227.082	17737
227.148	13856
227.214	12031
227.279	10346
227.345	8046
227.411	8545
227.477	13487
227.543	28514
227.609	20468
227.674	10981
227.740	8938
227.806	8254
227.872	7503
227.938	7514
228.003	9373
228.069	5671
228.135	4893
228.201	5360
228.267	5887
228.332	7187
228.398	9705
228.464	5933
228.530	4011
228.595	4981
228.661	5576
228.727	9854
228.792	5926
228.858	5429
228.924	7147
228.990	7911
229.055	7195
229.121	7275
229.187	5132
229.252	6007
229.318	4342
229.384	5387
229.449	6479
229.515	3951
229.581	2421
229.646	4784
229.712	6914
229.777	15661
229.843	12045
229.909	8845
229.974	10002
230.040	7709
230.105	7587
230.171	9480
230.236	16415
230.302	21336
230.368	12461
230.433	9690
230.499	7194
230.564	7619
230.630	5749
230.695	4825
230.761	5061
230.826	4276
230.892	8726
230.957	5360
231.023	4552
231.088	4896
231.154	4443
231.219	6481
231.284	11009
231.350	7970
231.415	5099
231.481	5401
231.546	4844
231.612	4077
231.677	4250
231.742	4040
231.808	5059
231.873	5098
231.939	3718
232.004	10087
232.069	6793
232.135	6778
232.200	4780
232.265	3890
232.331	3655
232.396	3442
232.461	3600
232.527	4717
232.592	4305
232.657	5196
232.723	13389
232.788	5964
232.853	4562
232.918	3775
232.984	4704
233.049	4843
233.114	13467
233.179	8919
233.245	22052
233.310	14505
233.375	4928
233.440	5311
233.506	7341
233.571	5361
233.636	4139
233.701	4828
233.766	16833
233.832	12419
233.897	5982
233.962	5825
234.027	6931
234.092	5481
234.157	5656
234.222	7060
234.288	18392
234.353	41651
234.418	28628
234.483	13854
234.548	10172
234.613	8488
234.678	8395
234.743	14145
234.808	45045
234.873	18336
234.938	9152
235.004	7498
235.069	7430
235.134	6928
235.199	6650
235.264	5193
235.329	5440
235.394	6459
235.459	10470
235.524	7244
235.589	6199
235.654	5810
235.719	5285
235.784	5892
235.849	12248
235.913	21325
235.978	27549
236.043	20725
236.108	8951
236.173	11996
236.238	9407
236.303	7804
236.368	8585
236.433	20284
236.498	24902
236.563	17693
236.627	51408
236.692	135720
236.757	73946
236.822	37472
236.887	27317
236.952	19943
237.017	19156
237.081	18495
237.146	30079
237.211	63082
237.276	153770
237.341	172067
237.405	69087
237.470	33828
237.535	23810
237.600	14568
237.664	12458
237.729	10322
237.794	21273
237.859	30248
237.923	21832
237.988	12181
238.053	21586
238.118	19751
238.182	65741
238.247	31399
238.312	22637
238.376	13626
238.441	13096
238.506	10217
238.570	6848
238.635	6573
238.700	6681
238.764	7603
238.829	32393
238.893	21709
238.958	11759
239.023	8972
239.087	7416
239.152	8453
239.216	6143
239.281	5339
239.346	6612
239.410	6555
239.475	14076
239.539	61828
239.604	24778
239.668	10140
239.733	8852
239.797	21348
239.862	48569
239.926	43993
239.991	14130
240.055	8422
240.120	7954
240.184	7044
240.249	7292
240.313	6113
240.378	9178
240.442	41470
240.507	39061
240.571	11549
240.635	32359
240.700	20520
240.764	8965
240.829	6509
240.893	5079
240.957	8455
241.022	38985
241.086	45919
241.151	16226
241.215	7031
241.279	18461
241.344	22892
241.408	9806
241.472	8126
241.537	7225
241.601	6491
241.665	6640
241.730	7042
241.794	8382
241.858	7159
241.922	7228
241.987	7030
242.051	6559
242.115	6432
242.179	5962
242.244	6147
242.308	7643
242.372	9595
242.436	10484
242.501	6883
242.565	6815
242.629	5679
242.693	6250
242.757	6595
242.822	7367
242.886	8186
242.950	8503
243.014	9262
243.078	9358
243.142	7938
243.206	9093
243.271	9838
243.335	11856
243.399	23371
243.463	129974
243.527	165401
243.591	40062
243.655	18733
243.719	13585
243.783	13100
243.847	30267
243.911	28619
243.975	27904
244.040	13648
244.104	10283
244.168	8435
244.232	15248
244.296	23505
244.360	23844
244.424	12966
244.488	10784
244.552	10374
244.615	8129
244.679	7123
244.743	11220
244.807	7693
244.871	5318
244.935	6004
244.999	6897
245.063	7020
245.127	9250
245.191	23807
245.255	13650
245.319	11589
245.383	8168
245.446	7212
245.510	6428
245.574	7290
245.638	6528
245.702	11161
245.766	19199
245.829	10217
245.893	10315
245.957	8401
246.021	8875
246.085	9852
246.149	14610
246.212	35211
246.276	35977
246.340	15375
246.404	11512
246.467	17091
246.531	19410
246.595	11489
246.659	11756
246.722	10364
246.786	12209
246.850	16075
246.913	14675
246.977	8131
247.041	10240
247.104	8288
247.168	11229
247.232	34160
247.295	53880
247.359	16323
247.423	14844
247.486	20932
247.550	11421
247.614	11019
247.677	12459
247.741	9220
247.804	10329
247.868	14459
247.932	34507
247.995	42928
248.059	14469
248.122	8795
248.186	13990
248.249	29278
248.313	101491
248.376	69817
248.440	44155
248.503	16220
248.567	16530
248.630	25613
248.694	28068
248.757	48679
248.821	84012
248.884	35469
248.948	58304
249.011	70334
249.075	112649
249.138	65370
249.202	26392
249.265	25161
249.328	34707
249.392	18608
249.455	14962
249.519	13599
249.582	17766
249.645	27426
249.709	17948
249.772	17848
249.835	16053
249.899	19668
249.962	13893
250.025	14517
250.089	46500
250.152	34772
250.215	20387
250.279	16868
250.342	18909
250.405	17717
250.468	17066
250.532	23785
250.595	53966
250.658	240769
250.721	205027
250.785	68559
250.848	37833
250.911	25439
250.974	22608
251.038	41231
251.101	52847
251.164	32415
251.227	30757
251.290	32121
251.354	80151
251.417	285013
251.480	170644
251.543	214224
251.606	439292
251.669	225499
251.732	100451
251.795	102203
251.859	137504
251.922	266331
251.985	98895
252.048	44604
252.111	35300
252.174	32682
252.237	69842
252.300	106673
252.363	206515
252.426	285053
252.489	97774
252.552	59444
252.615	42570
252.678	47847
252.741	99956
252.804	208995
252.867	306131
252.930	140066
252.993	72107
253.056	44698
253.119	34197
253.182	38050
253.245	70337
253.308	35223
253.371	36908
253.434	30067
253.497	32329
253.559	57246
253.622	31364
253.685	47310
253.748	31167
253.811	20690
253.874	37497
253.937	23422
254.000	18539
254.062	46940
254.125	45668
254.188	50764
254.251	28944
254.314	21109
254.376	40772
254.439	31034
254.502	26829
254.565	48238
254.628	50477
254.690	28275
254.753	17352
254.816	16775
254.878	21374
254.941	51831
255.004	30571
255.067	19050
255.129	14637
255.192	8991
255.255	9843
255.317	12228
255.380	8701
255.443	7744
255.505	8416
255.568	8994
255.631	8914
255.693	9406
255.756	7404
255.819	8579
255.881	7184
255.944	7801
256.006	8599
256.069	7355
256.132	7026
256.194	18833
256.257	45065
256.319	31512
256.382	23680
256.444	13723
256.507	11086
256.569	10237
256.632	14135
256.694	27592
256.757	100820
256.819	161226
256.882	51222
256.944	23626
257.007	19600
257.069	19127
257.132	13786
257.194	10894
257.257	12916
257.319	12120
257.381	18816
257.444	69968
257.506	257161
257.569	176491
257.631	93646
257.693	42743
257.756	27743
257.818	22171
257.880	14474
257.943	11384
258.005	11288
258.067	10023
258.130	9503
258.192	14532
258.254	28994
258.317	13705
258.379	13726
258.441	38446
258.503	24246
258.566	73917
258.628	44895
258.690	13123
258.753	16278
258.815	20459
258.877	11949
258.939	8228
259.001	9978
259.064	10217
259.126	19152
259.188	16414
259.250	13819
259.312	25922
259.375	61523
259.437	19692
259.499	12351
259.561	11355
259.623	10647
259.685	9493
259.747	13490
259.809	75333
259.872	80333
259.934	155274
259.996	64635
260.058	19914
260.120	13471
260.182	11087
260.244	9570
260.306	7393
260.368	8761
260.430	9397
260.492	22564
260.554	54493
260.616	31350
260.678	88369
260.740	64867
260.802	17280
260.864	14719
260.926	11119
260.988	12339
261.050	12719
261.112	37315
261.174	106873
261.236	44814
261.298	19245
261.359	58892
261.421	41292
261.483	12563
261.545	11123
261.607	7874
261.669	10065
261.731	39328
261.793	48878
261.854	15669
261.916	12407
261.978	12977
262.040	13862
262.102	12012
262.164	27101
262.225	12308
262.287	11335
262.349	27263
262.411	13651
262.472	11182
262.534	45055
262.596	47575
262.658	14047
262.719	11259
262.781	27885
262.843	55362
262.904	16702
262.966	17762
263.028	30495
263.090	219089
263.151	250211
263.213	60780
263.275	31402
263.336	16881
263.398	12594
263.459	9647
263.521	10801
263.583	23216
263.644	11362
263.706	7240
263.767	6938
263.829	6921
263.891	5621
263.952	5806
264.014	6044
264.075	16700
264.137	20319
264.198	9945
264.260	5850
264.321	7169
264.383	26172
264.444	30327
264.506	8804
264.567	8391
264.629	23578
264.690	25492
264.752	10339
264.813	7749
264.875	7201
264.936	7088
264.998	7116
265.059	7907
265.120	8483
265.182	24843
265.243	117172
265.305	55892
265.366	16158
265.427	11899
265.489	9780
265.550	7095
265.611	9345
265.673	7296
265.734	5846
265.795	6605
265.857	7110
265.918	9843
265.979	43472
266.040	181822
266.102	72863
266.163	25529
266.224	18078
266.286	11371
266.347	7974
266.408	8582
266.469	10774
266.530	6693
266.592	6734
266.653	20143
266.714	17268
266.775	7959
266.836	6007
266.898	7401
266.959	9987
267.020	5874
267.081	5846
267.142	5976
267.203	5805
267.264	5237
267.326	6824
267.387	5460
267.448	5217
267.509	5789
267.570	5331
267.631	5790
267.692	4962
267.753	6798
267.814	5896
267.875	20341
267.936	22659
267.997	13417
268.058	9998
268.119	6801
268.180	7125
268.241	5065
268.302	5351
268.363	5347
268.424	6002
268.485	8355
268.546	4610
268.607	4357
268.668	4109
268.729	4533
268.790	6021
268.851	8047
268.912	22552
268.972	15677
269.033	8302
269.094	5815
269.155	5549
269.216	5587
269.277	7650
269.338	4849
269.398	5860
269.459	6488
269.520	8809
269.581	12211
269.642	11683
269.702	8218
269.763	7180
269.824	6626
269.885	10580
269.945	10303
270.006	6121
270.067	5183
270.128	4943
270.188	5928
270.249	5846
270.310	5324
270.370	6800
270.431	8177
270.492	4753
270.553	8031
270.613	18130
270.674	24226
270.734	8442
270.795	7150
270.856	11917
270.916	7327
270.977	6142
271.038	7807
271.098	7350
271.159	15845
271.219	10371
271.280	6301
271.340	6304
271.401	16409
271.462	27107
271.522	9949
271.583	7948
271.643	8775
271.704	7277
271.764	9483
271.825	26752
271.885	93245
271.946	65854
272.006	24667
272.066	65364
272.127	59348
272.187	19890
272.248	13599
272.308	24365
272.369	59648
272.429	18502
272.489	24211
272.550	15967
272.610	20841
272.671	12842
272.731	28978
272.791	28667
272.852	12931
272.912	11474
272.972	7520
273.033	10509
273.093	16435
273.153	10686
273.214	8808
273.274	12546
273.334	62789
273.394	60910
273.455	21764
273.515	39602
273.575	53477
273.635	21516
273.696	60000
273.756	67570
273.816	21158
273.876	19736
273.936	84033
273.997	66122
274.057	16951
274.117	15661
274.177	31553
274.237	109689
274.297	73441
274.358	62069
274.418	65155
274.478	30407
274.538	16701
274.598	30084
274.658	101813
274.718	81343
274.778	23678
274.838	19448
274.898	84165
274.958	131099
275.018	92046
275.078	35998
275.138	18286
275.198	12525
275.258	11105
275.318	18213
275.378	22513
275.438	17131
275.498	19089
275.558	98611
275.618	101000
275.678	40635
275.738	30288
275.798	18995
275.858	12220
275.918	8830
275.978	10692
276.038	8311
276.098	9174
276.157	25790
276.217	37708
276.277	15870
276.337	12616
276.397	10242
276.457	10855
276.517	7100
276.576	6265
276.636	8028
276.696	14392
276.756	34157
276.815	15260
276.875	11235
276.935	13333
276.995	9263
277.055	7683
277.114	7996
277.174	17949
277.234	31357
277.293	11685
277.353	7798
277.413	7046
277.472	8483
277.532	7149
277.592	11243
277.651	46750
277.711	37793
277.771	23959
277.830	72895
277.890	34061
277.950	73526
278.009	107664
278.069	29855
278.128	50636
278.188	39022
278.248	28266
278.307	62900
278.367	24654
278.426	13836
278.486	10404
278.545	7811
278.605	8277
278.664	8042
278.724	11627
278.783	53283
278.843	63769
278.902	16916
278.962	14021
279.021	15423
279.081	28790
279.140	18500
279.199	13408
279.259	13904
279.318	14703
279.378	20969
279.437	59506
279.496	214541
279.556	497469
279.615	206289
279.675	66016
279.734	49591
279.793	103318
279.853	101496
279.912	32245
279.971	22577
280.031	21792
280.090	66093
280.149	64509
280.208	93718
280.268	382788
280.327	182167
280.386	52640
280.445	49344
280.505	30929
280.564	18843
280.623	16613
280.682	29746
280.742	24292
280.801	11313
280.860	8700
280.919	9390
280.978	8855
281.037	8309
281.097	7605
281.156	8241
281.215	7596
281.274	16884
281.333	59632
281.392	22039
281.451	9596
281.510	8473
281.569	8287
281.628	7641
281.688	6808
281.747	8515
281.806	7864
281.865	5828
281.924	6675
281.983	5924
282.042	5299
282.101	5093
282.160	5894
282.219	5215
282.278	9228
282.337	24494
282.396	9247
282.454	7681
282.513	15025
282.572	32490
282.631	11675
282.690	6608
282.749	6330
282.808	9314
282.867	8436
282.926	6684
282.985	5377
283.043	4807
283.102	5877
283.161	9099
283.220	32508
283.279	32033
283.338	10547
283.396	7871
283.455	7390
283.514	8533
283.573	12095
283.631	7605
283.690	6250
283.749	7832
283.808	17829
283.866	11512
283.925	6848
283.984	7554
284.043	10032
284.101	8286
284.160	8486
284.219	11925
284.277	8749
284.336	19354
284.395	52029
284.453	24549
284.512	12407
284.570	17275
284.629	11312
284.688	10648
284.746	10823
284.805	13057
284.863	16992
284.922	17586
284.981	20681
285.039	29112
285.098	66838
285.156	228193
285.215	485610
285.273	311196
285.332	122250
285.390	67269
285.449	43482
285.507	28874
285.566	22043
285.624	16117
285.683	12806
285.741	11121
285.799	11307
285.858	10977
285.916	8981
285.975	6704
286.033	6922
286.091	6712
286.150	6106
286.208	8416
286.267	9102
286.325	9721
286.383	11976
286.442	8427
286.500	6842
286.558	6821
286.616	6785
286.675	8714
286.733	7564
286.791	6673
286.850	9806
286.908	14008
286.966	14508
287.024	7497
287.083	7284
287.141	6054
287.199	7584
287.257	10406
287.315	8151
287.374	11970
287.432	20078
287.490	11501
287.548	10168
287.606	8390
287.664	9416
287.723	14890
287.781	14429
287.839	12188
287.897	14930
287.955	20165
288.013	39137
288.071	119897
288.129	494452
288.187	664843
288.245	238927
288.303	98184
288.361	64752
288.419	46485
288.477	30787
288.535	20831
288.593	16047
288.651	11471
288.709	10402
288.767	10209
288.825	9134
288.883	8067
288.941	8263
288.999	6765
289.057	6731
289.115	6765
289.173	7638
289.231	8197
289.289	7615
289.346	7742
289.404	9347
289.462	12623
289.520	10798
289.578	6087
289.636	5173
289.694	5211
289.751	5063
289.809	5646
289.867	6130
289.925	7693
289.983	5795
290.040	5673
290.098	5157
290.156	7088
290.214	7418
290.271	4638
290.329	5680
290.387	4129
290.444	4693
290.502	4255
290.560	4612
290.617	4591
290.675	4812
290.733	4781
290.790	5662
290.848	4805
290.906	6750
290.963	5110
291.021	5416
291.078	5072
291.136	6335
291.194	29233
291.251	29061
291.309	8440
291.366	6082
291.424	5722
291.481	5591
291.539	5792
291.596	4682
291.654	3334
291.711	4315
291.769	7284
291.826	12189
291.884	5071
291.941	4379
291.999	5108
292.056	6295
292.114	5278
292.171	5059
292.228	6123
292.286	8057
292.343	14297
292.401	13623
292.458	9242
292.515	7777
292.573	8560
292.630	9531
292.687	8474
292.745	6879
292.802	13079
292.859	28856
292.917	38828
292.974	14859
293.031	7721
293.089	6819
293.146	5761
293.203	5297
293.260	6424
293.318	12808
293.375	9382
293.432	5975
293.489	4521
293.546	6311
293.604	13689
293.661	51456
293.718	68730
293.775	24960
293.832	14120
293.889	15737
293.947	19380
294.004	11523
294.061	11105
294.118	25462
294.175	41370
294.232	34044
294.289	13230
294.346	10449
294.403	10797
294.460	10666
294.517	7706
294.574	6215
294.631	6084
294.688	10945
294.745	41016
294.802	98995
294.859	59619
294.916	34633
294.973	21222
295.030	15453
295.087	11245
295.144	8735
295.201	7897
295.258	7821
295.315	13445
295.372	50450
295.429	51546
295.486	19387
295.542	16265
295.599	47551
295.656	44556
295.713	46452
295.770	42498
295.827	16310
295.883	10909
295.940	11151
295.997	17136
296.054	11779
296.111	7175
296.167	6221
296.224	4992
296.281	5826
296.338	4961
296.394	6403
296.451	11665
296.508	33968
296.564	36261
296.621	31589
296.678	86896
296.734	66792
296.791	23316
296.848	15761
296.904	20536
296.961	41781
297.018	65990
297.074	32710
297.131	14934
297.187	14031
297.244	29265
297.301	107576
297.357	95867
297.414	28701
297.470	15116
297.527	12559
297.583	10721
297.640	9871
297.696	7410
297.753	6445
297.809	5375
297.866	4592
297.922	6237
297.979	6851
298.035	7102
298.092	16901
298.148	38993
298.204	23883
298.261	16734
298.317	48118
298.374	77106
298.430	31807
298.486	22824
298.543	17556
298.599	14335
298.656	18120
298.712	46465
298.768	99426
298.824	46657
298.881	16943
298.937	11484
298.993	11778
299.050	12279
299.106	9100
299.162	8157
299.218	7806
299.275	6943
299.331	11080
299.387	32911
299.443	89995
299.500	65738
299.556	27851
299.612	15948
299.668	19397
299.724	33671
299.780	24706
299.837	15397
299.893	27836
299.949	75068
300.005	61431
300.061	82118
300.117	96766
300.173	35707
300.229	21427
300.285	25313
300.341	20278
300.397	11676
300.453	8851
300.510	8634
300.566	11679
300.622	24496
300.678	74546
300.734	71943
300.790	70126
300.845	65440
300.901	56701
300.957	65421
301.013	32586
301.069	15999
301.125	14117
301.181	12389
301.237	9244
301.293	6035
301.349	5930
301.405	6175
301.461	7207
301.516	7722
301.572	9359
301.628	13592
301.684	14230
301.740	26871
301.796	27083
301.851	22864
301.907	36578
301.963	40591
302.019	110792
302.074	209683
302.130	141820
302.186	54784
302.242	27540
302.297	22219
302.353	25772
302.409	37324
302.464	25679
302.520	34931
302.576	78531
302.631	59574
302.687	27580
302.743	14231
302.798	10992
302.854	9012
302.910	9812
302.965	14685
303.021	19613
303.076	16767
303.132	24255
303.187	20517
303.243	11768
303.299	8632
303.354	7613
303.410	7179
303.465	7019
303.521	6106
303.576	8396
303.632	12203
303.687	34634
303.743	70656
303.798	37573
303.853	16280
303.909	10973
303.964	10853
304.020	16340
304.075	17555
304.130	19353
304.186	29074
304.241	27045
304.297	19258
304.352	12168
304.358	11885
304.407	9594
304.449	10245
304.463	10473
304.518	9611
304.539	9089
304.573	8270
304.629	11038
304.630	11334
304.684	25118
304.720	50749
304.739	63673
304.794	60140
304.811	50149
304.850	25887
304.902	14183
304.905	13482
304.960	13453
304.992	14498
305.015	15218
305.071	11416
305.083	10604
305.126	7637
305.173	6839
305.181	6728
305.236	6299
305.264	6749
305.292	7279
305.347	9162
305.354	9234
305.402	9831
305.445	12785
305.457	13564
305.512	13949
305.535	13354
305.567	12520
305.622	16034
305.626	17244
305.678	40966
305.716	70922
305.733	81650
305.788	63964
305.807	58330
305.843	49693
305.897	73173
305.898	73443
305.953	53923
305.988	36455
306.008	26939
306.063	15883
306.078	14224
306.118	11149
306.168	9203
306.173	9055
306.228	7443
306.259	7004
306.283	6775
306.338	7636
306.349	8133
306.393	10564
306.440	13171
306.448	13467
306.503	12195
306.530	14573
306.558	20287
306.613	43914
306.620	45689
306.668	53442
306.711	60206
306.723	60157
306.778	36972
306.801	28500
306.833	19272
306.888	11844
306.892	11481
306.943	9457
306.982	8945
306.997	8904
307.052	8431
307.072	9139
307.107	11481
307.162	16877
307.163	16959
307.217	26548
307.253	32912
307.272	34307
307.327	31093
307.343	28555
307.381	22042
307.434	21036
307.436	21703
307.491	47818
307.524	63936
307.546	66265
307.600	47946
307.614	42342
307.655	26486
307.704	16775
307.710	16852
307.765	23850
307.795	32811
307.819	42994
307.874	64210
307.885	63956
307.929	44386
307.975	30814
307.984	31319
308.038	44029
308.065	60377
308.093	104853
308.148	240292
308.156	266201
308.202	413542
308.246	447126
308.257	419789
308.312	208224
308.336	135528
308.366	100939
308.421	59915
308.426	56826
308.475	39814
308.517	29243
308.530	27234
308.585	22485
308.607	21411
308.639	21852
308.694	25400
308.697	26126
308.748	57411
308.787	83243
308.803	82387
308.857	55144
308.877	46388
308.912	37703
308.967	31885
308.967	31833
309.021	40477
309.058	50318
309.076	64276
309.130	122548
309.148	150948
309.185	294330
309.238	543221
309.239	545122
309.293	566507
309.328	508912
309.348	421400
309.402	187717
309.418	130529
309.457	90446
309.508	53624
309.511	52503
309.566	42263
309.598	38651
309.620	40554
309.674	48564
309.688	50367
309.729	46553
309.778	38346
309.783	37394
309.837	28043
309.868	24566
309.892	29266
309.946	45068
309.959	49575
310.001	66611
310.049	77663
310.055	74652
310.109	42584
310.139	26375
310.163	21854
310.218	15240
310.229	14098
310.272	12528
310.319	11153
310.326	11167
310.381	12055
310.409	12264
310.435	11722
310.489	10901
310.499	10795
310.543	11845
310.589	12996
310.598	12885
310.652	12095
310.679	11385
310.706	9756
310.760	6681
310.769	6257
310.814	5727
310.859	5206
310.868	5308
310.923	6061
310.948	6416
310.977	7249
311.031	9153
311.038	9362
311.085	8854
311.128	8360
311.139	8197
311.193	7380
311.218	7002
311.247	6545
311.301	5669
311.308	5570
311.356	5981
311.398	6352
311.410	6218
311.464	5616
311.488	5311
311.518	5128
311.572	4920
311.578	4906
311.626	7390
311.668	9539
311.680	9727
311.734	10508
311.758	10866
311.788	10539
311.842	9858
311.847	9788
311.896	11902
311.937	13826
311.950	13809
312.004	13589
312.027	13462
312.058	11155
312.112	7083
312.117	6677
312.165	6559
312.207	6471
312.297	9281
312.386	8106
312.476	7291
312.566	14644
312.656	8247
312.745	6079
312.835	6892
312.925	8383
313.015	9212
313.104	11528
313.194	6504
313.284	6884
313.374	7939
313.463	7250
313.553	6685
313.643	6118
313.732	6532
313.822	5634
313.912	7264
314.001	7594
314.091	8361
314.180	11900
314.270	10222
314.360	14203
314.449	10957
314.539	7531
314.628	6560
314.718	9042
314.808	13891
314.897	8414
314.987	7746
315.076	10858
315.166	13716
315.255	14912
315.345	12680
315.434	14852
315.524	13846
315.613	18343
315.703	23621
315.792	63865
315.881	286425
315.971	100550
316.060	29682
316.150	45782
316.239	47923
316.328	19960
316.418	8048
316.507	8821
316.597	11316
316.686	11889
316.775	21109
316.865	54980
316.954	12267
317.043	8025
317.133	8305
317.222	7304
317.311	7855
317.400	9102
317.490	11771
317.579	15449
317.668	18502
317.757	35497
317.847	120517
317.936	475195
318.025	148092
318.114	86293
318.203	42900
318.293	18400
318.382	26135
318.471	23562
318.560	30897
318.649	69605
318.738	17491
318.828	11076
318.917	12343
319.006	18592
319.095	54526
319.184	86885
319.273	47157
319.362	22249
319.451	9746
319.540	9672
319.629	18005
319.718	28728
319.807	13621
319.896	30837
319.985	110044
320.074	41486
320.163	13672
320.252	30218
320.341	18053
320.430	12894
320.519	15050
320.608	10428
320.697	9278
320.786	8949
320.875	11673
320.964	15351
321.053	22341
321.142	30596
321.230	32590
321.319	26459
321.408	54564
321.497	28953
321.586	25809
321.675	44194
321.764	38768
321.852	23070
321.941	29863
322.030	21993
322.119	24474
322.207	60942
322.296	65798
322.385	30948
322.474	31861
322.562	68565
322.651	40533
322.740	29359
322.829	49680
322.917	66371
323.006	31379
323.095	20997
323.183	21364
323.272	27942
323.361	58263
323.449	209935
323.538	68081
323.626	139422
323.715	94686
323.804	31143
323.892	125672
323.981	66403
324.069	18947
324.158	71971
324.246	71590
324.335	16146
324.424	19416
324.512	9549
324.601	11018
324.689	29262
324.778	68404
324.866	53228
324.954	14731
325.043	9789
325.131	25058
325.220	52357
325.308	62741
325.397	39345
325.485	24660
325.574	8195
325.662	7728
325.750	7460
325.839	7315
325.927	7043
326.015	10207
326.104	24895
326.192	39842
326.280	7575
326.369	7148
326.457	9007
326.545	15555
326.634	7936
326.722	5614
326.810	5994
326.898	5504
326.987	7343
327.075	16639
327.163	25420
327.251	16227
327.340	21863
327.428	33474
327.516	9526
327.604	8268
327.692	9022
327.781	12915
327.869	26165
327.957	14712
328.045	9888
328.133	5888
328.221	12922
328.309	8528
328.397	5717
328.485	7863
328.574	10718
328.662	35854
328.750	32197
328.838	16005
328.926	7833
329.014	4960
329.102	8262
329.190	20197
329.278	13938
329.366	5809
329.454	4419
329.542	5240
329.630	5056
329.718	5174
329.806	7585
329.893	6939
329.981	7257
330.069	9806
330.157	41220
330.245	137371
330.333	72771
330.421	12120
330.509	10878
330.597	38536
330.684	28576
330.772	10538
330.860	16573
330.948	19350
331.036	9015
331.123	5007
331.211	4840
331.299	6040
331.387	13992
331.475	28033
331.562	11567
331.650	5948
331.738	8111
331.825	14334
331.913	5725
332.001	5940
332.089	8785
332.176	22521
332.264	66595
332.352	52551
332.439	10311
332.527	7776
332.614	8064
332.702	13809
332.790	8561
332.877	25197
332.965	61157
333.052	12803
333.140	10536
333.228	27128
333.315	8927
333.403	8436
333.490	35697
333.578	30715
333.665	18882
333.753	12948
333.840	8011
333.928	10848
334.015	37671
334.103	51511
334.190	159913
334.278	44011
334.365	21732
334.452	19446
334.540	12539
334.627	14891
334.715	21727
334.802	40900
334.889	256208
334.977	282593
335.064	39209
335.151	16224
335.239	12574
335.326	14189
335.413	55113
335.501	83179
335.588	14264
335.675	11042
335.762	12646
335.850	21179
335.937	20911
336.024	57133
336.111	255917
336.199	122155
336.286	26363
336.373	13224
336.460	9322
336.547	9446
336.635	10679
336.722	8750
336.809	7865
336.896	11447
336.983	28827
337.070	76753
337.157	130067
337.245	150595
337.332	123789
337.419	13368
337.506	8513
337.593	8332
337.680	22995
337.767	70612
337.854	21995
337.941	25140
338.028	48342
338.115	18661
338.202	12444
338.289	35876
338.376	156133
338.463	46684
338.550	40197
338.637	47377
338.724	25235
338.811	49337
338.898	11203
338.984	5853
339.071	7342
339.158	10319
339.245	22680
339.332	13110
339.419	27772
339.506	30252
339.593	5939
339.679	4820
339.766	4915
339.853	7690
339.940	15394
340.027	6655
340.113	5640
340.200	8685
340.287	6698
340.374	7079
340.460	13057
340.547	6023
340.634	9545
340.720	37085
340.807	25384
340.894	4867
340.980	6717
341.067	6021
341.154	5041
341.240	8057
341.327	18709
341.414	7131
341.500	6625
341.587	5555
341.674	5081
341.760	12054
341.847	14604
341.933	6097
342.020	3682
342.106	3954
342.193	5605
342.279	11020
342.366	7138
342.452	13418
342.539	8124
342.625	14957
342.712	41875
342.798	17579
342.885	8016
342.971	3402
343.058	4416
343.144	4671
343.230	4922
343.317	5211
343.403	4904
343.490	4053
343.576	4176
343.662	5490
343.749	7679
343.835	11009
343.921	13532
344.008	93269
344.094	242942
344.180	54695
344.267	14942
344.353	48988
344.439	66540
344.525	22426
344.612	9295
344.698	7776
344.784	7007
344.870	4670
344.957	4963
345.043	7646
345.129	6366
345.215	11646
345.301	7493
345.387	4756
345.474	3745
345.560	5093
345.646	8442
345.732	6502
345.818	5726
345.904	5723
345.990	6859
346.076	9136
346.162	18927
346.249	8117
346.335	4671
346.421	7773
346.507	23773
346.593	79951
346.679	22299
346.765	6410
346.851	7177
346.937	6452
347.023	4764
347.108	5906
347.194	5523
347.280	4603
347.366	7361
347.452	25305
347.538	104028
347.624	67522
347.710	55589
347.796	12216
347.882	6441
347.967	6041
348.053	8046
348.139	6983
348.225	5275
348.311	5837
348.397	4514
348.482	5495
348.568	7806
348.654	5318
348.740	11748
348.825	13918
348.911	10968
348.997	43882
349.083	100249
349.168	20288
349.254	5511
349.340	5093
349.425	5131
349.511	6692
349.597	10162
349.682	14585
349.768	42893
349.854	24695
349.939	6022
350.025	4951
350.110	5648
350.196	3758
350.282	3611
350.367	5123
350.453	14313
350.538	17397
350.624	6875
350.709	6555
350.795	4718
350.880	5387
350.966	6417
351.051	13657
351.137	12351
351.222	4899
351.308	13311
351.393	37242
351.479	10635
351.564	4281
351.649	5353
351.735	4694
351.820	4041
351.906	4813
351.991	8279
352.076	23721
352.162	37922
352.247	8726
352.332	5553
352.418	8969
352.503	11446
352.588	46117
352.673	43471
352.759	10683
352.844	6374
352.929	6800
353.014	8764
353.100	7213
353.185	12830
353.270	16842
353.355	15520
353.441	6215
353.526	9159
353.611	14168
353.696	16080
353.781	10059
353.866	5421
353.952	5395
354.037	11533
354.122	27782
354.207	25784
354.292	11630
354.377	5356
354.462	4837
354.547	7076
354.632	6634
354.717	10093
354.802	17216
354.887	7731
354.972	4662
355.057	4128
355.142	3799
355.227	6801
355.312	9316
355.397	19339
355.482	44199
355.567	25515
355.652	15721
355.737	18811
355.822	52214
355.907	50684
355.991	8348
356.076	4807
356.161	5598
356.246	5140
356.331	6766
356.416	13988
356.501	101751
356.585	128594
356.670	17407
356.755	9899
356.840	12294
356.924	68992
357.009	275269
357.094	113331
357.179	19061
357.263	15484
357.348	13175
357.433	13253
357.517	10831
357.602	10696
357.687	9756
357.771	12527
357.856	24746
357.941	17431
358.025	52631
358.110	261298
358.195	137098
358.279	16216
358.364	10506
358.448	33738
358.533	93138
358.617	73586
358.702	68961
358.787	29587
358.871	14303
358.956	12263
359.040	6638
359.125	4521
359.209	5125
359.294	12540
359.378	20438
359.462	13975
359.547	10318
359.631	8358
359.716	5447
359.800	4853
359.885	7843
359.969	6788
360.053	7934
360.138	8799
360.222	9215
360.306	13732
360.391	11649
360.475	15214
360.559	36376
360.644	37689
360.728	32260
360.812	52730
360.896	172310
360.981	67220
361.065	32391
361.149	10474
361.233	9232
361.318	9192
361.402	10823
361.486	8952
361.570	6737
361.654	8647
361.739	19282
361.823	98577
361.907	179704
361.991	34500
362.075	15026
362.159	31260
362.243	26925
362.327	33157
362.411	51329
362.495	27496
362.580	12429
362.664	8718
362.748	10300
362.832	13928
362.916	23104
363.000	77330
363.084	193693
363.168	236085
363.252	58576
363.336	19000
363.420	21084
363.503	70398
363.587	97691
363.671	19570
363.755	12628
363.839	17124
363.923	11566
364.007	17790
364.091	24962
364.175	37431
364.258	133054
364.342	135719
364.426	189621
364.510	114465
364.594	35013
364.677	33523
364.761	138177
364.845	118502
364.929	27232
365.013	22185
365.096	17551
365.180	21745
365.264	30396
365.347	123292
365.431	61880
365.515	13156
365.598	8711
365.682	6677
365.766	10595
365.849	14636
365.933	9833
366.017	11967
366.100	9933
366.184	6401
366.267	7017
366.351	5923
366.435	5237
366.518	4658
366.602	4643
366.685	5223
366.769	5978
366.852	10198
366.936	17258
367.019	11747
367.103	8494
367.186	15931
367.270	6918
367.353	4350
367.436	4912
367.520	5711
367.603	6800
367.687	10127
367.770	16459
367.853	11912
367.937	30480
368.020	60248
368.104	17439
368.187	12842
368.270	17205
368.353	15559
368.437	32127
368.520	98418
368.603	53909
368.687	37473
368.770	75670
368.853	21649
368.936	15343
369.020	16053
369.103	7826
369.186	5130
369.269	5404
369.352	10919
369.436	17589
369.519	11201
369.602	5667
369.685	6382
369.768	7980
369.851	6641
369.934	5536
370.018	6636
370.101	13830
370.184	12562
370.267	8428
370.350	12089
370.433	22011
370.516	75224
370.599	163297
370.682	74144
370.765	36243
370.848	46047
370.931	95638
371.014	46095
371.097	11502
371.180	6717
371.263	4544
371.346	3793
371.429	4349
371.511	5749
371.594	8894
371.677	14502
371.760	16287
371.843	15288
371.926	75048
372.009	204954
372.091	67847
372.174	35797
372.257	94786
372.340	44922
372.423	20629
372.505	27479
372.588	12580
372.671	25400
372.754	88415
372.836	55194
372.919	29688
373.002	62433
373.085	23688
373.167	14185
373.250	35229
373.332	86799
373.415	128340
373.498	295009
373.580	130251
373.663	218836
373.746	317791
373.828	62185
373.911	19590
373.993	18963
374.076	60679
374.159	73739
374.241	29647
374.324	68751
374.406	56795
374.489	73643
374.571	226205
374.654	103890
374.736	39985
374.819	134034
374.901	201677
374.983	234891
375.066	45871
375.148	15795
375.231	49860
375.313	105790
375.395	42549
375.478	12360
375.560	9049
375.643	11444
375.725	40993
375.807	179490
375.890	183385
375.972	96929
376.054	41975
376.136	80940
376.219	39687
376.301	45120
376.383	147893
376.465	68789
376.548	29039
376.630	38167
376.712	111500
376.794	66756
376.877	8422
376.959	5118
377.041	6732
377.123	11695
377.205	16395
377.287	5700
377.369	5886
377.452	8595
377.534	7130
377.616	5227
377.698	4764
377.780	4858
377.862	5258
377.944	5213
378.026	4659
378.108	5161
378.190	4750
378.272	4498
378.354	3814
378.436	4296
378.518	8056
378.600	22987
378.682	23242
378.764	44634
378.846	44893
378.928	12793
379.010	14146
379.091	10662
379.173	6042
379.255	5332
379.337	7035
379.419	21725
379.501	68102
379.583	35738
379.664	8628
379.746	17359
379.828	41678
379.910	62815
379.991	59306
380.073	13629
380.155	7406
380.237	7242
380.318	5717
380.400	5253
380.482	11415
380.564	19088
380.645	19421
380.727	18763
380.809	9393
380.890	7637
380.972	6886
381.053	6668
381.135	6962
381.217	16417
381.298	45165
381.380	28013
381.461	22282
381.543	107533
381.624	164157
381.706	32759
381.787	12604
381.869	14295
381.951	51198
382.032	213782
382.113	156117
382.195	26465
382.276	15870
382.358	34747
382.439	98777
382.521	123642
382.602	207970
382.684	94898
382.765	124720
382.846	133369
382.928	118058
383.009	75695
383.090	46698
383.172	166169
383.253	291778
383.334	124658
383.416	155835
383.497	96415
383.578	28358
383.659	42740
383.741	152406
383.822	432220
383.903	267667
383.984	92587
384.066	173563
384.147	124046
384.228	27625
384.309	17668
384.390	15452
384.471	12069
384.553	11765
384.634	15343
384.715	16801
384.796	9765
384.877	12064
384.958	39171
385.039	55910
385.120	21314
385.201	11283
385.282	12341
385.363	13725
385.444	12711
385.525	18756
385.606	75198
385.687	81668
385.768	19979
385.849	20644
385.930	85199
386.011	177843
386.092	58189
386.173	12485
386.254	11594
386.335	10746
386.416	11419
386.496	26397
386.577	48614
386.658	22968
386.739	13794
386.820	13750
386.901	13258
386.981	12355
387.062	10435
387.143	16344
387.224	46364
387.304	50102
387.385	21213
387.466	15286
387.547	17417
387.627	14337
387.708	22223
387.789	79469
387.869	118597
387.950	41477
388.031	11053
388.111	8946
388.192	18992
388.273	28234
388.353	19644
388.434	11510
388.514	20401
388.595	92229
388.676	128124
388.756	54104
388.837	40433
388.917	32435
388.998	9645
389.078	9120
389.159	9359
389.239	9089
389.320	11799
389.400	10743
389.480	18363
389.561	49983
389.641	32478
389.722	11433
389.802	15690
389.883	23356
389.963	60923
390.043	54816
390.124	21898
390.204	18695
390.284	50417
390.365	44134
390.445	60888
390.525	230200
390.605	250246
390.686	54920
390.766	16247
390.846	10662
390.927	9118
391.007	9377
391.087	10777
391.167	10999
391.247	11704
391.328	18187
391.408	22345
391.488	16265
391.568	9957
391.648	12083
391.728	15032
391.808	15599
391.888	16734
391.969	29653
392.049	49081
392.129	30173
392.209	29947
392.289	63308
392.369	47972
392.449	35795
392.529	32541
392.609	29105
392.689	35486
392.769	73043
392.849	80723
392.929	66042
393.009	124677
393.089	141923
393.169	192042
393.248	564026
393.328	1620788
393.408	1867467
393.488	748835
393.568	225945
393.648	109835
393.728	67388
393.807	48132
393.887	39254
393.967	33630
394.047	32606
394.127	33803
394.206	43561
394.286	133629
394.366	569862
394.446	728609
394.525	195343
394.605	44926
394.685	31851
394.764	44922
394.844	72789
394.924	65554
395.003	26678
395.083	18967
395.163	18098
395.242	17285
395.322	18014
395.402	15590
395.481	18818
395.561	33565
395.640	82134
395.720	88086
395.799	97839
395.879	89083
395.958	59178
396.038	190769
396.117	748434
396.197	964022
396.276	305179
396.356	89540
396.435	64631
396.515	59533
396.594	75000
396.673	150261
396.753	534317
396.832	1462070
396.912	1248571
396.991	352371
397.070	102810
397.150	56404
397.229	38850
397.308	45883
397.388	71199
397.467	44044
397.546	19689
397.625	16001
397.705	17373
397.784	16146
397.863	13520
397.942	10394
398.022	10987
398.101	24920
398.180	67224
398.259	44698
398.338	14195
398.417	10644
398.497	8861
398.576	9182
398.655	7103
398.734	7570
398.813	8085
398.892	22575
398.971	73370
399.050	48049
399.129	8658
399.208	6644
399.287	5293
399.366	5050
399.445	5858
399.524	6151
399.603	4868
399.682	9431
399.761	23812
399.840	77072
399.919	75989
399.998	14131
400.077	5110
400.156	4308
400.235	5608
400.313	5139
400.392	6124
400.471	21671
400.550	39532
400.629	15136
400.708	6367
400.786	6664
400.865	13246
400.944	16846
401.023	8905
401.102	3752
401.180	5167
401.259	4766
401.338	5179
401.416	6305
401.495	5966
401.574	5796
401.652	5619
401.731	6353
401.810	7467
401.888	4613
401.967	3194
402.046	4607
402.124	6003
402.203	8221
402.281	5616
402.360	7022
402.438	16607
402.517	15290
402.596	6473
402.674	5149
402.753	4198
402.831	4484
402.910	5138
402.988	19711
403.066	70796
403.145	53686
403.223	21267
403.302	55643
403.380	48837
403.459	42235
403.537	22080
403.615	8900
403.694	4000
403.772	3830
403.850	3057
403.929	3641
404.007	3574
404.085	8871
404.164	12511
404.242	6148
404.320	6852
404.398	18554
404.477	35767
404.555	138793
404.633	153920
404.711	30665
404.789	10257
404.868	6742
404.946	4799
405.024	2837
405.102	3650
405.180	3366
405.258	2752
405.336	3599
405.415	4210
405.493	7980
405.571	9630
405.649	3725
405.727	3123
405.805	6204
405.883	7083
405.961	6724
406.039	7234
406.117	4087
406.195	6588
406.273	27997
406.351	111949
406.429	86570
406.507	13759
406.585	4580
406.663	5163
406.740	5766
406.818	6249
406.896	4389
406.974	4634
407.052	8577
407.130	56837
407.208	101170
407.285	26928
407.363	4315
407.441	5084
407.519	5158
407.596	8175
407.674	35715
407.752	155549
407.830	154816
407.907	31541
407.985	8651
408.063	5625
408.141	3702
408.218	6829
408.296	7759
408.373	7014
408.451	5565
408.529	5124
408.606	3784
408.684	3375
408.762	3520
408.839	2427
408.917	2370
408.994	3842
409.072	3246
409.149	4049
409.227	7362
409.304	10905
409.382	11941
409.459	11290
409.537	16687
409.614	16141
409.692	11154
409.769	10370
409.846	17507
409.924	21253
410.001	15892
410.079	10299
410.156	8280
410.233	7814
410.311	8590
410.388	5285
410.465	5320
410.543	4530
410.620	4215
410.697	4213
410.775	6309
410.852	4258
410.929	5452
411.006	7416
411.083	5538
411.161	7179
411.238	7858
411.315	5825
411.392	3340
411.469	4614
411.547	4670
411.624	3002
411.701	3460
411.778	3799
411.855	8735
411.932	6233
412.009	3185
412.086	3192
412.163	3472
412.240	4727
412.317	5726
412.394	5410
412.471	3041
412.548	2126
412.625	2575
412.702	3550
412.779	7842
412.856	7102
412.933	2514
413.010	3504
413.087	5845
413.164	18277
413.241	31665
413.318	9753
413.395	5270
413.471	6996
413.548	4997
413.625	2760
413.702	4126
413.779	3858
413.855	1855
413.932	1477
414.009	1452
414.086	1509
414.162	2160
414.239	4585
414.316	18829
414.393	46430
414.469	22952
414.546	3116
414.623	1668
414.699	2493
414.776	2225
414.853	1970
414.929	3363
415.006	2609
415.082	3755
415.159	4068
415.236	2104
415.312	2815
415.389	5548
415.465	8146
415.542	4681
415.618	2116
415.695	5850
415.771	3561
415.848	3895
415.924	3394
416.000	3486
416.077	2477
416.153	1699
416.230	1542
416.306	1778
416.383	3372
416.459	3055
416.535	1439
416.612	1884
416.688	1639
416.764	2669
416.841	1582
416.917	1907
416.993	2175
417.069	2584
417.146	4995
417.222	6352
417.298	4117
417.374	2468
417.451	2951
417.527	2969
417.603	3927
417.679	3215
417.755	3719
417.831	2019
417.908	1747
417.984	1533
418.060	1926
418.136	5295
418.212	9252
418.288	4694
418.364	2629
418.440	2528
418.516	4119
418.592	5314
418.668	10309
418.744	14552
418.820	12003
418.896	4307
418.972	1144
419.048	3001
419.124	6518
419.200	6242
419.276	3400
419.352	1738
419.428	2331
419.504	2536
419.579	4365
419.655	3528
419.731	3098
419.807	9174
419.883	16918
419.959	15210
420.034	5633
420.110	6908
420.186	24770
420.262	28117
420.337	6902
420.413	5049
420.489	3836
420.565	3360
420.640	3089
420.716	3374
420.792	3014
420.867	4088
420.943	4330
421.019	5632
421.094	6182
421.170	5320
421.245	3542
421.321	5579
421.397	7013
421.472	26443
421.548	92611
421.623	71640
421.699	13780
421.774	9282
421.850	7987
421.925	11664
422.001	12723
422.076	11995
422.152	13920
422.227	19776
422.302	26995
422.378	37158
422.453	66433
422.529	154055
422.604	420471
422.679	682424
422.755	538735
422.830	231998
422.905	89105
422.981	48549
423.056	31612
423.131	22705
423.207	17461
423.282	15079
423.357	17824
423.432	14821
423.508	12614
423.583	18592
423.658	17346
423.733	8228
423.808	8493
423.883	9177
423.959	9331
424.034	9156
424.109	8522
424.184	6094
424.259	4764
424.334	3629
424.409	2991
424.484	3097
424.559	4194
424.634	3792
424.709	5425
424.784	6608
424.859	4829
424.934	5961
425.009	17258
425.084	32118
425.159	17222
425.234	3560
425.309	1852
425.384	4982
425.459	8044
425.534	4633
425.609	3154
425.683	2525
425.758	2738
425.833	2483
425.908	3869
425.983	10547
426.058	33710
426.132	20659
426.207	4502
426.282	5561
426.357	6491
426.431	3144
426.506	3332
426.581	3418
426.655	2499
426.730	3343
426.805	2276
426.879	3332
426.954	2745
427.029	5760
427.103	29401
427.178	89009
427.253	56309
427.327	7327
427.402	5446
427.476	11163
427.551	7431
427.625	4071
427.700	4462
427.774	2598
427.849	4310
427.923	3163
427.998	3033
428.072	3708
428.147	9014
428.221	42931
428.296	156574
428.370	122167
428.444	17123
428.519	8281
428.593	14463
428.667	14304
428.742	14814
428.816	20420
428.890	82994
428.965	174004
429.039	64164
429.113	19856
429.188	10279
429.262	3977
429.336	5780
429.410	15035
429.485	13604
429.559	11595
429.633	12460
429.707	5740
429.781	14478
429.855	85122
429.930	167417
430.004	78003
430.078	69755
430.152	87017
430.226	196911
430.300	261833
430.374	58722
430.448	11879
430.522	22069
430.596	65864
430.670	61953
430.744	135636
430.818	238296
430.892	66571
430.966	8147
431.040	5230
431.114	2780
431.188	2551
431.262	3492
431.336	2698
431.410	5852
431.484	16610
431.557	16170
431.631	4543
431.705	4932
431.779	28080
431.853	136165
431.927	139716
432.000	21704
432.074	4424
432.148	3611
432.222	3646
432.295	2195
432.369	2035
432.443	4511
432.516	30790
432.590	96106
432.664	52298
432.737	6474
432.811	866
432.885	1351
432.958	1380
433.032	1606
433.106	1970
433.179	835
433.253	1259
433.326	985
433.400	1428
433.473	1535
433.547	410
433.620	1079
433.694	3259
433.767	5190
433.841	2948
433.914	1192
433.988	1056
434.061	2688
434.134	985
434.208	794
434.281	1043
434.355	81
434.428	2126
434.501	1130
434.575	1400
434.648	1669
434.721	1681
434.795	142
434.868	1019
434.941	388
435.014	753
435.088	1661
435.161	2225
435.234	3550
435.307	4788
435.381	4265
435.454	4803
435.527	8282
435.600	10352
435.673	7765
435.746	5567
435.819	4293
435.892	3517
435.966	2697
436.039	2044
436.112	2562
436.185	2177
436.258	1140
436.331	413
436.404	835
436.477	744
436.550	598
436.623	1467
436.696	1165
436.769	1235
436.842	1892
436.915	1363
436.987	3207
437.060	2511
437.133	565
437.206	875
437.279	1719
437.352	633
437.425	1388
437.498	3222
437.570	3759
437.643	3521
437.716	1060
437.789	924
437.861	2887
437.934	7121
438.007	5559
438.080	1368
438.152	2344
438.225	5030
438.298	41966
438.370	150267
438.443	88516
438.516	12486
438.588	3189
438.661	1441
438.734	1791
438.806	1820
438.879	3211
438.951	2214
439.024	4508
439.096	2491
439.169	1045
439.241	1185
439.314	495
439.386	2953
439.459	6181
439.531	10445
439.604	5546
439.676	1219
439.749	2250
439.821	1711
439.893	1881
439.966	2045
440.038	2403
440.110	3806
440.183	2095
440.255	1547
440.327	2828
440.400	14557
440.472	72833
440.544	74305
440.617	11499
440.689	3902
440.761	4266
440.833	7011
440.905	6257
440.978	2580
441.050	1187
441.122	1548
441.194	1182
441.266	1748
441.338	946
441.411	3503
441.483	17455
441.555	35557
441.627	12317
441.699	4621
441.771	6481
441.843	3988
441.915	2435
441.987	2026
442.059	1923
442.131	3601
442.203	4401
442.275	6597
442.347	8370
442.419	12726
442.491	64268
442.563	206954
442.635	133391
442.706	33269
442.778	21297
442.850	8333
442.922	4645
442.994	4923
443.066	6010
443.137	7251
443.209	6829
443.281	10172
443.353	19549
443.425	81019
443.496	327219
443.568	421987
443.640	198126
443.711	42844
443.783	12580
443.855	8072
443.926	5398
443.998	4735
444.070	5360
444.141	5114
444.213	5776
444.285	7325
444.356	7748
444.428	9408
444.499	4357
444.571	2534
444.642	2924
444.714	3988
444.785	5611
444.857	7644
444.928	14769
445.000	13690
445.071	12562
445.143	17560
445.214	14556
445.285	18799
445.357	50470
445.428	190392
445.500	530535
445.571	424991
445.642	239645
445.714	89788
445.785	41414
445.856	17917
445.928	10369
445.999	7784
446.070	5751
446.141	5510
446.213	7671
446.284	4973
446.355	4034
446.426	3946
446.497	3738
446.569	4403
446.640	8417
446.711	6327
446.782	3305
446.853	6131
446.924	6415
446.995	3626
447.066	3269
447.138	5077
447.209	4582
447.280	1649
447.351	1392
447.422	1094
447.493	2084
447.564	2962
447.635	4115
447.706	3169
447.777	1072
447.847	378
447.918	925
447.989	3085
448.060	4128
448.131	8513
448.202	8618
448.273	5755
448.344	3471
448.414	1476
448.485	1723
448.556	1045
448.627	959
448.698	1212
448.768	1395
448.839	1724
448.910	4016
448.981	4970
449.051	2194
449.122	1342
449.193	1280
449.263	1239
449.334	1699
449.405	2745
449.475	5081
449.546	5875
449.616	6013
449.687	7076
449.758	3122
449.828	1739
449.899	1305
449.969	1590
450.040	1851
450.110	3856
450.181	5274
450.251	2929
450.322	1737
450.392	2191
450.463	1093
450.533	1397
450.604	1561
450.674	1850
450.744	1819
450.815	2305
450.885	1962
450.955	2163
451.026	1899
451.096	1670
451.166	2877
451.237	5093
451.307	15602
451.377	11184
451.447	2400
451.518	1550
451.588	1669
451.658	2491
451.728	2989
451.799	11972
451.869	20700
451.939	7979
452.009	2829
452.079	1602
452.149	2517
452.219	3367
452.289	15223
452.360	18832
452.430	5875
452.500	3574
452.570	5299
452.640	9132
452.710	23997
452.780	40082
452.850	27929
452.920	18147
452.990	8640
453.060	4184
453.129	4664
453.199	5507
453.269	15766
453.339	55978
453.409	96234
453.479	67502
453.549	102372
453.619	113970
453.688	65957
453.758	12280
453.828	3404
453.898	2657
453.968	2469
454.037	2281
454.087	2205
454.107	2157
454.168	2493
454.177	2521
454.247	1283
454.249	1339
454.316	2056
454.330	2171
454.386	2300
454.411	4028
454.456	6661
454.492	10805
454.525	14523
454.574	9894
454.595	7950
454.655	3373
454.665	2628
454.734	3060
454.736	3177
454.804	4515
454.817	6476
454.873	13687
454.898	17441
454.943	24243
454.979	19488
455.013	15502
455.060	9252
455.082	6565
455.141	5803
455.152	5824
455.221	14183
455.222	14591
455.291	31897
455.303	34059
455.360	39854
455.384	56957
455.430	83517
455.465	72950
455.499	65984
455.546	36125
455.569	21744
455.627	16438
455.638	15614
455.707	5255
455.708	5269
455.777	3504
455.789	3500
455.846	3517
455.869	3460
455.916	3242
455.950	3147
455.985	3023
456.031	3076
456.054	3019
456.112	2603
456.124	2574
456.193	2970
456.193	2945
456.262	3465
456.274	3687
456.332	4382
456.355	4908
456.401	5413
456.436	4970
456.470	4765
456.516	3444
456.540	2857
456.597	2129
456.609	1925
456.678	2583
456.678	2563
456.747	2345
456.759	2343
456.817	2515
456.840	2733
456.886	2894
456.920	2797
456.955	2899
457.001	3256
457.024	3538
457.082	4342
457.093	4450
457.162	6616
457.163	6661
457.232	8779
457.243	8294
457.301	6589
457.324	5489
457.370	3823
457.405	3830
457.439	3729
457.485	3983
457.508	4280
457.566	5087
457.577	5503
457.646	8573
457.647	8645
457.715	16170
457.727	17999
457.784	28063
457.808	35040
457.853	38146
457.889	44763
457.922	51384
457.969	44206
457.991	46119
458.050	47098
458.060	46873
458.129	67932
458.130	68898
458.198	67018
458.211	60282
458.267	48942
458.292	37283
458.336	24130
458.372	22728
458.405	28386
458.453	41650
458.474	49117
458.533	77938
458.543	77076
458.611	96162
458.614	96680
458.680	81469
458.694	67259
458.749	38778
458.775	28834
458.818	14242
458.855	10911
458.887	8581
458.936	7689
458.955	7268
459.016	6821
459.024	6751
459.093	5755
459.097	5738
459.162	5391
459.177	5502
459.230	6248
459.257	6665
459.299	6846
459.338	6566
459.368	6429
459.418	6579
459.437	6420
459.499	6311
459.505	6334
459.574	5322
459.579	5326
459.643	4913
459.659	4792
459.711	5234
459.740	5653
459.780	5915
459.820	5974
459.849	6087
459.900	6463
459.917	6376
459.981	6448
459.986	6468
460.054	5670
460.061	5652
460.123	6346
460.141	6641
460.191	7251
460.222	7749
460.260	8260
460.302	8729
460.328	8579
460.382	8732
460.397	9515
460.462	11335
460.465	12169
460.534	33181
460.543	35918
460.602	77550
460.623	93019
460.671	135089
460.703	173725
460.739	130648
460.783	79772
460.808	80679
460.864	33601
460.876	27490
460.944	8533
460.945	8319
461.013	6947
461.024	7027
461.081	7021
461.104	6938
461.150	6799
461.184	6753
461.218	6700
461.264	6433
461.286	6271
461.345	5600
461.355	5554
461.423	5939
461.425	5953
461.491	7674
461.505	7922
461.559	12825
461.585	15189
461.628	19633
461.665	24513
461.696	23393
461.745	24290
461.764	22794
461.825	13267
461.832	13323
461.901	8360
461.905	8330
461.969	7062
461.985	6853
462.037	6624
462.065	6528
462.105	7598
462.145	9059
462.173	11046
462.225	14774
462.241	15385
462.305	18848
462.310	18397
462.378	12034
462.385	10873
462.446	8882
462.465	8364
462.514	7272
462.545	7356
462.582	7339
462.625	6968
462.650	6853
462.705	7031
462.718	7268
462.785	8255
462.786	8272
462.854	9122
462.865	9317
462.922	10585
462.945	11317
462.990	9727
463.025	7683
463.058	7200
463.104	6258
463.126	6088
463.184	6194
463.194	6227
463.262	6723
463.264	6739
463.330	7301
463.344	7369
463.398	7699
463.424	7828
463.466	7526
463.504	7398
463.533	7604
463.583	7734
463.601	8030
463.663	9183
463.669	9381
463.737	11415
463.743	11630
463.805	17394
463.823	19089
463.873	25386
463.903	29161
463.940	26500
463.982	24841
464.008	21327
464.062	11860
464.076	11733
464.142	8440
464.144	8364
464.211	7372
464.221	7320
464.279	8061
464.301	8349
464.347	9045
464.381	9645
464.414	10024
464.461	10510
464.482	10470
464.540	10374
464.550	10348
464.617	10001
464.620	9966
464.685	12339
464.699	12897
464.753	15827
464.779	17315
464.820	17666
464.859	17986
464.888	17323
464.938	16121
464.956	15909
465.018	14872
465.023	14804
465.091	13636
465.098	13472
465.158	13437
465.177	13485
465.226	13550
465.257	13597
465.293	13825
465.336	14013
465.361	15014
465.416	17344
465.428	18488
465.495	24390
465.496	24481
465.563	32803
465.575	34249
465.631	32905
465.654	32593
465.698	23651
465.734	15522
465.765	15552
465.813	14815
465.833	14230
465.893	13229
465.900	13282
465.968	13997
465.972	14005
466.035	13880
466.052	13848
466.102	13974
466.131	14036
466.170	14590
466.210	15052
466.237	15647
466.290	16821
466.304	16896
466.369	17018
466.372	17088
466.439	18334
466.449	18478
466.506	20525
466.528	21278
466.573	28233
466.607	33365
466.641	40060
466.687	49235
466.708	49549
466.766	50421
466.775	47501
466.842	25043
466.845	23928
466.909	22013
466.925	21569
466.977	20952
467.004	20692
467.044	22439
467.083	24169
467.111	26139
467.163	29676
467.178	29655
467.242	29308
467.245	29147
467.312	24688
467.321	24053
467.379	24881
467.400	25110
467.446	25287
467.480	25331
467.559	21981
467.638	20636
467.717	21745
467.796	22064
467.875	22919
467.955	23352
468.034	36305
468.113	57527
468.192	61568
468.271	24224
468.350	28489
468.429	34799
468.508	32725
468.588	24058
468.667	21161
468.746	21015
468.825	19676
468.904	17499
468.983	21129
469.062	26332
469.141	25741
469.220	15769
469.299	18608
469.378	20399
469.456	25527
469.535	21375
469.614	19744
469.693	20883
469.772	24436
469.851	28278
469.930	19215
470.009	17829
470.088	19597
470.166	20177
470.245	23684
470.324	23795
470.403	21341
470.482	17830
470.560	18009
470.639	17630
470.718	20525
470.797	18216
470.875	21715
470.954	24538
471.033	22533
471.111	14866
471.190	15341
471.269	16007
471.347	15108
471.426	16588
471.505	20172
471.583	20630
471.662	19303
471.740	16807
471.819	17434
471.898	16072
471.976	16250
472.055	16854
472.133	20605
472.212	23966
472.290	20815
472.369	15287
472.447	16106
472.526	14309
472.604	16856
472.683	17879
472.761	17684
472.839	15487
472.918	15848
472.996	15620
473.075	17273
473.153	16455
473.231	15206
473.310	17562
473.388	15454
473.466	16871
473.545	20219
473.623	21365
473.701	18574
473.780	17330
473.858	17484
473.936	18042
474.014	17270
474.093	21330
474.171	25833
474.249	27072
474.327	17414
474.405	15731
474.484	14468
474.562	15253
474.640	15210
474.718	15412
474.796	16575
474.874	14685
474.952	13697
475.030	14851
475.108	16998
475.187	19179
475.265	20230
475.343	24583
475.421	22932
475.499	14845
475.577	16408
475.655	20848
475.733	34571
475.811	47692
475.889	42004
475.966	21784
476.044	16175
476.122	19526
476.200	23969
476.278	15151
476.356	14226
476.434	15048
476.512	18265
476.590	21493
476.667	16982
476.745	12684
476.823	14700
476.901	12896
476.979	13296
477.056	13063
477.134	14382
477.212	14639
477.290	13344
477.367	12364
477.445	12609
477.523	12224
477.601	11761
477.678	12493
477.756	14738
477.834	13804
477.911	12180
477.989	12686
478.066	12155
478.144	15157
478.222	18493
478.299	27355
478.377	20827
478.454	13169
478.532	11534
478.609	11916
478.687	13273
478.764	11559
478.842	12305
478.919	12287
478.997	11858
479.074	11530
479.152	13331
479.229	15904
479.307	10702
479.384	10024
479.461	10427
479.539	11349
479.616	12906
479.694	10614
479.771	12506
479.848	13327
479.926	16874
480.003	14246
480.080	10445
480.157	10968
480.235	10622
480.312	11899
480.389	14121
480.467	19915
480.544	20272
480.621	12466
480.698	13000
480.775	13739
480.853	12475
480.930	12322
481.007	14141
481.084	19945
481.161	25006
481.238	14363
481.315	10585
481.392	11323
481.470	12070
481.547	11449
481.624	10631
481.701	10304
481.778	12199
481.855	14360
481.932	19193
482.009	27238
482.086	17554
482.163	15871
482.240	24778
482.317	35019
482.393	19134
482.470	13083
482.547	12926
482.624	12038
482.701	11835
482.778	10688
482.855	10585
482.932	10742
483.009	12043
483.085	16177
483.162	22034
483.239	17426
483.316	13299
483.393	13788
483.469	12229
483.546	12427
483.623	12432
483.699	10687
483.776	11683
483.853	13410
483.930	24167
484.006	46661
484.083	67158
484.160	58053
484.236	78870
484.313	52668
484.389	42361
484.466	39418
484.543	40232
484.619	42733
484.696	44716
484.772	40958
484.849	39499
484.925	35589
485.002	35075
485.078	35808
485.155	34214
485.231	33104
485.308	33369
485.384	34566
485.461	42041
485.537	54994
485.614	51517
485.690	31436
485.766	30947
485.843	33070
485.919	39678
485.995	35772
486.072	28697
486.148	27546
486.224	27575
486.301	29040
486.377	31591
486.453	32858
486.530	35843
486.606	49447
486.682	48320
486.758	52467
486.835	52674
486.911	50643
486.987	68326
487.063	64686
487.139	74336
487.215	60381
487.292	38578
487.368	36133
487.444	41706
487.520	53931
487.596	70861
487.672	142815
487.748	333746
487.824	351992
487.900	84040
487.976	43797
488.052	40026
488.128	38303
488.204	33134
488.280	31558
488.356	40459
488.432	63816
488.508	67856
488.584	30629
488.660	27370
488.736	26526
488.812	30574
488.888	35777
488.964	46593
489.039	79179
489.115	94586
489.191	49085
489.267	27199
489.343	25849
489.418	23430
489.494	23981
489.570	23108
489.646	23065
489.722	23845
489.797	26241
489.873	40230
489.949	63930
490.024	41589
490.100	23488
490.176	23333
490.251	27104
490.327	29631
490.403	20916
490.478	20826
490.554	18667
490.629	19742
490.705	18471
490.781	21648
490.856	20334
490.932	23577
491.007	21947
491.083	21576
491.158	20388
491.234	30266
491.309	45859
491.385	36391
491.460	18033
491.536	21038
491.611	17313
491.686	22557
491.762	27736
491.837	50524
491.913	73257
491.988	100920
492.063	95057
492.139	31469
492.214	22586
492.289	15211
492.365	17967
492.440	18338
492.515	17740
492.590	18047
492.666	14577
492.741	22439
492.816	26115
492.891	17138
492.967	15735
493.042	17248
493.117	19229
493.192	26338
493.267	71600
493.342	195991
493.418	174774
493.493	21396
493.568	13086
493.643	15733
493.718	17863
493.793	25189
493.868	24080
493.943	15633
494.018	14686
494.093	12869
494.168	12293
494.243	12725
494.318	11073
494.393	12660
494.468	12450
494.543	11174
494.618	14982
494.693	11718
494.768	12663
494.842	12532
494.917	11140
494.992	12571
495.067	11062
495.142	10921
495.217	11747
495.292	12850
495.366	13743
495.441	16676
495.516	20221
495.591	37247
495.665	106845
495.740	179436
495.815	45622
495.890	16606
495.964	13132
496.039	16320
496.114	19091
496.188	28672
496.263	17554
496.338	14137
496.412	16611
496.487	18301
496.561	19082
496.636	18621
496.710	17308
496.785	19482
496.860	19736
496.934	16095
497.009	16088
497.083	16336
497.158	17311
497.232	20365
497.307	23553
497.381	21610
497.455	26543
497.530	30558
497.604	23380
497.679	28645
497.753	44955
497.827	54407
497.902	53124
497.976	70863
498.050	178885
498.125	475302
498.199	285949
498.273	69319
498.348	59443
498.422	47701
498.496	41469
498.570	34828
498.645	28956
498.719	28091
498.793	30648
498.867	46824
498.941	72991
499.016	224776
499.090	397672
499.164	68416
499.238	16294
499.312	17259
499.386	20875
499.460	17160
499.534	16663
499.609	22025
499.683	29514
499.757	35153
499.831	109004
499.905	304745
499.979	155599
500.053	32497
500.127	30844
500.201	21906
500.275	15369
500.349	16297
500.422	20246
500.496	32641
500.570	72550
500.644	177639
500.718	224758
500.792	28914
500.866	16348
500.940	20216
501.013	15419
501.087	18259
501.161	29240
501.235	42085
501.309	109062
501.382	245847
501.456	124335
501.530	45356
501.603	61178
501.677	19436
501.751	13719
501.825	19312
501.898	41736
501.972	87684
502.046	33114
502.119	20299
502.193	50411
502.266	88214
502.340	33219
502.413	51075
502.487	71409
502.561	35455
502.634	14181
502.708	13818
502.781	11914
502.855	10437
502.928	8843
503.002	9150
503.075	9620
503.149	10415
503.222	10355
503.295	11482
503.369	14665
503.442	27519
503.516	88356
503.589	156558
503.662	73202
503.736	39342
503.809	82013
503.882	62085
503.956	107186
504.029	103541
504.102	180227
504.175	176823
504.249	49492
504.322	25546
504.395	16917
504.468	13911
504.542	11307
504.615	9971
504.688	8461
504.761	9239
504.834	11551
504.907	14559
504.980	17476
505.053	10991
505.127	12912
505.200	14630
505.273	14269
505.346	9319
505.419	8659
505.492	7858
505.565	6606
505.638	7313
505.711	5970
505.784	6488
505.857	6369
505.930	7060
506.003	6104
506.076	9370
506.149	10967
506.221	12977
506.294	16612
506.367	51057
506.440	115136
506.513	34105
506.586	12571
506.659	7683
506.731	7675
506.804	11149
506.877	13226
506.950	8186
507.022	6909
507.095	10822
507.168	10843
507.241	7875
507.313	6484
507.386	8979
507.459	10582
507.531	7147
507.604	6538
507.677	6558
507.749	7033
507.822	12790
507.894	28266
507.967	26315
508.040	15319
508.112	15182
508.185	13420
508.257	12754
508.330	15330
508.402	13055
508.475	12557
508.547	13826
508.620	14470
508.692	19851
508.765	11995
508.837	9917
508.909	10868
508.982	10735
509.054	11741
509.127	10256
509.199	10135
509.271	9613
509.344	9420
509.416	9647
509.488	9776
509.560	10205
509.633	10791
509.705	12827
509.777	11633
509.849	15052
509.922	9332
509.994	10422
510.066	11077
510.138	17201
510.210	29897
510.283	22869
510.355	18605
510.427	15168
510.499	15435
510.571	14737
510.643	15396
510.715	19893
510.787	15902
510.859	15497
510.931	17002
511.003	19295
511.076	16503
511.148	13072
511.219	15166
511.291	21874
511.363	19196
511.435	11496
511.507	12227
511.579	12436
511.651	11949
511.723	12392
511.795	12423
511.867	12467
511.939	17198
512.010	27402
512.082	17052
512.154	13169
512.226	14772
512.298	25793
512.369	27421
512.441	22290
512.513	21257
512.585	16534
512.656	16802
512.728	17327
512.800	14685
512.871	16422
512.943	14910
513.015	13479
513.086	13217
513.158	15471
513.230	17417
513.301	21974
513.373	20747
513.444	14235
513.516	13054
513.588	13760
513.659	14939
513.731	18442
513.802	15890
513.874	31142
513.945	37336
514.016	15711
514.088	12766
514.159	15890
514.231	21552
514.302	25375
514.374	19201
514.445	20653
514.516	32037
514.588	20811
514.659	18767
514.730	28340
514.802	22690
514.873	23350
514.944	20430
515.016	17655
515.087	18630
515.158	23658
515.229	26356
515.301	29197
515.372	28638
515.443	17448
515.514	15352
515.585	14158
515.656	13652
515.728	13147
515.799	13397
515.870	14034
515.941	13903
516.012	16744
516.083	20736
516.154	21391
516.225	22916
516.296	20402
516.367	16463
516.438	19898
516.509	24410
516.580	38742
516.651	116216
516.722	259507
516.793	71943
516.864	28304
516.935	26828
517.006	32691
517.077	49681
517.148	122095
517.219	384688
517.289	360706
517.360	119307
517.431	31181
517.502	16308
517.573	16078
517.643	17764
517.714	21775
517.785	18990
517.856	21181
517.926	22534
517.997	26963
518.068	32306
518.138	44200
518.209	85774
518.280	328298
518.350	723215
518.421	155513
518.492	33069
518.562	32689
518.633	38973
518.703	57338
518.774	131251
518.845	303832
518.915	183404
518.986	52392
519.056	36106
519.127	50258
519.197	75757
519.268	134196
519.338	51744
519.408	23394
519.479	24361
519.549	18020
519.620	14647
519.690	13341
519.760	13225
519.831	13177
519.901	12299
519.971	12440
520.042	12819
520.112	14641
520.182	15658
520.253	16208
520.323	13128
520.393	17730
520.463	19438
520.534	19392
520.604	26452
520.674	14397
520.744	19519
520.814	34497
520.885	28472
520.955	65500
521.025	143273
521.095	31323
521.165	12619
521.235	11599
521.305	11443
521.375	11191
521.445	13780
521.515	15178
521.585	17078
521.655	13031
521.725	14192
521.795	12864
521.865	10259
521.935	17155
522.005	12460
522.075	10461
522.145	12058
522.215	13876
522.285	16391
522.355	26396
522.424	41685
522.494	29436
522.564	20064
522.634	44008
522.704	80653
522.774	21087
522.843	11640
522.913	12487
522.983	14505
523.053	10028
523.122	12789
523.192	20656
523.262	57206
523.331	33863
523.401	11166
523.471	9452
523.540	10978
523.610	8777
523.680	9547
523.749	11027
523.819	14744
523.888	11923
523.958	8375
524.027	9850
524.097	9758
524.166	9858
524.236	10857
524.305	10440
524.375	8748
524.444	9725
524.514	10476
524.583	11731
524.653	12980
524.722	13684
524.791	9590
524.861	10261
524.930	9138
524.999	11083
525.069	12715
525.138	11814
525.207	12793
525.277	10746
525.346	10177
525.415	10815
525.484	12508
525.554	15773
525.623	16581
525.692	19634
525.761	18155
525.830	23469
525.900	31240
525.969	56521
526.038	102148
526.107	278304
526.176	577117
526.245	309923
526.314	132577
526.383	343704
526.452	359100
526.522	729138
526.591	374042
526.660	79581
526.729	55660
526.797	78142
526.867	183005
526.935	611615
527.004	1261988
527.073	381457
527.142	38362
527.211	20569
527.280	18518
527.349	15107
527.418	10852
527.487	10559
527.555	8981
527.624	8413
527.693	8362
527.762	9264
527.831	7467
527.899	9266
527.968	7887
528.037	8224
528.106	11530
528.174	16970
528.243	13958
528.312	24137
528.380	20012
528.449	8264
528.518	7442
528.586	5273
528.655	6729
528.723	7040
528.792	5807
528.861	7700
528.929	6033
528.998	6676
529.066	7404
529.135	8472
529.203	7687
529.272	8512
529.340	9280
529.409	9581
529.477	9307
529.545	12388
529.614	12760
529.682	15636
529.751	14582
529.819	16726
529.887	12770
529.956	10665
530.024	11547
530.092	10358
530.161	13489
530.229	16599
530.297	11778
530.365	10964
530.434	11329
530.502	10116
530.570	10414
530.638	8784
530.707	10369
530.775	10743
530.843	9798
530.911	9321
530.979	10037
531.047	10215
531.115	10609
531.183	10438
531.252	9834
531.320	9035
531.388	8760
531.456	10782
531.524	9403
531.592	12013
531.660	11842
531.728	10641
531.796	10522
531.864	10448
531.932	10528
532.000	10511
532.067	12972
532.135	12560
532.203	14485
532.271	16090
532.339	24984
532.407	45593
532.475	20928
532.542	16846
532.610	18516
532.678	28804
532.746	103573
532.814	137849
532.881	27108
532.949	14707
533.017	12654
533.084	11452
533.152	11702
533.220	12381
533.287	12385
533.355	11819
533.423	10439
533.490	11972
533.558	11206
533.625	14533
533.693	14036
533.761	12569
533.828	12972
533.896	14205
533.963	23394
534.031	24733
534.098	28843
534.166	16287
534.233	14851
534.300	15792
534.368	15110
534.435	14539
534.503	15725
534.570	18601
534.637	19815
534.705	24312
534.772	34161
534.840	82632
534.907	326862
534.974	208546
535.041	25063
535.109	17451
535.176	12682
535.243	13368
535.310	13315
535.378	11962
535.445	11377
535.512	11942
535.579	12362
535.646	11524
535.714	14116
535.781	16206
535.848	16517
535.915	14765
535.982	14553
536.049	14044
536.116	13824
536.183	12282
536.250	12368
536.317	13520
536.384	15924
536.451	21314
536.518	18445
536.585	14710
536.652	19920
536.719	24070
536.786	17754
536.853	16443
536.920	24687
536.987	30958
537.053	34062
537.120	98488
537.187	46002
537.254	14227
537.321	13135
537.388	14884
537.454	12313
537.521	12064
537.588	11533
537.654	16490
537.721	17266
537.788	15675
537.855	14092
537.921	14519
537.988	13625
538.055	13729
538.121	12648
538.188	14920
538.254	20914
538.321	31734
538.388	17907
538.454	14629
538.521	13649
538.587	12562
538.654	13174
538.720	13032
538.787	12147
538.853	13849
538.920	15680
538.986	14742
539.053	12259
539.119	14132
539.185	14252
539.252	16703
539.318	20808
539.385	18576
539.451	17522
539.517	16776
539.583	19185
539.650	41264
539.716	55147
539.782	17393
539.849	14091
539.915	13580
539.981	14553
540.047	16322
540.114	13917
540.180	15568
540.246	16573
540.312	21796
540.378	34234
540.444	30000
540.510	40872
540.576	63425
540.643	17910
540.709	13965
540.775	14188
540.841	13467
540.907	19461
540.973	23875
541.039	22839
541.105	21451
541.171	17217
541.237	15789
541.303	15353
541.369	18096
541.435	21770
541.500	28684
541.566	16063
541.632	13234
541.698	12511
541.764	13834
541.830	12694
541.896	12706
541.961	13202
542.027	15102
542.093	14762
542.159	15638
542.224	16515
542.290	23042
542.356	32096
542.421	29140
542.487	16376
542.553	15211
542.618	14960
542.684	14211
542.750	13832
542.815	17362
542.881	28087
542.947	67948
543.012	31387
543.078	12425
543.143	12601
543.209	15644
543.274	13944
543.340	16908
543.405	33280
543.471	31669
543.536	13404
543.602	13693
543.667	12143
543.732	14157
543.798	12462
543.863	14216
543.928	12630
543.994	12484
544.059	13318
544.124	14048
544.190	13191
544.255	14535
544.320	14428
544.386	15909
544.451	19563
544.516	20151
544.581	22347
544.646	54472
544.712	47659
544.777	17596
544.842	16844
544.907	17470
544.972	15584
545.037	16498
545.102	18004
545.168	17224
545.233	17075
545.298	19144
545.363	21245
545.428	23559
545.493	37076
545.558	51143
545.623	21671
545.688	17560
545.753	18780
545.818	18757
545.883	19856
545.947	19594
546.012	20686
546.077	21220
546.142	22864
546.207	22286
546.272	27660
546.337	26062
546.401	25652
546.466	24605
546.531	24728
546.596	27875
546.661	27659
546.725	28679
546.790	27749
546.855	30313
546.919	32754
546.984	36443
547.049	39946
547.113	45473
547.178	48157
547.243	56109
547.307	64902
547.372	71079
547.436	69383
547.501	71219
547.565	72822
547.630	71389
547.695	69288
547.759	71583
547.823	68156
547.888	70342
547.952	71068
548.017	78684
548.081	86488
548.146	82502
548.210	79520
548.274	82217
548.339	75003
548.403	69619
548.468	67103
548.532	67264
548.596	68468
548.660	70078
548.725	79377
548.789	83309
548.853	79072
548.917	76670
548.982	76995
549.046	67319
549.110	60295
549.174	66004
549.238	74499
549.303	78221
549.367	80833
549.431	74255
549.495	70682
549.559	72937
549.623	88612
549.687	91480
549.751	97737
549.815	111660
549.879	105884
549.943	103744
550.007	108673
550.071	103742
550.135	95521
550.199	90646
550.263	87144
550.327	87070
550.391	97144
550.455	100384
550.519	101697
550.582	112344
550.646	127800
550.710	123699
550.774	119563
550.838	122825
550.901	127341
550.965	136177
551.029	142749
551.093	157359
551.156	178542
551.220	229943
551.284	229040
551.347	160126
551.411	165241
551.475	148531
551.538	129627
551.602	116422
551.666	110234
551.729	102872
551.793	103214
551.856	100541
551.920	99905
551.983	98961
552.047	98584
552.110	98247
552.174	101711
552.237	100484
552.301	90992
552.364	87419
552.428	85936
552.491	91277
552.554	90109
552.618	90865
552.681	92537
552.745	91421
552.808	103780
552.871	109022
552.934	96819
552.998	92186
553.061	89847
553.124	85256
553.187	87196
553.251	91614
553.314	92849
553.377	98824
553.440	120755
553.503	209055
553.567	184416
553.630	98047
553.693	92577
553.756	91987
553.819	88862
553.882	85748
553.945	87466
554.008	87412
554.071	87852
554.134	86575
554.197	80025
554.260	79620
554.323	84282
554.386	86009
554.449	89067
554.512	86008
554.575	81710
554.638	81510
554.701	82087
554.764	78989
554.827	76427
554.889	72117
554.952	67684
555.015	67597
555.078	71338
555.141	71354
555.203	66665
555.266	69054
555.329	66649
555.391	64807
555.454	65074
555.517	64602
555.580	61339
555.642	58565
555.705	57747
555.768	58393
555.830	56377
555.893	51905
555.955	51081
556.018	51020
556.080	50989
556.143	53668
556.206	51853
556.268	51263
556.330	51159
556.393	50331
556.455	48605
556.518	53949
556.580	48536
556.643	45023
556.705	43321
556.767	42045
556.830	42426
556.892	45116
556.955	48336
557.017	41394
557.079	40135
557.142	39913
557.204	42542
557.266	54321
557.328	40970
557.391	34016
557.453	33644
557.515	34288
557.577	37203
557.639	37043
557.701	34463
557.764	35055
557.826	37420
557.888	41589
557.950	43769
558.012	52319
558.074	79916
558.136	225438
558.198	347107
558.260	75102
558.322	43627
558.384	45173
558.446	51809
558.508	63520
558.570	84224
558.632	118377
558.694	165213
558.756	291885
558.818	1006129
558.880	1418723
558.942	354659
559.003	384576
559.065	116893
559.127	67967
559.189	73879
559.251	94553
559.312	164170
559.374	494450
559.436	1091563
559.498	273030
559.559	72232
559.621	72009
559.683	97947
559.744	195593
559.806	675015
559.868	558556
559.929	87735
559.991	82683
560.052	175735
560.114	388878
560.176	163014
560.237	273207
560.299	262646
560.360	40094
560.422	23810
560.483	21315
560.545	20017
560.606	19743
560.667	19049
560.729	18736
560.790	16828
560.852	16745
560.913	17272
560.974	15445
561.036	16523
561.097	16420
561.158	16498
561.220	16840
561.281	16214
561.342	17091
561.403	18429
561.465	23050
561.526	45353
561.587	40145
561.648	16086
561.709	14249
561.771	14071
561.832	14210
561.893	14357
561.954	13740
562.015	13006
562.076	14152
562.137	13593
562.198	13337
562.259	14036
562.320	13714
562.381	15856
562.442	18123
562.503	13927
562.564	13732
562.625	12700
562.686	12728
562.747	13245
562.808	13797
562.869	13154
562.930	15329
562.991	13914
563.051	12903
563.112	11882
563.173	12605
563.234	11494
563.294	11774
563.355	11928
563.416	12786
563.477	11623
563.537	12464
563.598	13146
563.659	12640
563.720	12587
563.780	13094
563.841	12349
563.901	12467
563.962	11849
564.023	11834
564.083	12827
564.144	12820
564.204	11780
564.265	13281
564.325	15785
564.386	27294
564.446	18329
564.507	11158
564.567	11617
564.628	12191
564.688	11719
564.749	10825
564.809	14377
564.869	14723
564.930	11564
564.990	12006
565.050	10577
565.111	11235
565.171	11061
565.231	11165
565.292	12203
565.352	12102
565.412	12040
565.472	12238
565.532	13412
565.593	11459
565.653	12375
565.713	12017
565.773	14372
565.833	14916
565.893	16051
565.953	12593
566.013	11949
566.074	14083
566.134	17208
566.194	23929
566.254	21815
566.314	15516
566.374	11998
566.434	12502
566.494	13565
566.554	14173
566.614	14900
566.673	15124
566.733	15763
566.793	15920
566.853	15808
566.913	16928
566.973	16761
567.033	17602
567.092	17025
567.152	16290
567.212	16428
567.272	18586
567.331	19037
567.391	19623
567.451	21871
567.511	26563
567.570	22500
567.630	18547
567.690	17015
567.749	18746
567.809	19719
567.868	22952
567.928	25688
567.988	31560
568.047	36082
568.107	49061
568.166	71088
568.226	119186
568.285	141141
568.345	104199
568.404	76477
568.464	65604
568.523	62214
568.582	66412
568.642	79047
568.701	110192
568.761	177957
568.820	259919
568.879	205483
568.939	137625
568.998	91420
569.057	67187
569.116	51162
569.176	40986
569.235	34332
569.294	30732
569.353	25678
569.413	23832
569.472	20978
569.531	20273
569.590	18578
569.649	17392
569.708	15855
569.767	17500
569.827	18007
569.886	14256
569.945	13589
570.004	14287
570.063	13893
570.122	15643
570.181	15089
570.240	15309
570.299	14403
570.358	14269
570.417	12385
570.475	13227
570.534	12783
570.593	13595
570.652	14006
570.711	13469
570.770	14746
570.829	15238
570.887	14970
570.946	14419
571.005	11414
571.064	12089
571.122	12835
571.181	13750
571.240	11521
571.299	11571
571.357	11615
571.416	12423
571.475	14082
571.533	12805
571.592	11908
571.650	12755
571.709	11592
571.768	12875
571.826	12728
571.885	12245
571.943	11263
572.002	11529
572.060	10383
572.119	10227
572.177	10057
572.236	10140
572.294	9700
572.352	10590
572.411	10834
572.469	9743
572.528	9944
572.586	11079
572.644	10955
572.703	13223
572.761	10259
572.819	8949
572.877	9285
572.936	8234
572.994	8517
573.052	8946
573.110	10205
573.169	10204
573.227	9208
573.285	10538
573.343	9754
573.401	10679
573.459	9624
573.517	10570
573.576	10371
573.634	9738
573.692	9944
573.750	9878
573.808	9478
573.866	10438
573.924	12604
573.982	11722
574.040	10034
574.098	9657
574.155	8702
574.213	9376
574.271	10014
574.329	11270
574.387	8373
574.445	7782
574.503	8616
574.560	8120
574.618	8682
574.676	8810
574.734	8666
574.792	8405
574.849	8034
574.907	6675
574.965	7358
575.022	7226
575.080	7238
575.138	7721
575.195	8528
575.253	8657
575.311	9554
575.368	7190
575.426	7768
575.483	8397
575.541	8273
575.598	8025
575.656	8445
575.713	8121
575.771	7874
575.828	8464
575.886	7506
575.943	8795
576.001	7132
576.058	8070
576.115	9706
576.173	10648
576.230	11353
576.287	12381
576.345	9345
576.402	8862
576.459	8664
576.517	9422
576.574	9883
576.631	10221
576.688	8017
576.746	7782
576.803	7747
576.860	7658
576.917	8258
576.974	8077
577.031	7755
577.089	8310
577.146	8069
577.203	8998
577.260	8890
577.317	8633
577.374	10043
577.431	10251
577.488	8081
577.545	7562
577.602	9193
577.659	8448
577.716	9569
577.773	10450
577.830	8363
577.886	8780
577.943	7165
578.000	9172
578.057	7818
578.114	8614
578.171	9346
578.227	10247
578.284	8495
578.341	7865
578.398	9182
578.454	9376
578.511	9948
578.568	10457
578.625	8633
578.681	8620
578.738	7964
578.794	7692
578.851	6912
578.908	8872
578.964	8525
579.021	8880
579.077	7159
579.134	8538
579.190	7655
579.247	7458
579.303	7490
579.360	8268
579.416	7678
579.473	6976
579.529	7451
579.586	7436
579.642	8131
579.698	8240
579.755	8819
579.811	7820
579.867	8263
579.924	8143
579.980	9275
580.036	9870
580.093	10866
580.149	12755
580.205	12033
580.261	10795
580.317	9911
580.374	9714
580.430	11011
580.486	10740
580.542	9206
580.598	10248
580.619	10212
580.654	10159
580.692	9345
580.710	8953
580.765	9531
580.767	9557
580.823	8810
580.838	9097
580.879	9886
580.911	9498
580.935	9225
580.984	9208
580.991	9215
581.047	9869
581.057	9778
581.103	9386
581.130	9760
581.159	10185
581.203	9544
581.215	9372
581.270	9850
581.276	9838
581.326	9808
581.349	9754
581.382	9645
581.422	9212
581.438	9068
581.494	9568
581.494	9565
581.550	9685
581.567	9991
581.606	10660
581.640	9996
581.661	9599
581.713	9816
581.717	9840
581.773	9638
581.786	9779
581.829	10193
581.859	9437
581.885	8835
581.932	8876
581.940	8885
581.996	9523
582.004	9598
582.052	9968
582.077	10156
582.107	10408
582.150	10216
582.163	10183
582.219	9560
582.223	9595
582.274	9914
582.296	10346
582.330	11125
582.368	11054
582.386	10986
582.441	10278
582.441	10278
582.497	10548
582.514	10645
582.552	10892
582.587	11857
582.608	12455
582.659	10739
582.663	10582
582.719	11276
582.732	11038
582.774	10452
582.805	11038
582.830	11567
582.877	11402
582.885	11373
582.941	11672
582.950	11709
582.996	11779
583.023	11759
583.052	11843
583.095	12315
583.107	12442
583.162	13608
583.168	13594
583.218	13366
583.240	12992
583.273	12337
583.313	11463
583.328	11198
583.384	11600
583.385	11589
583.439	11157
583.458	11304
583.494	11549
583.531	11047
583.549	10852
583.603	11537
583.605	11558
583.660	11227
583.676	11377
583.715	11720
583.748	12068
583.770	12266
583.820	12504
583.825	12540
583.881	12178
583.893	12140
583.936	11986
583.965	12086
583.991	12043
584.038	12039
584.046	12094
584.101	11856
584.110	11983
584.156	12568
584.183	12322
584.211	12049
584.255	12755
584.266	12902
584.321	13349
584.328	13270
584.376	12762
584.400	12689
584.431	12598
584.472	12677
584.486	12751
584.541	13675
584.545	13724
584.596	14073
584.617	13988
584.651	14266
584.689	14784
584.706	14901
584.761	15079
584.762	15081
584.816	15320
584.834	15390
584.871	15483
584.906	15840
584.926	16128
584.978	16023
584.980	16027
585.035	18072
585.051	18519
585.090	19813
585.123	20933
585.145	21624
585.195	23638
585.200	23929
585.254	28365
585.267	30000
585.309	35725
585.340	39790
585.364	42874
585.412	45904
585.419	46032
585.473	52783
585.484	55344
585.528	69845
585.556	84554
585.583	104971
585.628	166059
585.637	187883
585.692	423741
585.700	443744
585.747	565128
585.772	497279
585.801	291736
585.845	121888
585.856	100982
585.910	45667
585.917	39596
585.965	32388
585.989	29289
586.019	27276
586.061	25956
586.074	25759
586.128	24657
586.133	24628
586.183	25370
586.205	25483
586.237	25364
586.277	25288
586.292	25224
586.346	25214
586.349	25186
586.401	25038
586.421	25297
586.455	26195
586.493	27842
586.509	28974
586.564	32567
586.565	32736
586.618	43404
586.637	43736
586.672	39870
586.709	38209
586.727	37407
586.781	35458
586.781	35464
586.835	31545
586.853	30848
586.889	29684
586.925	28237
586.944	28180
586.996	29675
586.998	29736
587.052	31095
587.068	31326
587.106	31449
587.140	31767
587.161	32008
587.212	32929
587.215	33019
587.269	34432
587.284	34880
587.323	35972
587.356	36860
587.377	37681
587.427	39434
587.431	39525
587.485	40406
587.499	40842
587.539	42934
587.571	44303
587.593	45238
587.643	47664
587.648	47970
587.702	51085
587.715	51977
587.755	54451
587.786	55819
587.810	57487
587.858	62165
587.864	62741
587.917	67938
587.930	69334
587.971	74931
588.001	78424
588.025	81489
588.073	89164
588.079	90307
588.133	100093
588.145	102721
588.187	114395
588.217	122391
588.241	129874
588.288	147077
588.295	149837
588.348	174051
588.360	179753
588.402	204606
588.431	223826
588.456	242361
588.503	282838
588.510	289597
588.564	351684
588.575	366316
588.617	433819
588.646	488498
588.671	552000
588.718	690829
588.725	722704
588.778	1006482
588.789	1074076
588.832	1501094
588.861	1797149
588.886	2105613
588.932	2526530
588.939	2519283
588.993	2417271
589.004	2419161
589.047	2448112
589.075	2327553
589.100	1975124
589.147	1343474
589.154	1286821
589.207	897252
589.218	823608
589.261	734100
589.290	685706
589.314	696702
589.361	741520
589.368	766163
589.421	1008379
589.433	1069403
589.475	1515450
589.504	1809055
589.528	2051493
589.576	2405029
589.582	2381598
589.635	2163681
589.647	2082324
589.689	1473976
589.718	1071984
589.742	868711
589.790	499647
589.795	483538
589.849	341839
589.861	310568
589.902	262394
589.932	227419
589.955	208429
590.004	170796
590.009	168460
590.062	142913
590.075	136826
590.115	124925
590.146	115840
590.168	111186
590.218	101078
590.222	100521
590.275	92315
590.289	90162
590.328	85351
590.360	81442
590.381	79236
590.431	73959
590.435	73692
590.488	68285
590.503	66666
590.541	64943
590.574	63517
590.594	62424
590.645	59609
590.647	59583
590.700	57257
590.716	56498
590.753	54517
590.787	52770
590.806	52735
590.859	52505
590.859	52531
590.912	50477
590.930	49801
590.965	49141
591.001	48521
591.018	48146
591.071	46672
591.072	46605
591.124	45081
591.143	44592
591.177	44126
591.214	43549
591.230	43574
591.283	43490
591.285	43432
591.336	44475
591.356	44879
591.389	43900
591.427	42528
591.442	41994
591.495	39824
591.498	39619
591.547	39643
591.569	39626
591.600	39497
591.640	39161
591.653	39105
591.706	38645
591.711	38558
591.759	39468
591.782	39862
591.811	40739
591.853	41830
591.864	41493
591.917	39410
591.924	39061
591.969	38650
591.995	38347
592.022	37982
592.066	37248
592.075	37682
592.127	40096
592.137	40503
592.180	41886
592.208	42610
592.233	41818
592.279	40164
592.285	40066
592.338	38784
592.350	38440
592.390	38151
592.421	37870
592.443	37868
592.491	37662
592.495	37779
592.548	38692
592.562	38881
592.600	38523
592.633	38131
592.653	38051
592.704	37492
592.705	37709
592.775	37809
592.846	38294
592.916	39544
592.987	40736
593.058	39936
593.128	37969
593.199	37853
593.270	37829
593.341	36478
593.411	38687
593.482	39326
593.553	39419
593.623	38681
593.694	41099
593.764	41610
593.835	41053
593.906	40110
593.976	41775
594.047	42023
594.117	44808
594.188	47372
594.258	43304
594.329	42951
594.399	43316
594.470	43508
594.540	45585
594.611	46061
594.681	46189
594.751	46574
594.822	48833
594.892	51952
594.963	52548
595.033	52054
595.103	52705
595.174	53627
595.244	58451
595.314	68840
595.384	59572
595.455	55430
595.525	58447
595.595	59389
595.665	60878
595.736	58432
595.806	59859
595.876	60026
595.946	60184
596.016	61261
596.087	63436
596.157	63650
596.227	62773
596.297	66160
596.367	69886
596.437	75230
596.507	79534
596.577	84176
596.647	80227
596.717	78344
596.787	80917
596.857	80168
596.927	81683
596.997	80124
597.067	83465
597.137	84666
597.207	85618
597.277	85496
597.347	82862
597.417	79775
597.487	78558
597.557	80319
597.626	82084
597.696	84079
597.766	87206
597.836	90745
597.906	81872
597.975	73330
598.045	73470
598.115	74529
598.185	79663
598.254	88235
598.324	98549
598.394	100360
598.464	100925
598.533	97446
598.603	93137
598.672	88222
598.742	88682
598.812	90476
598.881	91976
598.951	91174
599.020	91496
599.090	95802
599.159	98185
599.229	94948
599.299	91709
599.368	93980
599.437	93819
599.507	88641
599.576	85901
599.646	84208
599.715	83609
599.785	80312
599.854	80036
599.924	80206
599.993	79078
600.062	77932
600.132	81019
600.201	82500
600.270	95816
600.340	105164
600.409	102084
600.478	100683
600.547	101206
600.617	101437
600.686	80581
600.755	72119
600.824	69541
600.894	65206
600.963	65127
601.032	66813
601.101	63837
601.170	61490
601.239	60136
601.308	59990
601.378	62622
601.447	60590
601.516	61092
601.585	61195
601.654	64579
601.723	63673
601.792	64406
601.861	66620
601.930	70300
601.999	72990
602.068	70016
602.137	71564
602.206	73980
602.275	72768
602.343	74016
602.412	74992
602.481	74430
602.550	73965
602.619	75229
602.688	75680
602.756	77529
602.825	76636
602.894	78350
602.963	80599
603.032	81176
603.100	81896
603.169	81911
603.238	81916
603.307	83633
603.375	82346
603.444	84623
603.513	85523
603.581	86640
603.650	89101
603.719	87746
603.787	85663
603.856	88236
603.924	89693
603.993	93748
604.061	96448
604.130	101559
604.198	104167
604.267	105960
604.335	107292
604.404	106580
604.472	109473
604.541	111968
604.609	112863
604.678	111842
604.746	112163
604.815	116537
604.883	120938
604.951	117761
605.020	120463
605.088	121668
605.156	123149
605.225	124867
605.293	124726
605.361	126263
605.429	127706
605.498	128597
605.566	132135
605.634	136008
605.702	141658
605.771	146362
605.839	148040
605.907	144791
605.975	142168
606.043	138006
606.111	135886
606.180	136631
606.248	136870
606.316	138120
606.384	134709
606.452	134756
606.520	134251
606.588	139210
606.656	137815
606.724	136538
606.792	130453
606.860	118996
606.928	105894
606.996	100871
607.064	95901
607.132	100378
607.200	103394
607.267	110825
607.335	110841
607.403	116021
607.471	113179
607.539	106674
607.607	111300
607.674	97979
607.742	97087
607.810	96290
607.878	96089
607.946	97062
608.013	99854
608.081	102027
608.149	104552
608.216	106649
608.284	112092
608.352	111293
608.419	110639
608.487	111398
608.555	109668
608.622	108122
608.690	113504
608.757	125010
608.825	133328
608.893	129909
608.960	124663
609.028	118129
609.095	120332
609.163	118854
609.230	108116
609.298	93892
609.365	95149
609.432	103489
609.500	111411
609.567	127370
609.635	146559
609.702	162481
609.769	159140
609.837	135799
609.904	105347
609.971	107540
610.039	121248
610.106	152565
610.173	268363
610.241	657588
610.308	678109
610.375	187771
610.442	121152
610.509	108913
610.577	105344
610.644	106659
610.711	109056
610.778	113460
610.845	116350
610.912	124053
610.980	130458
611.047	137733
611.114	135293
611.181	125578
611.248	123581
611.315	128514
611.382	132567
611.449	136766
611.516	142410
611.583	140980
611.650	140768
611.717	144416
611.784	147817
611.851	155578
611.918	168147
611.984	198622
612.051	271760
612.118	509729
612.185	1295292
612.252	1515216
612.319	332492
612.386	200547
612.452	179923
612.519	166497
612.586	162785
612.653	165250
612.719	165287
612.786	164057
612.853	151808
612.919	142513
612.986	144425
613.053	139523
613.120	131301
613.186	122346
613.253	125434
613.319	123520
613.386	125012
613.453	126557
613.519	127609
613.586	125546
613.652	134051
613.719	131406
613.785	132768
613.852	130743
613.918	130270
613.985	131913
614.051	145689
614.118	179953
614.184	211973
614.250	138968
614.317	132769
614.383	129706
614.449	131683
614.516	130773
614.582	131243
614.648	130813
614.715	126008
614.781	126869
614.847	122253
614.914	125283
614.980	122842
615.046	119840
615.112	123159
615.179	127673
615.245	127401
615.311	131206
615.377	146401
615.443	166555
615.509	141533
615.575	138107
615.642	138257
615.708	140719
615.774	148737
615.840	162341
615.906	181414
615.972	227846
616.038	355156
616.104	670920
616.170	1498120
616.236	2217298
616.302	547013
616.368	277835
616.434	206648
616.500	170889
616.565	175685
616.631	228873
616.697	210326
616.763	189137
616.829	251441
616.895	475982
616.961	607248
617.026	283384
617.092	149845
617.158	134438
617.224	130147
617.289	121974
617.355	112306
617.421	110885
617.487	111244
617.552	105398
617.618	101931
617.684	102772
617.749	103436
617.815	99235
617.880	95453
617.946	94494
618.012	96809
618.077	99177
618.143	96318
618.208	94968
618.274	101345
618.339	106056
618.405	91604
618.470	82091
618.536	83894
618.601	84732
618.667	81264
618.732	73643
618.798	72643
618.863	71632
618.928	70049
618.994	73072
619.059	72455
619.124	77868
619.190	76977
619.255	71266
619.320	69092
619.386	70654
619.451	69897
619.516	68332
619.581	67975
619.647	70367
619.712	71363
619.777	67228
619.842	67647
619.907	68536
619.972	69269
620.038	71940
620.103	68190
620.168	67147
620.233	68386
620.298	68344
620.363	69101
620.428	70019
620.493	73836
620.558	74783
620.623	73948
620.688	75373
620.753	73679
620.818	76183
620.883	75752
620.948	76192
621.013	75456
621.078	74322
621.143	73766
621.207	78097
621.272	74601
621.337	74689
621.402	71212
621.467	74015
621.532	76399
621.596	74256
621.661	71613
621.726	68684
621.791	69723
621.855	69837
621.920	70095
621.985	72880
622.049	73558
622.114	75777
622.179	73365
622.243	75675
622.308	76782
622.373	80159
622.437	79714
622.502	74032
622.566	72539
622.631	72051
622.695	74448
622.760	74579
622.824	72806
622.889	74486
622.953	75129
623.018	80208
623.082	87917
623.147	81215
623.211	76378
623.276	76698
623.340	74458
623.404	71619
623.469	70026
623.533	71440
623.597	71180
623.662	67913
623.726	66128
623.790	59910
623.854	58424
623.919	59150
623.983	59081
624.047	61365
624.111	60663
624.176	62600
624.240	64200
624.304	68004
624.368	64433
624.432	62478
624.496	64894
624.560	68312
624.625	72057
624.689	70255
624.753	71602
624.817	70767
624.881	66745
624.945	63778
625.009	58098
625.073	59959
625.137	61087
625.201	66442
625.265	69764
625.329	63062
625.393	61598
625.456	64557
625.520	64866
625.584	69161
625.648	72172
625.712	81303
625.776	103986
625.839	123010
625.903	89785
625.967	54491
626.031	61402
626.095	87273
626.158	77911
626.222	53734
626.286	45185
626.349	43100
626.413	40146
626.477	40280
626.540	41190
626.604	40892
626.668	38962
626.731	39103
626.795	39727
626.858	40205
626.922	39995
626.986	38517
627.049	38302
627.113	39809
627.176	39704
627.240	37966
627.303	37685
627.366	38235
627.430	39373
627.493	38000
627.557	37933
627.620	38248
627.684	40075
627.747	41435
627.810	38737
627.874	35087
627.937	33111
628.000	34424
628.064	34097
628.127	31073
628.190	29126
628.253	29189
628.317	27831
628.380	26872
628.443	25442
628.506	26186
628.569	25286
628.632	24186
628.696	23565
628.759	24181
628.822	22872
628.885	22609
628.948	22027
629.011	22659
629.074	22258
629.137	21864
629.200	20244
629.263	20992
629.326	20127
629.389	20287
629.452	19641
629.515	21190
629.578	19811
629.641	20856
629.704	20095
629.767	21074
629.830	20050
629.892	19503
629.955	19213
630.018	20026
630.081	20064
630.144	22637
630.207	20479
630.269	21228
630.332	20453
630.395	20079
630.458	18782
630.520	17813
630.583	17950
630.646	18102
630.708	17404
630.771	18519
630.834	19982
630.896	20651
630.959	18585
631.021	19029
631.084	18400
631.146	19519
631.209	21971
631.272	19730
631.334	19114
631.397	19908
631.459	19108
631.522	21360
631.584	21992
631.646	24238
631.709	24699
631.771	27814
631.834	26319
631.896	23848
631.958	20974
632.021	21132
632.083	19328
632.145	19089
632.208	18815
632.270	18791
632.332	18671
632.395	18251
632.457	18786
632.519	18612
632.581	17891
632.643	17810
632.706	18126
632.768	17449
632.830	17607
632.892	18288
632.954	18233
633.016	18276
633.078	17486
633.141	18518
633.203	17714
633.265	18545
633.327	17939
633.389	16855
633.451	18505
633.513	20401
633.575	20664
633.637	20281
633.698	20665
633.760	20136
633.822	19886
633.884	21247
633.946	20553
634.008	22380
634.070	23425
634.132	25492
634.193	28256
634.255	29638
634.317	30785
634.379	30989
634.441	28107
634.502	25139
634.564	23055
634.626	21753
634.687	22194
634.749	20803
634.811	18457
634.873	17634
634.934	17790
634.996	17504
635.057	16989
635.119	17162
635.181	17980
635.242	19286
635.304	17578
635.365	18984
635.427	17575
635.488	18017
635.550	18333
635.611	18425
635.673	17746
635.734	19885
635.796	20904
635.857	22622
635.918	24285
635.980	28000
636.041	30338
636.102	32712
636.164	33725
636.225	32598
636.286	29048
636.348	25575
636.409	22242
636.470	20320
636.531	18865
636.593	17681
636.654	18345
636.715	16254
636.776	15404
636.838	15943
636.899	15056
636.960	15642
637.021	14696
637.082	15714
637.143	16240
637.204	14174
637.265	14377
637.326	14298
637.387	14399
637.448	14369
637.509	13720
637.570	14442
637.631	13777
637.692	13098
637.753	12437
637.814	12544
637.875	13559
637.936	13055
637.997	12820
638.058	13181
638.119	12936
638.179	13600
638.240	12675
638.301	13318
638.362	12426
638.423	11616
638.483	12877
638.544	12490
638.605	11412
638.666	12260
638.726	12320
638.787	12680
638.848	11663
638.908	12383
638.969	10575
639.030	11114
639.090	11076
639.151	11295
639.211	11362
639.272	13128
639.332	15487
639.393	15486
639.453	12634
639.514	13904
639.574	12231
639.635	11410
639.695	10625
639.756	10597
639.816	11662
639.877	11318
639.937	13447
639.997	18571
640.058	13593
640.118	10792
640.178	10604
640.239	10029
640.299	9882
640.359	11059
640.420	11474
640.480	13228
640.540	14071
640.600	17030
640.661	14391
640.721	13328
640.781	16849
640.841	18603
640.901	13868
640.961	11502
641.021	11368
641.082	13172
641.142	14071
641.202	12579
641.262	8613
641.322	10511
641.382	9212
641.442	10999
641.502	9550
641.562	9544
641.622	9141
641.682	11455
641.742	12158
641.802	13252
641.861	11537
641.921	10146
641.981	11168
642.041	10989
642.101	10282
642.161	10352
642.221	9491
642.280	9415
642.340	8632
642.400	8912
642.460	9182
642.519	9007
642.579	9608
642.639	9712
642.698	9332
642.758	11618
642.818	10400
642.877	9568
642.937	10031
642.997	10503
643.056	12019
643.116	11927
643.175	11669
643.235	10818
643.294	11619
643.354	13640
643.414	14527
643.473	19210
643.532	24563
643.592	35063
643.651	53715
643.711	93839
643.770	171374
643.830	355771
643.889	1076637
643.948	687224
644.008	73222
644.067	30998
644.126	22469
644.186	17662
644.245	14532
644.304	12771
644.363	12724
644.423	10940
644.482	10811
644.541	12491
644.600	12009
644.659	16859
644.719	20540
644.778	30883
644.837	50532
644.896	93348
644.955	248818
645.014	214502
645.073	30944
645.132	16550
645.191	14005
645.250	11982
645.309	13346
645.368	13713
645.427	16930
645.486	24716
645.545	55839
645.604	35352
645.663	12213
645.722	12166
645.781	14723
645.840	16417
645.898	20866
645.957	31270
646.016	48932
646.075	86796
646.134	159330
646.192	346724
646.251	942162
646.310	348740
646.369	44019
646.427	26904
646.486	20962
646.545	15238
646.603	13009
646.662	11550
646.721	10507
646.779	11174
646.838	11537
646.896	14426
646.955	19992
647.014	30529
647.072	50836
647.131	135346
647.189	173107
647.248	24777
647.306	11248
647.365	10048
647.423	7943
647.481	8824
647.540	6597
647.598	8152
647.657	7232
647.715	7844
647.773	7227
647.832	7183
647.890	6214
647.948	6000
648.007	7254
648.065	6617
648.123	6034
648.181	8301
648.240	7483
648.298	8378
648.356	6249
648.414	7166
648.472	6861
648.531	6807
648.589	6359
648.647	6423
648.705	7061
648.763	6934
648.821	7316
648.879	8413
648.937	9475
648.995	12341
649.053	15790
649.111	24525
649.169	40073
649.227	70095
649.285	128088
649.343	368995
649.401	473645
649.459	66965
649.516	30045
649.574	21370
649.632	28703
649.690	53299
649.748	28546
649.806	26020
649.863	44824
649.921	89562
649.979	145181
650.037	26981
650.094	8350
650.152	7798
650.210	6922
650.268	7473
650.325	7366
650.383	9310
650.440	7447
650.498	5885
650.556	5202
650.613	4872
650.671	4769
650.728	4721
650.786	6281
650.843	6679
650.901	7027
650.958	5000
651.016	4885
651.073	4499
651.131	4100
651.188	3536
651.246	5048
651.303	3765
651.360	4757
651.418	3869
651.475	4792
651.532	4033
651.590	4039
651.647	3812
651.704	3639
651.762	4451
651.819	4329
651.876	4269
651.933	3905
651.990	3769
652.048	2970
652.105	3620
652.162	3435
652.219	4123
652.276	3099
652.333	3774
652.390	3435
652.448	4187
652.505	4382
652.562	4703
652.619	4294
652.676	6117
652.733	7858
652.790	4428
652.847	2985
652.904	3954
652.961	3817
653.017	2656
653.074	3604
653.131	3534
653.188	2675
653.245	4124
653.302	2934
653.359	3129
653.415	3449
653.472	2825
653.529	3260
653.586	3673
653.642	3377
653.699	4076
653.756	3511
653.813	3548
653.869	3320
653.926	2877
653.983	3042
654.039	3258
654.096	3225
654.152	4286
654.209	2094
654.266	4285
654.322	3329
654.379	3689
654.435	3944
654.492	4700
654.548	4383
654.605	7504
654.661	6538
654.717	3855
654.774	3866
654.830	3468
654.887	3095
654.943	4162
655.000	4267
655.056	4965
655.112	3441
655.168	3152
655.225	4081
655.281	3852
655.337	3865
655.394	7350
655.450	6297
655.506	5180
655.562	5750
655.618	8595
655.675	3596
655.731	4189
655.787	2791
655.843	3872
655.899	3413
655.955	5496
656.011	4297
656.067	4764
656.123	5667
656.179	5948
656.235	7344
656.291	6680
656.347	7184
656.403	5495
656.459	4993
656.515	4995
656.571	4816
656.627	5015
656.683	3960
656.739	4599
656.795	3473
656.850	3526
656.906	3623
656.962	4549
657.018	3107
657.074	4136
657.129	4571
657.185	6387
657.241	11620
657.297	15019
657.352	4754
657.408	2951
657.464	4199
657.519	3459
657.575	2167
657.630	2685
657.686	2836
657.742	2259
657.797	2850
657.853	2128
657.908	3994
657.964	2605
658.019	2945
658.075	3588
658.130	3005
658.186	2578
658.241	2602
658.297	2527
658.352	2027
658.407	3372
658.463	2219
658.518	3090
658.573	2798
658.629	2491
658.684	2233
658.739	3461
658.795	1793
658.850	3056
658.905	1834
658.960	3104
659.016	2218
659.071	2458
659.126	2772
659.181	2979
659.236	4094
659.291	5456
659.346	3293
659.401	3437
659.457	3749
659.512	5012
659.567	4774
659.622	2836
659.677	2735
659.732	2489
659.787	2643
659.842	2166
659.897	3542
659.952	3827
660.007	2387
660.061	3097
660.116	1652
660.171	1819
660.226	2721
660.281	3614
660.336	2717
660.391	2785
660.445	1665
660.500	2832
660.555	1899
660.610	2123
660.664	2026
660.719	2487
660.774	2640
660.828	2779
660.883	2180
660.938	2103
660.992	1890
661.047	2175
661.101	1848
661.156	2294
661.211	2118
661.265	2061
661.320	2052
661.374	2334
661.429	2099
661.483	2310
661.538	1915
661.592	2436
661.647	2688
661.701	4495
661.755	4279
661.810	2424
661.864	2443
661.919	2528
661.973	2066
662.027	3093
662.081	1236
662.136	2633
662.190	2202
662.244	3471
662.299	1744
662.353	2768
662.407	1486
662.461	2363
662.515	2943
662.569	2074
662.624	2941
662.678	1952
662.732	2474
662.786	1579
662.840	3205
662.894	2148
662.948	1528
663.002	1832
663.056	1777
663.110	2267
663.164	1605
663.218	2564
663.272	1703
663.326	2725
663.380	2088
663.434	3075
663.488	1830
663.542	3024
663.595	2402
663.649	2531
663.703	2500
663.757	3016
663.811	1299
663.864	2477
663.918	2231
663.972	1970
664.026	2278
664.079	2212
664.133	1664
664.187	2927
664.240	1726
664.294	2645
664.348	2316
664.401	3013
664.455	2729
664.508	1998
664.562	2333
664.615	2484
664.669	1606
664.722	2386
664.776	2182
664.829	1927
664.883	2451
664.936	2146
664.990	1729
665.043	2033
665.097	2298
665.150	3467
665.203	1494
665.257	1723
665.310	2223
665.363	2241
665.417	2459
665.470	2431
665.523	2082
665.576	2741
665.630	2527
665.683	2510
665.736	2179
665.789	3157
665.842	2325
665.895	2101
665.949	3003
666.002	2573
666.055	2208
666.108	3374
666.161	2383
666.214	2772
666.267	2545
666.320	3182
666.373	3392
666.426	3217
666.479	2617
666.532	3249
666.585	2389
666.638	3648
666.691	2504
666.744	3298
666.796	3665
666.849	3866
666.902	3373
666.955	3034
667.008	2556
667.060	2180
667.113	2245
667.166	2666
667.219	2878
667.271	3403
667.324	2655
667.377	2722
667.430	3460
667.482	2831
667.535	3657
667.587	2804
667.640	2452
667.693	3085
667.745	3811
667.798	5449
667.850	3318
667.903	2249
667.955	2752
668.008	2520
668.060	2880
668.113	2159
668.165	3221
668.218	2891
668.270	2982
668.322	2796
668.375	2765
668.427	3604
668.479	1748
668.532	2248
668.584	2734
668.636	2902
668.689	2462
668.741	3046
668.793	2032
668.845	2138
668.898	3154
668.950	2605
669.002	2418
669.054	1892
669.106	2848
669.158	3406
669.211	3116
669.263	2861
669.315	3246
669.367	4105
669.419	3608
669.471	4449
669.523	3841
669.575	6978
669.627	5905
669.679	4073
669.731	3519
669.783	3086
669.835	4707
669.886	4692
669.938	3071
669.990	2674
670.042	2477
670.094	3135
670.146	3275
670.197	3306
670.249	3554
670.301	4650
670.353	5489
670.404	7479
670.456	10103
670.508	14663
670.560	22826
670.611	39021
670.663	65003
670.715	121276
670.766	324503
670.818	225014
670.869	31888
670.921	10627
670.972	7251
671.024	6531
671.075	4738
671.127	4873
671.178	3646
671.230	3716
671.281	4730
671.333	4649
671.384	4826
671.436	5267
671.487	7554
671.538	9885
671.590	13494
671.641	21082
671.692	33656
671.744	73872
671.795	92137
671.846	34124
671.897	11373
671.949	8035
672.000	5813
672.051	4244
672.102	3902
672.153	4483
672.204	2914
672.256	3432
672.307	3198
672.358	3444
672.409	2976
672.460	2871
672.511	2961
672.562	1947
672.613	2186
672.664	2819
672.715	2504
672.766	2938
672.817	1904
672.868	2116
672.919	1888
672.970	2882
673.021	2212
673.071	2252
673.122	2976
673.173	1963
673.224	2026
673.275	2002
673.326	1185
673.376	1566
673.427	958
673.478	2040
673.528	2803
673.579	2545
673.630	2000
673.680	2029
673.731	1920
673.782	1120
673.832	1458
673.883	2042
673.934	916
673.984	2436
674.035	2013
674.085	2220
674.136	1523
674.186	2758
674.237	2495
674.287	3179
674.338	3857
674.388	2540
674.438	1617
674.489	2062
674.539	2659
674.589	2495
674.640	1936
674.690	2619
674.740	1247
674.791	3124
674.841	2226
674.891	2088
674.942	1536
674.992	2090
675.042	1299
675.092	1416
675.142	1688
675.193	1160
675.243	1718
675.293	1785
675.343	2150
675.393	1584
675.443	2572
675.493	2285
675.543	1617
675.593	1833
675.643	1774
675.693	2266
675.743	1565
675.793	1840
675.843	909
675.893	2070
675.943	2758
675.993	741
676.043	1725
676.093	1842
676.142	422
676.192	2338
676.242	1077
676.292	1829
676.341	1551
676.391	1233
676.441	715
676.491	1130
676.540	722
676.590	1177
676.640	1494
676.689	981
676.739	194
676.789	1045
676.838	567
676.888	958
676.937	650
676.987	1089
677.037	1077
677.086	1114
677.136	1120
677.185	1316
677.235	1034
677.284	1309
677.333	1126
677.383	1055
677.432	1004
677.482	960
677.531	419
677.580	399
677.630	836
677.679	1426
677.728	881
677.778	1401
677.827	380
677.876	1545
677.925	-255
677.975	708
678.024	1426
678.073	858
678.122	1536
678.171	1344
678.220	912
678.269	2547
678.319	2133
678.368	2297
678.417	2133
678.466	1817
678.515	1466
678.564	818
678.613	1055
678.662	207
678.711	1361
678.760	1359
678.809	927
678.857	1361
678.906	1213
678.955	1120
679.004	1761
679.053	2232
679.102	1612
679.151	1703
679.199	1191
679.248	1034
679.297	1073
679.346	1619
679.394	1262
679.443	1223
679.492	1189
679.540	1042
679.589	554
679.638	1143
679.686	1109
679.735	1181
679.784	1178
679.832	1918
679.881	1727
679.929	1148
679.978	885
680.026	715
680.075	659
680.123	1875
680.172	-149
680.220	480
680.268	1028
680.317	1102
680.365	261
680.414	540
680.462	1187
680.510	1090
680.559	495
680.607	1458
680.655	300
680.703	1032
680.752	782
680.800	773
680.848	-32
680.896	717
680.945	265
680.993	1044
681.041	586
681.089	782
681.137	-194
681.185	-26
681.233	931
681.258	1234
681.281	1500
681.329	944
681.377	543
681.380	578
681.425	777
681.473	1705
681.502	988
681.521	455
681.569	1280
681.617	1210
681.624	1294
681.665	1663
681.713	1654
681.745	1826
681.761	1873
681.809	812
681.857	1880
681.867	1608
681.904	557
681.952	2240
681.989	1646
682.000	1447
682.048	866
682.096	1431
682.111	1273
682.143	844
682.191	1523
682.233	1535
682.239	1514
682.286	1302
682.334	1772
682.354	1765
682.382	1712
682.430	1625
682.476	1926
682.477	1912
682.525	3047
682.572	1289
682.598	1717
682.620	2057
682.667	1676
682.715	2392
682.720	2380
682.763	2091
682.810	1980
682.841	1825
682.857	1693
682.905	2137
682.952	1620
682.963	1739
683.000	2093
683.047	2497
683.085	2868
683.095	2947
683.142	2066
683.190	2780
683.206	2640
683.237	2344
683.284	2888
683.328	2413
683.332	2350
683.379	3206
683.426	2519
683.449	2562
683.473	2619
683.521	2478
683.568	2904
683.571	2921
683.615	2884
683.662	2981
683.693	2890
683.709	2805
683.757	3007
683.804	3225
683.814	3246
683.851	3271
683.898	2732
683.936	3105
683.945	3181
683.992	3568
684.039	3333
684.057	3160
684.086	2923
684.133	3478
684.179	3410
684.180	3387
684.227	3524
684.274	3543
684.300	3748
684.321	3882
684.368	3542
684.415	3797
684.422	3810
684.462	3808
684.509	3297
684.543	3613
684.556	3725
684.603	3906
684.649	3806
684.665	3907
684.696	4047
684.743	3719
684.786	3828
684.790	3834
684.837	3620
684.883	4042
684.908	4173
684.930	4310
684.977	4225
685.023	4980
685.029	4962
685.070	4469
685.117	4298
685.150	4227
685.164	4257
685.210	4203
685.257	5527
685.272	5373
685.303	4880
685.350	5090
685.393	4528
685.396	4491
685.443	5117
685.490	4927
685.514	5158
685.536	5268
685.583	4879
685.629	4926
685.636	4995
685.675	5311
685.722	5158
685.757	5277
685.768	5311
685.815	5342
685.861	4957
685.878	5121
685.908	5469
685.954	4471
686.000	5518
686.000	5532
686.047	5889
686.093	6704
686.121	6762
686.139	6731
686.185	6523
686.232	6553
686.242	6675
686.278	6566
686.324	5667
686.363	5475
686.370	5499
686.416	4996
686.463	5596
686.484	5488
686.509	5447
686.555	5414
686.601	5506
686.606	5583
686.647	6098
686.693	5170
686.727	5464
686.739	5573
686.785	5434
686.831	5571
686.848	5551
686.877	5582
686.923	5609
686.969	5359
686.969	5355
687.015	5278
687.061	5960
687.090	5961
687.107	6033
687.153	6195
687.199	6108
687.211	6171
687.245	6157
687.291	5699
687.332	5741
687.336	5775
687.382	6215
687.428	6739
687.453	6563
687.474	6251
687.520	6237
687.565	6726
687.574	6518
687.611	6046
687.657	6786
687.695	7019
687.702	7161
687.748	8515
687.794	10033
687.816	10966
687.839	11623
687.885	10284
687.931	10774
687.937	10817
687.976	9506
688.022	8041
688.058	6925
688.067	6955
688.113	6774
688.158	6601
688.179	6727
688.204	6846
688.249	6842
688.295	6619
688.300	6642
688.340	7088
688.386	7443
688.421	7106
688.431	6920
688.477	7151
688.522	6736
688.542	6709
688.567	6945
688.613	7147
688.658	7370
688.663	7364
688.703	7086
688.749	6729
688.784	7054
688.794	7222
688.839	7189
688.884	7620
688.905	7613
688.930	7354
688.975	6998
689.020	7365
689.026	7282
689.065	7113
689.110	7178
689.146	7343
689.155	7403
689.201	7346
689.246	7472
689.267	7763
689.291	7908
689.336	7430
689.381	7409
689.388	7331
689.426	7148
689.471	7764
689.509	7366
689.516	7313
689.561	7558
689.606	7217
689.630	7482
689.651	7623
689.696	7508
689.741	7627
689.750	7587
689.785	7817
689.830	7715
689.871	8072
689.875	8077
689.920	7822
689.965	7597
689.992	7441
690.010	7428
690.054	7120
690.099	7652
690.112	7597
690.144	7547
690.189	7565
690.233	7111
690.233	7121
690.278	7665
690.323	7712
690.354	7679
690.367	7659
690.412	7405
690.457	7410
690.474	7368
690.501	7395
690.546	7688
690.590	7904
690.595	7882
690.635	7766
690.680	7357
690.716	7626
690.724	7791
690.769	8540
690.813	9102
690.836	9196
690.857	9220
690.902	9417
690.946	9931
690.957	9929
690.991	11351
691.035	14007
691.077	16675
691.080	16868
691.124	19008
691.168	21107
691.198	22413
691.213	21343
691.257	18920
691.301	15753
691.318	14733
691.346	13895
691.390	11923
691.434	10159
691.439	9929
691.478	9528
691.522	9377
691.559	9118
691.567	9165
691.611	9434
691.655	9304
691.680	9620
691.699	9698
691.743	9360
691.787	9103
691.800	9009
691.831	8954
691.875	8934
691.919	8601
691.921	8586
691.964	9059
692.008	9436
692.041	9474
692.052	9422
692.096	9588
692.139	9583
692.162	9379
692.183	9268
692.227	9391
692.271	9580
692.282	9555
692.315	9351
692.359	8986
692.402	8931
692.403	8953
692.447	8842
692.490	9574
692.523	9682
692.534	9692
692.578	9651
692.622	9660
692.643	9827
692.666	9913
692.709	9532
692.753	9444
692.763	9337
692.797	9091
692.840	9153
692.884	8981
692.884	9001
692.928	9108
692.971	9252
693.004	9533
693.015	9638
693.059	9428
693.102	9527
693.124	9493
693.146	9515
693.189	9707
693.233	9750
693.245	9728
693.276	10070
693.320	10451
693.363	11188
693.365	11195
693.407	11350
693.450	10695
693.485	10681
693.493	10904
693.537	11615
693.580	12458
693.605	13029
693.624	13495
693.667	14233
693.710	15191
693.725	15486
693.753	18488
693.797	23156
693.840	28055
693.845	28614
693.883	34158
693.926	39280
693.966	44291
693.970	43579
694.013	35253
694.056	27137
694.086	21564
694.099	20779
694.142	17629
694.185	14868
694.206	13495
694.229	13208
694.272	12524
694.315	11983
694.326	11809
694.358	11936
694.401	11785
694.444	12111
694.446	12080
694.487	11817
694.530	11594
694.566	11459
694.573	11422
694.616	10962
694.659	10572
694.686	10236
694.702	10190
694.745	10060
694.787	9757
694.806	9682
694.830	9898
694.873	10106
694.916	10522
694.926	10607
694.959	10563
695.002	10070
695.044	9778
695.046	9745
695.087	10241
695.130	10598
695.166	10921
695.172	10966
695.215	11128
695.258	11257
695.286	11247
695.301	11259
695.343	11416
695.386	11350
695.406	11434
695.428	11451
695.471	11130
695.514	10928
695.526	10778
695.556	11101
695.599	11954
695.641	12453
695.646	12498
695.684	12400
695.726	12072
695.766	11918
695.769	11953
695.811	12032
695.854	11899
695.886	11822
695.896	11811
695.938	11574
695.981	11538
696.005	11462
696.023	11546
696.065	11518
696.108	11678
696.125	11662
696.150	11788
696.192	12074
696.235	12150
696.245	12184
696.277	12370
696.319	12498
696.361	12816
696.365	12787
696.404	12778
696.446	12899
696.485	12789
696.488	12805
696.530	12737
696.572	12619
696.604	12622
696.614	12694
696.656	12586
696.698	12619
696.724	12611
696.740	12499
696.783	12165
696.825	11657
696.844	11487
696.867	11814
696.909	12292
696.951	12654
696.964	12783
696.992	12922
697.034	12982
697.076	13063
697.083	13054
697.118	13018
697.160	12817
697.202	12776
697.203	12738
697.244	12789
697.286	12829
697.323	12827
697.327	12868
697.369	12978
697.411	13013
697.442	13095
697.453	13129
697.494	13013
697.536	12947
697.562	12860
697.578	13004
697.620	13304
697.661	13543
697.682	13666
697.703	13860
697.744	14142
697.786	14414
697.801	14474
697.828	14708
697.869	14988
697.911	15308
697.921	15355
697.952	15276
697.994	15040
698.035	14854
698.040	14783
698.077	14479
698.118	14147
698.160	13801
698.160	13761
698.201	13832
698.243	13925
698.279	14025
698.284	14089
698.325	14226
698.367	14431
698.399	14530
698.408	14554
698.449	14486
698.491	14409
698.518	14351
698.532	14449
698.573	14583
698.614	14745
698.638	14784
698.656	14860
698.697	14965
698.738	15050
698.757	15063
698.779	15016
698.820	14827
698.862	14632
698.877	14520
698.903	14759
698.944	15089
698.985	15408
698.996	15457
699.026	15598
699.067	15733
699.116	15853
699.235	14619
699.354	15595
699.474	15567
699.593	14969
699.713	16612
699.832	14171
699.951	16166
700.070	15757
700.190	15064
700.309	14837
700.428	14868
700.547	16034
700.667	14886
700.786	15322
700.905	14791
701.024	13573
701.143	15027
701.262	12959
701.381	13280
701.500	13432
701.619	14516
701.738	14182
701.857	13255
701.976	13349
702.095	12610
702.214	13329
702.333	14861
702.452	13405
702.571	12343
702.690	13580
702.809	13589
702.928	13008
703.047	14001
703.165	11565
703.284	12541
703.403	12125
703.522	13501
703.640	14072
703.759	13941
703.878	17963
703.997	15879
704.115	12586
704.234	12975
704.353	13185
704.471	12149
704.590	11248
704.708	11516
704.827	10617
704.946	10536
705.064	10984
705.183	11138
705.301	11940
705.420	15380
705.538	15250
705.656	13857
705.775	13327
705.893	17817
706.012	36315
706.130	18064
706.249	13704
706.367	13218
706.485	13293
706.604	13919
706.722	13012
706.840	16724
706.958	23131
707.077	28489
707.195	14304
707.313	12423
707.431	11453
707.549	11396
707.668	12215
707.786	11881
707.904	11315
708.022	11082
708.140	11247
708.258	12237
708.376	11480
708.494	11193
708.612	11389
708.730	15201
708.848	16492
708.966	15169
709.084	14280
709.202	13491
709.320	12417
709.438	11839
709.556	13935
709.674	12815
709.791	12967
709.909	11930
710.027	12617
710.145	12824
710.263	12177
710.380	13446
710.498	11780
710.616	12013
710.733	12583
710.851	12306
710.969	13893
711.086	13086
711.204	12463
711.322	12169
711.439	11988
711.557	13112
711.674	12040
711.792	11945
711.909	12137
712.027	13845
712.144	11891
712.262	11288
712.379	12065
712.497	14881
712.614	16225
712.732	14947
712.849	13294
712.966	13891
713.084	17243
713.201	15520
713.318	14004
713.436	14188
713.553	13957
713.670	15477
713.787	16222
713.905	17014
714.022	15437
714.139	14905
714.256	18658
714.373	25823
714.490	43438
714.608	92719
714.725	367151
714.842	1222313
714.959	223179
715.076	30910
715.193	20690
715.310	18410
715.427	14826
715.544	13366
715.661	12753
715.778	12580
715.895	12086
716.011	13583
716.128	13858
716.245	11721
716.362	14025
716.479	14905
716.596	12317
716.713	13359
716.829	12137
716.946	12956
717.063	10796
717.180	10955
717.296	10795
717.413	10451
717.530	9809
717.646	10807
717.763	10054
717.880	10007
717.996	10303
718.113	9496
718.229	10120
718.346	10786
718.462	9467
718.579	11722
718.695	14829
718.812	17739
718.928	13625
719.045	13925
719.161	9071
719.277	10222
719.394	10755
719.510	9727
719.626	10948
719.743	13338
719.859	20340
719.975	34317
720.092	106231
720.208	470500
720.324	268424
720.440	22098
720.557	12545
720.673	14988
720.789	20624
720.905	31819
721.021	35236
721.137	10196
721.253	9040
721.369	9824
721.486	9596
721.602	12882
721.718	11621
721.834	7933
721.950	7869
722.066	8270
722.181	8035
722.297	8207
722.413	8202
722.529	7903
722.645	8240
722.761	8002
722.877	8102
722.993	8213
723.108	10310
723.224	12410
723.340	9303
723.456	7698
723.571	7785
723.687	8028
723.803	7216
723.918	6768
724.034	7251
724.150	7012
724.265	7994
724.381	10473
724.497	25004
724.612	10469
724.728	7179
724.843	7148
724.959	6943
725.074	11116
725.190	23222
725.305	10684
725.421	7908
725.536	7351
725.651	6749
725.767	6756
725.882	6281
725.997	6592
726.113	6464
726.228	6631
726.343	6669
726.459	6199
726.574	6296
726.689	7156
726.804	6725
726.920	7002
727.035	6609
727.150	6409
727.265	6481
727.380	6786
727.495	7347
727.610	6723
727.725	7075
727.841	6533
727.956	10063
728.071	16961
728.186	7460
728.301	6236
728.416	6373
728.531	7287
728.645	5525
728.760	5918
728.875	8294
728.990	8701
729.105	7860
729.220	6345
729.335	6355
729.449	6262
729.564	5818
729.679	4926
729.794	4762
729.908	6653
730.023	5953
730.138	5658
730.253	5274
730.367	5392
730.482	4711
730.596	5304
730.711	5576
730.826	7405
730.940	10593
731.055	8121
731.169	6054
731.284	5997
731.398	6082
731.513	6692
731.627	7841
731.742	7831
731.856	10981
731.970	9146
732.085	11022
732.199	14361
732.313	24149
732.428	54293
732.542	180860
732.656	335948
732.771	61866
732.885	17791
732.999	12808
733.113	10920
733.227	10577
733.342	9254
733.456	8568
733.570	8337
733.684	7400
733.798	8034
733.912	7122
734.026	7046
734.140	7721
734.254	8109
734.368	8528
734.482	16093
734.596	8598
734.710	7724
734.824	6546
734.938	6683
735.052	6712
735.166	7663
735.280	7822
735.393	7187
735.507	6641
735.621	7562
735.735	11389
735.849	12484
735.962	5955
736.076	7352
736.190	8245
736.303	7424
736.417	11372
736.531	8062
736.644	6492
736.758	5825
736.872	5407
736.985	6232
737.099	6250
737.212	5452
737.326	6394
737.439	5659
737.553	6559
737.666	6599
737.780	6444
737.893	5813
738.007	4735
738.120	6242
738.233	5441
738.347	6003
738.460	5598
738.573	6165
738.687	5772
738.800	6105
738.913	6575
739.026	6975
739.140	5629
739.253	6867
739.366	5156
739.479	4956
739.592	4992
739.705	4653
739.818	5301
739.932	5789
740.045	4790
740.158	5857
740.271	4798
740.384	5884
740.497	6231
740.610	7302
740.723	6459
740.836	6790
740.949	7783
741.062	7818
741.174	8056
741.287	5829
741.400	6879
741.513	5955
741.626	7463
741.739	8330
741.851	5954
741.964	6341
742.077	5498
742.189	6099
742.302	8414
742.415	10187
742.527	7282
742.640	5068
742.753	4378
742.865	4002
742.978	4219
743.090	5006
743.203	4194
743.316	4723
743.428	3998
743.541	4927
743.653	4101
743.766	4396
743.878	4558
743.990	4621
744.103	6949
744.215	7777
744.327	7342
744.440	5262
744.552	6375
744.664	6873
744.777	4060
744.889	4155
745.001	4084
745.113	3500
745.226	3360
745.338	4224
745.450	3860
745.562	4194
745.674	3489
745.786	4460
745.898	3731
746.010	3955
746.122	4359
746.234	3678
746.347	3958
746.459	4036
746.570	3500
746.682	4871
746.794	8948
746.906	8875
747.018	4157
747.130	3631
747.242	3785
747.354	4116
747.466	4044
747.577	3970
747.689	3808
747.801	4262
747.913	3091
748.024	3366
748.136	3348
748.248	3994
748.359	3434
748.471	3500
748.583	3684
748.694	3245
748.806	5138
748.918	4095
749.029	4583
749.141	4199
749.252	4935
749.364	3769
749.475	6743
749.587	8095
749.698	4467
749.809	3433
749.921	3598
750.032	2837
750.144	2715
750.255	2920
750.366	3570
750.478	3080
750.589	2823
750.700	3149
750.811	3957
750.923	3890
751.034	5165
751.145	11029
751.256	4439
751.367	3575
751.479	2097
751.590	2459
751.701	3069
751.812	3198
751.923	1991
752.034	3304
752.145	2389
752.256	3418
752.367	2664
752.478	2670
752.589	2485
752.700	3644
752.811	2368
752.922	3081
753.032	2438
753.143	3967
753.254	3432
753.365	3123
753.476	3875
753.586	2754
753.697	2380
753.808	3206
753.919	2061
754.029	2598
754.140	3007
754.251	2865
754.361	2859
754.472	3131
754.582	2668
754.693	3703
754.804	2843
754.914	2509
755.025	2330
755.135	2842
755.246	2755
755.356	2524
755.466	2659
755.577	2623
755.687	2884
755.798	3147
755.908	2675
756.018	2538
756.129	2622
756.239	2445
756.349	2626
756.460	2510
756.570	3816
756.680	3578
756.790	3166
756.900	4562
757.011	2770
757.121	3008
757.231	2261
757.341	3299
757.451	2084
757.561	2559
757.671	2721
757.781	2314
757.891	2472
758.001	2368
758.111	2643
758.221	3416
758.331	3505
758.441	4126
758.551	4212
758.661	6148
758.771	3345
758.880	4186
758.990	3506
759.100	3316
759.210	2849
759.320	3352
759.429	3881
759.539	4190
759.649	4418
759.758	5143
759.868	5339
759.978	5748
760.087	5335
760.197	6200
760.307	5850
760.416	5893
760.526	4636
760.635	5430
760.745	5022
760.854	6549
760.964	7485
761.073	7237
761.182	6908
761.292	6132
761.401	5607
761.511	4849
761.620	3860
761.729	4360
761.839	3146
761.948	3535
762.057	4323
762.166	4836
762.276	3728
762.385	3890
762.494	3947
762.603	4021
762.712	3677
762.822	4504
762.931	3381
763.040	3134
763.149	3332
763.258	4575
763.367	3918
763.476	4769
763.585	3720
763.694	4195
763.803	4107
763.912	4475
764.021	4457
764.130	4333
764.238	5218
764.347	4763
764.456	5510
764.565	5840
764.674	4998
764.783	6513
764.891	6024
765.000	8017
765.109	6946
765.217	7907
765.326	9203
765.435	12185
765.543	12871
765.652	15346
765.761	18199
765.869	26949
765.978	38766
766.086	64673
766.195	120395
766.303	257661
766.412	634291
766.520	905082
766.629	542438
766.737	183078
766.846	87016
766.954	52316
767.062	36876
767.171	28213
767.279	22795
767.387	16787
767.496	13924
767.604	12673
767.712	10357
767.820	9353
767.928	8951
768.037	7739
768.145	7611
768.253	8166
768.361	7127
768.469	6968
768.577	6799
768.685	7525
768.793	7199
768.901	8707
769.009	10152
769.117	10429
769.225	13115
769.333	18134
769.441	26529
769.549	45501
769.657	93180
769.765	241609
769.873	643976
769.981	597444
770.088	176597
770.196	60831
770.304	35207
770.412	23784
770.519	17405
770.627	13515
770.735	10885
770.842	9427
770.950	8800
771.058	7504
771.165	7452
771.273	7144
771.380	6442
771.488	6458
771.595	6731
771.703	6296
771.810	7201
771.918	6010
772.025	6149
772.133	6458
772.240	5680
772.348	6094
772.455	6871
772.562	6105
772.670	5444
772.777	5219
772.884	5139
772.991	5942
773.099	5684
773.206	4776
773.313	5356
773.420	5203
773.528	4076
773.635	5054
773.742	5749
773.849	5288
773.956	5256
774.063	5486
774.170	4776
774.277	4387
774.384	5082
774.491	4497
774.598	4267
774.705	4255
774.812	4584
774.919	4735
775.026	4777
775.133	4424
775.239	4371
775.346	4640
775.453	4400
775.560	3957
775.667	3129
775.773	4181
775.880	4427
775.987	4028
776.093	3625
776.200	4014
776.307	3241
776.413	3757
776.520	3703
776.627	4369
776.733	3545
776.840	4169
776.946	4487
777.053	6967
777.159	13466
777.266	16638
777.372	11687
777.478	16036
777.585	11165
777.691	4911
777.798	3849
777.904	5400
778.010	4358
778.117	6669
778.223	3971
778.329	3417
778.435	3123
778.542	3677
778.648	3146
778.754	3324
778.860	2920
778.966	3916
779.072	3839
779.178	3194
779.284	3397
779.391	3054
779.497	2730
779.603	3741
779.708	3589
779.815	5494
779.920	10708
780.026	38362
780.132	24834
780.238	4201
780.344	3056
780.450	3824
780.556	3854
780.661	2767
780.767	2817
780.873	2714
780.979	2172
781.085	2321
781.190	3658
781.296	2972
781.402	2166
781.507	2492
781.613	2458
781.719	2155
781.824	2805
781.930	3286
782.035	2562
782.141	2868
782.246	2276
782.352	3159
782.457	2445
782.563	3309
782.668	2437
782.773	3056
782.879	2406
782.984	3149
783.090	3510
783.195	3520
783.300	4788
783.405	3158
783.511	3083
783.616	2482
783.721	3058
783.826	3498
783.932	2933
784.037	3099
784.142	3058
784.247	2790
784.352	2558
784.457	2925
784.562	2669
784.667	2565
784.772	2318
784.877	2145
784.982	2573
785.087	2875
785.192	1560
785.297	2220
785.402	1875
785.507	2902
785.611	2882
785.716	2106
785.821	2450
785.926	2102
786.031	2013
786.135	1529
786.240	2722
786.345	1657
786.450	1369
786.554	2125
786.659	2278
786.763	1145
786.868	2808
786.973	1507
787.077	1492
787.182	1778
787.286	2099
787.391	2089
787.495	1598
787.600	1529
787.704	1149
787.809	1978
787.913	1531
788.017	2613
788.122	1777
788.226	1920
788.330	1480
788.435	1933
788.539	1951
788.643	2706
788.747	875
788.852	1929
788.956	1748
789.060	1528
789.164	1842
789.268	771
789.372	1626
789.476	2054
789.580	777
789.684	1997
789.788	1721
789.892	1754
789.996	1087
790.100	1806
790.204	1415
790.308	2028
790.412	1580
790.516	1315
790.620	1626
790.724	2144
790.828	1826
790.931	1504
791.035	1379
791.139	1464
791.242	947
791.346	2255
791.450	1214
791.554	1733
791.657	157
791.761	1662
791.864	2939
791.968	1891
792.072	1880
792.175	1921
792.279	1695
792.382	2295
792.486	1806
792.589	929
792.693	2179
792.796	1854
792.899	2099
793.003	1694
793.106	858
793.209	2418
793.313	2724
793.416	1160
793.519	1086
793.623	1906
793.726	3871
793.829	3904
793.932	1619
794.035	1164
794.138	2471
794.242	2238
794.345	2001
794.448	2766
794.551	3445
794.654	7547
794.757	17470
794.860	13766
794.963	3953
795.066	1228
795.169	1679
795.272	529
795.375	1049
795.477	2025
795.580	589
795.683	750
795.786	1513
795.889	1018
795.991	2202
796.094	1456
796.197	1598
796.300	1143
796.402	816
796.505	1421
796.608	1020
796.710	829
796.813	1316
796.915	2222
797.018	1987
797.120	1309
797.223	791
797.326	1794
797.428	1540
797.530	738
797.633	596
797.735	2332
797.838	2437
797.940	3699
798.042	1387
798.145	887
798.247	815
798.349	213
798.452	559
798.554	1927
798.656	1085
798.758	2099
798.860	1586
798.962	1099
799.065	964
799.167	554
799.269	1503
799.371	2247
799.473	2182
799.575	2407
799.677	2874
799.779	1909
799.881	1695
799.983	3330
800.085	716
800.187	351
800.289	414
800.390	1344
800.492	1149
800.594	1920
800.696	1313
800.798	1048
800.899	669
801.001	1492
801.103	1318
801.205	566
801.306	316
801.408	744
801.509	629
801.611	551
801.713	1361
801.814	250
801.916	672
802.017	1139
802.119	323
802.220	740
802.322	148
802.423	2340
802.525	1709
802.626	314
802.727	159
802.829	1394
802.930	-188
803.031	1037
803.133	152
803.234	-93
803.335	1173
803.436	629
803.538	743
803.639	816
803.740	1044
803.841	-429
803.942	60
804.043	325
804.144	-16
804.245	842
804.346	544
804.447	84
804.548	1394
804.649	2817
804.750	928
804.851	770
804.952	132
805.053	859
805.154	59
805.255	372
805.355	907
805.456	-357
805.557	-45
805.658	-53
805.758	303
805.859	733
805.960	-296
806.061	-114
806.161	841
806.262	675
806.362	556
806.463	830
806.564	728
806.664	916
806.765	461
806.865	1183
806.966	881
807.066	634
807.166	1356
807.267	1515
807.367	386
807.468	644
807.568	-135
807.668	658
807.769	120
807.869	878
807.969	611
808.069	678
808.170	72
808.270	503
808.370	395
808.470	1411
808.570	1289
808.670	1071
808.770	550
808.870	80
808.970	446
809.070	177
809.170	336
809.271	1141
809.370	262
809.470	1314
809.570	285
809.670	-110
809.770	-11
809.870	-68
809.970	493
810.070	-693
810.169	822
810.269	-292
810.369	481
810.469	984
810.568	-108
810.668	259
810.768	289
810.867	766
810.967	154
811.066	655
811.166	72
811.265	139
811.365	-137
811.464	177
811.564	-232
811.663	914
811.763	-41
811.862	810
811.962	592
812.061	27
812.160	512
812.260	316
812.359	463
812.458	475
812.557	953
812.657	3028
812.756	1721
812.855	1380
812.954	-424
813.053	472
813.153	890
813.252	222
813.351	-27
813.450	165
813.549	473
813.648	767
813.747	234
813.846	1295
813.945	765
814.044	722
814.143	1015
814.242	660
814.341	421
814.439	944
814.538	937
814.637	719
814.736	88
814.835	1347
814.933	1163
815.032	1469
815.131	981
815.229	2197
815.328	3287
815.427	2890
815.525	2606
815.624	2543
815.722	1622
815.821	2710
815.919	2606
816.018	2072
816.116	3109
816.215	3272
816.313	3121
816.412	3425
816.510	3046
816.609	4161
816.707	3924
816.805	5292
816.904	4121
817.002	5034
817.100	5781
817.198	5223
817.296	6027
817.395	6426
817.493	7163
817.591	7485
817.689	9886
817.787	13092
817.885	18571
817.983	32086
818.081	60030
818.179	139780
818.277	332988
818.375	618126
818.473	290930
818.571	79784
818.669	40367
818.767	31114
818.865	28202
818.963	30402
819.061	37709
819.158	62114
819.256	118660
819.354	259552
819.452	599912
819.549	841571
819.647	350861
819.745	111284
819.842	54085
819.940	34517
820.038	25585
820.135	19400
820.233	14593
820.330	11679
820.428	9859
820.525	8146
820.623	8071
820.720	7164
820.818	6074
820.915	5528
821.012	5709
821.110	4815
821.207	4888
821.304	3856
821.402	4247
821.499	5603
821.596	7441
821.693	7339
821.791	4834
821.888	3906
821.985	4757
822.082	6254
822.179	4316
822.276	4803
822.373	4543
822.470	2706
822.567	2144
822.664	2003
822.761	2927
822.858	2177
822.955	2201
823.052	1515
823.149	1490
823.246	2087
823.343	2259
823.440	1535
823.536	969
823.633	1549
823.730	1798
823.827	1234
823.923	1790
824.020	2427
824.117	1561
824.213	3002
824.310	3623
824.407	2556
824.503	1982
824.600	1436
824.696	1862
824.793	2356
824.889	1540
824.986	1815
825.082	1143
825.179	1446
825.275	1204
825.371	1882
825.468	1423
825.564	1197
825.660	721
825.757	900
825.853	2302
825.949	1581
826.045	942
826.142	533
826.238	1336
826.334	802
826.430	1167
826.526	917
826.622	687
826.718	383
826.814	879
826.910	1454
827.006	771
827.102	23
827.198	936
827.294	1006
827.390	1790
827.486	1605
827.582	388
827.678	-35
827.774	1476
827.869	417
827.965	898
828.061	1080
828.157	549
828.252	1437
828.348	978
828.444	1298
828.539	507
828.635	131
828.731	544
828.826	614
828.922	167
829.017	1263
829.113	1409
829.208	1150
829.304	951
829.399	1443
829.495	1856
829.590	1229
829.685	635
829.781	791
829.876	886
829.971	847
830.066	550
830.162	40
830.257	1103
830.352	1109
830.447	1047
830.543	661
830.638	819
830.733	1759
830.828	-167
830.923	1157
831.018	1067
831.113	707
831.208	932
831.303	903
831.398	-359
831.493	466
831.588	551
831.683	588
831.778	899
831.873	645
831.967	940
832.062	276
832.157	490
832.252	770
832.346	55
832.441	453
832.536	1938
832.631	2338
832.725	3169
832.820	1636
832.914	709
833.009	686
833.104	465
833.198	1550
833.293	458
833.387	1498
833.482	715
833.576	-334
833.670	691
833.765	1281
833.859	1340
833.954	2062
834.048	1015
834.142	391
834.237	492
834.331	620
834.425	324
834.519	295
834.613	87
834.708	347
834.802	-169
834.896	200
834.990	1320
835.084	991
835.178	-406
835.272	935
835.366	457
835.460	951
835.554	202
835.648	512
835.742	-256
835.836	-130
835.930	-351
836.024	53
836.117	625
836.211	607
836.305	451
836.399	525
836.493	1016
836.586	1169
836.680	390
836.774	657
836.867	591
836.961	-43
837.055	-500
837.148	272
837.242	-637
837.335	-99
837.429	29
837.522	-167
837.616	242
837.709	2345
837.803	1604
837.896	512
837.989	430
838.083	893
838.176	712
838.269	2348
838.363	1495
838.456	1190
838.549	328
838.642	1300
838.735	2628
838.829	3397
838.922	879
839.015	107
839.108	-44
839.201	-503
839.294	-669
839.387	119
839.480	118
839.573	6
839.666	422
839.759	1056
839.852	-66
839.945	630
840.038	286
840.131	139
840.223	99
840.316	892
840.409	-383
840.502	-458
840.594	467
840.687	-817
840.780	-877
840.873	75
840.965	-110
841.058	975
841.150	1288
841.243	2050
841.336	693
841.428	-361
841.521	-94
841.613	-423
841.706	572
841.798	-72
841.890	-97
841.983	-390
842.075	289
842.167	283
842.260	284
842.352	508
842.444	1101
842.537	1981
842.629	4182
842.721	2494
842.813	-44
842.905	-444
842.997	-402
843.090	-172
843.182	724
843.274	1204
843.366	4695
843.458	8883
843.550	14057
843.642	4410
843.734	-100
843.826	90
843.918	707
844.009	640
844.101	208
844.193	30
844.285	633
844.377	1397
844.469	2101
844.560	2969
844.652	3883
844.744	2529
844.835	314
844.927	-76
845.019	203
845.110	514
845.202	311
845.293	-488
845.385	-84
845.476	-247
845.568	330
845.659	221
845.751	-388
845.842	27
845.934	-472
846.025	182
846.116	-419
846.208	531
846.299	-460
846.390	255
846.482	240
846.573	398
846.664	349
846.755	380
846.846	1574
846.937	441
847.029	23
847.120	-160
847.211	-242
847.302	753
847.393	37
847.484	578
847.575	-463
847.666	-17
847.757	-340
847.847	-735
847.938	-68
848.029	-258
848.120	-87
848.211	-409
848.302	-295
848.392	-196
848.483	-378
848.574	48
848.664	103
848.755	-48
848.846	1025
848.936	360
849.027	250
849.118	482
849.208	268
849.299	2628
849.389	4690
849.480	9456
849.570	22679
849.661	44138
849.751	90679
849.841	96730
849.932	17924
850.022	2772
850.112	2577
850.203	1065
850.293	878
850.383	611
850.474	228
850.564	609
850.654	330
850.744	712
850.834	76
850.924	-359
851.014	205
851.104	129
851.194	313
851.284	-26
851.374	1155
851.464	22
851.554	728
851.644	852
851.734	1076
851.824	1341
851.914	261
852.004	1205
852.094	786
852.183	-331
852.273	433
852.363	120
852.452	102
852.542	-201
852.632	-282
852.721	592
852.811	-622
852.901	847
852.990	650
853.080	1087
853.169	937
853.259	1597
853.348	2091
853.438	2417
853.527	4965
853.617	7403
853.706	14613
853.795	26195
853.885	56612
853.974	121327
854.063	201790
854.152	392878
854.242	383891
854.331	96584
854.420	22342
854.509	10588
854.598	7945
854.687	5300
854.777	4280
854.866	3351
854.955	3179
855.044	979
855.133	1183
855.222	833
855.311	703
855.400	1344
855.488	657
855.577	632
855.666	493
855.755	2186
855.844	474
855.933	764
856.021	1132
856.110	500
856.199	-535
856.288	458
856.376	-225
856.465	145
856.554	-38
856.642	-604
856.731	155
856.819	416
856.908	-60
856.996	-109
857.085	-297
857.173	174
857.262	-763
857.350	113
857.438	-105
857.527	-225
857.615	-400
857.703	441
857.792	-597
857.880	-199
857.968	-383
858.056	-470
858.145	74
858.233	978
858.321	-234
858.409	532
858.497	-645
858.585	-687
858.673	-271
858.761	-1266
858.849	-167
858.937	-430
859.025	-694
859.113	-28
859.201	-521
859.289	720
859.377	400
859.465	484
859.552	-316
859.640	-330
859.728	-397
859.816	97
859.903	-59
859.991	-655
860.079	-340
860.166	-3
860.254	-503
860.342	-778
860.429	-1300
860.517	79
860.604	-894
860.692	-659
860.779	-439
860.867	-901
860.954	-619
861.042	143
861.129	-496
861.216	660
861.304	-769
861.391	-345
861.478	-293
861.565	294
861.653	-32
861.740	-1407
861.827	-582
861.914	-4
862.001	-530
862.089	-60
862.176	-503
862.263	-536
862.350	-472
862.437	-430
862.524	-525
862.611	-953
862.698	-165
862.785	483
862.871	853
862.958	172
863.045	-318
863.132	703
863.219	-419
863.306	-939
863.392	-252
863.479	-73
863.566	-902
863.652	-176
863.739	69
863.826	-180
863.912	-526
863.999	-42
864.086	266
864.172	118
864.259	-753
864.345	-107
864.432	-186
864.518	-179
864.604	-108
864.691	456
864.777	905
864.863	897
864.950	1482
865.036	1056
865.122	2754
865.209	3433
865.295	4026
865.381	3482
865.467	4932
865.553	6346
865.639	8975
865.726	15090
865.812	29547
865.898	62127
865.984	107775
866.070	153430
866.156	292618
866.242	194049
866.328	38787
866.414	11718
866.499	6974
866.585	5722
866.671	4761
866.757	3529
866.843	3837
866.928	3331
867.014	2422
867.100	2921
867.186	1271
867.271	3172
867.357	2182
867.442	2682
867.528	2540
867.614	2550
867.699	1836
867.785	2974
867.870	3552
867.956	4529
868.041	5764
868.127	3712
868.212	4042
868.297	4608
868.383	2414
868.468	1969
868.553	3096
868.639	3823
868.724	3390
868.809	5336
868.894	3350
868.979	1810
869.065	1565
869.150	682
869.235	744
869.320	1215
869.405	633
869.490	588
869.575	963
869.660	498
869.745	83
869.830	589
869.915	1417
870.000	628
870.085	556
870.169	1554
870.254	2225
870.339	777
870.424	365
870.509	579
870.593	-260
870.678	1012
870.763	942
870.847	840
870.932	900
871.016	1284
871.101	1693
871.186	722
871.270	388
871.355	1394
871.439	17
871.523	801
871.608	764
871.692	196
871.777	1048
871.861	1407
871.945	1406
872.030	917
872.114	750
872.198	321
872.282	200
872.367	806
872.451	550
872.535	921
872.619	538
872.703	1214
872.787	61
872.871	1002
872.955	182
873.039	-58
873.123	-325
873.207	1365
873.291	682
873.375	-141
873.459	413
873.543	591
873.627	392
873.711	545
873.794	719
873.878	433
873.962	322
874.045	313
874.129	654
874.137	715
874.213	1326
874.245	1158
874.296	885
874.352	583
874.380	438
874.460	446
874.464	446
874.547	957
874.568	923
874.631	842
874.676	628
874.714	442
874.784	94
874.798	31
874.881	901
874.892	789
874.965	10
874.999	97
875.048	172
875.107	414
875.131	532
875.215	979
875.215	978
875.298	207
875.323	95
875.381	-186
875.430	280
875.465	603
875.538	1039
875.548	1094
875.631	350
875.646	314
875.714	150
875.753	-32
875.798	-185
875.861	36
875.881	102
875.964	431
875.968	388
876.047	-443
876.076	-339
876.130	-138
876.183	441
876.213	794
876.291	617
876.296	590
876.379	971
876.398	806
876.462	431
876.506	709
876.545	895
876.613	482
876.628	406
876.711	235
876.721	295
876.794	835
876.828	997
876.877	1078
876.935	873
876.960	871
877.043	994
877.043	992
877.125	493
877.150	768
877.208	1521
877.258	1861
877.291	1957
877.365	1419
877.374	1367
877.456	1406
877.472	1512
877.539	1921
877.579	1881
877.622	1889
877.687	1690
877.704	1632
877.787	1839
877.794	1815
877.869	1526
877.901	1468
877.952	1375
878.008	888
878.034	664
878.115	792
878.117	795
878.199	759
878.222	642
878.282	333
878.329	985
878.364	1528
878.437	1394
878.447	1345
878.529	723
878.544	658
878.611	513
878.651	602
878.694	772
878.758	889
878.776	860
878.858	968
878.865	966
878.941	980
878.972	733
879.023	391
879.078	120
879.105	34
879.185	978
879.187	998
879.269	895
879.292	956
879.351	908
879.399	330
879.433	-53
879.506	622
879.516	709
879.598	64
879.613	67
879.680	460
879.720	279
879.762	-48
879.827	312
879.844	381
879.926	893
879.933	862
880.007	697
880.040	716
880.089	659
880.147	572
880.171	621
880.253	1355
880.254	1354
880.335	1198
880.360	1521
880.417	2370
880.467	2478
880.499	2857
880.574	5782
880.580	5919
880.662	4505
880.680	3786
880.744	1073
880.787	564
880.825	331
880.893	-25
880.907	-31
880.989	211
881.000	203
881.070	254
881.106	420
881.152	711
881.213	878
881.233	785
881.315	210
881.319	205
881.396	508
881.426	544
881.478	438
881.532	320
881.559	417
881.639	259
881.641	241
881.722	-223
881.745	-287
881.803	358
881.852	594
881.885	380
881.958	373
881.966	394
882.047	397
882.064	361
882.129	674
882.171	807
882.210	574
882.277	794
882.291	913
882.372	747
882.383	754
882.454	754
882.489	707
882.535	719
882.596	905
882.616	865
882.697	482
882.702	454
882.778	231
882.808	114
882.859	180
882.914	627
882.940	646
883.020	157
883.021	159
883.102	509
883.127	497
883.183	385
883.233	488
883.264	576
883.339	443
883.345	422
883.426	125
883.445	135
883.507	168
883.551	152
883.587	323
883.657	559
883.668	621
883.749	1108
883.763	1124
883.830	746
883.869	641
883.910	542
883.975	515
883.991	551
884.072	452
884.081	444
884.152	581
884.187	641
884.233	735
884.292	948
884.314	995
884.394	1051
884.398	1043
884.475	284
884.504	42
884.555	226
884.610	441
884.636	465
884.716	632
884.716	637
884.797	916
884.821	848
884.877	384
884.927	135
884.958	349
885.033	1362
885.038	1353
885.118	460
885.139	341
885.199	601
885.244	657
885.279	542
885.350	131
885.359	167
885.439	939
885.456	1027
885.520	1129
885.561	1160
885.600	810
885.667	408
885.680	486
885.760	596
885.773	693
885.840	713
885.878	372
885.920	189
885.984	308
886.000	405
886.080	546
886.089	592
886.160	714
886.195	695
886.240	708
886.300	782
886.320	888
886.400	1271
886.406	1274
886.480	1074
886.511	1094
886.560	986
886.616	790
886.640	810
886.720	859
886.722	856
886.800	853
886.827	780
886.879	778
886.932	987
886.959	1059
887.038	1213
887.039	1219
887.119	1101
887.143	1100
887.198	840
887.248	523
887.278	538
887.354	693
887.358	702
887.437	663
887.459	680
887.517	887
887.564	1035
887.596	1017
887.669	848
887.676	809
887.755	349
887.774	218
887.835	513
887.880	864
887.914	885
887.985	643
887.994	646
888.073	789
888.090	815
888.153	1119
888.195	1260
888.232	951
888.300	398
888.311	450
888.391	790
888.405	857
888.470	963
888.510	953
888.549	731
888.615	469
888.628	536
888.708	858
888.720	909
888.787	1162
888.825	1247
888.866	908
888.930	414
888.945	422
889.024	516
889.035	512
889.103	970
889.140	1227
889.182	1061
889.245	808
889.261	773
889.340	607
889.349	581
889.419	801
889.454	932
889.498	1005
889.559	1087
889.577	1145
889.656	1390
889.664	1411
889.735	1293
889.768	1234
889.814	1192
889.873	1127
889.978	667
890.083	1025
890.187	847
890.292	820
890.397	705
890.501	807
890.606	783
890.710	1433
890.815	946
890.919	1654
891.024	1037
891.128	1941
891.233	1072
891.337	1358
891.442	662
891.546	616
891.650	768
891.755	1631
891.859	1131
891.963	786
892.068	1630
892.172	937
892.276	1074
892.380	105
892.484	-193
892.589	1884
892.693	1889
892.797	501
892.901	434
893.005	827
893.109	400
893.213	1522
893.317	337
893.421	1024
893.525	195
893.629	616
893.733	876
893.837	989
893.941	361
894.045	720
894.148	502
894.252	631
894.356	1294
894.460	845
894.564	1175
894.667	976
894.771	295
894.875	671
894.978	423
895.082	1351
895.186	975
895.289	481
895.393	348
895.496	981
895.600	569
895.703	329
895.807	562
895.910	906
896.014	705
896.117	-41
896.221	240
896.324	735
896.427	996
896.531	329
896.634	699
896.737	706
896.840	599
896.944	697
897.047	1301
897.150	727
897.253	628
897.356	667
897.460	205
897.563	-271
897.666	540
897.769	949
897.872	493
897.975	1112
898.078	64
898.181	1198
898.284	333
898.387	938
898.490	359
898.593	557
898.695	56
898.798	448
898.901	1263
899.004	1279
899.107	527
899.209	-175
899.312	646
899.415	679
899.518	-98
899.620	1145
899.723	735
899.826	1334
899.928	1378
900.031	1467
900.133	187
900.236	499
900.338	-194
900.441	-84
900.543	258
900.646	1187
900.748	956
900.851	823
900.953	759
901.055	794
901.158	761
901.260	1268
901.362	252
901.465	333
901.567	-172
901.669	227
901.771	366
901.873	542
901.976	183
902.078	535
902.180	508
902.282	533
902.384	534
902.486	928
902.588	1036
902.690	734
902.792	-258
902.894	618
902.996	285
903.098	436
903.200	711
903.302	71
903.404	-13
903.505	802
903.607	319
903.709	117
903.811	599
903.913	850
904.014	30
904.116	-471
904.218	693
904.319	-18
904.421	583
904.523	1623
904.624	568
904.726	645
904.827	-378
904.929	965
905.030	451
905.132	851
905.233	302
905.335	1071
905.436	460
905.537	491
905.639	452
905.740	1460
905.841	1017
905.943	1323
906.044	1154
906.145	-32
906.247	-328
906.348	281
906.449	488
906.550	639
906.651	-29
906.752	587
906.854	201
906.955	223
907.056	38
907.157	10
907.258	933
907.359	546
907.460	572
907.561	485
907.662	-106
907.762	-388
907.863	870
907.964	1069
908.065	1155
908.166	516
908.267	-393
908.367	232
908.468	214
908.569	-406
908.670	661
908.770	1470
908.871	215
908.971	104
909.072	441
909.173	523
909.273	522
909.374	926
909.474	173
909.575	611
909.675	463
909.776	829
909.876	401
909.977	751
910.077	-114
910.177	810
910.278	570
910.378	27
910.478	305
910.579	-172
910.679	615
910.779	352
910.879	1230
910.980	371
911.080	148
911.180	382
911.280	-52
911.380	273
911.480	-201
911.580	462
911.680	495
911.780	716
911.880	90
911.980	411
912.080	37
912.180	667
912.280	-528
912.380	204
912.480	-218
912.580	536
912.679	90
912.779	-447
912.879	-533
912.979	-232
913.078	233
913.178	809
913.278	37
913.377	11
913.477	-60
913.577	524
913.676	466
913.776	1111
913.875	577
913.975	1246
914.074	849
914.174	35
914.273	166
914.373	676
914.472	-214
914.572	-12
914.671	822
914.770	545
914.870	107
914.969	-310
915.068	-290
915.167	733
915.267	-509
915.366	-237
915.465	68
915.564	815
915.663	886
915.763	980
915.862	154
915.961	250
916.060	-86
916.159	-589
916.258	273
916.357	763
916.456	373
916.555	122
916.654	144
916.752	-105
916.851	815
916.950	586
917.049	-312
917.148	-613
917.247	194
917.345	-77
917.444	-600
917.543	-142
917.642	-58
917.740	569
917.839	926
917.937	423
918.036	880
918.135	709
918.233	-5
918.332	712
918.430	-218
918.529	124
918.627	225
918.726	1126
918.824	480
918.923	-169
919.021	-202
919.119	821
919.218	-16
919.316	-281
919.414	-305
919.512	1164
919.611	952
919.709	201
919.807	472
919.905	338
920.003	703
920.102	-68
920.200	552
920.298	1124
920.396	319
920.494	1157
920.592	148
920.690	-32
920.788	316
920.886	1061
920.984	635
921.082	773
921.180	1083
921.277	568
921.375	182
921.473	248
921.571	1415
921.669	827
921.766	962
921.864	801
921.962	897
922.060	963
922.157	903
922.255	1351
922.352	1165
922.450	1526
922.548	1050
922.645	1470
922.743	1555
922.840	2592
922.938	3488
923.035	3144
923.133	3220
923.230	3142
923.327	3269
923.425	3632
923.522	3934
923.619	3950
923.717	3612
923.814	3344
923.911	2871
924.008	4139
924.106	3053
924.203	3180
924.300	3087
924.397	2889
924.494	2317
924.591	3018
924.688	2848
924.786	3374
924.883	3042
924.979	3081
925.077	2433
925.173	2650
925.270	3275
925.367	2523
925.464	2528
925.561	2441
925.658	2759
925.755	3582
925.852	3453
925.948	4797
926.045	3250
926.142	4372
926.239	3856
926.335	5506
926.432	3549
926.529	4049
926.625	4658
926.722	3846
926.818	2502
926.915	3216
927.011	3095
927.108	2520
927.204	2806
927.301	2609
927.397	1851
927.494	3063
927.590	3119
927.687	2045
927.783	2687
927.879	3353
927.976	2271
928.072	2367
928.168	1791
928.264	2424
928.361	2274
928.457	2697
928.553	2466
928.649	1886
928.745	2087
928.841	3218
928.937	2238
929.033	2647
929.129	2234
929.225	2121
929.321	2499
929.417	2189
929.513	2428
929.609	2536
929.705	1519
929.801	2597
929.897	1917
929.993	2897
930.089	2117
930.184	2311
930.280	1807
930.376	2728
930.471	2666
930.567	2359
930.663	1805
930.758	1777
930.854	1733
930.950	2457
931.045	1329
931.141	2229
931.236	2353
931.332	2368
931.427	1465
931.523	2098
931.618	2706
931.714	2658
931.809	1675
931.905	2256
932.000	1682
932.095	349
932.191	2215
932.286	3029
932.381	2413
932.476	1706
932.572	930
932.667	1633
932.762	1216
932.857	1542
932.952	979
933.047	2277
933.142	1019
933.237	1937
933.332	1657
933.427	2352
933.522	1521
933.617	1914
933.712	1253
933.807	2334
933.902	2156
933.997	2527
934.092	2157
934.187	859
934.282	1408
934.376	2082
934.471	1397
934.566	1802
934.661	1612
934.755	2029
934.850	1585
934.945	2455
935.039	957
935.134	2004
935.228	688
935.323	2369
935.417	1761
935.512	1458
935.606	283
935.701	2060
935.795	1616
935.890	1718
935.984	959
936.079	1159
936.173	1610
936.267	824
936.362	1230
936.456	1810
936.550	2501
936.644	2301
936.738	1301
936.833	975
936.927	1640
937.021	988
937.115	1503
937.209	1736
937.303	1686
937.397	1097
937.491	1550
937.585	1481
937.679	1773
937.773	744
937.867	1437
937.961	1048
938.055	1348
938.149	1750
938.243	1005
938.337	1628
938.430	1252
938.524	2039
938.618	2648
938.712	3028
938.805	1814
938.899	1575
938.993	2178
939.086	1972
939.180	2373
939.274	3995
939.367	3289
939.461	2439
939.554	1227
939.648	882
939.741	825
939.835	951
939.928	2103
940.022	1918
940.115	873
940.208	2054
940.302	1798
940.395	2847
940.488	703
940.582	1215
940.675	733
940.768	1345
940.861	1048
940.954	2452
941.048	721
941.141	1223
941.234	1113
941.327	3000
941.420	3244
941.513	2727
941.606	1469
941.699	1734
941.792	1363
941.885	1955
941.978	1158
942.071	1404
942.164	1545
942.257	1240
942.349	907
942.442	1667
942.535	412
942.628	684
942.721	545
942.813	1179
942.906	1012
942.999	1434
943.091	553
943.184	864
943.277	664
943.369	1976
943.462	286
943.554	779
943.647	656
943.739	1299
943.832	961
943.924	925
944.017	841
944.109	154
944.201	993
944.294	1199
944.386	1122
944.478	1413
944.571	817
944.663	1004
944.755	1125
944.847	1030
944.940	695
945.032	1258
945.124	211
945.216	885
945.308	295
945.400	482
945.492	7
945.584	682
945.676	1093
945.768	964
945.860	1043
945.952	1400
946.044	1195
946.136	1054
946.228	-545
946.320	505
946.412	1535
946.503	717
946.595	1905
946.687	53
946.779	599
946.870	-32
946.962	706
947.054	1206
947.145	430
947.237	509
947.329	718
947.420	1182
947.512	921
947.603	530
947.695	-342
947.786	220
947.878	246
947.969	974
948.061	566
948.152	1276
948.243	210
948.335	535
948.426	410
948.517	433
948.609	87
948.700	1037
948.791	653
948.882	228
948.973	24
949.065	24
949.156	1039
949.247	222
949.338	411
949.429	87
949.520	101
949.611	549
949.702	765
949.793	1016
949.884	227
949.975	815
950.066	-69
950.157	-457
950.247	-911
950.338	812
950.429	113
950.520	808
950.611	353
950.701	208
950.792	859
950.883	1318
950.973	-230
951.064	1170
951.155	1396
951.245	423
951.336	392
951.427	161
951.517	750
951.608	867
951.698	-43
951.788	630
951.879	-145
951.969	-157
952.060	140
952.150	1361
952.240	523
952.331	2
952.421	931
952.511	1110
952.602	-136
952.692	-186
952.782	88
952.872	884
952.962	923
953.052	674
953.143	237
953.233	674
953.323	461
953.413	30
953.503	1022
953.593	1284
953.683	-707
953.773	65
953.863	-545
953.953	-321
954.042	-155
954.132	543
954.222	169
954.312	263
954.402	101
954.492	492
954.581	449
954.671	474
954.761	17
954.850	507
954.940	-42
955.030	341
955.119	-112
955.209	-484
955.298	-514
955.388	-214
955.477	803
955.567	-778
955.656	658
955.746	386
955.835	202
955.925	711
956.014	331
956.103	135
956.193	213
956.282	717
956.371	-219
956.461	848
956.550	73
956.639	-254
956.728	-432
956.817	191
956.906	265
956.995	273
957.085	486
957.174	-137
957.263	-418
957.352	-681
957.441	606
957.530	649
957.619	207
957.708	454
957.796	-715
957.885	464
957.974	90
958.063	22
958.152	-141
958.241	93
958.329	-373
958.418	190
958.507	-451
958.596	456
958.684	-25
958.773	-95
958.861	206
958.950	180
959.039	452
959.127	353
959.216	74
959.304	792
959.393	258
959.481	236
959.570	67
959.658	-157
959.746	-557
959.835	-146
959.923	775
960.011	50
960.100	-442
960.188	622
960.276	378
960.365	138
960.453	-63
960.541	-660
960.629	-120
960.717	947
960.805	-883
960.893	-616
960.981	-244
961.069	550
961.158	-53
961.245	379
961.333	34
961.421	1143
961.509	-606
961.597	176
961.685	52
961.773	-456
961.861	-387
961.949	-156
962.036	-57
962.124	-640
962.212	61
962.299	-593
962.387	-908
962.475	-235
962.562	253
962.650	293
962.738	174
962.825	-829
962.913	-538
963.000	-746
963.088	256
963.175	-332
963.263	-185
963.350	-523
963.438	-478
963.525	-211
963.612	132
963.700	1353
963.787	3630
963.874	4795
963.962	898
964.049	202
964.136	-554
964.223	-131
964.310	-839
964.398	323
964.485	-507
964.572	182
964.659	-306
964.746	1125
964.833	-102
964.920	-351
965.007	-124
965.094	-197
965.181	-1342
965.268	-334
965.355	-263
965.441	-941
965.528	-406
965.615	778
965.702	-566
965.789	252
965.875	-426
965.962	-493
966.049	-288
966.136	1182
966.222	-292
966.309	-220
966.395	-439
966.482	46
966.569	-750
966.655	-35
966.742	-223
966.828	-60
966.915	-750
967.001	-678
967.087	-366
967.174	-595
967.260	-621
967.347	452
967.433	949
967.519	2190
967.605	2676
967.692	-129
967.778	-381
967.864	-552
967.950	-523
968.036	-237
968.123	-472
968.209	-249
968.295	-398
968.381	-233
968.467	-143
968.553	-611
968.639	-488
968.725	-1299
968.811	206
968.897	1328
968.983	35
969.069	-696
969.154	-220
969.240	-455
969.326	-843
969.412	-356
969.497	-119
969.583	-1321
969.669	-448
969.755	31
969.840	531
969.926	127
970.012	49
970.097	735
970.183	446
970.268	-152
970.354	-763
970.439	334
970.525	190
970.610	1013
970.696	158
970.781	321
970.866	-1111
970.952	-573
971.037	-1069
971.122	-681
971.208	-430
971.293	-867
971.378	-661
971.463	-827
971.549	-479
971.634	-261
971.719	-613
971.804	-292
971.889	-525
971.974	-825
972.059	-264
972.144	-124
972.229	-265
972.314	-327
972.399	-775
972.484	-709
972.569	-561
972.654	-1020
972.739	107
972.824	218
972.908	-425
972.993	-663
973.078	-814
973.163	-459
973.247	-1163
973.332	-2110
973.417	-511
973.501	-573
973.586	-391
973.671	-64
973.755	-823
973.840	-671
973.924	-639
974.009	-218
974.093	251
974.178	76
974.262	-124
974.346	797
974.431	-73
974.515	-766
974.600	-675
974.684	-110
974.768	-450
974.852	-131
974.937	-1067
975.021	-273
975.105	573
975.189	273
975.273	-909
975.358	-721
975.442	-1046
975.526	-586
975.610	-933
975.694	-925
975.778	-732
975.862	-936
975.946	-2149
976.030	872
976.114	-771
976.198	-855
976.281	-890
976.365	-475
976.449	-721
976.533	-38
976.617	-911
976.700	-345
976.784	-672
976.868	-572
976.951	-885
977.035	-153
977.119	-1275
977.202	-1143
977.286	-678
977.369	-618
977.453	363
977.536	-662
977.620	-819
977.703	-318
977.787	-929
977.870	-429
977.953	-546
978.037	-971
978.120	-429
978.203	-233
978.287	531
978.370	175
978.453	-515
978.536	-943
978.620	-545
978.703	550
978.786	91
978.869	-244
978.952	-1266
979.035	-67
979.118	-1046
979.201	-878
979.284	-781
979.367	-1063
979.450	-1026
979.533	-1254
979.616	-752
979.699	-381
979.782	-959
979.865	-773
979.948	-1459
980.030	-966
980.113	-835
980.196	-255
980.279	-481
980.361	-1069
980.444	-791
980.526	-838
980.609	-477
980.692	-328
980.774	-233
980.857	-383
980.939	-275
981.022	-13
981.104	-1059
981.187	-374
981.269	-347
981.352	48
981.434	-1804
981.516	-1084
981.599	196
981.681	2
981.763	-1573
981.846	-834
981.928	-1079
982.010	-47
982.092	-460
982.174	-333
982.256	-617
982.339	-216
982.421	-637
982.503	-1176
982.585	-1904
982.667	-583
982.749	-1222
982.831	-265
982.913	-1403
982.995	-1106
983.077	-1757
983.158	-412
983.240	-1069
983.322	-168
983.404	-709
983.486	-387
983.568	-568
983.649	-599
983.731	146
983.813	-1777
983.894	-941
983.976	-393
984.058	-283
984.139	-395
984.221	-487
984.302	-2
984.384	-695
984.465	17
984.547	-341
984.628	-376
984.710	-513
984.791	-761
984.872	-127
984.954	-604
985.035	-974
985.116	-366
985.198	-598
985.279	-769
985.360	-627
985.441	-985
985.522	-1026
985.604	-1058
985.685	-1755
985.766	262
985.847	-995
985.928	-449
986.009	-913
986.090	-100
986.171	-249
986.252	-451
986.333	-776
986.414	-1076
986.495	-1341
986.576	-783
986.656	-746
986.737	-468
986.818	-568
986.899	-356
986.980	-517
987.060	-130
987.141	-1466
987.222	-560
987.302	126
987.383	44
987.464	113
987.544	59
987.625	16
987.705	65
987.786	-14
987.866	-554
987.947	-405
988.027	-211
988.108	-771
988.188	390
988.268	-1149
988.349	-800
988.429	-581
988.509	-222
988.589	-12
988.670	-1351
988.750	130
988.830	-283
988.910	-967
988.990	-676
989.070	-571
989.151	-545
989.231	-470
989.311	250
989.391	-99
989.471	-401
989.551	-888
989.631	-335
989.711	-861
989.791	-434
989.870	-740
989.950	540
990.030	-947
990.110	-228
990.190	-1028
990.269	-212
990.349	-291
990.429	-77
990.509	-261
990.588	-1330
990.668	-161
990.747	91
990.827	-1147
990.907	-959
990.986	21
991.066	-196
991.145	-995
991.225	-778
991.304	-531
991.383	-359
991.463	-1125
991.542	-157
991.622	34
991.701	-934
991.780	-986
991.859	-753
991.939	-937
992.018	-566
992.097	-1196
992.176	-694
992.256	-1154
992.335	-628
992.414	-937
992.493	-573
992.572	-1192
992.651	423
992.730	-395
992.809	-354
992.888	-1077
992.967	-1110
993.046	-378
993.125	-1095
993.203	-784
993.282	-357
993.361	-516
993.440	-352
993.519	-946
993.597	-1394
993.676	-1238
993.755	121
993.834	-1244
993.912	-1278
993.991	-1155
994.069	-1291
994.148	-996
994.226	-892
994.305	-649
994.384	-1215
994.462	-813
994.540	-1307
994.619	-1131
994.697	-458
994.776	-989
994.854	-479
994.932	-895
995.011	-70
995.089	-938
995.167	-533
995.245	-744
995.324	-1147
995.402	-575
995.480	-1164
995.558	-621
995.636	-1251
995.714	-1167
995.792	-692
995.870	-1295
995.948	-1038
996.026	-935
996.104	-1426
996.182	-974
996.260	-1323
996.338	-1217
996.416	-962
996.494	-1759
996.572	-1047
996.649	-1614
996.727	-1282
996.805	-816
996.883	-1025
996.960	-747
997.038	-756
997.116	-821
997.193	-1637
997.271	-429
997.348	-1091
997.426	-1994
997.504	-1644
997.581	-1077
997.658	-1144
997.736	-782
997.813	-1406
997.891	-1093
997.968	-1163
998.046	-1666
998.123	-1241
998.200	55
998.277	-537
998.355	-1299
998.432	-1834
998.509	-1188
998.586	-832
998.663	-1182
998.741	-1341
998.818	-1453
998.895	-1745
998.972	-600
999.049	-1497
999.126	-2054
999.203	-1258
999.280	-623
999.357	-1675
999.434	-1027
999.511	-1044
999.587	-1354
999.664	-1184
999.741	-1251
999.818	-477
999.895	-1553
999.971	-888
1000.048	-1373
1000.125	-840
1000.202	-884
1000.278	-786
1000.355	-785
1000.431	-1538
1000.508	-2126
1000.584	-502
1000.661	-1220
1000.738	-1249
1000.814	-908
1000.890	-1317
1000.967	-1217
1001.043	-1780
1001.120	-1780
1001.196	-1274
1001.272	-1684
1001.349	-1390
1001.425	-960
1001.501	-884
1001.577	-1336
1001.654	-980
1001.730	-1483
1001.806	-1520
1001.882	-2037
1001.958	-2004
1002.034	-1356
1002.110	-1489
1002.186	-1043
1002.262	-2022
1002.338	-1409
1002.414	-984
1002.490	-861
1002.566	-1902
1002.642	-1021
1002.718	-763
1002.794	-2064
1002.870	-1376
1002.945	-1555
1003.021	-475
1003.097	-1677
1003.173	-1481
1003.248	-1491
1003.324	-1603
1003.400	-1994
1003.475	-1975
1003.551	-1562
1003.626	-672
1003.702	-1063
1003.777	-1185
1003.853	-1490
1003.928	-1341
1004.004	-1433
1004.079	-1098
1004.155	-1860
1004.230	-1278
1004.305	-792
1004.381	-1063
1004.456	-1343
1004.531	-1292
1004.607	-1645
1004.682	-1184
1004.757	-652
1004.832	-1125
1004.907	-1899
1004.982	-819
1005.057	-1796
1005.133	-1741
1005.208	-1142
1005.283	-2211
1005.358	-1839
1005.433	-1402
1005.508	-1531
1005.583	-1797
1005.657	-439
1005.732	-571
1005.807	-2002
1005.882	-742
1005.957	-1611
1006.032	-1178
1006.106	-1896
1006.181	-1637
1006.256	-1535
1006.331	-1766
1006.405	-2015
1006.480	-951
1006.554	-1624
1006.629	-1560
1006.704	-1534
1006.778	-1285
1006.853	-896
1006.927	-2314
1007.002	-2113
1007.076	-1909
1007.150	-2247
1007.225	-1599
1007.299	-1596
1007.373	-2191
1007.448	-1586
1007.522	-798
1007.596	-2423
1007.671	-1531
1007.745	-1971
1007.819	-2169
1007.893	-2156
1007.967	-1763
1008.041	-2859
1008.115	-527
1008.190	-2039
1008.264	-1326
1008.338	-2126
1008.412	-1862
1008.486	-1297
1008.560	-1039
1008.633	-2527
1008.707	-1080
1008.781	-1260
1008.855	-1897
1008.929	-2048
1009.003	-2213
1009.076	-1792
1009.150	-1247
1009.224	-2101
1009.298	-1702
1009.371	-1436
1009.445	-1929
1009.519	-1902
1009.592	-2181
1009.666	-1979
1009.739	-1476
1009.813	-1701
1009.886	-1234
1009.960	-1740
1010.033	-1164
1010.107	-2272
1010.180	-1580
1010.253	-2058
1010.327	-2806
1010.400	-2254
1010.473	-1617
1010.547	-1251
1010.620	-2098
1010.693	-1606
1010.766	-1504
1010.840	-1851
1010.913	-1777
1010.986	-3038
1011.059	-1791
1011.132	-2213
1011.205	-1742
1011.278	-1637
1011.351	-2349
1011.424	-1785
1011.497	-2004
1011.570	-2669
1011.643	-1638
1011.716	-2067
1011.789	-2403
1011.862	-1891
1011.934	-1133
1012.007	-2319
1012.080	-1308
1012.153	-1874
1012.225	-995
1012.298	-1852
1012.371	-2760
1012.443	-1758
1012.516	-1658
1012.588	-1905
1012.661	-2499
1012.733	-2573
1012.806	-759
1012.879	-2437
1012.951	-1831
1013.023	-2248
1013.096	-1414
1013.168	-1931
1013.241	-1328
1013.313	-2244
1013.385	-2759
1013.458	-2074
1013.530	-2359
1013.602	-2645
1013.674	-1850
1013.746	-2706
1013.819	-2355
1013.891	-1423
1013.963	-2563
1014.035	-2710
1014.107	-1689
1014.179	-2078
1014.251	-2154
1014.323	-2406
1014.395	-2123
1014.467	-2071
1014.539	-945
1014.611	-2758
1014.683	-2244
1014.754	-1897
1014.826	-2175
1014.898	-2241
1014.970	-2271
1015.042	-1463
1015.113	-1858
1015.185	-2025
1015.257	-2237
1015.328	-2686
1015.400	-3117
1015.471	-2516
1015.543	-2970
1015.615	-2804
1015.686	-1223
1015.757	-2698
1015.829	-1901
1015.901	-2386
1015.972	-1746
1016.043	-2252
1016.115	-1804
1016.186	-2132
1016.257	-2118
1016.328	-2211
1016.400	-1820
1016.471	-2524
1016.542	-2837
1016.613	-2573
1016.685	-1942
1016.756	-2393
1016.827	-2587
1016.898	-2435
1016.969	-1893
1017.040	-2614
1017.111	-2503
1017.182	-2546
1017.253	-2566
1017.324	-2353
1017.395	-2060
1017.466	-1850
1017.537	-2491
1017.608	-3384
1017.678	-2227
1017.749	-2311
1017.820	-1865
1017.891	-2908
1017.961	-1891
1018.032	-2779
1018.103	-1857
1018.173	-2412
1018.244	-2233
1018.315	-3411
1018.385	-1629
1018.456	-2782
1018.526	-2867
1018.597	-3728
1018.667	-1749
1018.738	-2848
1018.808	-2395
1018.878	-2493
1018.949	-1929
1019.019	-1993
1019.089	-2871
1019.160	-1951
1019.230	-2890
1019.300	-1703
1019.371	-3230
1019.441	-1910
1019.511	-2051
1019.581	-3027
1019.651	-2114
1019.721	-2704
1019.791	-2299
1019.861	-2211
1019.931	-2076
1020.001	-2238
1020.071	-2245
1020.141	-2272
1020.211	-2234
1020.281	-2810
1020.351	-2252
1020.421	-2431
1020.491	-2166
1020.560	-2545
1020.630	-2161
1020.700	-2109
1020.770	-2540
1020.839	-3001
1020.909	-2642
1020.979	-2487
1021.048	-2089
1021.118	-3232
1021.187	-2805
1021.257	-2332
1021.326	-1495
1021.396	-2504
1021.465	-2499
1021.535	-3456
1021.604	-2195
1021.674	-2821
1021.743	-2765
1021.812	-2678
1021.882	-2771
1021.951	-2706
1022.020	-2633
1022.089	-1944
1022.159	-2683
1022.228	-2046
1022.297	-2130
1022.366	-2065
1022.435	-2616
1022.504	-1916
1022.573	-2377
1022.642	-2311
1022.711	-3137
1022.781	-2486
1022.849	-1998
1022.918	-3426
1022.987	-2406
1023.056	-2956
1023.125	-3094
1023.194	-2367
1023.263	-2006
1023.331	-2656
1023.400	-1819
1023.469	-2848
1023.538	-2020
1023.606	-3254
1023.675	-2430
1023.744	-3192
1023.812	-2283
1023.881	-2371
1023.949	-1831
1024.018	-3143
1024.086	-2661
1024.155	-2974
1024.223	-2654
1024.292	-2622
1024.360	-1910
1024.429	-2536
1024.497	-3017
1024.565	-2725
1024.634	-2637
1024.702	-2808
1024.770	-2577
1024.838	-3269
1024.907	-2189
1024.975	-2053
1025.043	-2027
1025.111	-2976
1025.179	-2973
1025.247	-2759
1025.315	-2936
1025.383	-2364
1025.451	-2928
1025.519	-2549
1025.587	-2895
1025.655	-2360
1025.723	-2646
1025.791	-1980
1025.859	-1439
1025.927	-3047
1025.995	-3254
1026.062	-2302
1026.130	-2342
1026.198	-2546
1026.266	-2453
1026.333	-2165
1026.401	-2000
1026.469	-2821
1026.536	-2507
1026.604	-2520
1026.671	-2215
1026.739	-2339
1026.806	-2241
1026.874	-2682
1026.941	-2348
1027.009	-2552
1027.076	-2726
1027.144	-1873
1027.211	-2656
1027.278	-2760
1027.345	-2248
1027.413	-2628
1027.480	-2685
1027.547	-2692
1027.614	-2268
1027.682	-2959
1027.749	-1884
1027.816	-1974
1027.883	-1969
1027.950	-2131
1028.017	-2635
1028.084	-2349
1028.151	-2729
1028.218	-3309
1028.285	-2418
1028.352	-3312
1028.419	-3196
1028.486	-3316
1028.553	-2115
1028.619	-2710
1028.686	-2623
1028.753	-2305
1028.820	-2670
1028.886	-2977
1028.953	-2580
1029.020	-2325
1029.086	-2545
1029.153	-1945
1029.220	-3055
1029.286	-3011
1029.353	-2723
1029.419	-2918
1029.486	-2350
1029.552	-2363
1029.619	-2739
1029.685	-2297
1029.751	-2888
1029.818	-1774
1029.884	-2948
1029.951	-2663
1030.017	-2366
1030.083	-3015
1030.149	-1890
1030.216	-1455
1030.282	-2359
1030.348	-2811
1030.414	-2466
1030.480	-2644
1030.546	-2225
1030.612	-2828
1030.678	-3059
1030.744	-2701
1030.810	-2281
1030.876	-2632
1030.942	-2900
1031.008	-2425
1031.074	-2626
1031.140	-3438
1031.206	-2108
1031.272	-2436
1031.337	-2672
1031.403	-3028
1031.469	-2969
1031.534	-3322
1031.600	-2010
1031.666	-2846
1031.731	-2897
1031.797	-2142
1031.863	-2040
1031.928	-2738
1031.994	-2281
1032.059	-2417
1032.125	-2444
1032.190	-2949
1032.256	-2700
1032.321	-2858
1032.386	-2764
1032.452	-1975
1032.517	-1885
1032.582	-2091
1032.647	-2580
1032.713	-2595
1032.778	-1635
1032.843	-2477
1032.908	-2228
1032.974	-2515
1033.039	-2807
1033.104	-2002
1033.169	-2112
1033.234	-2413
1033.299	-2069
1033.364	-1852
1033.429	-1680
1033.494	-2558
1033.559	-2659
1033.624	-2403
1033.688	-2118
1033.753	-2667
1033.818	-2368
1033.883	-1898
1033.948	-1982
1034.013	-2658
1034.077	-2006
1034.142	-1673
1034.207	-2059
1034.271	-1510
1034.336	-598
1034.400	-33
1034.465	-1241
1034.530	-2009
1034.594	-2702
1034.658	-2385
1034.723	-2354
1034.787	-2471
1034.852	-2606
1034.916	-2570
1034.981	-2598
1035.045	-2636
1035.109	-2493
1035.173	-2529
1035.238	-3374
1035.302	-1903
1035.366	-2574
1035.430	-2439
1035.495	-2477
1035.559	-2718
1035.623	-1698
1035.687	-2125
1035.751	-1978
1035.815	-2965
1035.879	-2696
1035.943	-2730
1036.007	-2662
1036.071	-3033
1036.135	-2798
1036.198	-2468
1036.262	-2716
1036.326	-2547
1036.390	-2138
1036.454	-2311
1036.517	-2228
1036.581	-2330
1036.645	-1855
1036.709	-1483
1036.772	-2032
1036.836	-2670
1036.900	-1359
1036.963	-2531
1037.026	-2446
1037.090	-2145
1037.154	-1781
1037.217	-2638
1037.280	-2708
1037.344	-3185
1037.407	-2534
1037.471	-2126
1037.534	-2949
1037.597	-2921
1037.661	-1720
1037.724	-2312
1037.787	-2633
1037.850	-2596
1037.913	-2874
1037.977	-2453
1038.040	-2909
1038.103	-2264
1038.166	-2337
1038.229	-2474
1038.292	-2587
1038.355	-2514
1038.418	-2329
1038.481	-2209
1038.544	-2895
1038.607	-2189
1038.670	-2708
1038.732	-2211
1038.795	-3539
1038.858	-2357
1038.921	-2251
1038.984	-1892
1039.046	-2565
1039.109	-2326
1039.172	-2169
1039.234	-2783
1039.297	-2851
1039.360	-2891
1039.422	-1760
1039.485	-3097
1039.547	-3289
1039.610	-2558
1039.672	-2906
1039.734	-2802
1039.797	-2494
1039.859	-2675
1039.922	-2578
1039.984	-2637
1040.046	-2738
1040.109	-2423
1040.171	-2465
1040.233	-2452
1040.295	-1887
1040.358	-2950
1040.420	-1835
1040.482	-2546
1040.544	-2794
1040.606	-2609
1040.668	-2360
1040.730	-2005
1040.792	-1976
1040.854	-2349
1040.916	-1811
1040.978	-2633
1041.040	-2454
1041.102	-2794
1041.164	-2827
1041.225	-2868
1041.287	-2313
1041.349	-1864
1041.411	-2980
1041.472	-2728
1041.534	-1789
1041.596	-2603
1041.657	-2623
1041.719	-2780
1041.781	-2798
1041.842	-2648
1041.904	-1875
1041.965	-2727
1042.027	-1929
1042.088	-2230
1042.150	-1810
1042.211	-2396
1042.272	-1591
1042.334	-2366
1042.395	-2296
1042.456	-2626
1042.518	-2429
1042.579	-2573
1042.640	-2458
1042.701	-2408
1042.763	-2447
1042.824	-2640
1042.885	-2674
1042.946	-3506
1043.007	-2634
1043.068	-3348
1043.129	-2614
1043.190	-2542
1043.251	-3012
1043.312	-2916
1043.373	-1716
1043.434	-2060
1043.495	-1882
1043.556	-1842
1043.616	-2804
1043.677	-2527
1043.738	-2153
1043.799	-2138
1043.859	-2072
1043.920	-2452
1043.981	-1305
1044.041	-1984
1044.102	-2833
1044.162	-2893
1044.223	-2471
1044.284	-2574
1044.344	-1737
1044.405	-2643
1044.465	-2091
1044.525	-1671
1044.586	-2595
1044.646	-1771
1044.707	-1387
1044.767	-1721
1044.827	-2867
1044.887	-2139
1044.948	-1983
1045.008	-2706
1045.068	-1810
1045.128	-2315
1045.188	-1856
1045.249	-1822
1045.309	-2204
1045.369	-1769
1045.429	-1574
1045.489	-2997
1045.549	-1706
1045.609	-1740
1045.669	-2069
1045.729	-2279
1045.789	-2350
1045.848	-2153
1045.908	-1275
1045.968	-2013
1046.028	-1741
1046.088	-1901
1046.147	-1535
1046.207	-2589
1046.267	-1875
1046.326	-2158
1046.386	-2680
1046.446	-1873
1046.505	-1429
1046.565	-1599
1046.624	-1282
1046.684	-2414
1046.743	-1535
1046.803	-602
1046.862	-586
1046.922	0
