'Start Wavelength	183.907
'End Wavelength	1046.922
'Gate Delay	5.000
'Gate Width (ms)	1.050
'Laser Output Level	0.000
'X Position	0.000
'Y Position	0.000
'Z Position	0.000
'Grid Point Number	1.000
'Shot Number	100.000
183.907	424.000
183.977	251.000
184.047	-39
184.116	207
184.186	749
184.256	20
184.325	-1003
184.395	229
184.465	-8
184.534	475
184.604	-223
184.674	-109
184.743	-796
184.813	673
184.883	-128
184.952	410
185.022	81
185.092	776
185.161	90
185.231	280
185.301	225
185.370	608
185.440	-702
185.509	429
185.579	-151
185.649	741
185.718	222
185.788	557
185.857	14
185.927	432
185.996	168
186.066	44
186.136	-302
186.205	813
186.275	1063
186.344	124
186.414	23
186.483	-356
186.553	1724
186.622	2712
186.692	-10
186.761	379
186.831	-465
186.900	754
186.970	-110
187.039	316
187.109	949
187.178	715
187.248	483
187.317	786
187.387	-311
187.456	818
187.526	553
187.595	1058
187.664	322
187.734	623
187.803	735
187.873	1174
187.942	1564
188.012	981
188.081	-330
188.150	1409
188.220	2176
188.289	1217
188.358	357
188.428	272
188.497	-451
188.567	323
188.636	-327
188.705	-5
188.775	237
188.844	933
188.913	-112
188.983	565
189.052	531
189.121	717
189.191	828
189.260	2536
189.329	2147
189.399	1084
189.468	743
189.537	686
189.606	1074
189.676	1183
189.745	513
189.814	1411
189.883	132
189.953	1430
190.022	1994
190.091	10598
190.161	10129
190.230	2930
190.299	666
190.368	730
190.437	303
190.507	1096
190.576	114
190.645	949
190.714	325
190.783	1059
190.853	1270
190.922	1554
190.991	569
191.060	1719
191.129	134
191.198	1198
191.268	659
191.337	803
191.406	647
191.475	763
191.544	821
191.613	278
191.682	1155
191.752	1404
191.821	624
191.890	457
191.959	391
192.028	736
192.097	852
192.166	1322
192.235	-163
192.304	1191
192.373	749
192.442	1399
192.511	368
192.580	1347
192.650	444
192.719	1945
192.788	654
192.857	1587
192.926	907
192.995	2146
193.064	6042
193.133	4265
193.202	5108
193.271	3805
193.340	3504
193.409	3750
193.478	3771
193.547	7004
193.615	8299
193.684	6001
193.753	4389
193.822	3207
193.891	1737
193.960	2652
194.029	143
194.098	1762
194.167	1293
194.236	1605
194.305	597
194.374	879
194.443	1430
194.512	1516
194.580	935
194.649	2188
194.718	1156
194.787	1067
194.856	563
194.925	1908
194.994	1248
195.062	772
195.131	1141
195.200	920
195.269	1519
195.338	1544
195.407	1702
195.475	1915
195.544	1644
195.613	1411
195.682	1295
195.751	1738
195.819	931
195.888	1404
195.957	1297
196.026	2409
196.094	1710
196.163	1704
196.232	1746
196.301	1882
196.369	1977
196.438	1768
196.507	1797
196.576	1331
196.644	1021
196.713	1756
196.782	923
196.850	1731
196.919	1074
196.988	1672
197.056	1180
197.125	1801
197.194	772
197.262	2188
197.331	1132
197.400	2175
197.468	2073
197.537	2314
197.606	1972
197.674	6319
197.743	12723
197.812	4642
197.880	12219
197.949	5932
198.017	11127
198.086	5514
198.155	2067
198.223	5465
198.292	15318
198.360	5090
198.429	3350
198.497	3341
198.566	10205
198.635	11393
198.703	3322
198.772	4360
198.840	18749
198.909	11527
198.977	6577
199.046	6964
199.114	3825
199.183	4006
199.251	2151
199.320	2326
199.388	1634
199.457	1613
199.525	2217
199.594	2489
199.662	1679
199.731	2574
199.799	1198
199.867	2965
199.936	2421
200.004	2201
200.073	2273
200.141	2255
200.210	1723
200.278	1665
200.346	1220
200.415	2579
200.483	2149
200.552	1851
200.620	1904
200.688	2295
200.757	1649
200.825	1775
200.893	2080
200.962	1562
201.030	1269
201.098	1779
201.167	1618
201.235	1729
201.303	2025
201.372	2694
201.440	2137
201.508	1949
201.577	1730
201.645	2812
201.713	1974
201.781	2194
201.850	1737
201.918	2502
201.986	1138
202.055	2077
202.123	1843
202.191	2654
202.259	1374
202.327	2449
202.396	1587
202.464	2241
202.532	2358
202.600	6245
202.669	2320
202.737	2112
202.805	2438
202.873	2372
202.941	2602
203.009	1506
203.078	2224
203.146	2333
203.214	2075
203.282	2492
203.350	2459
203.418	2056
203.487	1888
203.555	2424
203.623	2273
203.691	2024
203.759	1977
203.827	2324
203.895	1855
203.963	2691
204.031	1981
204.099	2364
204.168	1801
204.236	2878
204.304	2735
204.372	2458
204.440	2368
204.508	3548
204.576	2708
204.644	2853
204.712	1231
204.780	3066
204.848	3176
204.916	3425
204.984	2174
205.052	2775
205.120	2329
205.188	2670
205.256	2703
205.324	2989
205.392	2523
205.460	3726
205.528	5277
205.596	3273
205.664	3068
205.732	4291
205.799	19119
205.867	20175
205.935	4364
206.003	3831
206.071	3684
206.139	4847
206.207	3283
206.275	2960
206.343	2197
206.411	2406
206.478	2906
206.546	2681
206.614	2250
206.682	2752
206.750	2562
206.818	7930
206.885	4443
206.953	2327
207.021	3636
207.089	3472
207.157	2616
207.225	4844
207.292	3644
207.360	4043
207.428	3053
207.496	2872
207.563	2797
207.631	3335
207.699	2462
207.767	2796
207.834	2526
207.902	3049
207.970	3530
208.038	3118
208.105	3646
208.173	4416
208.241	4427
208.309	5598
208.376	4025
208.444	8151
208.512	4516
208.579	4245
208.647	5493
208.715	5164
208.782	2800
208.850	3939
208.918	3071
208.985	3250
209.053	3522
209.120	3768
209.188	2682
209.256	3011
209.323	2645
209.391	3747
209.459	3516
209.526	3402
209.594	3159
209.661	3744
209.729	2721
209.796	3460
209.864	4095
209.932	3384
209.999	3208
210.067	4322
210.134	3840
210.202	3892
210.269	5121
210.337	8628
210.404	6009
210.472	3472
210.539	3351
210.607	4205
210.674	3636
210.742	4003
210.809	3469
210.877	4789
210.944	4597
211.012	3459
211.079	4918
211.146	4840
211.214	4805
211.281	11899
211.349	6999
211.416	4995
211.484	3734
211.551	4573
211.618	4606
211.686	5000
211.753	3199
211.821	4998
211.888	4295
211.955	4351
212.023	4655
212.090	5368
212.157	5190
212.225	6546
212.292	13612
212.359	34889
212.427	92000
212.494	24256
212.561	9271
212.629	6411
212.696	5212
212.763	5489
212.831	4977
212.898	6146
212.965	4665
213.032	4772
213.100	4599
213.167	5454
213.234	5830
213.301	5918
213.369	4703
213.436	5482
213.503	5313
213.570	6321
213.638	6419
213.705	4681
213.772	3348
213.839	4445
213.906	4236
213.973	4596
214.041	3050
214.108	3959
214.175	4146
214.242	3602
214.309	3300
214.376	4866
214.444	4400
214.511	6381
214.578	5729
214.645	5279
214.712	4538
214.779	4933
214.846	4777
214.913	7880
214.980	7819
215.048	9102
215.115	7539
215.182	6170
215.249	5363
215.316	4664
215.383	3791
215.450	3922
215.517	3179
215.584	3393
215.651	2650
215.718	3444
215.785	3683
215.852	3044
215.919	3474
215.986	3351
216.053	3269
216.120	3075
216.187	2981
216.254	3960
216.321	2862
216.388	4288
216.455	3892
216.522	4927
216.589	3669
216.656	9927
216.722	8195
216.789	8537
216.856	10793
216.923	8095
216.990	6283
217.057	6370
217.124	5210
217.191	6661
217.258	8620
217.324	14360
217.391	18038
217.458	12458
217.525	6795
217.592	5961
217.659	4514
217.725	6189
217.792	9023
217.859	6323
217.926	3684
217.993	2809
218.059	2963
218.126	3589
218.193	2158
218.260	2364
218.327	2840
218.393	3266
218.460	2246
218.527	2587
218.594	4553
218.660	6670
218.727	5388
218.794	2930
218.860	2261
218.927	2568
218.994	2459
219.061	3045
219.127	3424
219.194	6586
219.261	2814
219.327	2245
219.394	2425
219.461	2426
219.527	2780
219.594	5827
219.661	2727
219.727	2903
219.794	3529
219.860	3462
219.927	3894
219.994	5711
220.060	6677
220.127	4914
220.193	5499
220.260	5261
220.326	8635
220.393	18474
220.460	28157
220.526	14394
220.593	8444
220.659	8919
220.726	13233
220.792	43355
220.859	25483
220.925	31890
220.992	50659
221.058	56614
221.125	49457
221.191	38943
221.258	11558
221.324	7997
221.391	7131
221.457	5704
221.524	6061
221.590	13430
221.657	60506
221.723	24622
221.789	36253
221.856	20165
221.922	8564
221.989	5963
222.055	5308
222.121	3928
222.188	4679
222.254	4273
222.321	3586
222.387	3583
222.453	2650
222.520	2811
222.586	2783
222.652	2416
222.719	2310
222.785	2776
222.851	2468
222.918	2354
222.984	2018
223.050	2075
223.116	1574
223.183	3877
223.249	1765
223.315	2043
223.382	2562
223.448	2274
223.514	1195
223.580	1668
223.647	1330
223.713	1567
223.779	1990
223.845	1324
223.911	2243
223.978	2171
224.044	1850
224.110	2070
224.176	2307
224.242	2399
224.309	906
224.375	1756
224.441	1316
224.507	1821
224.573	720
224.639	2593
224.705	1632
224.772	2825
224.838	1945
224.904	2967
224.970	2190
225.036	2862
225.102	1690
225.168	2686
225.234	2042
225.300	3992
225.366	2182
225.432	2515
225.499	2608
225.565	2589
225.631	3536
225.697	2895
225.763	3954
225.829	5445
225.895	4357
225.961	7439
226.027	6020
226.093	5803
226.159	6621
226.225	12365
226.291	40872
226.357	63645
226.423	20975
226.489	10969
226.554	7003
226.620	7884
226.686	9316
226.752	15086
226.818	30650
226.884	100309
226.950	64294
227.016	20275
227.082	9933
227.148	7229
227.214	5637
227.279	5005
227.345	3498
227.411	4035
227.477	4651
227.543	10374
227.609	6146
227.674	3113
227.740	3089
227.806	4656
227.872	3578
227.938	4317
228.003	3956
228.069	2657
228.135	2237
228.201	2369
228.267	2216
228.332	2061
228.398	3162
228.464	2719
228.530	1846
228.595	2777
228.661	860
228.727	3752
228.792	2365
228.858	1670
228.924	2718
228.990	4682
229.055	3051
229.121	3490
229.187	1869
229.252	2872
229.318	467
229.384	1734
229.449	2598
229.515	1055
229.581	-208
229.646	2203
229.712	2607
229.777	8286
229.843	5945
229.909	3969
229.974	3659
230.040	3043
230.105	2461
230.171	4144
230.236	6740
230.302	14460
230.368	6154
230.433	5255
230.499	3403
230.564	3192
230.630	1965
230.695	2049
230.761	2547
230.826	1531
230.892	3348
230.957	2088
231.023	1444
231.088	2361
231.154	2582
231.219	2898
231.284	4128
231.350	4668
231.415	2199
231.481	2316
231.546	2036
231.612	2617
231.677	1493
231.742	2469
231.808	2840
231.873	3329
231.939	1357
232.004	4548
232.069	3074
232.135	4124
232.200	2725
232.265	3000
232.331	2047
232.396	2041
232.461	1211
232.527	1321
232.592	1964
232.657	3558
232.723	11333
232.788	5906
232.853	2663
232.918	2658
232.984	1204
233.049	3178
233.114	10799
233.179	7109
233.245	21621
233.310	18584
233.375	4154
233.440	3856
233.506	4765
233.571	3615
233.636	2751
233.701	3072
233.766	15399
233.832	13328
233.897	3405
233.962	2752
234.027	3177
234.092	3305
234.157	3796
234.222	5206
234.288	18355
234.353	59879
234.418	32264
234.483	12789
234.548	6297
234.613	5223
234.678	5525
234.743	10261
234.808	46883
234.873	18795
234.938	6439
235.004	5095
235.069	4789
235.134	5109
235.199	4114
235.264	4213
235.329	2841
235.394	4837
235.459	7085
235.524	6906
235.589	4416
235.654	3929
235.719	2968
235.784	4921
235.849	8404
235.913	20424
235.978	25438
236.043	21079
236.108	7390
236.173	9206
236.238	7372
236.303	6264
236.368	6480
236.433	17744
236.498	26022
236.563	13954
236.627	31575
236.692	128630
236.757	64230
236.822	29025
236.887	21672
236.952	17613
237.017	15625
237.081	14532
237.146	20130
237.211	47315
237.276	140519
237.341	184272
237.405	58941
237.470	25393
237.535	18322
237.600	11252
237.664	9135
237.729	8576
237.794	14846
237.859	24054
237.923	18474
237.988	10728
238.053	20565
238.118	21062
238.182	113214
238.247	56394
238.312	23802
238.376	12607
238.441	10838
238.506	9236
238.570	4741
238.635	6706
238.700	6231
238.764	6928
238.829	35430
238.893	29168
238.958	8070
239.023	6213
239.087	5248
239.152	6784
239.216	4056
239.281	4745
239.346	5188
239.410	5858
239.475	12195
239.539	100004
239.604	48844
239.668	12125
239.733	6486
239.797	9695
239.862	25590
239.926	47714
239.991	12794
240.055	6714
240.120	4943
240.184	5087
240.249	4302
240.313	5325
240.378	8022
240.442	50165
240.507	64652
240.571	15820
240.635	35375
240.700	25677
240.764	7146
240.829	6162
240.893	3622
240.957	7700
241.022	45986
241.086	57884
241.151	17704
241.215	6343
241.279	14415
241.344	25668
241.408	7339
241.472	5442
241.537	5155
241.601	4571
241.665	3516
241.730	5062
241.794	5325
241.858	3619
241.922	3891
241.987	4766
242.051	3162
242.115	2853
242.179	3270
242.244	3813
242.308	4143
242.372	6584
242.436	7394
242.501	4574
242.565	3522
242.629	3767
242.693	2887
242.757	2928
242.822	4906
242.886	5301
242.950	6463
243.014	6596
243.078	4760
243.142	5159
243.206	6688
243.271	8499
243.335	8467
243.399	14263
243.463	99143
243.527	190014
243.591	37900
243.655	13739
243.719	6804
243.783	8500
243.847	17449
243.911	19581
243.975	12658
244.040	6785
244.104	5009
244.168	4676
244.232	5641
244.296	12802
244.360	13835
244.424	9304
244.488	8423
244.552	8964
244.615	4366
244.679	5021
244.743	5100
244.807	4129
244.871	2862
244.935	3747
244.999	2779
245.063	3672
245.127	5030
245.191	13484
245.255	8334
245.319	4999
245.383	2762
245.446	5968
245.510	3054
245.574	3396
245.638	2944
245.702	4079
245.766	8087
245.829	6705
245.893	7145
245.957	5249
246.021	4998
246.085	5788
246.149	8662
246.212	19697
246.276	24881
246.340	8571
246.404	6874
246.467	8048
246.531	9131
246.595	8271
246.659	8592
246.722	6037
246.786	4658
246.850	7274
246.913	7585
246.977	4426
247.041	6170
247.104	5291
247.168	5017
247.232	17565
247.295	39712
247.359	13002
247.423	6661
247.486	10077
247.550	6089
247.614	5209
247.677	5625
247.741	5427
247.804	5701
247.868	9363
247.932	20254
247.995	34609
248.059	9620
248.122	6194
248.186	8895
248.249	16972
248.313	78544
248.376	48208
248.440	31310
248.503	9410
248.567	8943
248.630	12645
248.694	13251
248.757	29325
248.821	71156
248.884	24671
248.948	39017
249.011	50396
249.075	89722
249.138	53954
249.202	17384
249.265	16604
249.328	35473
249.392	14016
249.455	9897
249.519	7918
249.582	8476
249.645	12660
249.709	8848
249.772	10331
249.835	11126
249.899	16614
249.962	10147
250.025	9859
250.089	30713
250.152	25502
250.215	13591
250.279	12810
250.342	15028
250.405	14274
250.468	13315
250.532	19203
250.595	37308
250.658	275082
250.721	272115
250.785	57228
250.848	28825
250.911	19019
250.974	17208
251.038	30227
251.101	44160
251.164	28869
251.227	24976
251.290	26842
251.354	60364
251.417	359185
251.480	194329
251.543	168833
251.606	629622
251.669	248163
251.732	78490
251.795	76515
251.859	114239
251.922	351821
251.985	106014
252.048	40401
252.111	29028
252.174	27834
252.237	53439
252.300	94562
252.363	190112
252.426	377252
252.489	92085
252.552	48057
252.615	35097
252.678	37920
252.741	84775
252.804	204143
252.867	396979
252.930	123589
252.993	51389
253.056	28462
253.119	20409
253.182	23325
253.245	47598
253.308	26557
253.371	25931
253.434	20704
253.497	17875
253.559	33872
253.622	18256
253.685	27742
253.748	16170
253.811	13127
253.874	28707
253.937	18517
254.000	10301
254.062	27471
254.125	30486
254.188	21222
254.251	14111
254.314	12148
254.376	16784
254.439	14221
254.502	13674
254.565	26532
254.628	31140
254.690	15118
254.753	8532
254.816	8482
254.878	13586
254.941	33169
255.004	21846
255.067	11705
255.129	7434
255.192	5707
255.255	3815
255.317	6183
255.380	4442
255.443	5026
255.505	3935
255.568	4201
255.631	3822
255.693	3912
255.756	3256
255.819	4912
255.881	3786
255.944	5122
256.006	6405
256.069	6448
256.132	4652
256.194	14050
256.257	48324
256.319	29127
256.382	20786
256.444	9037
256.507	6051
256.569	6923
256.632	9764
256.694	20801
256.757	74231
256.819	143597
256.882	38592
256.944	15457
257.007	11516
257.069	10925
257.132	8515
257.194	8450
257.257	7132
257.319	8570
257.381	13209
257.444	47000
257.506	232040
257.569	131799
257.631	43646
257.693	22217
257.756	16318
257.818	15959
257.880	7972
257.943	7741
258.005	5695
258.067	6172
258.130	5720
258.192	8067
258.254	19965
258.317	10064
258.379	7065
258.441	17751
258.503	16576
258.566	83266
258.628	61251
258.690	12487
258.753	9803
258.815	10786
258.877	5816
258.939	5564
259.001	4900
259.064	5247
259.126	12665
259.188	14783
259.250	9575
259.312	10393
259.375	18452
259.437	7990
259.499	5541
259.561	6488
259.623	6899
259.685	7354
259.747	12292
259.809	87068
259.872	110612
259.934	249039
259.996	93498
260.058	22511
260.120	12477
260.182	8819
260.244	7421
260.306	6439
260.368	6368
260.430	5835
260.492	8235
260.554	15791
260.616	14160
260.678	75330
260.740	80903
260.802	15437
260.864	10818
260.926	7224
260.988	8243
261.050	9307
261.112	15908
261.174	127321
261.236	67280
261.298	17895
261.359	56174
261.421	47311
261.483	10916
261.545	9269
261.607	6350
261.669	8318
261.731	32417
261.793	43998
261.854	10114
261.916	8257
261.978	5923
262.040	8083
262.102	9524
262.164	21805
262.225	10174
262.287	6467
262.349	11120
262.411	8267
262.472	7074
262.534	39676
262.596	52339
262.658	12955
262.719	8201
262.781	22407
262.843	59319
262.904	18783
262.966	16323
263.028	23956
263.090	188886
263.151	289534
263.213	57190
263.275	21602
263.336	10385
263.398	8751
263.459	6247
263.521	6996
263.583	10395
263.644	6123
263.706	4225
263.767	3945
263.829	3501
263.891	4014
263.952	3046
264.014	2927
264.075	3005
264.137	3630
264.198	3640
264.260	2262
264.321	2652
264.383	5657
264.444	5921
264.506	2843
264.567	2754
264.629	4240
264.690	1239
264.752	2929
264.813	2313
264.875	3159
264.936	3406
264.998	3230
265.059	3553
265.120	6078
265.182	13646
265.243	87517
265.305	43751
265.366	11780
265.427	6329
265.489	5308
265.550	2493
265.611	4527
265.673	3072
265.734	3913
265.795	4459
265.857	4931
265.918	6083
265.979	26149
266.040	150362
266.102	59979
266.163	16159
266.224	8918
266.286	5059
266.347	4307
266.408	5052
266.469	8852
266.530	4622
266.592	3236
266.653	8383
266.714	7516
266.775	2394
266.836	2297
266.898	2925
266.959	2154
267.020	1734
267.081	3466
267.142	2570
267.203	2361
267.264	1132
267.326	3382
267.387	1485
267.448	1182
267.509	2242
267.570	2448
267.631	1418
267.692	1304
267.753	1406
267.814	1963
267.875	5397
267.936	8390
267.997	2069
268.058	2094
268.119	1194
268.180	2376
268.241	609
268.302	2294
268.363	1371
268.424	2997
268.485	4292
268.546	1757
268.607	1166
268.668	1588
268.729	744
268.790	1964
268.851	2252
268.912	5421
268.972	4894
269.033	2712
269.094	908
269.155	2139
269.216	2323
269.277	4892
269.338	3158
269.398	2391
269.459	1858
269.520	3065
269.581	3521
269.642	3236
269.702	2963
269.763	2066
269.824	1880
269.885	2680
269.945	3475
270.006	2530
270.067	1699
270.128	2236
270.188	1414
270.249	2075
270.310	840
270.370	4716
270.431	4431
270.492	2577
270.553	2315
270.613	4568
270.674	8025
270.734	3260
270.795	2826
270.856	3773
270.916	2586
270.977	2386
271.038	3010
271.098	2567
271.159	5070
271.219	5649
271.280	3645
271.340	3818
271.401	10361
271.462	24045
271.522	7200
271.583	4772
271.643	5204
271.704	4368
271.764	5180
271.825	11799
271.885	71147
271.946	60623
272.006	15096
272.066	44681
272.127	49984
272.187	12078
272.248	7306
272.308	11122
272.369	33191
272.429	12573
272.489	10030
272.550	6609
272.610	6362
272.671	6168
272.731	18980
272.791	21822
272.852	6808
272.912	5507
272.972	4061
273.033	5910
273.093	9104
273.153	5219
273.214	3733
273.274	5685
273.334	22485
273.394	28522
273.455	8395
273.515	14298
273.575	21411
273.635	10292
273.696	34313
273.756	44971
273.816	12530
273.876	12756
273.936	83917
273.997	82488
274.057	15563
274.117	10910
274.177	13974
274.237	57909
274.297	54787
274.358	49376
274.418	30899
274.478	15980
274.538	9609
274.598	22587
274.658	101258
274.718	90083
274.778	24814
274.838	15751
274.898	71101
274.958	141989
275.018	70175
275.078	27690
275.138	12450
275.198	8477
275.258	7364
275.318	13974
275.378	12921
275.438	10077
275.498	13666
275.558	103290
275.618	103041
275.678	28128
275.738	15032
275.798	8485
275.858	4545
275.918	4730
275.978	4260
276.038	4168
276.098	2771
276.157	9205
276.217	14722
276.277	6183
276.337	3996
276.397	3417
276.457	4009
276.517	3676
276.576	2552
276.636	2554
276.696	5526
276.756	16603
276.815	7656
276.875	5831
276.935	6438
276.995	3986
277.055	3632
277.114	3698
277.174	6101
277.234	10930
277.293	4977
277.353	3513
277.413	3421
277.472	3161
277.532	3524
277.592	4624
277.651	12179
277.711	13439
277.771	7278
277.830	21494
277.890	13505
277.950	25849
278.009	46250
278.069	12495
278.128	15058
278.188	12749
278.248	7997
278.307	19330
278.367	12341
278.426	7374
278.486	4581
278.545	5260
278.605	4339
278.664	4884
278.724	5953
278.783	25508
278.843	39135
278.902	11135
278.962	7904
279.021	10597
279.081	27332
279.140	18771
279.199	11220
279.259	12443
279.318	14936
279.378	22502
279.437	38837
279.496	168235
279.556	834136
279.615	360338
279.675	86296
279.734	49203
279.793	69391
279.853	56879
279.912	24493
279.971	19161
280.031	17981
280.090	25839
280.149	32815
280.208	94168
280.268	628446
280.327	343016
280.386	74125
280.445	43507
280.505	24159
280.564	16089
280.623	13527
280.682	15528
280.742	13982
280.801	8901
280.860	6860
280.919	6275
280.978	5541
281.037	6655
281.097	4283
281.156	4777
281.215	5100
281.274	6912
281.333	24756
281.392	11960
281.451	4994
281.510	4409
281.569	4637
281.628	10913
281.688	6379
281.747	4937
281.806	3621
281.865	3850
281.924	2412
281.983	2817
282.042	2561
282.101	2378
282.160	2266
282.219	2033
282.278	3170
282.337	7899
282.396	3538
282.454	2348
282.513	3989
282.572	10365
282.631	4023
282.690	2658
282.749	1912
282.808	2605
282.867	2595
282.926	3029
282.985	1242
283.043	1040
283.102	1760
283.161	4277
283.220	10193
283.279	12526
283.338	3071
283.396	2554
283.455	2329
283.514	2940
283.573	3906
283.631	2507
283.690	1933
283.749	3030
283.808	4886
283.866	3591
283.925	2463
283.984	3683
284.043	3877
284.101	4050
284.160	1121
284.219	3457
284.277	1767
284.336	5315
284.395	16091
284.453	9711
284.512	4233
284.570	4774
284.629	3546
284.688	3119
284.746	4497
284.805	5269
284.863	6064
284.922	7156
284.981	7141
285.039	10750
285.098	19279
285.156	80442
285.215	336435
285.273	176299
285.332	47938
285.390	23781
285.449	13164
285.507	9696
285.566	6859
285.624	6998
285.683	5424
285.741	5890
285.799	4526
285.858	5665
285.916	3389
285.975	2924
286.033	2765
286.091	2373
286.150	2049
286.208	2729
286.267	1692
286.325	3578
286.383	4419
286.442	3483
286.500	2087
286.558	2510
286.616	2020
286.675	3204
286.733	1855
286.791	2260
286.850	3778
286.908	5002
286.966	4446
287.024	3221
287.083	2154
287.141	2529
287.199	3229
287.257	5444
287.315	3350
287.374	5238
287.432	7113
287.490	5596
287.548	4869
287.606	5127
287.664	5374
287.723	7241
287.781	8613
287.839	9329
287.897	12483
287.955	20311
288.013	30963
288.071	80386
288.129	498366
288.187	905713
288.245	254500
288.303	89985
288.361	49762
288.419	30223
288.477	20602
288.535	16804
288.593	12373
288.651	10199
288.709	7523
288.767	7418
288.825	5317
288.883	5412
288.941	4262
288.999	5030
289.057	3318
289.115	3941
289.173	2576
289.231	2950
289.289	2266
289.346	2909
289.404	3017
289.462	4850
289.520	3950
289.578	2617
289.636	1639
289.694	2139
289.751	1621
289.809	2670
289.867	1472
289.925	3381
289.983	2335
290.040	1457
290.098	1846
290.156	1929
290.214	2654
290.271	1375
290.329	2288
290.387	1371
290.444	1616
290.502	564
290.560	1605
290.617	1507
290.675	1431
290.733	970
290.790	1131
290.848	2036
290.906	1267
290.963	1269
291.021	334
291.078	1027
291.136	1371
291.194	3888
291.251	5895
291.309	1985
291.366	691
291.424	872
291.481	731
291.539	1191
291.596	821
291.654	473
291.711	1201
291.769	2628
291.826	3408
291.884	2173
291.941	273
291.999	415
292.056	522
292.114	1397
292.171	777
292.228	1918
292.286	1108
292.343	3908
292.401	2636
292.458	712
292.515	1016
292.573	2028
292.630	2473
292.687	4589
292.745	1888
292.802	3012
292.859	7951
292.917	13600
292.974	4674
293.031	2573
293.089	633
293.146	1726
293.203	1125
293.260	909
293.318	2065
293.375	2028
293.432	1258
293.489	1756
293.546	2529
293.604	5649
293.661	26952
293.718	39188
293.775	10460
293.832	5394
293.889	3769
293.947	5195
294.004	2588
294.061	2493
294.118	5358
294.175	6038
294.232	2594
294.289	2100
294.346	1633
294.403	2960
294.460	3924
294.517	2550
294.574	1485
294.631	2679
294.688	3893
294.745	15725
294.802	39441
294.859	16669
294.916	9192
294.973	5811
295.030	3685
295.087	2784
295.144	3021
295.201	3187
295.258	1858
295.315	5420
295.372	19775
295.429	25128
295.486	7641
295.542	4014
295.599	3109
295.656	4504
295.713	10744
295.770	15871
295.827	4611
295.883	3287
295.940	2725
295.997	4330
296.054	3386
296.111	1974
296.167	1263
296.224	1656
296.281	1100
296.338	2028
296.394	2088
296.451	3684
296.508	10638
296.564	12865
296.621	14842
296.678	59270
296.734	50733
296.791	14915
296.848	8009
296.904	6983
296.961	12930
297.018	25638
297.074	14023
297.131	6071
297.187	5408
297.244	11125
297.301	50833
297.357	58167
297.414	16491
297.470	7760
297.527	3768
297.583	3677
297.640	2234
297.696	2080
297.753	2008
297.809	2281
297.866	990
297.922	2722
297.979	1840
298.035	2125
298.092	4853
298.148	13818
298.204	9413
298.261	6663
298.317	23294
298.374	52887
298.430	22668
298.486	16172
298.543	10306
298.599	7799
298.656	6790
298.712	19929
298.768	60661
298.824	33080
298.881	11540
298.937	5766
298.993	4395
299.050	4103
299.106	2630
299.162	3410
299.218	2741
299.275	3413
299.331	4747
299.387	15038
299.443	53054
299.500	35624
299.556	12328
299.612	6864
299.668	5127
299.724	8808
299.780	6507
299.837	5081
299.893	7524
299.949	24355
300.005	20620
300.061	33544
300.117	53211
300.173	20117
300.229	9535
300.285	10309
300.341	7610
300.397	4573
300.453	2576
300.510	2973
300.566	2985
300.622	6277
300.678	21289
300.734	22617
300.790	27170
300.845	30072
300.901	18713
300.957	20812
301.013	10921
301.069	5338
301.125	4252
301.181	3560
301.237	2751
301.293	2284
301.349	1932
301.405	2259
301.461	1909
301.516	1754
301.572	1671
301.628	3678
301.684	3407
301.740	7493
301.796	8972
301.851	8353
301.907	13136
301.963	17758
302.019	65957
302.074	164745
302.130	119280
302.186	44402
302.242	19577
302.297	12091
302.353	9842
302.409	14063
302.464	9741
302.520	12692
302.576	31998
302.631	28036
302.687	11557
302.743	6474
302.798	4234
302.854	3921
302.910	3697
302.965	4922
303.021	6422
303.076	5330
303.132	7343
303.187	6286
303.243	4104
303.299	3369
303.354	2334
303.410	2949
303.465	2032
303.521	3321
303.576	3158
303.632	4742
303.687	14694
303.743	39044
303.798	23489
303.853	9049
303.909	4581
303.964	4458
304.020	4288
304.075	5038
304.130	4415
304.186	8448
304.241	7825
304.297	5855
304.352	3319
304.358	3220
304.407	2416
304.449	2247
304.463	2191
304.518	3276
304.539	2996
304.573	2555
304.629	4438
304.630	4543
304.684	10159
304.720	29302
304.739	38600
304.794	41100
304.811	34046
304.850	16976
304.902	8812
304.905	8367
304.960	7553
304.992	9326
305.015	10271
305.071	6757
305.083	5989
305.126	3526
305.173	2986
305.181	2906
305.236	2452
305.264	2871
305.292	3323
305.347	3023
305.354	3222
305.402	5044
305.445	7738
305.457	8285
305.512	9390
305.535	7763
305.567	5793
305.622	7811
305.626	8370
305.678	22722
305.716	41599
305.733	46638
305.788	33142
305.807	29550
305.843	28223
305.897	48777
305.898	48940
305.953	36168
305.988	21895
306.008	15403
306.063	8427
306.078	7201
306.118	5079
306.168	4161
306.173	4094
306.228	3008
306.259	3511
306.283	4001
306.338	4508
306.349	4896
306.393	7372
306.440	10028
306.448	10090
306.503	7744
306.530	6949
306.558	8181
306.613	14806
306.620	15451
306.668	20063
306.711	26547
306.723	26496
306.778	16079
306.801	12041
306.833	8923
306.888	4657
306.892	4550
306.943	4566
306.982	3821
306.997	3522
307.052	3870
307.072	3642
307.107	3594
307.162	3908
307.163	3916
307.217	4885
307.253	5352
307.272	5549
307.327	5643
307.343	5673
307.381	5858
307.434	5772
307.436	5984
307.491	12215
307.524	17081
307.546	17911
307.600	18072
307.614	16822
307.655	12265
307.704	8949
307.710	8930
307.765	9881
307.795	11184
307.819	12756
307.874	15340
307.885	15979
307.929	18741
307.975	22121
307.984	24839
308.038	45448
308.065	60157
308.093	130850
308.148	314725
308.156	352947
308.202	500981
308.246	524421
308.257	488807
308.312	215671
308.336	116831
308.366	80745
308.421	43838
308.426	40948
308.475	27428
308.517	19983
308.530	18616
308.585	16337
308.607	15432
308.639	14668
308.694	14433
308.697	14454
308.748	17697
308.787	20760
308.803	20732
308.857	18896
308.877	18444
308.912	20510
308.967	25387
308.967	25439
309.021	38558
309.058	49405
309.076	71153
309.130	145985
309.148	178453
309.185	421775
309.238	858731
309.239	859899
309.293	777402
309.328	613156
309.348	494362
309.402	191215
309.418	116955
309.457	78449
309.508	43536
309.511	42505
309.566	32055
309.598	27750
309.620	28239
309.674	32139
309.688	33068
309.729	28089
309.778	20281
309.783	19839
309.837	16147
309.868	14559
309.892	18899
309.946	30051
309.959	32841
310.001	38157
310.049	42123
310.055	40344
310.109	22600
310.139	12681
310.163	10645
310.218	7720
310.229	7147
310.272	6234
310.319	5371
310.326	5326
310.381	4995
310.409	5065
310.435	4955
310.489	4156
310.499	4107
310.543	4597
310.589	4827
310.598	4736
310.652	4324
310.679	3945
310.706	3716
310.760	3522
310.769	3495
310.814	3741
310.859	3892
310.868	3877
310.923	3827
310.948	3749
310.977	3887
311.031	4133
311.038	4174
311.085	4293
311.128	4279
311.139	4254
311.193	4247
311.218	4127
311.247	3996
311.301	3914
311.308	3876
311.356	3864
311.398	3968
311.410	3944
311.464	3632
311.488	3536
311.518	3820
311.572	4224
311.578	4274
311.626	4971
311.668	5486
311.680	5321
311.734	4497
311.758	4110
311.788	4196
311.842	4353
311.847	4358
311.896	4697
311.937	4991
311.950	5016
312.004	5035
312.027	5047
312.058	4842
312.112	4434
312.117	4382
312.165	4085
312.207	3817
312.297	3227
312.386	4623
312.476	4389
312.566	9006
312.656	4820
312.745	4078
312.835	3959
312.925	5208
313.015	5652
313.104	4607
313.194	3832
313.284	4408
313.374	5216
313.463	4506
313.553	4443
313.643	4782
313.732	3625
313.822	4929
313.912	4261
314.001	5912
314.091	4994
314.180	4751
314.270	6159
314.360	7109
314.449	6301
314.539	4398
314.628	5612
314.718	5234
314.808	6620
314.897	6201
314.987	7011
315.076	8669
315.166	8705
315.255	8907
315.345	10356
315.434	12561
315.524	12002
315.613	19991
315.703	42372
315.792	200323
315.881	789304
315.971	191106
316.060	30670
316.150	15211
316.239	11326
316.328	7982
316.418	6215
316.507	7052
316.597	9130
316.686	8616
316.775	9473
316.865	10930
316.954	7462
317.043	6834
317.133	8065
317.222	8685
317.311	9912
317.400	11211
317.490	17338
317.579	22584
317.668	31814
317.757	78864
317.847	407356
317.936	1315799
318.025	292958
318.114	220950
318.203	73239
318.293	18009
318.382	11331
318.471	10577
318.560	8991
318.649	10686
318.738	6466
318.828	6957
318.917	6533
319.006	6520
319.095	9132
319.184	13090
319.273	15949
319.362	13881
319.451	5026
319.540	6353
319.629	13440
319.718	16029
319.807	4529
319.896	8246
319.985	16221
320.074	11019
320.163	3869
320.252	5824
320.341	3848
320.430	4105
320.519	8625
320.608	4700
320.697	4052
320.786	4767
320.875	7506
320.964	9533
321.053	14742
321.142	21230
321.230	19110
321.319	18648
321.408	31025
321.497	12107
321.586	13196
321.675	10588
321.764	8699
321.852	8027
321.941	17631
322.030	10573
322.119	12284
322.207	32578
322.296	11622
322.385	7891
322.474	14708
322.562	46075
322.651	16748
322.740	19721
322.829	17233
322.917	11504
323.006	10948
323.095	9449
323.183	5688
323.272	8881
323.361	15046
323.449	28956
323.538	9857
323.626	19368
323.715	9959
323.804	6834
323.892	19330
323.981	11983
324.069	4742
324.158	11188
324.246	8924
324.335	7090
324.424	11519
324.512	4480
324.601	4812
324.689	8768
324.778	11191
324.866	8415
324.954	3320
325.043	4961
325.131	6449
325.220	7420
325.308	8324
325.397	8149
325.485	4847
325.574	3937
325.662	2644
325.750	4432
325.839	3619
325.927	3207
326.015	3221
326.104	5059
326.192	5440
326.280	2765
326.369	2150
326.457	4847
326.545	9265
326.634	4952
326.722	2614
326.810	3534
326.898	3035
326.987	3489
327.075	8709
327.163	6745
327.251	4522
327.340	6571
327.428	5830
327.516	2880
327.604	3136
327.692	3710
327.781	3483
327.869	5734
327.957	5282
328.045	4589
328.133	3796
328.221	2981
328.309	3176
328.397	3140
328.485	4257
328.574	7635
328.662	23452
328.750	9176
328.838	3350
328.926	2828
329.014	2294
329.102	4255
329.190	7132
329.278	5623
329.366	2392
329.454	1921
329.542	2400
329.630	1409
329.718	2834
329.806	3825
329.893	2783
329.981	2457
330.069	3787
330.157	17812
330.245	51744
330.333	21407
330.421	4275
330.509	7000
330.597	26035
330.684	13274
330.772	3282
330.860	2367
330.948	2539
331.036	3272
331.123	2359
331.211	2292
331.299	1640
331.387	3046
331.475	5266
331.562	3412
331.650	2148
331.738	3336
331.825	2757
331.913	2318
332.001	2683
332.089	3056
332.176	3424
332.264	8133
332.352	6576
332.439	3501
332.527	2575
332.614	2364
332.702	2571
332.790	3635
332.877	5118
332.965	7843
333.052	3263
333.140	4600
333.228	7959
333.315	3074
333.403	2283
333.490	6373
333.578	5191
333.665	9889
333.753	4856
333.840	3349
333.928	2732
334.015	5974
334.103	8119
334.190	16141
334.278	5881
334.365	8200
334.452	7637
334.540	4281
334.627	4313
334.715	5469
334.802	9705
334.889	39325
334.977	42367
335.064	13579
335.151	5221
335.239	4400
335.326	3028
335.413	6459
335.501	7242
335.588	4533
335.675	4238
335.762	4273
335.850	5294
335.937	8589
336.024	18477
336.111	48768
336.199	30812
336.286	10980
336.373	4685
336.460	3743
336.547	3004
336.635	4017
336.722	3749
336.809	3329
336.896	4715
336.983	7621
337.070	12069
337.157	11182
337.245	17202
337.332	11969
337.419	2761
337.506	3082
337.593	1590
337.680	2970
337.767	4704
337.854	5160
337.941	5123
338.028	8409
338.115	4942
338.202	3278
338.289	5646
338.376	18036
338.463	5119
338.550	3745
338.637	3521
338.724	4546
338.811	6105
338.898	2559
338.984	1661
339.071	2290
339.158	7524
339.245	12819
339.332	5192
339.419	5133
339.506	4418
339.593	2174
339.679	1925
339.766	2289
339.853	3424
339.940	9052
340.027	2921
340.113	3072
340.200	4974
340.287	3683
340.374	4076
340.460	7662
340.547	3084
340.634	7056
340.720	27327
340.807	13439
340.894	2420
340.980	3592
341.067	2892
341.154	3111
341.240	5207
341.327	12174
341.414	3274
341.500	2775
341.587	3207
341.674	2890
341.760	7713
341.847	9544
341.933	3557
342.020	1671
342.106	1683
342.193	3891
342.279	5787
342.366	4591
342.452	8226
342.539	5253
342.625	11362
342.712	27118
342.798	10199
342.885	3932
342.971	1378
343.058	3022
343.144	2400
343.230	2897
343.317	3062
343.403	2141
343.490	2246
343.576	2709
343.662	2927
343.749	5374
343.835	7894
343.921	13887
344.008	121704
344.094	239927
344.180	35667
344.267	10543
344.353	38006
344.439	31169
344.525	11476
344.612	4249
344.698	4389
344.784	3845
344.870	2329
344.957	3556
345.043	5001
345.129	3984
345.215	6285
345.301	3116
345.387	1876
345.474	1706
345.560	2437
345.646	2539
345.732	2624
345.818	2665
345.904	2807
345.990	3924
346.076	3011
346.162	2746
346.249	3048
346.335	3639
346.421	7234
346.507	22144
346.593	60939
346.679	11678
346.765	2019
346.851	4032
346.937	3057
347.023	3076
347.108	3860
347.194	3268
347.280	2387
347.366	5250
347.452	22380
347.538	86710
347.624	46135
347.710	27181
347.796	3575
347.882	3569
347.967	2591
348.053	2310
348.139	2765
348.225	3079
348.311	2805
348.397	2323
348.482	3497
348.568	4321
348.654	2344
348.740	6694
348.825	5150
348.911	7430
348.997	39969
349.083	72756
349.168	7842
349.254	2637
349.340	1715
349.425	2926
349.511	3762
349.597	5190
349.682	10490
349.768	29515
349.854	13517
349.939	2238
350.025	2101
350.110	2053
350.196	1736
350.282	1933
350.367	2299
350.453	3917
350.538	3566
350.624	3954
350.709	2778
350.795	2343
350.880	1798
350.966	3219
351.051	3235
351.137	3053
351.222	2170
351.308	9501
351.393	23580
351.479	5764
351.564	1277
351.649	3210
351.735	2358
351.820	2205
351.906	2995
351.991	4303
352.076	16169
352.162	23515
352.247	4003
352.332	3614
352.418	4464
352.503	7684
352.588	32784
352.673	26242
352.759	6421
352.844	3080
352.929	4119
353.014	5322
353.100	3202
353.185	3953
353.270	9090
353.355	8693
353.441	2331
353.526	3525
353.611	8447
353.696	9589
353.781	5784
353.866	3078
353.952	3609
354.037	8517
354.122	19369
354.207	16550
354.292	5946
354.377	3842
354.462	2699
354.547	4505
354.632	3458
354.717	3625
354.802	4156
354.887	2096
354.972	2461
355.057	2245
355.142	1429
355.227	4394
355.312	5777
355.397	13468
355.482	30735
355.567	13615
355.652	11200
355.737	11974
355.822	40075
355.907	30824
355.991	4906
356.076	2502
356.161	2286
356.246	2072
356.331	4202
356.416	14538
356.501	103067
356.585	101349
356.670	8748
356.755	6207
356.840	9431
356.924	76940
357.009	282394
357.094	89330
357.179	11255
357.263	7046
357.348	7002
357.433	6687
357.517	6833
357.602	5576
357.687	4327
357.771	4187
357.856	4273
357.941	9466
358.025	80857
358.110	342641
358.195	135675
358.279	9981
358.364	6482
358.448	26494
358.533	64495
358.617	46747
358.702	48183
358.787	17089
358.871	8336
358.956	7648
359.040	1878
359.125	2709
359.209	1601
359.294	2895
359.378	3544
359.462	6653
359.547	3273
359.631	2181
359.716	1362
359.800	1952
359.885	2993
359.969	2989
360.053	3290
360.138	3661
360.222	5338
360.306	8610
360.391	6167
360.475	7246
360.559	17454
360.644	25601
360.728	20024
360.812	57124
360.896	153708
360.981	43866
361.065	13440
361.149	4976
361.233	4548
361.318	4343
361.402	4191
361.486	4262
361.570	3292
361.654	5578
361.739	16329
361.823	105198
361.907	160367
361.991	21435
362.075	8976
362.159	19819
362.243	14609
362.327	17649
362.411	27291
362.495	12005
362.580	4865
362.664	3683
362.748	3714
362.832	5203
362.916	10365
363.000	47671
363.084	151577
363.168	197694
363.252	36262
363.336	8589
363.420	9050
363.503	10070
363.587	7818
363.671	5173
363.755	4962
363.839	8429
363.923	4035
364.007	9661
364.091	9233
364.175	7418
364.258	18841
364.342	45845
364.426	105321
364.510	57159
364.594	14914
364.677	28179
364.761	130633
364.845	90456
364.929	15571
365.013	12262
365.096	10394
365.180	12785
365.264	4287
365.347	9261
365.431	4296
365.515	3406
365.598	2811
365.682	2658
365.766	1783
365.849	2816
365.933	2685
366.017	3140
366.100	1503
366.184	1553
366.267	3076
366.351	1987
366.435	2020
366.518	2045
366.602	1587
366.685	2389
366.769	1931
366.852	2910
366.936	7355
367.019	5335
367.103	1696
367.186	2628
367.270	2202
367.353	2266
367.436	3159
367.520	1967
367.603	3228
367.687	5382
367.770	10598
367.853	6988
367.937	23192
368.020	38393
368.104	8427
368.187	7867
368.270	9616
368.353	8122
368.437	9085
368.520	12484
368.603	11677
368.687	27276
368.770	48241
368.853	11463
368.936	7049
369.020	5510
369.103	2156
369.186	1563
369.269	1652
369.352	6424
369.436	8875
369.519	4946
369.602	1948
369.685	3977
369.768	3521
369.851	3966
369.934	1990
370.018	4402
370.101	9212
370.184	7890
370.267	4353
370.350	7623
370.433	18332
370.516	101778
370.599	257728
370.682	121867
370.765	32150
370.848	36852
370.931	67622
371.014	24491
371.097	4785
371.180	3689
371.263	2831
371.346	1709
371.429	1787
371.511	2229
371.594	5308
371.677	7711
371.760	5070
371.843	15656
371.926	116635
372.009	253789
372.091	64014
372.174	28770
372.257	67465
372.340	26438
372.423	7638
372.505	6900
372.588	5229
372.671	21815
372.754	64696
372.836	32964
372.919	6994
373.002	8154
373.085	6167
373.167	10685
373.250	27893
373.332	70203
373.415	164066
373.498	351195
373.580	172896
373.663	439405
373.746	502269
373.828	77402
373.911	16215
373.993	9948
374.076	9151
374.159	9445
374.241	16487
374.324	47460
374.406	38524
374.489	85322
374.571	210907
374.654	76382
374.736	37566
374.819	125813
374.901	217254
374.983	238002
375.066	35054
375.148	6833
375.231	6414
375.313	10257
375.395	7924
375.478	4770
375.560	3765
375.643	7539
375.725	43615
375.807	171206
375.890	115566
375.972	17137
376.054	9864
376.136	10532
376.219	8908
376.301	44894
376.383	126316
376.465	49817
376.548	19123
376.630	33423
376.712	88915
376.794	44613
376.877	4764
376.959	2946
377.041	2393
377.123	2576
377.205	2150
377.287	1357
377.369	2101
377.452	2912
377.534	2320
377.616	2578
377.698	2264
377.780	1779
377.862	2245
377.944	3249
378.026	1608
378.108	2101
378.190	2529
378.272	2242
378.354	1642
378.436	1988
378.518	2145
378.600	6659
378.682	11040
378.764	29920
378.846	25569
378.928	5675
379.010	6257
379.091	4113
379.173	3230
379.255	2533
379.337	4366
379.419	17918
379.501	45055
379.583	18810
379.664	4500
379.746	11352
379.828	28386
379.910	41199
379.991	37401
380.073	6803
380.155	3770
380.237	3352
380.318	1480
380.400	3604
380.482	6729
380.564	10960
380.645	7587
380.727	7316
380.809	4726
380.890	3107
380.972	1868
381.053	2469
381.135	3992
381.217	11097
381.298	29531
381.380	15683
381.461	20665
381.543	101232
381.624	128357
381.706	19208
381.787	5778
381.869	10680
381.951	71670
382.032	246736
382.113	149138
382.195	15807
382.276	8776
382.358	24899
382.439	77920
382.521	122176
382.602	201015
382.684	80175
382.765	95945
382.846	87514
382.928	71020
383.009	40890
383.090	28549
383.172	115462
383.253	183883
383.334	81940
383.416	120399
383.497	64980
383.578	14411
383.659	24164
383.741	110263
383.822	288727
383.903	159957
383.984	64410
384.066	126555
384.147	79576
384.228	13798
384.309	9087
384.390	7669
384.471	5914
384.553	5648
384.634	7694
384.715	8202
384.796	4212
384.877	6974
384.958	28067
385.039	33824
385.120	10940
385.201	6014
385.282	5484
385.363	5622
385.444	6538
385.525	18122
385.606	66269
385.687	60702
385.768	10630
385.849	17257
385.930	106524
386.011	191205
386.092	48811
386.173	8458
386.254	9143
386.335	7152
386.416	6264
386.496	16797
386.577	28903
386.658	9899
386.739	5906
386.820	4587
386.901	3591
386.981	5008
387.062	5461
387.143	11489
387.224	30757
387.304	29619
387.385	10834
387.466	5101
387.547	6803
387.627	6731
387.708	16849
387.789	60990
387.869	79569
387.950	23905
388.031	4969
388.111	2376
388.192	5941
388.273	6509
388.353	5926
388.434	6040
388.514	19722
388.595	85455
388.676	101665
388.756	34005
388.837	26951
388.917	18431
388.998	5116
389.078	5467
389.159	6372
389.239	5781
389.320	8027
389.400	5444
389.480	13799
389.561	30746
389.641	18701
389.722	6705
389.802	9602
389.883	17056
389.963	42457
390.043	25831
390.124	6729
390.204	13372
390.284	35600
390.365	28440
390.445	62998
390.525	261418
390.605	254043
390.686	39583
390.766	10714
390.846	7241
390.927	6202
391.007	6130
391.087	7521
391.167	5285
391.247	5455
391.328	8402
391.408	8420
391.488	7869
391.568	7059
391.648	9180
391.728	11827
391.808	12394
391.888	14500
391.969	23310
392.049	32944
392.129	19472
392.209	24863
392.289	47537
392.369	32640
392.449	20016
392.529	22255
392.609	26007
392.689	35404
392.769	63071
392.849	67725
392.929	63484
393.009	107626
393.089	142418
393.169	282316
393.248	1143723
393.328	3293938
393.408	3274841
393.488	956923
393.568	238338
393.648	110849
393.728	67660
393.807	48511
393.887	39495
393.967	33618
394.047	32106
394.127	33365
394.206	59300
394.286	279583
394.366	1017304
394.446	1032827
394.525	217131
394.605	44291
394.685	26731
394.764	23422
394.844	23572
394.924	23575
395.003	17184
395.083	15125
395.163	15812
395.242	15119
395.322	14943
395.402	13919
395.481	17482
395.561	20884
395.640	32661
395.720	42831
395.799	33670
395.879	38777
395.958	77493
396.038	391256
396.117	1338064
396.197	1394456
396.276	335111
396.356	79804
396.435	55523
396.515	59770
396.594	87382
396.673	245771
396.753	1136811
396.832	2815144
396.912	1912072
396.991	386026
397.070	103167
397.150	52306
397.229	37428
397.308	37918
397.388	45015
397.467	27358
397.546	16055
397.625	12187
397.705	14605
397.784	13203
397.863	8986
397.942	8818
398.022	6852
398.101	6545
398.180	8934
398.259	7192
398.338	5935
398.417	6287
398.497	5206
398.576	5817
398.655	4020
398.734	4568
398.813	3798
398.892	5289
398.971	7031
399.050	4486
399.129	2344
399.208	3775
399.287	3950
399.366	2867
399.445	2748
399.524	3651
399.603	2302
399.682	4786
399.761	7982
399.840	9304
399.919	6365
399.998	2461
400.077	1197
400.156	886
400.235	3731
400.313	2053
400.392	3090
400.471	15983
400.550	24506
400.629	7986
400.708	2838
400.786	1647
400.865	1848
400.944	2017
401.023	4007
401.102	2166
401.180	1346
401.259	2316
401.338	1752
401.416	3791
401.495	2380
401.574	2003
401.652	1104
401.731	2796
401.810	1442
401.888	930
401.967	709
402.046	1193
402.124	2433
402.203	2523
402.281	2040
402.360	1325
402.438	2022
402.517	2030
402.596	1143
402.674	1266
402.753	853
402.831	1435
402.910	1250
402.988	4706
403.066	10559
403.145	8104
403.223	4945
403.302	7648
403.380	7400
403.459	7029
403.537	2724
403.615	2787
403.694	-196
403.772	2400
403.850	914
403.929	1813
404.007	1470
404.085	4803
404.164	1902
404.242	1985
404.320	2999
404.398	6663
404.477	30508
404.555	129717
404.633	120889
404.711	16720
404.789	3617
404.868	1237
404.946	798
405.024	1656
405.102	617
405.180	1029
405.258	103
405.336	1866
405.415	-166
405.493	2125
405.571	1962
405.649	132
405.727	-151
405.805	2664
405.883	1738
405.961	1874
406.039	1085
406.117	128
406.195	5022
406.273	26791
406.351	88555
406.429	56755
406.507	5257
406.585	1279
406.663	2189
406.740	2970
406.818	2895
406.896	1090
406.974	2184
407.052	7628
407.130	48480
407.208	69863
407.285	15607
407.363	1093
407.441	2381
407.519	1691
407.596	7363
407.674	48834
407.752	173736
407.830	136181
407.907	15215
407.985	2499
408.063	1844
408.141	1786
408.218	1743
408.296	1225
408.373	1371
408.451	2706
408.529	2407
408.606	1208
408.684	1139
408.762	920
408.839	231
408.917	802
408.994	860
409.072	2
409.149	1503
409.227	3849
409.304	4727
409.382	5294
409.459	5992
409.537	9547
409.614	7470
409.692	4388
409.769	4620
409.846	9680
409.924	11575
410.001	5140
410.079	3602
410.156	3478
410.233	3351
410.311	3888
410.388	2410
410.465	1830
410.543	598
410.620	3006
410.697	2639
410.775	3458
410.852	1742
410.929	3688
411.006	3790
411.083	2126
411.161	2070
411.238	1627
411.315	291
411.392	1709
411.469	1724
411.547	1317
411.624	-470
411.701	1359
411.778	2345
411.855	5078
411.932	2074
412.009	169
412.086	663
412.163	862
412.240	1189
412.317	1895
412.394	464
412.471	1361
412.548	-27
412.625	1038
412.702	1433
412.779	3433
412.856	2295
412.933	690
413.010	2198
413.087	6834
413.164	13554
413.241	18749
413.318	4294
413.395	3068
413.471	3291
413.548	2451
413.625	1390
413.702	821
413.779	1708
413.855	859
413.932	-437
414.009	-445
414.086	131
414.162	1203
414.239	2145
414.316	13301
414.393	29839
414.469	11623
414.546	274
414.623	4
414.699	0
414.776	1554
414.853	181
414.929	1360
415.006	525
415.082	527
415.159	569
415.236	1474
415.312	1029
415.389	3411
415.465	3266
415.542	2992
415.618	583
415.695	2254
415.771	1977
415.848	695
415.924	129
416.000	477
416.077	1521
416.153	-61
416.230	508
416.306	220
416.383	-196
416.459	689
416.535	-422
416.612	537
416.688	-378
416.764	351
416.841	-492
416.917	376
416.993	253
417.069	1339
417.146	1711
417.222	2234
417.298	1271
417.374	529
417.451	1132
417.527	923
417.603	1482
417.679	1467
417.755	855
417.831	251
417.908	-70
417.984	734
418.060	-382
418.136	3526
418.212	4513
418.288	784
418.364	738
418.440	-312
418.516	1350
418.592	819
418.668	4239
418.744	8018
418.820	6492
418.896	1654
418.972	-563
419.048	369
419.124	3075
419.200	1897
419.276	914
419.352	252
419.428	-415
419.504	840
419.579	2060
419.655	1282
419.731	820
419.807	6199
419.883	11044
419.959	7583
420.034	2531
420.110	4804
420.186	16273
420.262	14530
420.337	2168
420.413	1419
420.489	326
420.565	1390
420.640	-84
420.716	1452
420.792	-130
420.867	2481
420.943	804
421.019	2818
421.094	2471
421.170	2229
421.245	435
421.321	2226
421.397	4653
421.472	31172
421.548	90937
421.623	55064
421.699	7401
421.774	3329
421.850	2689
421.925	5420
422.001	5451
422.076	5339
422.152	5013
422.227	7023
422.302	10612
422.378	15853
422.453	31607
422.529	109532
422.604	394995
422.679	701033
422.755	376877
422.830	95430
422.905	31468
422.981	16378
423.056	10183
423.131	8048
423.207	5928
423.282	5266
423.357	7480
423.432	5609
423.508	4580
423.583	9072
423.658	7661
423.733	3127
423.808	1878
423.883	4323
423.959	4170
424.034	3651
424.109	3323
424.184	1813
424.259	1027
424.334	697
424.409	374
424.484	636
424.559	1366
424.634	550
424.709	2276
424.784	3955
424.859	2001
424.934	2578
425.009	12573
425.084	19234
425.159	7649
425.234	1281
425.309	-701
425.384	384
425.459	-707
425.534	485
425.609	-372
425.683	704
425.758	113
425.833	710
425.908	1271
425.983	7449
426.058	20440
426.132	9492
426.207	432
426.282	695
426.357	-655
426.431	376
426.506	-308
426.581	233
426.655	401
426.730	586
426.805	334
426.879	859
426.954	-54
427.029	3534
427.103	24677
427.178	64393
427.253	32165
427.327	2104
427.402	-203
427.476	-243
427.551	-222
427.625	805
427.700	17
427.774	310
427.849	454
427.923	96
427.998	-516
428.072	279
428.147	5336
428.221	39585
428.296	117348
428.370	71693
428.444	5320
428.519	743
428.593	573
428.667	771
428.742	2143
428.816	12098
428.890	59910
428.965	102472
429.039	24811
429.113	2091
429.188	579
429.262	553
429.336	1681
429.410	6849
429.485	4968
429.559	914
429.633	695
429.707	492
429.781	9235
429.855	52010
429.930	89048
430.004	23996
430.078	7946
430.152	44990
430.226	184935
430.300	203268
430.374	28601
430.448	3968
430.522	3296
430.596	6536
430.670	23242
430.744	108734
430.818	154308
430.892	31363
430.966	1929
431.040	1303
431.114	206
431.188	-692
431.262	-419
431.336	-1
431.410	908
431.484	1608
431.557	3239
431.631	196
431.705	3151
431.779	28601
431.853	107008
431.927	82317
432.000	7064
432.074	568
432.148	337
432.222	376
432.295	-199
432.369	193
432.443	2555
432.516	25956
432.590	66318
432.664	27682
432.737	904
432.811	-802
432.885	-543
432.958	138
433.032	-1121
433.106	-790
433.179	-371
433.253	-243
433.326	-974
433.400	-379
433.473	-195
433.547	-693
433.620	236
433.694	991
433.767	1023
433.841	-417
433.914	-744
433.988	-303
434.061	-166
434.134	-116
434.208	-254
434.281	-488
434.355	-711
434.428	-49
434.501	-946
434.575	-419
434.648	-560
434.721	-726
434.795	-1226
434.868	65
434.941	-869
435.014	-621
435.088	-625
435.161	-136
435.234	38
435.307	1717
435.381	809
435.454	2750
435.527	3668
435.600	4177
435.673	2556
435.746	1011
435.819	-346
435.892	611
435.966	-14
436.039	-484
436.112	87
436.185	-1069
436.258	-1194
436.331	-1567
436.404	-138
436.477	-152
436.550	-1336
436.623	-580
436.696	-1199
436.769	168
436.842	-572
436.915	-281
436.987	-566
437.060	-169
437.133	-1180
437.206	-695
437.279	-589
437.352	-636
437.425	-950
437.498	308
437.570	780
437.643	-143
437.716	-425
437.789	-876
437.861	-1209
437.934	-903
438.007	-1206
438.080	-925
438.152	140
438.225	5439
438.298	45032
438.370	123289
438.443	50711
438.516	2567
438.588	-495
438.661	-198
438.734	-462
438.806	-100
438.879	553
438.951	-529
439.024	-416
439.096	-110
439.169	-689
439.241	-194
439.314	-1044
439.386	-811
439.459	-411
439.531	-247
439.604	-287
439.676	69
439.749	-1008
439.821	-1100
439.893	62
439.966	-796
440.038	-1257
440.110	134
440.183	-645
440.255	-1234
440.327	1202
440.400	12616
440.472	50106
440.544	37352
440.617	2145
440.689	1096
440.761	-103
440.833	753
440.905	-421
440.978	-645
441.050	-816
441.122	-258
441.194	-1031
441.266	-177
441.338	-306
441.411	1500
441.483	12448
441.555	18043
441.627	2386
441.699	411
441.771	-840
441.843	-160
441.915	-521
441.987	-384
442.059	-553
442.131	177
442.203	516
442.275	571
442.347	994
442.419	6273
442.491	42356
442.563	104705
442.635	41482
442.706	5424
442.778	2227
442.850	814
442.922	-43
442.994	370
443.066	12
443.137	1336
443.209	349
443.281	3158
443.353	10074
443.425	58075
443.496	208327
443.568	201523
443.640	63818
443.711	8587
443.783	1425
443.855	297
443.926	-330
443.998	-50
444.070	-360
444.141	-18
444.213	210
444.285	1781
444.356	721
444.428	47
444.499	-828
444.571	-324
444.642	-375
444.714	990
444.785	684
444.857	1103
444.928	-119
445.000	447
445.071	786
445.143	1230
445.214	2110
445.285	4847
445.357	23315
445.428	139750
445.500	338996
445.571	187186
445.642	82204
445.714	19173
445.785	4567
445.856	1420
445.928	1618
445.999	952
446.070	694
446.141	762
446.213	1281
446.284	43
446.355	-125
446.426	-159
446.497	-676
446.569	-570
446.640	646
446.711	1356
446.782	-588
446.853	-284
446.924	612
446.995	-503
447.066	-318
447.138	-254
447.209	-443
447.280	-986
447.351	-778
447.422	-609
447.493	-1010
447.564	478
447.635	791
447.706	-237
447.777	-642
447.847	-800
447.918	-1548
447.989	-175
448.060	-798
448.131	280
448.202	472
448.273	997
448.344	-837
448.414	-591
448.485	-1293
448.556	-492
448.627	-995
448.698	-457
448.768	-1171
448.839	-1423
448.910	-1423
448.981	417
449.051	-933
449.122	-539
449.193	-1323
449.263	-402
449.334	-1425
449.405	1052
449.475	2002
449.546	452
449.616	-397
449.687	-215
449.758	-316
449.828	-1438
449.899	-1272
449.969	-988
450.040	-1173
450.110	792
450.181	-1187
450.251	-1021
450.322	-528
450.392	-357
450.463	-639
450.533	-789
450.604	-787
450.674	-625
450.744	-1047
450.815	-976
450.885	-1097
450.955	104
451.026	-973
451.096	-1058
451.166	-500
451.237	-974
451.307	127
451.377	-724
451.447	-2002
451.518	-745
451.588	-624
451.658	-269
451.728	-394
451.799	-409
451.869	-103
451.939	-645
452.009	-859
452.079	52
452.149	-153
452.219	87
452.289	223
452.360	-198
452.430	-1301
452.500	166
452.570	832
452.640	3142
452.710	9665
452.780	10132
452.850	5314
452.920	4959
452.990	751
453.060	389
453.129	-601
453.199	-268
453.269	406
453.339	936
453.409	1479
453.479	946
453.549	2017
453.619	2076
453.688	-137
453.758	275
453.828	-662
453.898	-40
453.968	-101
454.037	-654
454.087	-636
454.107	-640
454.168	-564
454.177	-569
454.247	-570
454.249	-546
454.316	-151
454.330	-189
454.386	-444
454.411	-454
454.456	-503
454.492	-622
454.525	-746
454.574	-23
454.595	297
454.655	-209
454.665	-326
454.734	-214
454.736	-202
454.804	-310
454.817	-92
454.873	733
454.898	721
454.943	715
454.979	840
455.013	962
455.060	394
455.082	218
455.141	485
455.152	760
455.221	4066
455.222	4253
455.291	8829
455.303	12592
455.360	26625
455.384	41180
455.430	65056
455.465	46375
455.499	30879
455.546	11960
455.569	3048
455.627	1514
455.638	1178
455.707	287
455.708	300
455.777	54
455.789	48
455.846	-230
455.869	-264
455.916	-226
455.950	11
455.985	170
456.031	535
456.054	672
456.112	318
456.124	263
456.193	-371
456.193	-388
456.262	-176
456.274	-104
456.332	108
456.355	329
456.401	779
456.436	420
456.470	-48
456.516	102
456.540	238
456.597	168
456.609	82
456.678	-61
456.678	-69
456.747	131
456.759	181
456.817	104
456.840	97
456.886	218
456.920	224
456.955	61
457.001	-94
457.024	-159
457.082	83
457.093	137
457.162	115
457.163	130
457.232	916
457.243	882
457.301	445
457.324	327
457.370	319
457.405	487
457.439	603
457.485	1203
457.508	1517
457.566	1355
457.577	1447
457.646	2930
457.647	2959
457.715	5081
457.727	5670
457.784	8862
457.808	11785
457.853	13563
457.889	14504
457.922	16647
457.969	12117
457.991	11117
458.050	13407
458.060	13593
458.129	22723
458.130	22989
458.198	22693
458.211	19037
458.267	9136
458.292	6664
458.336	4679
458.372	5327
458.405	7604
458.453	12547
458.474	15138
458.533	25663
458.543	25352
458.611	35188
458.614	34886
458.680	21643
458.694	16723
458.749	5108
458.775	3764
458.818	2033
458.855	2044
458.887	1725
458.936	1273
458.955	1303
459.016	1379
459.024	1349
459.093	1607
459.097	1601
459.162	1098
459.177	1053
459.230	1189
459.257	1388
459.299	1635
459.338	1603
459.368	1390
459.418	1385
459.437	1471
459.499	1367
459.505	1339
459.574	1560
459.579	1532
459.643	1230
459.659	1294
459.711	1353
459.740	1449
459.780	1707
459.820	1457
459.849	1117
459.900	1079
459.917	1170
459.981	1749
459.986	1763
460.054	1552
460.061	1499
460.123	1619
460.141	1803
460.191	1707
460.222	1753
460.260	2074
460.302	2086
460.328	1902
460.382	2115
460.397	2564
460.462	3863
460.465	4197
460.534	12447
460.543	13565
460.602	24434
460.623	28866
460.671	44668
460.703	60469
460.739	47774
460.783	24781
460.808	23138
460.864	6793
460.876	4352
460.944	2373
460.945	2338
461.013	1860
461.024	1852
461.081	2201
461.104	2207
461.150	1799
461.184	1679
461.218	2133
461.264	2248
461.286	1945
461.345	1891
461.355	1985
461.423	2224
461.425	2228
461.491	1537
461.505	1399
461.559	1643
461.585	1895
461.628	1890
461.665	1896
461.696	1921
461.745	2056
461.764	2096
461.825	1416
461.832	1421
461.901	2277
461.905	2319
461.969	1428
461.985	1242
462.037	1912
462.065	2037
462.105	1591
462.145	1658
462.173	2164
462.225	2575
462.241	2327
462.305	1732
462.310	1776
462.378	2004
462.385	2101
462.446	2290
462.465	2166
462.514	2348
462.545	2643
462.582	2630
462.625	2591
462.650	2507
462.705	2154
462.718	2146
462.785	2139
462.786	2133
462.854	1802
462.865	1700
462.922	2059
462.945	2306
462.990	2294
463.025	2108
463.058	1862
463.104	1979
463.126	2029
463.184	1646
463.194	1719
463.262	2326
463.264	2354
463.330	2923
463.344	2982
463.398	2715
463.424	2541
463.466	2076
463.504	1716
463.533	1829
463.583	1905
463.601	1921
463.663	2364
463.669	2377
463.737	2282
463.743	2269
463.805	2925
463.823	3088
463.873	3289
463.903	3524
463.940	3143
463.982	2481
464.008	2259
464.062	1976
464.076	2194
464.142	2877
464.144	2863
464.211	2589
464.221	2481
464.279	2403
464.301	2462
464.347	2358
464.381	2263
464.414	2304
464.461	2371
464.482	2528
464.540	2815
464.550	2894
464.617	3569
464.620	3588
464.685	5232
464.699	5528
464.753	8700
464.779	10355
464.820	10141
464.859	10088
464.888	9354
464.938	7591
464.956	7434
465.018	6865
465.023	6929
465.091	7561
465.098	7642
465.158	6834
465.177	6539
465.226	6955
465.257	7179
465.293	7030
465.336	6868
465.361	7224
465.416	8035
465.428	7846
465.495	6673
465.496	6687
465.563	7017
465.575	7080
465.631	7074
465.654	7096
465.698	7185
465.734	7123
465.765	6650
465.813	5950
465.833	6231
465.893	7064
465.900	6990
465.968	6332
465.972	6259
466.035	6921
466.052	7123
466.102	7190
466.131	7140
466.170	7002
466.210	6942
466.237	7026
466.290	7136
466.304	7181
466.369	7258
466.372	7260
466.439	6927
466.449	6856
466.506	7849
466.528	8225
466.573	7984
466.607	7787
466.641	8314
466.687	8972
466.708	8708
466.766	7934
466.775	7970
466.842	8128
466.845	8121
466.909	8041
466.925	8006
466.977	9206
467.004	9812
467.044	10295
467.083	10734
467.111	12846
467.163	16773
467.178	16381
467.242	14573
467.245	14557
467.312	13660
467.321	13516
467.379	12220
467.400	11715
467.446	11618
467.480	11509
467.559	10788
467.638	10866
467.717	9963
467.796	11463
467.875	11717
467.955	9766
468.034	10190
468.113	10767
468.192	10665
468.271	11370
468.350	12230
468.429	15475
468.508	14516
468.588	10629
468.667	9473
468.746	10841
468.825	9196
468.904	8559
468.983	8312
469.062	9721
469.141	8836
469.220	8726
469.299	10002
469.378	11616
469.456	15668
469.535	12771
469.614	10635
469.693	11363
469.772	10959
469.851	12136
469.930	10195
470.009	11352
470.088	10551
470.166	11178
470.245	12944
470.324	11213
470.403	10018
470.482	10139
470.560	10017
470.639	9112
470.718	9867
470.797	10217
470.875	10727
470.954	9392
471.033	9477
471.111	8874
471.190	7660
471.269	8387
471.347	8073
471.426	9081
471.505	10970
471.583	12933
471.662	10324
471.740	10267
471.819	9007
471.898	10453
471.976	10192
472.055	9592
472.133	10328
472.212	9671
472.290	9004
472.369	8452
472.447	8884
472.526	8600
472.604	8269
472.683	9531
472.761	7918
472.839	8283
472.918	7380
472.996	7764
473.075	7887
473.153	9073
473.231	7053
473.310	8424
473.388	7063
473.466	9047
473.545	10684
473.623	11645
473.701	9741
473.780	8805
473.858	8703
473.936	9301
474.014	7960
474.093	8826
474.171	8447
474.249	8310
474.327	8023
474.405	7853
474.484	7444
474.562	7338
474.640	6365
474.718	7448
474.796	7458
474.874	8073
474.952	7087
475.030	7583
475.108	6226
475.187	8072
475.265	7238
475.343	8184
475.421	9820
475.499	6623
475.577	7924
475.655	7552
475.733	8117
475.811	7239
475.889	6942
475.966	7368
476.044	6425
476.122	6772
476.200	6522
476.278	6207
476.356	5516
476.434	7002
476.512	6192
476.590	6468
476.667	5697
476.745	5925
476.823	6399
476.901	5977
476.979	5857
477.056	6832
477.134	6750
477.212	6493
477.290	5920
477.367	6326
477.445	5598
477.523	5559
477.601	5714
477.678	5969
477.756	5348
477.834	5864
477.911	5212
477.989	6142
478.066	4174
478.144	5898
478.222	5071
478.299	6474
478.377	6281
478.454	5163
478.532	4069
478.609	5016
478.687	5432
478.764	5925
478.842	5345
478.919	6384
478.997	5098
479.074	4964
479.152	4647
479.229	5867
479.307	4106
479.384	4267
479.461	4541
479.539	4818
479.616	4159
479.694	4416
479.771	4110
479.848	5272
479.926	3165
480.003	5222
480.080	4221
480.157	5398
480.235	3967
480.312	3885
480.389	3883
480.467	4764
480.544	4811
480.621	4566
480.698	4195
480.775	3925
480.853	4145
480.930	4419
481.007	4272
481.084	5184
481.161	6334
481.238	4630
481.315	2816
481.392	4093
481.470	4188
481.547	3371
481.624	3933
481.701	3644
481.778	3865
481.855	4367
481.932	3603
482.009	4816
482.086	3899
482.163	4855
482.240	5816
482.317	6791
482.393	3733
482.470	4866
482.547	4311
482.624	3996
482.701	3739
482.778	4249
482.855	4121
482.932	3608
483.009	3370
483.085	4713
483.162	5524
483.239	5881
483.316	5158
483.393	5160
483.469	3562
483.546	4566
483.623	3479
483.699	3865
483.776	3984
483.853	4422
483.930	5990
484.006	8366
484.083	16924
484.160	40148
484.236	56964
484.313	35395
484.389	27591
484.466	26030
484.543	25413
484.619	26425
484.696	26487
484.772	24542
484.849	23930
484.925	22523
485.002	22967
485.078	23564
485.155	21751
485.231	21822
485.308	21469
485.384	22753
485.461	22566
485.537	22583
485.614	23247
485.690	22628
485.766	21394
485.843	22018
485.919	24132
485.995	22323
486.072	19985
486.148	20362
486.224	19900
486.301	19550
486.377	19329
486.453	20873
486.530	25107
486.606	36542
486.682	31195
486.758	26804
486.835	24596
486.911	24747
486.987	28167
487.063	32688
487.139	33868
487.215	30482
487.292	23528
487.368	22548
487.444	22489
487.520	26467
487.596	31230
487.672	60277
487.748	122131
487.824	113016
487.900	27859
487.976	22101
488.052	18873
488.128	18789
488.204	18279
488.280	17757
488.356	17580
488.432	18233
488.508	17610
488.584	17456
488.660	16253
488.736	16228
488.812	18253
488.888	21575
488.964	24466
489.039	34934
489.115	38733
489.191	23673
489.267	15480
489.343	15712
489.418	14184
489.494	14234
489.570	14342
489.646	14834
489.722	14629
489.797	14330
489.873	16684
489.949	16178
490.024	14971
490.100	12674
490.176	13773
490.251	14032
490.327	15824
490.403	12246
490.478	13387
490.554	11352
490.629	11958
490.705	11657
490.781	12822
490.856	10861
490.932	12672
491.007	12913
491.083	12805
491.158	11534
491.234	12370
491.309	11192
491.385	12647
491.460	10886
491.536	11596
491.611	9703
491.686	11551
491.762	13870
491.837	20793
491.913	28013
491.988	35078
492.063	33999
492.139	8821
492.214	11004
492.289	8010
492.365	11196
492.440	9882
492.515	7935
492.590	9019
492.666	8535
492.741	10636
492.816	8162
492.891	9157
492.967	9349
493.042	8799
493.117	11840
493.192	16346
493.267	52420
493.342	133039
493.418	105846
493.493	11926
493.568	8002
493.643	8066
493.718	8222
493.793	8614
493.868	10258
493.943	6931
494.018	7857
494.093	5712
494.168	7031
494.243	6263
494.318	7135
494.393	5707
494.468	6753
494.543	5878
494.618	7861
494.693	4665
494.768	6059
494.842	5601
494.917	5521
494.992	6447
495.067	4364
495.142	5180
495.217	6663
495.292	4932
495.366	6902
495.441	5694
495.516	7496
495.591	14233
495.665	39271
495.740	62648
495.815	13304
495.890	4618
495.964	4129
496.039	6664
496.114	5212
496.188	7209
496.263	6854
496.338	4076
496.412	4723
496.487	4802
496.561	5600
496.636	6502
496.710	4563
496.785	4785
496.860	5640
496.934	4206
497.009	4626
497.083	4945
497.158	4178
497.232	4679
497.307	5829
497.381	4172
497.455	4629
497.530	6303
497.604	4583
497.679	5376
497.753	8664
497.827	8878
497.902	9030
497.976	8948
498.050	12196
498.125	21896
498.199	20084
498.273	17497
498.348	12565
498.422	9319
498.496	8536
498.570	6985
498.645	5669
498.719	3851
498.793	3916
498.867	5139
498.941	6232
499.016	9680
499.090	14876
499.164	4938
499.238	4155
499.312	3389
499.386	6441
499.460	3603
499.534	3970
499.609	3432
499.683	2976
499.757	3342
499.831	7194
499.905	11821
499.979	7171
500.053	4875
500.127	7143
500.201	5802
500.275	4102
500.349	4589
500.422	4589
500.496	7532
500.570	14315
500.644	11848
500.718	9677
500.792	4360
500.866	4435
500.940	3191
501.013	3891
501.087	3894
501.161	7327
501.235	3395
501.309	6353
501.382	9346
501.456	8580
501.530	4131
501.603	4487
501.677	3345
501.751	1964
501.825	5311
501.898	5569
501.972	5318
502.046	4091
502.119	3414
502.193	5158
502.266	4443
502.340	4449
502.413	3491
502.487	5109
502.561	3272
502.634	4949
502.708	4781
502.781	3452
502.855	2650
502.928	2841
503.002	1683
503.075	2783
503.149	1776
503.222	3245
503.295	1701
503.369	3195
503.442	2792
503.516	5354
503.589	5548
503.662	3874
503.736	3871
503.809	6304
503.882	5866
503.956	11203
504.029	25411
504.102	64446
504.175	53461
504.249	10774
504.322	5032
504.395	3416
504.468	2979
504.542	2158
504.615	2299
504.688	3531
504.761	1695
504.834	4368
504.907	5330
504.980	6113
505.053	2935
505.127	2959
505.200	4293
505.273	1746
505.346	1483
505.419	2938
505.492	3242
505.565	3970
505.638	4671
505.711	3208
505.784	1552
505.857	1501
505.930	2288
506.003	973
506.076	2841
506.149	1726
506.221	673
506.294	3024
506.367	2169
506.440	5855
506.513	3623
506.586	2740
506.659	863
506.731	2177
506.804	3290
506.877	2891
506.950	1872
507.022	3293
507.095	422
507.168	2901
507.241	2569
507.313	2100
507.386	2024
507.459	4074
507.531	2008
507.604	2615
507.677	2088
507.749	2060
507.822	7398
507.894	16715
507.967	16153
508.040	9242
508.112	7735
508.185	8173
508.257	5818
508.330	8412
508.402	5790
508.475	5476
508.547	5057
508.620	6145
508.692	5573
508.765	5909
508.837	4906
508.909	6348
508.982	6195
509.054	6305
509.127	4482
509.199	5151
509.271	3900
509.344	5038
509.416	4875
509.488	4643
509.560	5147
509.633	5466
509.705	4946
509.777	5430
509.849	6322
509.922	5201
509.994	5409
510.066	7228
510.138	11083
510.210	22643
510.283	14953
510.355	12558
510.427	9873
510.499	10063
510.571	8362
510.643	9239
510.715	11390
510.787	9306
510.859	9085
510.931	9234
511.003	10136
511.076	7877
511.148	7579
511.219	7961
511.291	7917
511.363	7619
511.435	7820
511.507	7211
511.579	7119
511.651	7460
511.723	6420
511.795	6172
511.867	5981
511.939	7777
512.010	6830
512.082	6894
512.154	6828
512.226	10538
512.298	17941
512.369	18880
512.441	14530
512.513	13150
512.585	9212
512.656	11394
512.728	9841
512.800	9765
512.871	8930
512.943	9404
513.015	8891
513.086	8968
513.158	9282
513.230	9176
513.301	11555
513.373	12589
513.444	8977
513.516	8765
513.588	8428
513.659	9487
513.731	9467
513.802	9094
513.874	15139
513.945	16522
514.016	7300
514.088	7121
514.159	8610
514.231	13380
514.302	16679
514.374	13427
514.445	10500
514.516	12459
514.588	8546
514.659	8974
514.730	9594
514.802	11021
514.873	8253
514.944	11375
515.016	9767
515.087	8410
515.158	8581
515.229	10290
515.301	9520
515.372	11046
515.443	7154
515.514	8763
515.585	6370
515.656	7996
515.728	7126
515.799	8100
515.870	8610
515.941	7883
516.012	9262
516.083	14634
516.154	12511
516.225	13488
516.296	11135
516.367	9735
516.438	9515
516.509	11125
516.580	17592
516.651	44225
516.722	83292
516.793	24521
516.864	12036
516.935	11457
517.006	12290
517.077	18247
517.148	44468
517.219	127556
517.289	96493
517.360	12822
517.431	8498
517.502	7225
517.573	8464
517.643	10642
517.714	11572
517.785	10488
517.856	9731
517.926	10750
517.997	11331
518.068	10890
518.138	15689
518.209	32252
518.280	121289
518.350	234693
518.421	40461
518.492	11615
518.562	10177
518.633	12387
518.703	17611
518.774	46518
518.845	108916
518.915	56434
518.986	13152
519.056	13176
519.127	18030
519.197	20506
519.268	13287
519.338	9100
519.408	7887
519.479	10536
519.549	7851
519.620	7185
519.690	5457
519.760	7017
519.831	5305
519.901	4938
519.971	5199
520.042	5626
520.112	5002
520.182	7430
520.253	6958
520.323	6425
520.393	5629
520.463	7519
520.534	2502
520.604	7482
520.674	4822
520.744	4648
520.814	5877
520.885	5978
520.955	5549
521.025	8209
521.095	3499
521.165	5130
521.235	4539
521.305	4714
521.375	5302
521.445	6243
521.515	6258
521.585	7385
521.655	4640
521.725	6521
521.795	5758
521.865	3097
521.935	5959
522.005	4347
522.075	4475
522.145	4973
522.215	3263
522.285	5436
522.355	5013
522.424	5114
522.494	4675
522.564	8304
522.634	17533
522.704	29051
522.774	6150
522.843	5111
522.913	3768
522.983	5600
523.053	3560
523.122	5009
523.192	9161
523.262	22023
523.331	11023
523.401	5243
523.471	2600
523.540	4815
523.610	2240
523.680	3988
523.749	3552
523.819	3601
523.888	3082
523.958	3553
524.027	3259
524.097	3335
524.166	2967
524.236	3958
524.305	4954
524.375	3798
524.444	2255
524.514	4784
524.583	2793
524.653	3173
524.722	3265
524.791	3195
524.861	3954
524.930	3200
524.999	2465
525.069	4604
525.138	2465
525.207	2368
525.277	3457
525.346	4037
525.415	3816
525.484	5541
525.554	3058
525.623	5349
525.692	6528
525.761	6995
525.830	8017
525.900	10107
525.969	17415
526.038	34574
526.107	101395
526.176	199168
526.245	90983
526.314	44638
526.383	121641
526.452	129665
526.522	276886
526.591	114134
526.660	22863
526.729	16277
526.797	24503
526.867	68938
526.935	256788
527.004	511364
527.073	116071
527.142	9841
527.211	5697
527.280	6831
527.349	4094
527.418	3057
527.487	3930
527.555	2035
527.624	2430
527.693	2371
527.762	3227
527.831	2565
527.899	2839
527.968	3350
528.037	1780
528.106	4361
528.174	6200
528.243	4369
528.312	5661
528.380	5249
528.449	1303
528.518	3979
528.586	-321
528.655	2413
528.723	1797
528.792	2592
528.861	1469
528.929	432
528.998	2011
529.066	1701
529.135	1253
529.203	1631
529.272	632
529.340	2005
529.409	1906
529.477	1167
529.545	-429
529.614	3060
529.682	82
529.751	1395
529.819	3236
529.887	1029
529.956	1148
530.024	2094
530.092	142
530.161	2996
530.229	3058
530.297	1051
530.365	1930
530.434	1431
530.502	945
530.570	2118
530.638	-175
530.707	2748
530.775	2851
530.843	1338
530.911	1613
530.979	1521
531.047	1148
531.115	2026
531.183	787
531.252	2040
531.320	1054
531.388	501
531.456	1299
531.524	-174
531.592	2781
531.660	3222
531.728	826
531.796	1155
531.864	1184
531.932	1791
532.000	870
532.067	2322
532.135	1084
532.203	2967
532.271	2051
532.339	7213
532.407	13285
532.475	4512
532.542	2958
532.610	3527
532.678	7038
532.746	37428
532.814	42330
532.881	6452
532.949	2887
533.017	2636
533.084	1208
533.152	1915
533.220	1560
533.287	1564
533.355	1716
533.423	2029
533.490	695
533.558	2110
533.625	2801
533.693	3087
533.761	2741
533.828	2257
533.896	1870
533.963	7659
534.031	6307
534.098	7452
534.166	2668
534.233	2622
534.300	4223
534.368	3942
534.435	2431
534.503	3862
534.570	3924
534.637	3450
534.705	5284
534.772	10768
534.840	30333
534.907	124217
534.974	61365
535.041	5806
535.109	3538
535.176	2542
535.243	2367
535.310	3350
535.378	1945
535.445	3752
535.512	2472
535.579	3242
535.646	1407
535.714	5183
535.781	5215
535.848	4466
535.915	3523
535.982	3539
536.049	3040
536.116	4313
536.183	2982
536.250	2922
536.317	2641
536.384	5547
536.451	5977
536.518	5327
536.585	3233
536.652	6565
536.719	8097
536.786	4108
536.853	4477
536.920	7547
536.987	10624
537.053	11521
537.120	33683
537.187	14429
537.254	3005
537.321	2747
537.388	4560
537.454	3300
537.521	2868
537.588	3020
537.654	6545
537.721	6616
537.788	5640
537.855	4941
537.921	3885
537.988	4058
538.055	4080
538.121	3510
538.188	4552
538.254	7859
538.321	11894
538.388	6134
538.454	3826
538.521	4550
538.587	3246
538.654	3845
538.720	1962
538.787	3820
538.853	3935
538.920	4009
538.986	2869
539.053	3886
539.119	4055
539.185	4018
539.252	6204
539.318	6892
539.385	7083
539.451	6108
539.517	5881
539.583	7355
539.650	13554
539.716	16705
539.782	4916
539.849	3742
539.915	4597
539.981	5004
540.047	4952
540.114	3473
540.180	4508
540.246	4110
540.312	7240
540.378	12735
540.444	10725
540.510	15189
540.576	20340
540.643	5355
540.709	2658
540.775	3993
540.841	4091
540.907	6642
540.973	8289
541.039	9462
541.105	7492
541.171	4946
541.237	4209
541.303	5714
541.369	7046
541.435	7846
541.500	10982
541.566	5190
541.632	3666
541.698	3496
541.764	4271
541.830	4095
541.896	2907
541.961	4131
542.027	3805
542.093	5218
542.159	4999
542.224	5779
542.290	8614
542.356	11822
542.421	11360
542.487	5661
542.553	4966
542.618	5373
542.684	3889
542.750	4704
542.815	4728
542.881	8923
542.947	23026
543.012	9896
543.078	3678
543.143	3740
543.209	5265
543.274	4765
543.340	6085
543.405	13372
543.471	9906
543.536	4719
543.602	4816
543.667	3032
543.732	5394
543.798	4671
543.863	5257
543.928	3435
543.994	3408
544.059	4519
544.124	4894
544.190	5262
544.255	4917
544.320	5592
544.386	3912
544.451	7658
544.516	7699
544.581	8180
544.646	19293
544.712	16837
544.777	6487
544.842	4959
544.907	4189
544.972	4500
545.037	4920
545.102	5830
545.168	4589
545.233	5857
545.298	6841
545.363	7729
545.428	7985
545.493	14516
545.558	16365
545.623	6860
545.688	4436
545.753	6710
545.818	5870
545.883	7307
545.947	5505
546.012	6236
546.077	5233
546.142	7508
546.207	6973
546.272	9260
546.337	8126
546.401	9081
546.466	7889
546.531	7489
546.596	9263
546.661	8559
546.725	9069
546.790	9422
546.855	9074
546.919	10879
546.984	11254
547.049	13253
547.113	13358
547.178	14975
547.243	17988
547.307	21229
547.372	21065
547.436	20610
547.501	22838
547.565	24423
547.630	23843
547.695	21779
547.759	20784
547.823	21030
547.888	22613
547.952	23403
548.017	23516
548.081	26022
548.146	23626
548.210	25707
548.274	26195
548.339	24868
548.403	22230
548.468	20583
548.532	20617
548.596	22639
548.660	22077
548.725	26485
548.789	26100
548.853	27020
548.917	23643
548.982	22490
549.046	19781
549.110	18587
549.174	21255
549.238	23899
549.303	25564
549.367	26339
549.431	23704
549.495	23389
549.559	24165
549.623	29429
549.687	28895
549.751	32266
549.815	34437
549.879	34522
549.943	32095
550.007	36105
550.071	33474
550.135	31284
550.199	27571
550.263	28101
550.327	26870
550.391	28742
550.455	31325
550.519	32446
550.582	36797
550.646	41206
550.710	39999
550.774	39186
550.838	39115
550.901	41443
550.965	43006
551.029	44671
551.093	48952
551.156	55249
551.220	71472
551.284	77759
551.347	48185
551.411	40832
551.475	40592
551.538	41707
551.602	36010
551.666	35179
551.729	30862
551.793	31475
551.856	31208
551.920	31448
551.983	30583
552.047	31177
552.110	30749
552.174	32289
552.237	30655
552.301	28340
552.364	27122
552.428	26400
552.491	28079
552.554	29435
552.618	28239
552.681	29295
552.745	27320
552.808	34322
552.871	32617
552.934	29466
552.998	27054
553.061	27881
553.124	26559
553.187	26235
553.251	27503
553.314	28514
553.377	28788
553.440	38161
553.503	59559
553.567	48176
553.630	29174
553.693	28329
553.756	27237
553.819	25955
553.882	25015
553.945	26345
554.008	26379
554.071	25808
554.134	25441
554.197	22953
554.260	23288
554.323	25466
554.386	25364
554.449	25768
554.512	24783
554.575	23703
554.638	23348
554.701	23265
554.764	23161
554.827	22848
554.889	20495
554.952	19702
555.015	19153
555.078	21106
555.141	20997
555.203	20137
555.266	20648
555.329	20236
555.391	19214
555.454	19771
555.517	18408
555.580	17828
555.642	16726
555.705	17353
555.768	18155
555.830	16918
555.893	15099
555.955	15751
556.018	14648
556.080	15732
556.143	15432
556.206	15126
556.268	15076
556.330	15143
556.393	14975
556.455	13759
556.518	14879
556.580	14394
556.643	13328
556.705	12993
556.767	10493
556.830	14475
556.892	13606
556.955	15756
557.017	11963
557.079	12335
557.142	11521
557.204	13790
557.266	17648
557.328	12226
557.391	8946
557.453	9795
557.515	10617
557.577	12792
557.639	11638
557.701	9811
557.764	9567
557.826	11403
557.888	12446
557.950	13273
558.012	16613
558.074	32264
558.136	98597
558.198	119835
558.260	22861
558.322	15215
558.384	17028
558.446	19735
558.508	23353
558.570	30143
558.632	44659
558.694	67745
558.756	157900
558.818	598903
558.880	661817
558.942	131768
559.003	135325
559.065	34354
559.127	22021
559.189	24603
559.251	34085
559.312	77834
559.374	272864
559.436	480972
559.498	83342
559.559	20960
559.621	22945
559.683	37398
559.744	92973
559.806	316388
559.868	194728
559.929	24039
559.991	28646
560.052	75278
560.114	142467
560.176	55558
560.237	113124
560.299	83688
560.360	8834
560.422	5785
560.483	5547
560.545	5210
560.606	4101
560.667	4507
560.729	2957
560.790	4031
560.852	4026
560.913	4096
560.974	3251
561.036	3326
561.097	2519
561.158	4049
561.220	3854
561.281	3432
561.342	3996
561.403	5178
561.465	5816
561.526	17528
561.587	12202
561.648	2713
561.709	3138
561.771	3961
561.832	3367
561.893	2684
561.954	3352
562.015	4380
562.076	2139
562.137	3214
562.198	2865
562.259	3743
562.320	2816
562.381	4040
562.442	4159
562.503	3412
562.564	2726
562.625	2743
562.686	2793
562.747	2268
562.808	2702
562.869	2288
562.930	2568
562.991	2375
563.051	2276
563.112	2349
563.173	2492
563.234	2402
563.294	2951
563.355	2141
563.416	1693
563.477	2370
563.537	2097
563.598	2320
563.659	978
563.720	2035
563.780	1814
563.841	2688
563.901	1730
563.962	2346
564.023	1857
564.083	3350
564.144	1797
564.204	1829
564.265	1816
564.325	2421
564.386	2358
564.446	2655
564.507	1965
564.567	2698
564.628	1830
564.688	1551
564.749	1477
564.809	2243
564.869	2162
564.930	1999
564.990	2492
565.050	1800
565.111	1746
565.171	1894
565.231	1611
565.292	2456
565.352	1009
565.412	2012
565.472	1265
565.532	3320
565.593	1908
565.653	2452
565.713	1531
565.773	2313
565.833	2962
565.893	3836
565.953	1171
566.013	1506
566.074	1769
566.134	2959
566.194	1961
566.254	3092
566.314	1523
566.374	1930
566.434	1995
566.494	3034
566.554	1883
566.614	3036
566.673	2143
566.733	2775
566.793	1623
566.853	2865
566.913	2202
566.973	2791
567.033	2291
567.092	1955
567.152	3284
567.212	2903
567.272	2270
567.331	3304
567.391	2847
567.451	3374
567.511	3373
567.570	3573
567.630	2782
567.690	2669
567.749	3131
567.809	3105
567.868	4049
567.928	4389
567.988	4839
568.047	6646
568.107	8563
568.166	16296
568.226	29551
568.285	28840
568.345	15856
568.404	12993
568.464	10211
568.523	8748
568.582	9421
568.642	13618
568.701	20748
568.761	45562
568.820	59297
568.879	34518
568.939	17082
568.998	11670
569.057	7990
569.116	6697
569.176	4660
569.235	4130
569.294	3484
569.353	3691
569.413	3192
569.472	2623
569.531	1795
569.590	2263
569.649	1964
569.708	2522
569.767	1721
569.827	2788
569.886	1822
569.945	1895
570.004	2004
570.063	3087
570.122	2585
570.181	3242
570.240	1612
570.299	2341
570.358	2326
570.417	2139
570.475	2384
570.534	3196
570.593	2361
570.652	2585
570.711	1666
570.770	2997
570.829	4358
570.887	3525
570.946	3103
571.005	1811
571.064	1196
571.122	2380
571.181	1218
571.240	1004
571.299	1526
571.357	2071
571.416	1406
571.475	1726
571.533	1565
571.592	1618
571.650	1630
571.709	2595
571.768	2485
571.826	3472
571.885	1452
571.943	1209
572.002	782
572.060	1888
572.119	1493
572.177	1681
572.236	1400
572.294	1201
572.352	2299
572.411	1565
572.469	1195
572.528	1618
572.586	1966
572.644	1239
572.703	1314
572.761	1138
572.819	766
572.877	1962
572.936	1078
572.994	1490
573.052	983
573.110	1810
573.169	1897
573.227	1452
573.285	1808
573.343	1588
573.401	1286
573.459	1909
573.517	1644
573.576	2446
573.634	1398
573.692	1937
573.750	1494
573.808	1601
573.866	285
573.924	1498
573.982	1826
574.040	1492
574.098	2245
574.155	1716
574.213	1414
574.271	2050
574.329	1201
574.387	1606
574.445	687
574.503	1185
574.560	560
574.618	1653
574.676	1488
574.734	1373
574.792	2068
574.849	850
574.907	53
574.965	1497
575.022	98
575.080	1365
575.138	1246
575.195	1496
575.253	247
575.311	2103
575.368	1115
575.426	912
575.483	1028
575.541	1719
575.598	921
575.656	1974
575.713	775
575.771	1484
575.828	1024
575.886	542
575.943	1415
576.001	927
576.058	563
576.115	1650
576.173	744
576.230	1881
576.287	2062
576.345	834
576.402	901
576.459	1374
576.517	830
576.574	1593
576.631	813
576.688	1137
576.746	-73
576.803	1414
576.860	341
576.917	1916
576.974	316
577.031	1105
577.089	1584
577.146	609
577.203	623
577.260	1617
577.317	825
577.374	963
577.431	1365
577.488	996
577.545	362
577.602	2386
577.659	938
577.716	1670
577.773	1322
577.830	592
577.886	507
577.943	1249
578.000	472
578.057	1765
578.114	836
578.171	1373
578.227	406
578.284	292
578.341	434
578.398	859
578.454	792
578.511	517
578.568	756
578.625	482
578.681	-160
578.738	695
578.794	-281
578.851	1475
578.908	692
578.964	724
579.021	1432
579.077	568
579.134	1319
579.190	815
579.247	966
579.303	1472
579.360	689
579.416	1223
579.473	515
579.529	1454
579.586	117
579.642	1347
579.698	782
579.755	1495
579.811	1431
579.867	866
579.924	669
579.980	1275
580.036	821
580.093	1541
580.149	1761
580.205	1255
580.261	1185
580.317	2078
580.374	403
580.430	923
580.486	1146
580.542	771
580.598	696
580.619	1010
580.654	1551
580.692	987
580.710	705
580.765	1103
580.767	1113
580.823	743
580.838	1184
580.879	2350
580.911	1415
580.935	708
580.984	1735
580.991	1878
581.047	878
581.057	1000
581.103	1557
581.130	943
581.159	278
581.203	950
581.215	1132
581.270	1263
581.276	1269
581.326	1323
581.349	818
581.382	-5
581.422	940
581.438	1362
581.494	-350
581.494	-335
581.550	867
581.567	944
581.606	1111
581.640	1068
581.661	1021
581.713	1266
581.717	1288
581.773	1529
581.786	1434
581.829	1072
581.859	1073
581.885	1106
581.932	764
581.940	681
581.996	1723
582.004	1511
582.052	387
582.077	1230
582.107	2187
582.150	1340
582.163	1086
582.219	1679
582.223	1618
582.274	776
582.296	827
582.330	1038
582.368	1455
582.386	1572
582.441	1465
582.441	1464
582.497	925
582.514	1452
582.552	2475
582.587	2234
582.608	2143
582.659	1770
582.663	1736
582.719	1567
582.732	1786
582.774	2390
582.805	1793
582.830	1329
582.877	1628
582.885	1692
582.941	1224
582.950	1381
582.996	1889
583.023	1468
583.052	1249
583.095	1895
583.107	2006
583.162	1519
583.168	1612
583.218	2530
583.240	2132
583.273	1586
583.313	2266
583.328	2543
583.384	2209
583.385	2221
583.439	2150
583.458	1918
583.494	1728
583.531	2108
583.549	2265
583.603	1668
583.605	1655
583.660	2327
583.676	2285
583.715	2022
583.748	2139
583.770	2272
583.820	3172
583.825	3251
583.881	2363
583.893	2155
583.936	1537
583.965	1970
583.991	2324
584.038	2453
584.046	2481
584.101	2811
584.110	2768
584.156	2547
584.183	2992
584.211	3448
584.255	3414
584.266	3434
584.321	3095
584.328	3080
584.376	2962
584.400	3292
584.431	3686
584.472	3145
584.486	2986
584.541	3924
584.545	3902
584.596	3521
584.617	3748
584.651	4323
584.689	4233
584.706	4036
584.761	4453
584.762	4442
584.816	4002
584.834	4274
584.871	4523
584.906	4495
584.926	4771
584.978	6106
584.980	6140
585.035	5568
585.051	5812
585.090	6837
585.123	7407
585.145	7738
585.195	8758
585.200	8986
585.254	11687
585.267	12882
585.309	17318
585.340	19082
585.364	19928
585.412	20645
585.419	20622
585.473	23393
585.484	24830
585.528	34285
585.556	43866
585.583	61681
585.628	105154
585.637	123879
585.692	286419
585.700	296779
585.747	332791
585.772	313364
585.801	185588
585.845	58771
585.856	50604
585.910	20915
585.917	17281
585.965	13294
585.989	11694
586.019	10944
586.061	9759
586.074	9693
586.128	9559
586.133	9561
586.183	9593
586.205	9249
586.237	8973
586.277	8884
586.292	8786
586.346	8453
586.349	8435
586.401	8847
586.421	8751
586.455	8553
586.493	8902
586.509	9200
586.564	9045
586.565	9048
586.618	10147
586.637	10432
586.672	11375
586.709	12788
586.727	13600
586.781	14046
586.781	14066
586.835	11806
586.853	11276
586.889	10577
586.925	9954
586.944	10078
586.996	10333
586.998	10350
587.052	9898
587.068	9754
587.106	10168
587.140	10820
587.161	11033
587.212	11308
587.215	11369
587.269	12010
587.284	12143
587.323	12346
587.356	12608
587.377	12815
587.427	13434
587.431	13534
587.485	14521
587.499	14560
587.539	14923
587.571	15652
587.593	16044
587.643	16791
587.648	17030
587.702	19390
587.715	19863
587.755	20295
587.786	20667
587.810	21628
587.858	23250
587.864	23460
587.917	25755
587.930	26183
587.971	28820
588.001	30923
588.025	32389
588.073	34788
588.079	35384
588.133	40581
588.145	41698
588.187	46455
588.217	50169
588.241	54136
588.288	61140
588.295	62499
588.348	73556
588.360	76004
588.402	86900
588.431	94241
588.456	101875
588.503	117253
588.510	120260
588.564	145071
588.575	150601
588.617	177985
588.646	199488
588.671	226881
588.718	288424
588.725	305219
588.778	453544
588.789	490882
588.832	793823
588.861	1029824
588.886	1387371
588.932	2069512
588.939	2123645
588.993	2300282
589.004	2304566
589.047	1674026
589.075	1288712
589.100	990337
589.147	483591
589.154	464997
589.207	325713
589.218	297866
589.261	278160
589.290	267829
589.314	281454
589.361	317601
589.368	335114
589.421	497924
589.433	538978
589.475	922442
589.504	1218884
589.528	1554920
589.576	2079983
589.582	2033478
589.635	1430163
589.647	1313155
589.689	750297
589.718	373629
589.742	301161
589.790	159441
589.795	154894
589.849	110669
589.861	100387
589.902	84393
589.932	72560
589.955	67840
590.004	57296
590.009	56694
590.062	48777
590.075	46771
590.115	43565
590.146	40665
590.168	39196
590.218	35593
590.222	35503
590.275	33382
590.289	32664
590.328	31012
590.360	29559
590.381	29550
590.431	29163
590.435	29109
590.488	26879
590.503	26070
590.541	25775
590.574	25695
590.594	25625
590.645	24741
590.647	24803
590.700	24500
590.716	24270
590.753	23400
590.787	22614
590.806	22949
590.859	23518
590.859	23573
590.912	22071
590.930	21562
590.965	22027
591.001	22269
591.018	21951
591.071	20741
591.072	20659
591.124	20421
591.143	20176
591.177	20062
591.214	20011
591.230	20201
591.283	20485
591.285	20430
591.336	20944
591.356	20984
591.389	21193
591.427	21492
591.442	21249
591.495	19751
591.498	19589
591.547	19578
591.569	19429
591.600	19133
591.640	18564
591.653	18793
591.706	19534
591.711	19552
591.759	19262
591.782	18936
591.811	19532
591.853	20398
591.864	20326
591.917	19441
591.924	19256
591.969	19614
591.995	19720
592.022	19665
592.066	19350
592.075	19418
592.127	19453
592.137	19398
592.180	20347
592.208	20823
592.233	20752
592.279	20442
592.285	20567
592.338	21011
592.350	21045
592.390	20605
592.421	20147
592.443	20680
592.491	21644
592.495	21730
592.548	21929
592.562	21914
592.600	21727
592.633	21429
592.653	21026
592.704	19683
592.705	19839
592.775	22006
592.846	22549
592.916	22568
592.987	24717
593.058	22300
593.128	22050
593.199	21518
593.270	21431
593.341	22324
593.411	23924
593.482	23794
593.553	24412
593.623	22929
593.694	24194
593.764	24485
593.835	24709
593.906	24477
593.976	25221
594.047	25150
594.117	26192
594.188	27808
594.258	26842
594.329	26292
594.399	27937
594.470	28559
594.540	29744
594.611	30831
594.681	29997
594.751	31153
594.822	35350
594.892	37974
594.963	36549
595.033	34811
595.103	34111
595.174	34535
595.244	36479
595.314	36951
595.384	35821
595.455	36875
595.525	38825
595.595	39565
595.665	40170
595.736	39401
595.806	39937
595.876	39750
595.946	40220
596.016	41687
596.087	43641
596.157	42006
596.227	42477
596.297	43989
596.367	47964
596.437	50215
596.507	51147
596.577	49827
596.647	51816
596.717	54252
596.787	55863
596.857	55982
596.927	56005
596.997	58554
597.067	57919
597.137	58116
597.207	59642
597.277	58388
597.347	56641
597.417	53190
597.487	54310
597.557	56244
597.626	57168
597.696	57346
597.766	57555
597.836	53872
597.906	51787
597.975	49438
598.045	49253
598.115	52803
598.185	55452
598.254	62321
598.324	69895
598.394	70908
598.464	69478
598.533	67261
598.603	63504
598.672	60945
598.742	62193
598.812	61725
598.881	63760
598.951	63118
599.020	62901
599.090	66619
599.159	68311
599.229	66154
599.299	62606
599.368	63498
599.437	64450
599.507	59219
599.576	56668
599.646	55924
599.715	55661
599.785	54520
599.854	52783
599.924	51724
599.993	50416
600.062	51464
600.132	53433
600.201	54009
600.270	65631
600.340	69709
600.409	69546
600.478	66955
600.547	69737
600.617	65547
600.686	51636
600.755	44929
600.824	44346
600.894	41237
600.963	40269
601.032	40567
601.101	39273
601.170	36252
601.239	35771
601.308	36106
601.378	34920
601.447	34949
601.516	35619
601.585	35861
601.654	37630
601.723	36511
601.792	36956
601.861	39442
601.930	43170
601.999	43696
602.068	41661
602.137	41383
602.206	41920
602.275	42564
602.343	45560
602.412	47009
602.481	44273
602.550	43881
602.619	45193
602.688	46163
602.756	45939
602.825	45975
602.894	47639
602.963	47658
603.032	49434
603.100	49097
603.169	49892
603.238	49610
603.307	51100
603.375	51216
603.444	51788
603.513	52174
603.581	55774
603.650	54607
603.719	54395
603.787	55711
603.856	58236
603.924	58369
603.993	62550
604.061	62847
604.130	66141
604.198	67562
604.267	69897
604.335	70754
604.404	70433
604.472	72137
604.541	72044
604.609	74080
604.678	74709
604.746	74544
604.815	76710
604.883	77366
604.951	78703
605.020	79720
605.088	81125
605.156	82195
605.225	84506
605.293	84177
605.361	86414
605.429	86578
605.498	88496
605.566	90649
605.634	94393
605.702	97850
605.771	101715
605.839	102123
605.907	101812
605.975	96678
606.043	92453
606.111	93383
606.180	94215
606.248	94522
606.316	93733
606.384	90287
606.452	94192
606.520	98324
606.588	101302
606.656	99010
606.724	98509
606.792	93244
606.860	84144
606.928	75112
606.996	71426
607.064	69379
607.132	71496
607.200	75418
607.267	79699
607.335	79562
607.403	83409
607.471	81533
607.539	77923
607.607	79311
607.674	70370
607.742	70507
607.810	69121
607.878	69210
607.946	69679
608.013	73823
608.081	75382
608.149	74490
608.216	78736
608.284	80042
608.352	80321
608.419	80111
608.487	79003
608.555	75369
608.622	79239
608.690	83054
608.757	92605
608.825	96672
608.893	94530
608.960	87840
609.028	84110
609.095	83536
609.163	83564
609.230	76338
609.298	66971
609.365	70598
609.432	76201
609.500	83260
609.567	95841
609.635	108337
609.702	117850
609.769	115148
609.837	93746
609.904	76629
609.971	80856
610.039	93782
610.106	125531
610.173	248225
610.241	642591
610.308	477031
610.375	117287
610.442	85009
610.509	78081
610.577	77778
610.644	76841
610.711	79810
610.778	83452
610.845	85420
610.912	91794
610.980	97479
611.047	100582
611.114	96946
611.181	89793
611.248	89213
611.315	95442
611.382	97255
611.449	102463
611.516	103226
611.583	102845
611.650	102585
611.717	105474
611.784	110550
611.851	117317
611.918	130012
611.984	163035
612.051	244959
612.118	525687
612.185	1444083
612.252	1246075
612.319	226941
612.386	148237
612.452	131321
612.519	122315
612.586	116626
612.653	118777
612.719	123409
612.786	119917
612.853	109262
612.919	106241
612.986	106024
613.053	101305
613.120	95398
613.186	89807
613.253	91221
613.319	89803
613.386	90784
613.453	94532
613.519	94106
613.586	96038
613.652	102826
613.719	99011
613.785	98642
613.852	95677
613.918	96216
613.985	100551
614.051	116385
614.118	160799
614.184	181426
614.250	103008
614.317	98673
614.383	95089
614.449	97161
614.516	97014
614.582	95199
614.648	94750
614.715	92142
614.781	90744
614.847	89935
614.914	91806
614.980	88293
615.046	88475
615.112	90424
615.179	91896
615.245	92518
615.311	94854
615.377	103131
615.443	109920
615.509	98816
615.575	102212
615.642	101019
615.708	105414
615.774	111712
615.840	123864
615.906	143323
615.972	195188
616.038	318138
616.104	688252
616.170	1758948
616.236	2081016
616.302	378091
616.368	213749
616.434	148745
616.500	127115
616.565	137182
616.631	188630
616.697	152559
616.763	147541
616.829	221287
616.895	444367
616.961	491900
617.026	191034
617.092	107421
617.158	97439
617.224	93358
617.289	85932
617.355	81609
617.421	77835
617.487	80352
617.552	74566
617.618	72334
617.684	73549
617.749	72987
617.815	70720
617.880	67729
617.946	68565
618.012	69453
618.077	70790
618.143	67652
618.208	67030
618.274	71671
618.339	75123
618.405	61337
618.470	60734
618.536	59268
618.601	59046
618.667	54142
618.732	49728
618.798	50102
618.863	49038
618.928	48238
618.994	49944
619.059	49433
619.124	55302
619.190	53113
619.255	48359
619.320	47314
619.386	47717
619.451	47903
619.516	47398
619.581	46121
619.647	49170
619.712	48747
619.777	46086
619.842	45277
619.907	46902
619.972	47939
620.038	49158
620.103	45800
620.168	46285
620.233	47000
620.298	46843
620.363	47332
620.428	49013
620.493	50959
620.558	50433
620.623	51423
620.688	52079
620.753	49598
620.818	52785
620.883	52674
620.948	51721
621.013	50954
621.078	50392
621.143	50469
621.207	52810
621.272	50573
621.337	50602
621.402	49037
621.467	48672
621.532	47352
621.596	48981
621.661	46080
621.726	45106
621.791	45357
621.855	47926
621.920	46356
621.985	47558
622.049	47464
622.114	47809
622.179	49063
622.243	50045
622.308	50097
622.373	54262
622.437	52413
622.502	50601
622.566	48134
622.631	47931
622.695	49495
622.760	50080
622.824	49185
622.889	50306
622.953	50766
623.018	57345
623.082	61574
623.147	53821
623.211	52132
623.276	52713
623.340	49964
623.404	47642
623.469	46894
623.533	48260
623.597	47091
623.662	45200
623.726	43420
623.790	39378
623.854	37632
623.919	39513
623.983	39074
624.047	42363
624.111	40894
624.176	41701
624.240	42626
624.304	44728
624.368	43312
624.432	43627
624.496	45004
624.560	47504
624.625	51129
624.689	47316
624.753	48977
624.817	48395
624.881	44901
624.945	41719
625.009	38691
625.073	40345
625.137	41888
625.201	45856
625.265	48084
625.329	42374
625.393	42714
625.456	44250
625.520	44603
625.584	45208
625.648	46329
625.712	48205
625.776	49155
625.839	46980
625.903	38952
625.967	34439
626.031	36514
626.095	44803
626.158	43933
626.222	33357
626.286	28603
626.349	26965
626.413	25510
626.477	26741
626.540	26781
626.604	26670
626.668	25755
626.731	25279
626.795	24820
626.858	25383
626.922	23307
626.986	24609
627.049	23299
627.113	26257
627.176	25871
627.240	25148
627.303	25187
627.366	24501
627.430	25448
627.493	25852
627.557	23432
627.620	25016
627.684	26632
627.747	27479
627.810	24731
627.874	22779
627.937	20014
628.000	24223
628.064	22164
628.127	19897
628.190	18892
628.253	19561
628.317	16920
628.380	17380
628.443	15950
628.506	16179
628.569	16004
628.632	14272
628.696	14422
628.759	15061
628.822	13392
628.885	13706
628.948	14039
629.011	13817
629.074	12336
629.137	12816
629.200	12201
629.263	13746
629.326	12221
629.389	12795
629.452	11885
629.515	12580
629.578	11791
629.641	12714
629.704	12773
629.767	13381
629.830	12227
629.892	10784
629.955	10768
630.018	14099
630.081	13201
630.144	15734
630.207	12872
630.269	14567
630.332	11620
630.395	12420
630.458	11172
630.520	9972
630.583	11482
630.646	11699
630.708	11049
630.771	11979
630.834	12365
630.896	11512
630.959	11686
631.021	12324
631.084	12383
631.146	13315
631.209	12747
631.272	12748
631.334	13701
631.397	13403
631.459	13377
631.522	16255
631.584	15625
631.646	17737
631.709	18540
631.771	20367
631.834	19501
631.896	17943
631.958	15118
632.021	15198
632.083	11241
632.145	13494
632.208	11840
632.270	13676
632.332	11715
632.395	11750
632.457	11429
632.519	11504
632.581	11813
632.643	11470
632.706	11326
632.768	11021
632.830	10525
632.892	12055
632.954	11704
633.016	12333
633.078	11511
633.141	12291
633.203	11178
633.265	12142
633.327	11235
633.389	11518
633.451	11876
633.513	14465
633.575	13328
633.637	14354
633.698	14345
633.760	14031
633.822	14569
633.884	15892
633.946	14673
634.008	16324
634.070	18072
634.132	19945
634.193	21905
634.255	25672
634.317	26999
634.379	26445
634.441	23874
634.502	21326
634.564	21601
634.626	23592
634.687	28966
634.749	19389
634.811	13940
634.873	12907
634.934	13570
634.996	12715
635.057	11544
635.119	13284
635.181	13487
635.242	14084
635.304	12090
635.365	14730
635.427	12590
635.488	13307
635.550	12563
635.611	13871
635.673	12066
635.734	16285
635.796	16208
635.857	19528
635.918	20272
635.980	23581
636.041	25732
636.102	28813
636.164	29896
636.225	29794
636.286	24221
636.348	21242
636.409	17533
636.470	15619
636.531	14300
636.593	13755
636.654	11530
636.715	12418
636.776	10902
636.838	11470
636.899	10845
636.960	11138
637.021	12781
637.082	15479
637.143	15067
637.204	10515
637.265	8847
637.326	10776
637.387	9884
637.448	9472
637.509	9441
637.570	10679
637.631	9744
637.692	9345
637.753	8033
637.814	8857
637.875	9090
637.936	9767
637.997	8415
638.058	9377
638.119	8409
638.179	8103
638.240	7249
638.301	9175
638.362	7523
638.423	7985
638.483	8175
638.544	7011
638.605	7310
638.666	7842
638.726	6809
638.787	8464
638.848	7235
638.908	7532
638.969	6932
639.030	6997
639.090	6772
639.151	7724
639.211	7781
639.272	9997
639.332	12206
639.393	11098
639.453	8548
639.514	9955
639.574	8440
639.635	7363
639.695	6782
639.756	7055
639.816	7616
639.877	8629
639.937	11589
639.997	16864
640.058	9054
640.118	7331
640.178	6567
640.239	7294
640.299	6658
640.359	7731
640.420	8318
640.480	10463
640.540	12278
640.600	13232
640.661	10482
640.721	8674
640.781	13309
640.841	12848
640.901	9192
640.961	7688
641.021	7711
641.082	10568
641.142	11541
641.202	10056
641.262	5498
641.322	6707
641.382	5317
641.442	7057
641.502	5765
641.562	6901
641.622	6139
641.682	7561
641.742	10916
641.802	9924
641.861	6893
641.921	7209
641.981	7545
642.041	7303
642.101	7943
642.161	7407
642.221	5626
642.280	6174
642.340	5747
642.400	6247
642.460	5939
642.519	6140
642.579	5940
642.639	6829
642.698	5879
642.758	8836
642.818	6522
642.877	7119
642.937	6580
642.997	8113
643.056	9665
643.116	7504
643.175	7626
643.235	6882
643.294	7935
643.354	10011
643.414	12260
643.473	16129
643.532	22783
643.592	35758
643.651	60994
643.711	112456
643.770	212453
643.830	484670
643.889	1406137
643.948	557111
644.008	53587
644.067	26063
644.126	18393
644.186	15055
644.245	12122
644.304	8962
644.363	10194
644.423	8869
644.482	8889
644.541	8964
644.600	8925
644.659	14298
644.719	17462
644.778	28349
644.837	48456
644.896	98369
644.955	275275
645.014	150182
645.073	20621
645.132	12357
645.191	9995
645.250	9009
645.309	10123
645.368	10157
645.427	15122
645.486	23363
645.545	52825
645.604	22298
645.663	9453
645.722	9436
645.781	11639
645.840	15355
645.898	20096
645.957	33010
646.016	53516
646.075	99977
646.134	196802
646.192	472168
646.251	1079958
646.310	238237
646.369	31884
646.427	21871
646.486	16137
646.545	11855
646.603	9594
646.662	8589
646.721	7697
646.779	8427
646.838	7390
646.896	12165
646.955	16864
647.014	27562
647.072	49631
647.131	153373
647.189	128134
647.248	14366
647.306	8367
647.365	7118
647.423	4880
647.481	6753
647.540	4049
647.598	5616
647.657	4536
647.715	5880
647.773	4408
647.832	5040
647.890	3537
647.948	4091
648.007	4200
648.065	3598
648.123	3375
648.181	5777
648.240	5439
648.298	5195
648.356	3924
648.414	4674
648.472	5092
648.531	5214
648.589	4444
648.647	4533
648.705	4432
648.763	4725
648.821	5411
648.879	6147
648.937	6633
648.995	10292
649.053	13036
649.111	21747
649.169	40429
649.227	74522
649.285	142472
649.343	463050
649.401	391118
649.459	43594
649.516	24275
649.574	18409
649.632	32165
649.690	52726
649.748	21759
649.806	22205
649.863	40320
649.921	100518
649.979	113318
650.037	14638
650.094	4668
650.152	5258
650.210	4140
650.268	5532
650.325	4133
650.383	6389
650.440	3355
650.498	3931
650.556	3133
650.613	2866
650.671	3032
650.728	2793
650.786	3233
650.843	5006
650.901	4101
650.958	2546
651.016	2622
651.073	3111
651.131	1888
651.188	1202
651.246	2473
651.303	1929
651.360	2310
651.418	2227
651.475	2282
651.532	2235
651.590	2301
651.647	2006
651.704	1565
651.762	3047
651.819	2330
651.876	2544
651.933	2113
651.990	2493
652.048	1547
652.105	1489
652.162	2658
652.219	1486
652.276	1866
652.333	2321
652.390	840
652.448	2333
652.505	1564
652.562	2012
652.619	2198
652.676	3401
652.733	4395
652.790	2320
652.847	664
652.904	2529
652.961	494
653.017	1377
653.074	2694
653.131	2816
653.188	856
653.245	2790
653.302	1693
653.359	1899
653.415	1907
653.472	1948
653.529	1885
653.586	1370
653.642	1234
653.699	2970
653.756	1171
653.813	1233
653.869	2365
653.926	1284
653.983	1159
654.039	2363
654.096	865
654.152	2947
654.209	742
654.266	1946
654.322	247
654.379	1687
654.435	1531
654.492	2199
654.548	2055
654.605	3192
654.661	2899
654.717	2894
654.774	1488
654.830	1780
654.887	2090
654.943	1972
655.000	2411
655.056	2640
655.112	1229
655.168	2136
655.225	1892
655.281	2401
655.337	1263
655.394	2105
655.450	2057
655.506	2338
655.562	2232
655.618	4674
655.675	1499
655.731	3349
655.787	2280
655.843	4694
655.899	3294
655.955	5050
656.011	5260
656.067	5930
656.123	7086
656.179	9353
656.235	9693
656.291	8729
656.347	9225
656.403	6470
656.459	5162
656.515	4681
656.571	3981
656.627	4426
656.683	2802
656.739	4412
656.795	2091
656.850	2452
656.906	2475
656.962	4098
657.018	2262
657.074	2330
657.129	2865
657.185	5171
657.241	9390
657.297	9441
657.352	1774
657.408	922
657.464	2363
657.519	1392
657.575	72
657.630	958
657.686	1051
657.742	-161
657.797	1677
657.853	741
657.908	1803
657.964	1044
658.019	-25
658.075	1061
658.130	1585
658.186	-142
658.241	1368
658.297	734
658.352	925
658.407	1132
658.463	812
658.518	835
658.573	475
658.629	107
658.684	1364
658.739	1167
658.795	-168
658.850	2054
658.905	91
658.960	1454
659.016	531
659.071	841
659.126	424
659.181	862
659.236	3378
659.291	4305
659.346	1121
659.401	1114
659.457	1241
659.512	2164
659.567	2215
659.622	931
659.677	198
659.732	-361
659.787	803
659.842	688
659.897	455
659.952	1531
660.007	405
660.061	1089
660.116	-530
660.171	369
660.226	807
660.281	1767
660.336	24
660.391	1714
660.445	885
660.500	1594
660.555	1503
660.610	-253
660.664	352
660.719	94
660.774	973
660.828	1539
660.883	410
660.938	1111
660.992	-334
661.047	937
661.101	-428
661.156	427
661.211	89
661.265	919
661.320	355
661.374	633
661.429	-302
661.483	1686
661.538	-403
661.592	696
661.647	242
661.701	1957
661.755	773
661.810	1423
661.864	-900
661.919	-80
661.973	930
662.027	676
662.081	-862
662.136	723
662.190	-143
662.244	924
662.299	721
662.353	1330
662.407	38
662.461	774
662.515	130
662.569	263
662.624	891
662.678	328
662.732	266
662.786	657
662.840	-142
662.894	1225
662.948	-85
663.002	1012
663.056	1073
663.110	570
663.164	125
663.218	629
663.272	230
663.326	1592
663.380	497
663.434	431
663.488	-1248
663.542	1014
663.595	244
663.649	156
663.703	1338
663.757	926
663.811	-913
663.864	607
663.918	307
663.972	1283
664.026	34
664.079	-454
664.133	920
664.187	377
664.240	-116
664.294	458
664.348	345
664.401	1011
664.455	462
664.508	734
664.562	764
664.615	640
664.669	86
664.722	1128
664.776	295
664.829	927
664.883	72
664.936	-105
664.990	77
665.043	806
665.097	-661
665.150	763
665.203	-503
665.257	738
665.310	219
665.363	1760
665.417	300
665.470	259
665.523	-152
665.576	808
665.630	980
665.683	892
665.736	361
665.789	795
665.842	-372
665.895	1109
665.949	67
666.002	124
666.055	322
666.108	1105
666.161	466
666.214	1503
666.267	1204
666.320	1447
666.373	305
666.426	430
666.479	-138
666.532	952
666.585	240
666.638	825
666.691	-368
666.744	1049
666.796	-245
666.849	81
666.902	401
666.955	770
667.008	-56
667.060	499
667.113	-612
667.166	903
667.219	433
667.271	915
667.324	202
667.377	606
667.430	-81
667.482	486
667.535	68
667.587	1115
667.640	929
667.693	528
667.745	1684
667.798	3536
667.850	420
667.903	1020
667.955	-182
668.008	-92
668.060	196
668.113	606
668.165	-249
668.218	117
668.270	-52
668.322	152
668.375	-620
668.427	500
668.479	-259
668.532	1022
668.584	-456
668.636	1019
668.689	-32
668.741	689
668.793	315
668.845	759
668.898	525
668.950	590
669.002	156
669.054	897
669.106	-688
669.158	1133
669.211	110
669.263	1057
669.315	1715
669.367	3080
669.419	1536
669.471	3324
669.523	4967
669.575	10139
669.627	8895
669.679	4091
669.731	2026
669.783	3467
669.835	4976
669.886	4560
669.938	2040
669.990	1304
670.042	466
670.094	1476
670.146	261
670.197	1045
670.249	426
670.301	782
670.353	927
670.404	2266
670.456	2410
670.508	4279
670.560	7407
670.611	13060
670.663	21993
670.715	45976
670.766	106079
670.818	50057
670.869	5785
670.921	2079
670.972	1891
671.024	1613
671.075	235
671.127	1647
671.178	-410
671.230	1159
671.281	1169
671.333	1380
671.384	1712
671.436	3176
671.487	4108
671.538	6353
671.590	9832
671.641	18553
671.692	31271
671.744	73391
671.795	64464
671.846	16470
671.897	5339
671.949	3361
672.000	2573
672.051	1545
672.102	1266
672.153	861
672.204	792
672.256	857
672.307	77
672.358	835
672.409	-448
672.460	1009
672.511	-335
672.562	578
672.613	-48
672.664	218
672.715	100
672.766	524
672.817	-448
672.868	268
672.919	-111
672.970	168
673.021	-134
673.071	-588
673.122	491
673.173	639
673.224	-391
673.275	315
673.326	-721
673.376	788
673.427	-196
673.478	-198
673.528	-47
673.579	-401
673.630	-196
673.680	-171
673.731	-735
673.782	-26
673.832	-108
673.883	583
673.934	-318
673.984	-55
674.035	-267
674.085	29
674.136	84
674.186	220
674.237	-491
674.287	-278
674.338	-373
674.388	95
674.438	-428
674.489	250
674.539	111
674.589	24
674.640	-235
674.690	518
674.740	-900
674.791	-403
674.841	-1020
674.891	229
674.942	-405
674.992	311
675.042	-1566
675.092	2
675.142	-1152
675.193	-336
675.243	-653
675.293	324
675.343	-716
675.393	-477
675.443	-367
675.493	-147
675.543	-1004
675.593	-152
675.643	-254
675.693	43
675.743	-849
675.793	-30
675.843	-1168
675.893	85
675.943	-1134
675.993	-708
676.043	-524
676.093	22
676.142	-781
676.192	-156
676.242	-625
676.292	125
676.341	-779
676.391	-161
676.441	-826
676.491	-433
676.540	-841
676.590	-152
676.640	-803
676.689	-782
676.739	-1587
676.789	-404
676.838	-551
676.888	-369
676.937	-753
676.987	-181
677.037	-964
677.086	-843
677.136	-299
677.185	159
677.235	-753
677.284	-325
677.333	-1651
677.383	-405
677.432	-821
677.482	-241
677.531	-1503
677.580	-1107
677.630	-320
677.679	-285
677.728	-620
677.778	-322
677.827	-529
677.876	-314
677.925	-1287
677.975	-47
678.024	-979
678.073	-573
678.122	-1515
678.171	-163
678.220	-348
678.269	-182
678.319	-446
678.368	673
678.417	-258
678.466	1
678.515	-830
678.564	-1043
678.613	-1056
678.662	-1011
678.711	-739
678.760	-1029
678.809	-825
678.857	375
678.906	-790
678.955	-623
679.004	-49
679.053	-129
679.102	-1265
679.151	-949
679.199	-1374
679.248	-859
679.297	-1393
679.346	-1214
679.394	-1559
679.443	-28
679.492	-626
679.540	-388
679.589	-1361
679.638	-622
679.686	-1383
679.735	-160
679.784	-1028
679.832	590
679.881	-594
679.929	-541
679.978	-1673
680.026	-1447
680.075	-466
680.123	-954
680.172	-946
680.220	-731
680.268	-1341
680.317	-955
680.365	-1792
680.414	-1207
680.462	-896
680.510	-862
680.559	-1168
680.607	-712
680.655	-1051
680.703	-559
680.752	-635
680.800	-882
680.848	-1786
680.896	-384
680.945	-1674
680.993	-630
681.041	-1259
681.089	-812
681.137	-387
681.185	-682
681.233	-1549
681.258	-994
681.281	-476
681.329	-852
681.377	-953
681.380	-931
681.425	-659
681.473	-349
681.502	-937
681.521	-1359
681.569	-236
681.617	-464
681.624	-485
681.665	-666
681.713	-1086
681.745	-903
681.761	-824
681.809	-1064
681.857	-738
681.867	-804
681.904	-1082
681.952	-670
681.989	-280
682.000	-167
682.048	-1055
682.096	-1103
682.111	-835
682.143	-312
682.191	-394
682.233	51
682.239	110
682.286	-1615
682.334	-384
682.354	-281
682.382	-137
682.430	-106
682.476	-407
682.477	-421
682.525	136
682.572	-904
682.598	-610
682.620	-345
682.667	-735
682.715	-1027
682.720	-1079
682.763	-1681
682.810	23
682.841	-366
682.857	-579
682.905	-785
682.952	-441
682.963	-435
683.000	-427
683.047	-562
683.085	361
683.095	595
683.142	-64
683.190	96
683.206	-56
683.237	-335
683.284	347
683.328	-400
683.332	-472
683.379	-135
683.426	-1227
683.449	-728
683.473	-204
683.521	-1103
683.568	-787
683.571	-757
683.615	-409
683.662	221
683.693	-277
683.709	-577
683.757	-174
683.804	-457
683.814	-455
683.851	-459
683.898	-424
683.936	-10
683.945	88
683.992	-537
684.039	136
684.057	-20
684.086	-256
684.133	169
684.179	200
684.180	192
684.227	62
684.274	161
684.300	494
684.321	753
684.368	-31
684.415	511
684.422	354
684.462	-521
684.509	-43
684.543	-19
684.556	-47
684.603	442
684.649	526
684.665	444
684.696	321
684.743	596
684.786	669
684.790	659
684.837	-307
684.883	347
684.908	52
684.930	-135
684.977	104
685.023	-258
685.029	-170
685.070	397
685.117	-419
685.150	281
685.164	561
685.210	73
685.257	892
685.272	812
685.303	623
685.350	630
685.393	-195
685.396	-265
685.443	496
685.490	805
685.514	750
685.536	715
685.583	499
685.629	839
685.636	741
685.675	66
685.722	337
685.757	459
685.768	501
685.815	1100
685.861	752
685.878	725
685.908	675
685.954	113
686.000	600
686.000	607
686.047	34
686.093	348
686.121	527
686.139	682
686.185	476
686.232	932
686.242	865
686.278	511
686.324	370
686.363	914
686.370	1013
686.416	504
686.463	761
686.484	572
686.509	423
686.555	899
686.601	768
686.606	850
686.647	1459
686.693	446
686.727	715
686.739	822
686.785	1291
686.831	1454
686.848	1027
686.877	237
686.923	914
686.969	298
686.969	295
687.015	1210
687.061	869
687.090	1447
687.107	1737
687.153	576
687.199	510
687.211	568
687.245	789
687.291	918
687.332	976
687.336	988
687.382	1128
687.428	578
687.453	1204
687.474	1621
687.520	1038
687.565	1529
687.574	1342
687.611	870
687.657	1587
687.695	1490
687.702	1483
687.748	2033
687.794	2931
687.816	3017
687.839	2836
687.885	1869
687.931	1919
687.937	1837
687.976	1441
688.022	1585
688.058	1170
688.067	1081
688.113	1002
688.158	757
688.179	776
688.204	941
688.249	1299
688.295	1841
688.300	1803
688.340	1372
688.386	1323
688.421	991
688.431	913
688.477	964
688.522	1323
688.542	1536
688.567	1868
688.613	1151
688.658	1565
688.663	1600
688.703	1894
688.749	1828
688.784	1776
688.794	1705
688.839	2053
688.884	1191
688.905	1429
688.930	1773
688.975	1537
689.020	1690
689.026	1639
689.065	1540
689.110	1696
689.146	1734
689.155	1682
689.201	1943
689.246	1764
689.267	1655
689.291	1579
689.336	1869
689.381	1486
689.388	1477
689.426	1535
689.471	1645
689.509	1425
689.516	1376
689.561	1960
689.606	1483
689.630	1662
689.651	1913
689.696	1305
689.741	2206
689.750	2182
689.785	1978
689.830	2095
689.871	1811
689.875	1784
689.920	2046
689.965	1789
689.992	1894
690.010	2007
690.054	1723
690.099	1785
690.112	1793
690.144	1775
690.189	2304
690.233	1555
690.233	1557
690.278	1798
690.323	1982
690.354	2163
690.367	2233
690.412	2304
690.457	2472
690.474	2442
690.501	2339
690.546	2670
690.590	2116
690.595	2140
690.635	2270
690.680	2013
690.716	1938
690.724	1962
690.769	1975
690.813	2270
690.836	2000
690.857	1780
690.902	2347
690.946	1951
690.957	2119
690.991	3122
691.035	3288
691.077	4140
691.080	4161
691.124	3823
691.168	4187
691.198	3926
691.213	3660
691.257	3246
691.301	2799
691.318	2489
691.346	2204
691.390	1986
691.434	1954
691.439	1912
691.478	1942
691.522	2277
691.559	2137
691.567	2109
691.611	2727
691.655	2302
691.680	2565
691.699	2737
691.743	2678
691.787	2774
691.800	2679
691.831	2394
691.875	2243
691.919	2048
691.921	2033
691.964	2034
692.008	2072
692.041	2469
692.052	2572
692.096	2156
692.139	2649
692.162	2410
692.183	2193
692.227	2540
692.271	2291
692.282	2319
692.315	2451
692.359	2416
692.402	2978
692.403	2988
692.447	2623
692.490	2692
692.523	2340
692.534	2245
692.578	2415
692.622	2554
692.643	2528
692.666	2511
692.709	2429
692.753	2584
692.763	2599
692.797	2720
692.840	2912
692.884	2793
692.884	2800
692.928	2899
692.971	2509
693.004	2437
693.015	2493
693.059	2388
693.102	2806
693.124	2780
693.146	2603
693.189	2466
693.233	1992
693.245	2013
693.276	2397
693.320	2653
693.363	2622
693.365	2610
693.407	2368
693.450	2768
693.485	2601
693.493	2642
693.537	3023
693.580	3139
693.605	3368
693.624	3451
693.667	3537
693.710	3699
693.725	3648
693.753	4128
693.797	5209
693.840	6485
693.845	6570
693.883	6613
693.926	6483
693.966	6843
693.970	6764
694.013	5433
694.056	4039
694.086	3127
694.099	3104
694.142	3159
694.185	2945
694.206	2935
694.229	2942
694.272	2918
694.315	2828
694.326	2797
694.358	2880
694.401	3024
694.444	3131
694.446	3121
694.487	3234
694.530	3365
694.566	3628
694.573	3630
694.616	3301
694.659	3171
694.686	2879
694.702	2758
694.745	2771
694.787	2690
694.806	2697
694.830	2832
694.873	2705
694.916	3028
694.926	2966
694.959	2867
695.002	3181
695.044	3236
695.046	3234
695.087	3329
695.130	3203
695.166	3280
695.172	3312
695.215	3071
695.258	3303
695.286	3341
695.301	3437
695.343	3750
695.386	3795
695.406	3955
695.428	3929
695.471	3595
695.514	3330
695.526	3230
695.556	3410
695.599	3938
695.641	4048
695.646	4102
695.684	4275
695.726	3897
695.766	3686
695.769	3694
695.811	3672
695.854	3847
695.886	3746
695.896	3721
695.938	3689
695.981	3523
696.005	3495
696.023	3632
696.065	3960
696.108	4286
696.125	4302
696.150	4130
696.192	4155
696.235	4007
696.245	3957
696.277	4138
696.319	4348
696.361	4729
696.365	4734
696.404	4703
696.446	4685
696.485	4549
696.488	4550
696.530	4401
696.572	4325
696.604	4311
696.614	4398
696.656	4508
696.698	4835
696.724	4923
696.740	4932
696.783	4985
696.825	5023
696.844	5020
696.867	4959
696.909	4800
696.951	4681
696.964	4622
696.992	4810
697.034	5083
697.076	5263
697.083	5290
697.118	5341
697.160	5405
697.202	5350
697.203	5335
697.244	5340
697.286	5190
697.323	4956
697.327	4985
697.369	5208
697.411	5470
697.442	5601
697.453	5631
697.494	5677
697.536	5790
697.562	5754
697.578	5725
697.620	5749
697.661	5691
697.682	5671
697.703	5782
697.744	5895
697.786	6021
697.801	6061
697.828	6215
697.869	6441
697.911	6579
697.921	6615
697.952	6566
697.994	6364
698.035	6289
698.040	6247
698.077	5977
698.118	5716
698.160	5449
698.160	5430
698.201	5766
698.243	6030
698.279	6308
698.284	6310
698.325	6111
698.367	5953
698.399	5732
698.408	5769
698.449	5930
698.491	6067
698.518	6150
698.532	6211
698.573	6309
698.614	6458
698.638	6490
698.656	6442
698.697	6325
698.738	6177
698.757	6099
698.779	6187
698.820	6296
698.862	6422
698.877	6445
698.903	6606
698.944	6839
698.985	7067
698.996	7111
699.026	6883
699.067	6539
699.116	6112
699.235	7140
699.354	6117
699.474	6447
699.593	6036
699.713	7133
699.832	6287
699.951	7633
700.070	8419
700.190	6622
700.309	7416
700.428	7279
700.547	7899
700.667	6497
700.786	6704
700.905	6011
701.024	5973
701.143	5793
701.262	5755
701.381	5645
701.500	6417
701.619	6846
701.738	7024
701.857	6799
701.976	5749
702.095	5460
702.214	6799
702.333	6525
702.452	6389
702.571	5748
702.690	5975
702.809	6120
702.928	6088
703.047	5181
703.165	5410
703.284	6464
703.403	5674
703.522	6693
703.640	6193
703.759	7046
703.878	6071
703.997	5393
704.115	5981
704.234	5986
704.353	5974
704.471	5171
704.590	4876
704.708	5059
704.827	5141
704.946	5563
705.064	6082
705.183	4686
705.301	4375
705.420	5474
705.538	4161
705.656	5459
705.775	5393
705.893	6771
706.012	11758
706.130	5714
706.249	4966
706.367	4807
706.485	5503
706.604	4913
706.722	3912
706.840	5990
706.958	8256
707.077	7733
707.195	4523
707.313	4812
707.431	4037
707.549	4050
707.668	4152
707.786	5230
707.904	4243
708.022	4819
708.140	5030
708.258	5065
708.376	5164
708.494	4563
708.612	4466
708.730	5108
708.848	5678
708.966	5168
709.084	5314
709.202	5062
709.320	4912
709.438	4730
709.556	4556
709.674	4762
709.791	4448
709.909	3385
710.027	4257
710.145	3624
710.263	4247
710.380	4426
710.498	3656
710.616	4222
710.733	2973
710.851	4103
710.969	3960
711.086	3526
711.204	3826
711.322	3737
711.439	4254
711.557	3955
711.674	3865
711.792	3307
711.909	4549
712.027	4257
712.144	3373
712.262	3455
712.379	2775
712.497	3476
712.614	3614
712.732	3491
712.849	4301
712.966	4580
713.084	5131
713.201	3774
713.318	3898
713.436	4046
713.553	3669
713.670	4242
713.787	4512
713.905	4600
714.022	4323
714.139	4464
714.256	6985
714.373	10902
714.490	24565
714.608	63379
714.725	317375
714.842	620719
714.959	44531
715.076	8628
715.193	6106
715.310	6559
715.427	4718
715.544	4337
715.661	4699
715.778	3902
715.895	3059
716.011	3128
716.128	4638
716.245	3535
716.362	4663
716.479	4936
716.596	4452
716.713	4531
716.829	4678
716.946	3244
717.063	4088
717.180	3471
717.296	3244
717.413	2927
717.530	3101
717.646	3214
717.763	2334
717.880	2731
717.996	2755
718.113	2918
718.229	3197
718.346	2555
718.462	3233
718.579	4250
718.695	6623
718.812	4761
718.928	3390
719.045	3237
719.161	2468
719.277	2635
719.394	3855
719.510	3659
719.626	4024
719.743	4922
719.859	8581
719.975	18936
720.092	73429
720.208	271023
720.324	56820
720.440	5505
720.557	3118
720.673	5035
720.789	5471
720.905	3765
721.021	3244
721.137	1930
721.253	2893
721.369	2937
721.486	2377
721.602	1941
721.718	2726
721.834	2414
721.950	2767
722.066	2388
722.181	2786
722.297	2402
722.413	2423
722.529	2541
722.645	2512
722.761	2565
722.877	2909
722.993	3145
723.108	3104
723.224	3106
723.340	2629
723.456	2976
723.571	3570
723.687	2892
723.803	1463
723.918	2282
724.034	1520
724.150	1867
724.265	1930
724.381	2472
724.497	2529
724.612	1647
724.728	2117
724.843	2606
724.959	1386
725.074	3922
725.190	2969
725.305	2015
725.421	2043
725.536	2616
725.651	1638
725.767	1876
725.882	2223
725.997	2489
726.113	1645
726.228	2086
726.343	1702
726.459	1023
726.574	1967
726.689	899
726.804	1799
726.920	1749
727.035	1647
727.150	2244
727.265	1800
727.380	2850
727.495	3560
727.610	3160
727.725	2838
727.841	1950
727.956	3564
728.071	5130
728.186	2116
728.301	2120
728.416	1868
728.531	2728
728.645	2262
728.760	3152
728.875	5276
728.990	6525
729.105	3978
729.220	2936
729.335	2353
729.449	2383
729.564	2261
729.679	1448
729.794	1494
729.908	2060
730.023	2285
730.138	2521
730.253	1891
730.367	2085
730.482	1943
730.596	2351
730.711	2461
730.826	2465
730.940	4329
731.055	2975
731.169	2197
731.284	2771
731.398	1687
731.513	2522
731.627	2669
731.742	2701
731.856	2519
731.970	2918
732.085	3730
732.199	5588
732.313	10940
732.428	26344
732.542	108956
732.656	119966
732.771	13156
732.885	5213
732.999	5647
733.113	4617
733.227	4213
733.342	4237
733.456	3309
733.570	3241
733.684	3163
733.798	3521
733.912	3353
734.026	3508
734.140	3229
734.254	3635
734.368	3890
734.482	4338
734.596	3146
734.710	3894
734.824	3611
734.938	2933
735.052	3525
735.166	3721
735.280	3483
735.393	3230
735.507	3300
735.621	4094
735.735	3793
735.849	3735
735.962	3933
736.076	3635
736.190	4107
736.303	3477
736.417	3447
736.531	5016
736.644	3421
736.758	3561
736.872	3555
736.985	3984
737.099	4370
737.212	3521
737.326	3878
737.439	3412
737.553	3374
737.666	3751
737.780	2267
737.893	3026
738.007	3098
738.120	2942
738.233	2988
738.347	2810
738.460	2794
738.573	3275
738.687	2881
738.800	3429
738.913	3381
739.026	2800
739.140	2117
739.253	3283
739.366	3086
739.479	1798
739.592	2080
739.705	1991
739.818	3225
739.932	2707
740.045	2180
740.158	3118
740.271	3190
740.384	2729
740.497	4038
740.610	6058
740.723	4901
740.836	4919
740.949	5171
741.062	4186
741.174	4166
741.287	3102
741.400	3771
741.513	4746
741.626	6511
741.739	4555
741.851	3305
741.964	2160
742.077	2664
742.189	3734
742.302	9338
742.415	9300
742.527	4632
742.640	2968
742.753	3150
742.865	1884
742.978	2007
743.090	1645
743.203	1393
743.316	2442
743.428	1426
743.541	1524
743.653	1944
743.766	1840
743.878	1912
743.990	2601
744.103	5942
744.215	13031
744.327	4200
744.440	2936
744.552	3836
744.664	2696
744.777	1779
744.889	1491
745.001	1775
745.113	1643
745.226	1527
745.338	1507
745.450	1432
745.562	1640
745.674	1210
745.786	2012
745.898	1192
746.010	1628
746.122	1997
746.234	2081
746.347	2727
746.459	1748
746.570	2471
746.682	5686
746.794	17336
746.906	8951
747.018	2044
747.130	1539
747.242	1176
747.354	1602
747.466	1078
747.577	1179
747.689	1973
747.801	699
747.913	1380
748.024	1998
748.136	432
748.248	1753
748.359	1353
748.471	687
748.583	1128
748.694	888
748.806	1336
748.918	1696
749.029	1735
749.141	1784
749.252	1843
749.364	1007
749.475	2935
749.587	2214
749.698	1352
749.809	693
749.921	1206
750.032	1342
750.144	208
750.255	746
750.366	758
750.478	466
750.589	1344
750.700	1458
750.811	1364
750.923	2236
751.034	2476
751.145	3960
751.256	676
751.367	1447
751.479	820
751.590	133
751.701	832
751.812	365
751.923	782
752.034	758
752.145	556
752.256	847
752.367	1329
752.478	1113
752.589	628
752.700	1259
752.811	923
752.922	815
753.032	1171
753.143	1915
753.254	359
753.365	1317
753.476	1365
753.586	411
753.697	317
753.808	1176
753.919	795
754.029	1406
754.140	958
754.251	764
754.361	682
754.472	657
754.582	816
754.693	1316
754.804	548
754.914	720
755.025	-238
755.135	1155
755.246	1353
755.356	552
755.466	619
755.577	129
755.687	355
755.798	793
755.908	447
756.018	715
756.129	699
756.239	982
756.349	869
756.460	1334
756.570	1131
756.680	698
756.790	721
756.900	2014
757.011	1227
757.121	391
757.231	-212
757.341	719
757.451	667
757.561	452
757.671	824
757.781	11
757.891	817
758.001	185
758.111	312
758.221	1115
758.331	1561
758.441	1407
758.551	1457
758.661	2050
758.771	1599
758.880	938
758.990	1052
759.100	1068
759.210	1662
759.320	960
759.429	1682
759.539	1341
759.649	1189
759.758	1549
759.868	2133
759.978	2283
760.087	2518
760.197	2051
760.307	2260
760.416	2078
760.526	1522
760.635	2255
760.745	2235
760.854	1110
760.964	2619
761.073	2328
761.182	2177
761.292	2236
761.401	2021
761.511	1292
761.620	1429
761.729	375
761.839	-199
761.948	618
762.057	1562
762.166	876
762.276	349
762.385	859
762.494	610
762.603	1781
762.712	702
762.822	809
762.931	136
763.040	636
763.149	342
763.258	351
763.367	443
763.476	664
763.585	938
763.694	520
763.803	792
763.912	908
764.021	414
764.130	1251
764.238	1394
764.347	988
764.456	494
764.565	1242
764.674	674
764.783	1066
764.891	147
765.000	789
765.109	250
765.217	1284
765.326	1938
765.435	1379
765.543	2980
765.652	1696
765.761	2516
765.869	4743
765.978	8710
766.086	16944
766.195	36929
766.303	98669
766.412	348993
766.520	472008
766.629	97431
766.737	22287
766.846	12122
766.954	7353
767.062	7005
767.171	4641
767.279	4778
767.387	2974
767.496	2377
767.604	1764
767.712	1494
767.820	1602
767.928	1923
768.037	1459
768.145	3156
768.253	2230
768.361	2745
768.469	785
768.577	1455
768.685	2112
768.793	1594
768.901	1828
769.009	1519
769.117	1447
769.225	2469
769.333	4715
769.441	6977
769.549	14592
769.657	34756
769.765	117812
769.873	383445
769.981	177325
770.088	21465
770.196	7574
770.304	5978
770.412	4648
770.519	3807
770.627	1396
770.735	1925
770.842	2138
770.950	1796
771.058	1928
771.165	1868
771.273	864
771.380	1400
771.488	1656
771.595	1726
771.703	2065
771.810	2293
771.918	1390
772.025	1658
772.133	1746
772.240	1828
772.348	2172
772.455	2492
772.562	1970
772.670	2152
772.777	2396
772.884	2020
772.991	2325
773.099	1642
773.206	1498
773.313	2657
773.420	1892
773.528	1149
773.635	983
773.742	1895
773.849	2333
773.956	1287
774.063	1788
774.170	1802
774.277	2331
774.384	1598
774.491	1732
774.598	1337
774.705	1417
774.812	1759
774.919	1695
775.026	1655
775.133	1353
775.239	1101
775.346	1228
775.453	1399
775.560	1287
775.667	1605
775.773	947
775.880	1874
775.987	1689
776.093	1264
776.200	1771
776.307	1019
776.413	1002
776.520	1486
776.627	1281
776.733	2353
776.840	2715
776.946	5139
777.053	11660
777.159	36324
777.266	22879
777.372	27077
777.478	27337
777.585	13291
777.691	3086
777.798	1999
777.904	2511
778.010	1914
778.117	2979
778.223	1914
778.329	1161
778.435	792
778.542	1722
778.648	481
778.754	1629
778.860	1296
778.966	753
779.072	724
779.178	1472
779.284	1023
779.391	208
779.497	504
779.603	1707
779.708	-262
779.815	2140
779.920	3515
780.026	8294
780.132	3007
780.238	369
780.344	893
780.450	1549
780.556	468
780.661	-96
780.767	724
780.873	477
780.979	453
781.085	594
781.190	1391
781.296	711
781.402	1020
781.507	303
781.613	295
781.719	535
781.824	1329
781.930	1517
782.035	1103
782.141	557
782.246	717
782.352	1037
782.457	1316
782.563	163
782.668	994
782.773	843
782.879	932
782.984	1400
783.090	1640
783.195	2400
783.300	2284
783.405	1413
783.511	1355
783.616	2261
783.721	2275
783.826	2699
783.932	2237
784.037	2302
784.142	1855
784.247	1671
784.352	1657
784.457	1885
784.562	1049
784.667	1487
784.772	1042
784.877	1301
784.982	1054
785.087	1128
785.192	1110
785.297	1575
785.402	128
785.507	1131
785.611	1217
785.716	514
785.821	824
785.926	-2
786.031	-49
786.135	139
786.240	1049
786.345	-350
786.450	549
786.554	907
786.659	488
786.763	-323
786.868	393
786.973	625
787.077	-536
787.182	-199
787.286	-188
787.391	643
787.495	-368
787.600	-324
787.704	-419
787.809	568
787.913	41
788.017	231
788.122	-36
788.226	428
788.330	-44
788.435	330
788.539	366
788.643	-248
788.747	-23
788.852	235
788.956	-147
789.060	381
789.164	525
789.268	-322
789.372	452
789.476	583
789.580	4
789.684	248
789.788	-442
789.892	101
789.996	487
790.100	-769
790.204	-138
790.308	337
790.412	-197
790.516	-416
790.620	180
790.724	27
790.828	171
790.931	-843
791.035	408
791.139	-358
791.242	-674
791.346	825
791.450	-681
791.554	14
791.657	-144
791.761	1383
791.864	1203
791.968	957
792.072	186
792.175	54
792.279	512
792.382	142
792.486	52
792.589	101
792.693	277
792.796	-513
792.899	658
793.003	957
793.106	-22
793.209	-942
793.313	1854
793.416	-28
793.519	364
793.623	978
793.726	1030
793.829	-9
793.932	-6
794.035	-433
794.138	350
794.242	1026
794.345	1404
794.448	854
794.551	1080
794.654	3097
794.757	3785
794.860	1718
794.963	260
795.066	86
795.169	638
795.272	-603
795.375	386
795.477	75
795.580	-390
795.683	-1299
795.786	117
795.889	-557
795.991	629
796.094	-88
796.197	-939
796.300	540
796.402	-336
796.505	-297
796.608	-766
796.710	205
796.813	-107
796.915	-314
797.018	378
797.120	-817
797.223	-866
797.326	-232
797.428	-215
797.530	-1302
797.633	-1095
797.735	602
797.838	-666
797.940	-54
798.042	-563
798.145	-330
798.247	-211
798.349	-1062
798.452	-273
798.554	-496
798.656	-837
798.758	423
798.860	-517
798.962	-374
799.065	-877
799.167	-1177
799.269	198
799.371	13
799.473	-151
799.575	-615
799.677	-1049
799.779	509
799.881	50
799.983	368
800.085	-797
800.187	394
800.289	-594
800.390	39
800.492	-554
800.594	418
800.696	-212
800.798	-710
800.899	-310
801.001	-227
801.103	-728
801.205	-112
801.306	-231
801.408	-345
801.509	-89
801.611	-247
801.713	-829
801.814	-646
801.916	-903
802.017	-779
802.119	-434
802.220	-1322
802.322	-1033
802.423	485
802.525	-709
802.626	-637
802.727	61
802.829	-141
802.930	-1972
803.031	637
803.133	-631
803.234	-660
803.335	-1085
803.436	-739
803.538	-859
803.639	-1290
803.740	-950
803.841	-1299
803.942	-623
804.043	-438
804.144	-999
804.245	-1353
804.346	-329
804.447	-1272
804.548	-131
804.649	-134
804.750	-544
804.851	-501
804.952	-687
805.053	-449
805.154	-1380
805.255	201
805.355	-931
805.456	-471
805.557	-803
805.658	-1211
805.758	-584
805.859	-122
805.960	-626
806.061	-607
806.161	-804
806.262	-607
806.362	-707
806.463	-779
806.564	-960
806.664	-620
806.765	-663
806.865	-1264
806.966	-561
807.066	-503
807.166	2
807.267	34
807.367	-962
807.468	91
807.568	-1481
807.668	-682
807.769	283
807.869	-557
807.969	-432
808.069	-372
808.170	-546
808.270	-356
808.370	-577
808.470	-488
808.570	-1705
808.670	-1108
808.770	-530
808.870	-954
808.970	-303
809.070	-799
809.170	-258
809.271	47
809.370	31
809.470	154
809.570	-1432
809.670	-1702
809.770	-706
809.870	-575
809.970	-649
810.070	-497
810.169	-853
810.269	-1310
810.369	-196
810.469	-683
810.568	-778
810.668	-641
810.768	-544
810.867	-828
810.967	-889
811.066	-1016
811.166	-962
811.265	-260
811.365	-1095
811.464	-943
811.564	-863
811.663	-191
811.763	-600
811.862	-398
811.962	-987
812.061	-1370
812.160	-580
812.260	-904
812.359	493
812.458	-1264
812.557	-444
812.657	33
812.756	-517
812.855	76
812.954	-998
813.053	-389
813.153	-529
813.252	-937
813.351	39
813.450	-654
813.549	-1776
813.648	-656
813.747	-1552
813.846	13
813.945	50
814.044	-316
814.143	-93
814.242	167
814.341	-1135
814.439	-164
814.538	-174
814.637	-1351
814.736	-477
814.835	-263
814.933	-1206
815.032	-1039
815.131	210
815.229	-517
815.328	532
815.427	1128
815.525	261
815.624	-176
815.722	-274
815.821	854
815.919	209
816.018	214
816.116	471
816.215	299
816.313	295
816.412	890
816.510	710
816.609	1648
816.707	1346
816.805	1051
816.904	748
817.002	700
817.100	1020
817.198	813
817.296	1036
817.395	1194
817.493	2038
817.591	1101
817.689	1663
817.787	2451
817.885	5033
817.983	8514
818.081	20940
818.179	55115
818.277	153270
818.375	179941
818.473	39126
818.571	10352
818.669	6968
818.767	9108
818.865	7669
818.963	6816
819.061	9505
819.158	18747
819.256	45554
819.354	117296
819.452	317969
819.549	263721
819.647	46150
819.745	11982
819.842	6966
819.940	5082
820.038	3921
820.135	3782
820.233	3236
820.330	2001
820.428	1831
820.525	2472
820.623	1510
820.720	1231
820.818	1382
820.915	1939
821.012	2690
821.110	1241
821.207	1216
821.304	243
821.402	2147
821.499	4816
821.596	10099
821.693	6904
821.791	1905
821.888	822
821.985	2408
822.082	1565
822.179	2996
822.276	4785
822.373	2297
822.470	-349
822.567	-156
822.664	329
822.761	730
822.858	-443
822.955	591
823.052	-186
823.149	12
823.246	-24
823.343	40
823.440	294
823.536	-499
823.633	-257
823.730	-81
823.827	-46
823.923	2
824.020	1438
824.117	1297
824.213	3723
824.310	2441
824.407	616
824.503	-107
824.600	510
824.696	78
824.793	991
824.889	-40
824.986	236
825.082	681
825.179	143
825.275	-606
825.371	-92
825.468	595
825.564	-1453
825.660	44
825.757	132
825.853	-396
825.949	-768
826.045	-646
826.142	-636
826.238	158
826.334	86
826.430	-868
826.526	94
826.622	-743
826.718	-188
826.814	-1195
826.910	621
827.006	-509
827.102	-677
827.198	-641
827.294	-904
827.390	-479
827.486	256
827.582	-1037
827.678	-1352
827.774	-255
827.869	-1370
827.965	-158
828.061	-971
828.157	-239
828.252	-289
828.348	-1537
828.444	-15
828.539	-863
828.635	-911
828.731	-680
828.826	-1361
828.922	-396
829.017	-423
829.113	-302
829.208	-89
829.304	-483
829.399	474
829.495	-703
829.590	144
829.685	-76
829.781	-96
829.876	-432
829.971	-322
830.066	-1177
830.162	-1153
830.257	-80
830.352	-200
830.447	-103
830.543	-817
830.638	-1451
830.733	149
830.828	-294
830.923	-491
831.018	-784
831.113	-80
831.208	-1298
831.303	-740
831.398	-1007
831.493	-1395
831.588	-399
831.683	-836
831.778	-813
831.873	-1176
831.967	71
832.062	-783
832.157	-986
832.252	76
832.346	-1091
832.441	102
832.536	-1
832.631	304
832.725	350
832.820	-745
832.914	-234
833.009	-1105
833.104	-192
833.198	-605
833.293	-798
833.387	-171
833.482	-1598
833.576	-698
833.670	-716
833.765	-512
833.859	-197
833.954	328
834.048	212
834.142	-925
834.237	-803
834.331	-388
834.425	295
834.519	-1505
834.613	58
834.708	-1206
834.802	-1341
834.896	-577
834.990	-1133
835.084	-302
835.178	-1004
835.272	-1040
835.366	-1046
835.460	-300
835.554	-852
835.648	-789
835.742	-816
835.836	-353
835.930	-1694
836.024	-625
836.117	-1441
836.211	-711
836.305	-958
836.399	-297
836.493	-1869
836.586	-377
836.680	-631
836.774	-1106
836.867	-471
836.961	-1216
837.055	-1158
837.148	-970
837.242	-964
837.335	-822
837.429	-817
837.522	-1725
837.616	-1053
837.709	-584
837.803	-1821
837.896	-1124
837.989	-48
838.083	-1110
838.176	-1065
838.269	-1726
838.363	630
838.456	-791
838.549	-851
838.642	-124
838.735	577
838.829	190
838.922	-695
839.015	-14
839.108	-1151
839.201	-108
839.294	-303
839.387	-1831
839.480	-1802
839.573	-1086
839.666	-1448
839.759	-1776
839.852	-1353
839.945	-794
840.038	-797
840.131	-734
840.223	-1198
840.316	-581
840.409	-1555
840.502	-1453
840.594	-418
840.687	-1795
840.780	-613
840.873	-1630
840.965	-1224
841.058	-898
841.150	-474
841.243	-2084
841.336	-1212
841.428	-297
841.521	-1765
841.613	-894
841.706	-322
841.798	-1247
841.890	-788
841.983	-1277
842.075	-634
842.167	-1950
842.260	-639
842.352	-891
842.444	-1532
842.537	-1020
842.629	-438
842.721	-717
842.813	-847
842.905	-1537
842.997	-1486
843.090	-1820
843.182	-1347
843.274	-1633
843.366	-551
843.458	-822
843.550	-410
843.642	-843
843.734	-1112
843.826	-1017
843.918	-537
844.009	-722
844.101	-552
844.193	79
844.285	-247
844.377	1822
844.469	3681
844.560	6590
844.652	7430
844.744	998
844.835	-482
844.927	-1212
845.019	-662
845.110	-1106
845.202	-1435
845.293	-1104
845.385	-1402
845.476	-1018
845.568	-978
845.659	-1791
845.751	-957
845.842	-968
845.934	-813
846.025	-1381
846.116	-930
846.208	-1633
846.299	-1114
846.390	-1355
846.482	-1119
846.573	-1142
846.664	-131
846.755	-886
846.846	-209
846.937	-1635
847.029	-1637
847.120	-515
847.211	-1212
847.302	-305
847.393	-2441
847.484	-974
847.575	-1459
847.666	-1166
847.757	-1116
847.847	-1871
847.938	-1207
848.029	-1155
848.120	-1017
848.211	-515
848.302	-1120
848.392	-1116
848.483	-1269
848.574	-1361
848.664	-1169
848.755	-936
848.846	-814
848.936	-1353
849.027	-816
849.118	-175
849.208	-200
849.299	1885
849.389	4663
849.480	12145
849.570	28577
849.661	51094
849.751	112069
849.841	66527
849.932	6946
850.022	572
850.112	335
850.203	509
850.293	-480
850.383	-220
850.474	-1167
850.564	-1162
850.654	18
850.744	-838
850.834	-1272
850.924	-217
851.014	-891
851.104	-520
851.194	-934
851.284	-896
851.374	-891
851.464	-564
851.554	-505
851.644	-930
851.734	-39
851.824	-917
851.914	-1675
852.004	-1142
852.094	-913
852.183	-1060
852.273	-225
852.363	-1324
852.452	-503
852.542	-635
852.632	-771
852.721	66
852.811	-1207
852.901	-480
852.990	-408
853.080	-113
853.169	-28
853.259	606
853.348	1626
853.438	2591
853.527	4154
853.617	7202
853.706	17744
853.795	34061
853.885	80504
853.974	167302
854.063	272059
854.152	545936
854.242	324516
854.331	49274
854.420	12732
854.509	7247
854.598	5698
854.687	3622
854.777	2043
854.866	2580
854.955	2511
855.044	143
855.133	-141
855.222	-241
855.311	-362
855.400	816
855.488	-81
855.577	411
855.666	616
855.755	-346
855.844	113
855.933	-717
856.021	-815
856.110	-55
856.199	-1383
856.288	-984
856.376	-1219
856.465	-1156
856.554	71
856.642	-817
856.731	347
856.819	-129
856.908	-1174
856.996	-1281
857.085	-898
857.173	-419
857.262	-1020
857.350	-1260
857.438	-773
857.527	-380
857.615	-787
857.703	-960
857.792	-1685
857.880	-1486
857.968	-1194
858.056	-1495
858.145	-929
858.233	-1496
858.321	-1381
858.409	-694
858.497	-2228
858.585	-989
858.673	-1036
858.761	-1309
858.849	-1198
858.937	-1505
859.025	-1388
859.113	-376
859.201	-562
859.289	313
859.377	167
859.465	-669
859.552	-532
859.640	-1832
859.728	-1408
859.816	-286
859.903	-477
859.991	-1701
860.079	-894
860.166	-1623
860.254	-1377
860.342	-1426
860.429	-1053
860.517	-1503
860.604	-1089
860.692	-1694
860.779	-1654
860.867	-2024
860.954	-1390
861.042	-1523
861.129	-1080
861.216	-1368
861.304	-2030
861.391	-1006
861.478	-1146
861.565	-384
861.653	-546
861.740	-1711
861.827	-1274
861.914	-864
862.001	-1459
862.089	-731
862.176	-1123
862.263	-869
862.350	-829
862.437	-979
862.524	-938
862.611	224
862.698	620
862.785	996
862.871	2645
862.958	-190
863.045	-885
863.132	-1285
863.219	-1024
863.306	-1369
863.392	-625
863.479	-891
863.566	-1077
863.652	-844
863.739	-1157
863.826	-597
863.912	-1237
863.999	-1088
864.086	-1368
864.172	-263
864.259	-57
864.345	-73
864.432	-832
864.518	-690
864.604	-568
864.691	-417
864.777	-264
864.863	-249
864.950	382
865.036	109
865.122	1257
865.209	2095
865.295	1987
865.381	2112
865.467	3709
865.553	5404
865.639	9377
865.726	18083
865.812	38410
865.898	83106
865.984	129922
866.070	209321
866.156	342026
866.242	131836
866.328	18550
866.414	5610
866.499	4118
866.585	3516
866.671	2735
866.757	1636
866.843	2002
866.928	850
867.014	275
867.100	1068
867.186	-199
867.271	1248
867.357	455
867.442	254
867.528	850
867.614	1509
867.699	2993
867.785	4590
867.870	6380
867.956	10732
868.041	6411
868.127	3659
868.212	4716
868.297	5539
868.383	2205
868.468	2235
868.553	2614
868.639	1621
868.724	333
868.809	1598
868.894	460
868.979	-949
869.065	-206
869.150	-64
869.235	-876
869.320	-438
869.405	-597
869.490	-1051
869.575	-506
869.660	-365
869.745	-1054
869.830	20
869.915	-52
870.000	474
870.085	193
870.169	1381
870.254	1577
870.339	166
870.424	-614
870.509	-445
870.593	-639
870.678	119
870.763	468
870.847	69
870.932	347
871.016	1175
871.101	1858
871.186	-375
871.270	-166
871.355	-126
871.439	-55
871.523	-473
871.608	886
871.692	133
871.777	1282
871.861	885
871.945	-946
872.030	-328
872.114	-682
872.198	-382
872.282	-690
872.367	-165
872.451	-520
872.535	-678
872.619	-80
872.703	-675
872.787	-427
872.871	-538
872.955	34
873.039	-1025
873.123	-518
873.207	347
873.291	-531
873.375	-852
873.459	-181
873.543	-847
873.627	-648
873.711	-872
873.794	-98
873.878	-1293
873.962	-286
874.045	-613
874.129	-465
874.137	-430
874.213	-85
874.245	-263
874.296	-552
874.352	-588
874.380	-605
874.460	-228
874.464	-212
874.547	-824
874.568	-817
874.631	-824
874.676	-646
874.714	-493
874.784	-1243
874.798	-1398
874.881	557
874.892	370
874.965	-865
874.999	-667
875.048	-391
875.107	129
875.131	330
875.215	-143
875.215	-143
875.298	-632
875.323	-717
875.381	-846
875.430	-673
875.465	-603
875.538	-636
875.548	-626
875.631	-1113
875.646	-1056
875.714	-920
875.753	-1099
875.798	-1242
875.861	-1097
875.881	-1041
875.964	-51
875.968	-81
876.047	-555
876.076	-279
876.130	73
876.183	-352
876.213	-546
876.291	-191
876.296	-163
876.379	-1123
876.398	-984
876.462	-625
876.506	-433
876.545	-196
876.613	-839
876.628	-976
876.711	64
876.721	102
876.794	277
876.828	132
876.877	9
876.935	422
876.960	585
877.043	1443
877.043	1442
877.125	1442
877.150	1788
877.208	2638
877.258	2182
877.291	1750
877.365	2370
877.374	2464
877.456	2431
877.472	2320
877.539	1731
877.579	1485
877.622	1268
877.687	1165
877.704	1142
877.787	902
877.794	910
877.869	760
877.901	428
877.952	189
878.008	573
878.034	632
878.115	285
878.117	282
878.199	4
878.222	-48
878.282	-201
878.329	121
878.364	359
878.437	160
878.447	147
878.529	253
878.544	219
878.611	-173
878.651	-200
878.694	-106
878.758	-197
878.776	-250
878.858	-291
878.865	-296
878.941	-303
878.972	-504
879.023	-855
879.078	-825
879.105	-754
879.185	62
879.187	83
879.269	-139
879.292	14
879.351	-98
879.399	-539
879.433	-544
879.506	-235
879.516	-243
879.598	-338
879.613	-368
879.680	-288
879.720	-248
879.762	-145
879.827	-77
879.844	-155
879.926	-471
879.933	-522
880.007	-621
880.040	-636
880.089	-747
880.147	-908
880.171	-957
880.253	-146
880.254	-146
880.335	126
880.360	229
880.417	591
880.467	639
880.499	656
880.574	2044
880.580	2117
880.662	631
880.680	317
880.744	-224
880.787	-85
880.825	-242
880.893	-836
880.907	-918
880.989	-518
881.000	-576
881.070	-627
881.106	-288
881.152	35
881.213	-275
881.233	-384
881.315	-101
881.319	-127
881.396	-456
881.426	-316
881.478	-39
881.532	242
881.559	354
881.639	148
881.641	142
881.722	-375
881.745	-411
881.803	-195
881.852	68
881.885	73
881.958	-110
881.966	-122
882.047	-212
882.064	-266
882.129	-229
882.171	-159
882.210	-282
882.277	-106
882.291	26
882.372	-72
882.383	-23
882.454	-208
882.489	-465
882.535	-461
882.596	-119
882.616	-61
882.697	-162
882.702	-179
882.778	-511
882.808	-514
882.859	-507
882.914	-528
882.940	-427
883.020	155
883.021	160
883.102	-127
883.127	-217
883.183	-263
883.233	-176
883.264	-251
883.339	-250
883.345	-233
883.426	-378
883.445	-290
883.507	-170
883.551	-462
883.587	-399
883.657	-55
883.668	-97
883.749	-339
883.763	-399
883.830	-606
883.869	-632
883.910	-453
883.975	-422
883.991	-360
884.072	404
884.081	385
884.152	-104
884.187	-62
884.233	-32
884.292	-32
884.314	51
884.394	42
884.398	50
884.475	-313
884.504	-481
884.555	-627
884.610	-680
884.636	-551
884.716	-309
884.716	-303
884.797	-7
884.821	61
884.877	-223
884.927	-313
884.958	-183
885.033	-105
885.038	-106
885.118	-101
885.139	-118
885.199	-520
885.244	-697
885.279	-451
885.350	31
885.359	34
885.439	-203
885.456	-271
885.520	-47
885.561	276
885.600	202
885.667	-327
885.680	-367
885.760	-39
885.773	-97
885.840	-485
885.878	-497
885.920	-415
885.984	-332
886.000	-284
886.080	-295
886.089	-275
886.160	-534
886.195	-673
886.240	-370
886.300	-32
886.320	-40
886.400	-31
886.406	-29
886.480	74
886.511	-27
886.560	-6
886.616	210
886.640	111
886.720	-167
886.722	-180
886.800	296
886.827	451
886.879	308
886.932	134
886.959	66
887.038	-251
887.039	-245
887.119	-101
887.143	-4
887.198	254
887.248	298
887.278	101
887.354	-206
887.358	-204
887.437	-402
887.459	-420
887.517	9
887.564	225
887.596	-46
887.669	-544
887.676	-478
887.755	276
887.774	440
887.835	-95
887.880	-451
887.914	-208
887.985	257
887.994	252
888.073	64
888.090	30
888.153	124
888.195	154
888.232	317
888.300	711
888.311	667
888.391	211
888.405	130
888.470	348
888.510	447
888.549	272
888.615	11
888.628	90
888.708	534
888.720	595
888.787	85
888.825	-233
888.866	-74
888.930	182
888.945	180
889.024	155
889.035	154
889.103	483
889.140	611
889.182	525
889.245	409
889.261	447
889.340	594
889.349	608
889.419	237
889.454	43
889.498	307
889.559	668
889.577	580
889.656	185
889.664	145
889.735	61
889.768	25
889.814	455
889.873	1019
889.978	170
890.083	324
890.187	829
890.292	881
890.397	511
890.501	327
890.606	606
890.710	441
890.815	575
890.919	1273
891.024	2187
891.128	2559
891.233	1463
891.337	405
891.442	671
891.546	-350
891.650	-177
891.755	716
891.859	978
891.963	-51
892.068	536
892.172	461
892.276	-552
892.380	836
892.484	1131
892.589	2286
892.693	3382
892.797	1167
892.901	288
893.005	265
893.109	-357
893.213	-250
893.317	591
893.421	867
893.525	89
893.629	729
893.733	373
893.837	-42
893.941	39
894.045	234
894.148	-27
894.252	199
894.356	521
894.460	774
894.564	382
894.667	467
894.771	-115
894.875	-517
894.978	237
895.082	-79
895.186	577
895.289	356
895.393	215
895.496	705
895.600	27
895.703	67
895.807	-378
895.910	189
896.014	117
896.117	832
896.221	537
896.324	532
896.427	-106
896.531	203
896.634	30
896.737	-592
896.840	-318
896.944	229
897.047	-46
897.150	-382
897.253	155
897.356	149
897.460	265
897.563	718
897.666	551
897.769	337
897.872	-192
897.975	-513
898.078	-204
898.181	609
898.284	-331
898.387	-491
898.490	-389
898.593	60
898.695	229
898.798	-459
898.901	-409
899.004	317
899.107	162
899.209	242
899.312	245
899.415	709
899.518	501
899.620	436
899.723	-44
899.826	16
899.928	135
900.031	447
900.133	-291
900.236	797
900.338	-186
900.441	960
900.543	-411
900.646	680
900.748	-443
900.851	558
900.953	-1
901.055	331
901.158	406
901.260	85
901.362	-982
901.465	-288
901.567	243
901.669	412
901.771	304
901.873	328
901.976	14
902.078	142
902.180	-128
902.282	-42
902.384	-160
902.486	1105
902.588	560
902.690	940
902.792	971
902.894	2207
902.996	2002
903.098	616
903.200	-148
903.302	229
903.404	95
903.505	241
903.607	412
903.709	329
903.811	877
903.913	531
904.014	333
904.116	428
904.218	397
904.319	493
904.421	2409
904.523	6677
904.624	6325
904.726	1980
904.827	1215
904.929	4577
905.030	4369
905.132	1514
905.233	147
905.335	-328
905.436	-206
905.537	-74
905.639	60
905.740	838
905.841	1080
905.943	2713
906.044	4087
906.145	3846
906.247	2851
906.348	404
906.449	507
906.550	391
906.651	604
906.752	-323
906.854	393
906.955	-262
907.056	643
907.157	-569
907.258	540
907.359	-442
907.460	131
907.561	-384
907.662	-55
907.762	-214
907.863	-335
907.964	55
908.065	255
908.166	-128
908.267	-202
908.367	1041
908.468	105
908.569	298
908.670	-178
908.770	-327
908.871	375
908.971	127
909.072	-125
909.173	-159
909.273	-63
909.374	-651
909.474	-159
909.575	-474
909.675	-829
909.776	79
909.876	-694
909.977	-146
910.077	-300
910.177	-253
910.278	506
910.378	304
910.478	-576
910.579	955
910.679	-710
910.779	421
910.879	124
910.980	273
911.080	-152
911.180	-934
911.280	-39
911.380	-77
911.480	-443
911.580	-569
911.680	33
911.780	-134
911.880	-215
911.980	-431
912.080	91
912.180	306
912.280	-464
912.380	-694
912.480	-231
912.580	-353
912.679	-370
912.779	-1146
912.879	-119
912.979	372
913.078	-444
913.178	-54
913.278	66
913.377	-313
913.477	-409
913.577	-280
913.676	280
913.776	-495
913.875	-225
913.975	-890
914.074	307
914.174	-191
914.273	-708
914.373	-30
914.472	-606
914.572	-662
914.671	252
914.770	-444
914.870	-665
914.969	-516
915.068	-619
915.167	-55
915.267	-575
915.366	-368
915.465	-425
915.564	-766
915.663	-146
915.763	-29
915.862	-290
915.961	-73
916.060	-982
916.159	-747
916.258	-601
916.357	31
916.456	-643
916.555	-72
916.654	-48
916.752	-91
916.851	645
916.950	-167
917.049	-556
917.148	-409
917.247	-594
917.345	-157
917.444	-412
917.543	224
917.642	-539
917.740	-1020
917.839	-101
917.937	11
918.036	505
918.135	-164
918.233	-258
918.332	-62
918.430	655
918.529	130
918.627	1087
918.726	294
918.824	334
918.923	105
919.021	-212
919.119	-354
919.218	-702
919.316	287
919.414	110
919.512	-432
919.611	-730
919.709	-623
919.807	389
919.905	579
920.003	-586
920.102	-415
920.200	614
920.298	302
920.396	-330
920.494	70
920.592	-736
920.690	-337
920.788	-356
920.886	-238
920.984	-329
921.082	-95
921.180	753
921.277	-457
921.375	48
921.473	4
921.571	-107
921.669	-475
921.766	-798
921.864	-370
921.962	86
922.060	-390
922.157	-232
922.255	713
922.352	-300
922.450	59
922.548	-406
922.645	-501
922.743	-185
922.840	656
922.938	809
923.035	741
923.133	123
923.230	930
923.327	1506
923.425	1519
923.522	278
923.619	450
923.717	1093
923.814	518
923.911	575
924.008	512
924.106	328
924.203	959
924.300	973
924.397	38
924.494	849
924.591	972
924.688	386
924.786	988
924.883	561
924.979	695
925.077	893
925.173	367
925.270	812
925.367	1128
925.464	882
925.561	1399
925.658	1317
925.755	2389
925.852	2819
925.948	3919
926.045	6134
926.142	9240
926.239	11581
926.335	12301
926.432	10720
926.529	10725
926.625	14813
926.722	12318
926.818	6669
926.915	4022
927.011	1720
927.108	2068
927.204	1546
927.301	1553
927.397	572
927.494	1520
927.590	692
927.687	730
927.783	926
927.879	1204
927.976	747
928.072	-465
928.168	1102
928.264	680
928.361	869
928.457	554
928.553	347
928.649	-69
928.745	825
928.841	519
928.937	-353
929.033	374
929.129	239
929.225	268
929.321	771
929.417	298
929.513	459
929.609	485
929.705	384
929.801	375
929.897	61
929.993	343
930.089	358
930.184	-12
930.280	1
930.376	594
930.471	-345
930.567	-359
930.663	112
930.758	525
930.854	-302
930.950	-473
931.045	277
931.141	-410
931.236	-9
931.332	134
931.427	-362
931.523	476
931.618	-76
931.714	-255
931.809	3
931.905	111
932.000	5
932.095	-244
932.191	416
932.286	824
932.381	1111
932.476	91
932.572	-218
932.667	181
932.762	-95
932.857	283
932.952	458
933.047	352
933.142	133
933.237	-293
933.332	-483
933.427	84
933.522	179
933.617	754
933.712	503
933.807	80
933.902	374
933.997	306
934.092	-191
934.187	-112
934.282	668
934.376	-184
934.471	150
934.566	-392
934.661	51
934.755	-101
934.850	-349
934.945	1148
935.039	-286
935.134	-268
935.228	239
935.323	88
935.417	484
935.512	-140
935.606	-395
935.701	218
935.795	-2
935.890	-28
935.984	71
936.079	516
936.173	732
936.267	-369
936.362	-465
936.456	-578
936.550	379
936.644	617
936.738	178
936.833	-312
936.927	48
937.021	-196
937.115	-340
937.209	-34
937.303	-84
937.397	-123
937.491	505
937.585	212
937.679	560
937.773	287
937.867	521
937.961	524
938.055	962
938.149	1103
938.243	659
938.337	1371
938.430	2420
938.524	4695
938.618	10739
938.712	17895
938.805	8071
938.899	2762
938.993	4356
939.086	5091
939.180	12205
939.274	27183
939.367	21541
939.461	5082
939.554	1746
939.648	1033
939.741	788
939.835	685
939.928	660
940.022	543
940.115	-600
940.208	621
940.302	254
940.395	746
940.488	-598
940.582	1047
940.675	-97
940.768	-64
940.861	-571
940.954	910
941.048	-774
941.141	-799
941.234	690
941.327	1188
941.420	2307
941.513	2
941.606	-1002
941.699	83
941.792	515
941.885	50
941.978	396
942.071	134
942.164	-110
942.257	-408
942.349	624
942.442	-463
942.535	376
942.628	88
942.721	-204
942.813	-645
942.906	121
942.999	-694
943.091	-625
943.184	261
943.277	-517
943.369	-71
943.462	-381
943.554	-715
943.647	-285
943.739	-147
943.832	278
943.924	31
944.017	-728
944.109	-742
944.201	-85
944.294	123
944.386	511
944.478	-462
944.571	-933
944.663	-807
944.755	-84
944.847	-200
944.940	-348
945.032	-795
945.124	-419
945.216	295
945.308	-672
945.400	-407
945.492	453
945.584	-841
945.676	689
945.768	641
945.860	540
945.952	605
946.044	2364
946.136	2085
946.228	21
946.320	-330
946.412	120
946.503	106
946.595	-39
946.687	-197
946.779	-325
946.870	-678
946.962	-698
947.054	-94
947.145	-1306
947.237	-608
947.329	264
947.420	-279
947.512	-313
947.603	-172
947.695	-95
947.786	-369
947.878	-532
947.969	-215
948.061	-610
948.152	-68
948.243	-1255
948.335	-807
948.426	-342
948.517	-752
948.609	-220
948.700	-562
948.791	-646
948.882	-346
948.973	-1222
949.065	-126
949.156	-189
949.247	-911
949.338	-97
949.429	-336
949.520	-400
949.611	-715
949.702	-183
949.793	101
949.884	-919
949.975	-243
950.066	-30
950.157	-349
950.247	93
950.338	-850
950.429	-923
950.520	-478
950.611	-968
950.701	-329
950.792	-547
950.883	-297
950.973	-693
951.064	-575
951.155	-1216
951.245	-470
951.336	166
951.427	-1066
951.517	-52
951.608	-677
951.698	-1088
951.788	-606
951.879	-1167
951.969	-261
952.060	-126
952.150	-31
952.240	-487
952.331	-1187
952.421	-547
952.511	-880
952.602	-903
952.692	-291
952.782	-596
952.872	-284
952.962	-437
953.052	-583
953.143	-594
953.233	-362
953.323	-180
953.413	-1109
953.503	-235
953.593	-442
953.683	-717
953.773	-493
953.863	-1029
953.953	-612
954.042	-347
954.132	-767
954.222	-495
954.312	-150
954.402	-929
954.492	-1086
954.581	-1205
954.671	-511
954.761	-1101
954.850	188
954.940	-1333
955.030	-756
955.119	-873
955.209	-954
955.298	-1782
955.388	-776
955.477	-82
955.567	-455
955.656	641
955.746	327
955.835	-1476
955.925	-1030
956.014	-529
956.103	-367
956.193	104
956.282	-38
956.371	-581
956.461	10
956.550	-948
956.639	-743
956.728	-440
956.817	-298
956.906	-1555
956.995	-344
957.085	-514
957.174	204
957.263	-391
957.352	-390
957.441	-927
957.530	-660
957.619	-1504
957.708	-1198
957.796	-1086
957.885	-1048
957.974	-411
958.063	-768
958.152	-863
958.241	-1182
958.329	-887
958.418	-1507
958.507	-1517
958.596	-183
958.684	-1187
958.773	-557
958.861	-1107
958.950	-1157
959.039	-361
959.127	-572
959.216	-1004
959.304	-533
959.393	-1116
959.481	-1178
959.570	-891
959.658	-930
959.746	-531
959.835	-889
959.923	-916
960.011	-515
960.100	-808
960.188	-880
960.276	-1456
960.365	-739
960.453	-330
960.541	-1575
960.629	-1589
960.717	-753
960.805	-1095
960.893	-955
960.981	-2003
961.069	-170
961.158	-910
961.245	-733
961.333	-1779
961.421	-1091
961.509	-503
961.597	-271
961.685	-1216
961.773	-1107
961.861	-895
961.949	-1061
962.036	-998
962.124	-1275
962.212	-770
962.299	-1442
962.387	-1017
962.475	-1468
962.562	-1051
962.650	-78
962.738	-1249
962.825	-765
962.913	-941
963.000	-710
963.088	-602
963.175	-999
963.263	-1182
963.350	-1382
963.438	-955
963.525	-1379
963.612	-912
963.700	-1649
963.787	-947
963.874	-568
963.962	-1198
964.049	-1587
964.136	-966
964.223	-1787
964.310	-901
964.398	-419
964.485	-1074
964.572	-1056
964.659	-484
964.746	-929
964.833	-1598
964.920	-1056
965.007	-482
965.094	-675
965.181	-937
965.268	-331
965.355	-1611
965.441	-678
965.528	-955
965.615	-695
965.702	-241
965.789	-717
965.875	-1878
965.962	-1479
966.049	-1139
966.136	-1468
966.222	-1031
966.309	-770
966.395	-1198
966.482	-1064
966.569	-758
966.655	-504
966.742	-1193
966.828	-751
966.915	-950
967.001	-652
967.087	-1500
967.174	-1138
967.260	-247
967.347	-686
967.433	-1411
967.519	-1013
967.605	-1688
967.692	-2287
967.778	-1806
967.864	-1173
967.950	-1129
968.036	-1455
968.123	-633
968.209	-1146
968.295	-2361
968.381	-142
968.467	-113
968.553	-2319
968.639	-1128
968.725	-1440
968.811	-521
968.897	-462
968.983	-1460
969.069	-1273
969.154	-1654
969.240	-605
969.326	-1444
969.412	-1873
969.497	-1435
969.583	-475
969.669	-434
969.755	-1058
969.840	-1201
969.926	-1302
970.012	-1523
970.097	-470
970.183	-867
970.268	-800
970.354	-1376
970.439	-2295
970.525	-711
970.610	-2314
970.696	-797
970.781	-501
970.866	-1119
970.952	-221
971.037	-537
971.122	-1422
971.208	-962
971.293	-1610
971.378	-1153
971.463	-1150
971.549	-414
971.634	-2140
971.719	-677
971.804	-797
971.889	-1702
971.974	-958
972.059	-554
972.144	-952
972.229	-1913
972.314	-1471
972.399	-1016
972.484	-971
972.569	-1265
972.654	-1671
972.739	-688
972.824	-1461
972.908	-1249
972.993	-1534
973.078	-1272
973.163	-1284
973.247	-1294
973.332	-2031
973.417	-113
973.501	-682
973.586	-840
973.671	-1664
973.755	-1297
973.840	-1160
973.924	-1116
974.009	-775
974.093	-1004
974.178	-434
974.262	-857
974.346	-619
974.431	-1187
974.515	-772
974.600	32
974.684	-1717
974.768	-1197
974.852	-835
974.937	-1370
975.021	-698
975.105	-1401
975.189	-2062
975.273	-924
975.358	-765
975.442	-1440
975.526	-938
975.610	-1354
975.694	-1069
975.778	-1051
975.862	-599
975.946	-2049
976.030	-21
976.114	-1361
976.198	-936
976.281	-1142
976.365	-768
976.449	-1344
976.533	-1331
976.617	-1378
976.700	-1124
976.784	-1130
976.868	-1358
976.951	-1085
977.035	-1563
977.119	-1539
977.202	-1539
977.286	-737
977.369	-741
977.453	-1200
977.536	-1520
977.620	-1432
977.703	-1510
977.787	-1807
977.870	-1109
977.953	-1107
978.037	-1242
978.120	-1032
978.203	-1324
978.287	-2037
978.370	-2120
978.453	-1357
978.536	-2231
978.620	-848
978.703	-977
978.786	-1412
978.869	-650
978.952	-1756
979.035	-25
979.118	-1169
979.201	-1909
979.284	-1522
979.367	-758
979.450	-1288
979.533	-1125
979.616	-1334
979.699	-1020
979.782	-382
979.865	-1094
979.948	-2306
980.030	-1208
980.113	-1622
980.196	-1745
980.279	-1278
980.361	-1527
980.444	-1867
980.526	-927
980.609	-970
980.692	-2205
980.774	-876
980.857	-1788
980.939	-718
981.022	-1406
981.104	-1634
981.187	-1102
981.269	-1062
981.352	-1248
981.434	-1999
981.516	-985
981.599	-1390
981.681	-381
981.763	-1153
981.846	-921
981.928	-1533
982.010	-1222
982.092	-1593
982.174	-420
982.256	-1091
982.339	-978
982.421	-810
982.503	-609
982.585	-1898
982.667	-1925
982.749	-1488
982.831	-1683
982.913	-1867
982.995	-377
983.077	-1335
983.158	-547
983.240	-2058
983.322	-666
983.404	107
983.486	-981
983.568	-1299
983.649	-1686
983.731	-1457
983.813	-1902
983.894	-845
983.976	-1880
984.058	-1512
984.139	-738
984.221	-1929
984.302	-789
984.384	-1335
984.465	-932
984.547	-1232
984.628	-2186
984.710	-1003
984.791	-1612
984.872	-1797
984.954	-1295
985.035	-908
985.116	-1914
985.198	-1639
985.279	-916
985.360	-2232
985.441	-1124
985.522	-1701
985.604	-990
985.685	-2536
985.766	-576
985.847	-1513
985.928	-1304
986.009	-1626
986.090	-1554
986.171	-4
986.252	-1090
986.333	308
986.414	-332
986.495	-2
986.576	-1561
986.656	-1370
986.737	-1031
986.818	-1051
986.899	-1828
986.980	-1801
987.060	-285
987.141	-1283
987.222	-1220
987.302	-954
987.383	-1159
987.464	-1199
987.544	-1100
987.625	-1850
987.705	-827
987.786	-741
987.866	-934
987.947	-1925
988.027	-1223
988.108	-1789
988.188	-705
988.268	-1827
988.349	-1966
988.429	-2005
988.509	-1112
988.589	-1761
988.670	-1919
988.750	-535
988.830	-903
988.910	-1252
988.990	-1734
989.070	-1872
989.151	-1247
989.231	-1654
989.311	-1419
989.391	-1830
989.471	-2359
989.551	-1434
989.631	-759
989.711	-875
989.791	-1697
989.870	-1380
989.950	-1037
990.030	-1513
990.110	-518
990.190	-1857
990.269	-1780
990.349	-1464
990.429	-1429
990.509	-308
990.588	-1687
990.668	-1356
990.747	-1564
990.827	-1026
990.907	-882
990.986	-1437
991.066	-1120
991.145	-2192
991.225	-1960
991.304	-1184
991.383	-1478
991.463	-1495
991.542	-1050
991.622	-1670
991.701	-1995
991.780	-1535
991.859	-1425
991.939	-1261
992.018	-780
992.097	-1089
992.176	-1461
992.256	-2059
992.335	-1322
992.414	-1190
992.493	-1417
992.572	-2146
992.651	-893
992.730	-1624
992.809	-1995
992.888	-1651
992.967	-688
993.046	-1233
993.125	-1619
993.203	-1014
993.282	-903
993.361	-2169
993.440	-2253
993.519	-2286
993.597	-1162
993.676	-1259
993.755	-1466
993.834	-1425
993.912	-2065
993.991	-964
994.069	-1606
994.148	-1250
994.226	-1799
994.305	-565
994.384	-1480
994.462	-1522
994.540	-1366
994.619	-1861
994.697	-1199
994.776	-1477
994.854	-647
994.932	-1359
995.011	-1749
995.089	-1347
995.167	-980
995.245	-1340
995.324	-1912
995.402	-1583
995.480	-1585
995.558	-1776
995.636	-1485
995.714	-1553
995.792	-390
995.870	-1934
995.948	-1452
996.026	-1934
996.104	-2425
996.182	-888
996.260	-1854
996.338	-840
996.416	-1932
996.494	-2014
996.572	-1289
996.649	-1093
996.727	-1591
996.805	-851
996.883	-2110
996.960	-1620
997.038	-1642
997.116	-1464
997.193	-2176
997.271	-1527
997.348	-2257
997.426	-1973
997.504	-1347
997.581	-994
997.658	-736
997.736	-1979
997.813	-2642
997.891	-991
997.968	-1689
998.046	-1620
998.123	-1559
998.200	-1353
998.277	-1614
998.355	-1230
998.432	-1942
998.509	-1455
998.586	-834
998.663	-1478
998.741	-1538
998.818	-1387
998.895	-1735
998.972	-1846
999.049	-1422
999.126	-1854
999.203	-1325
999.280	-1538
999.357	-1316
999.434	-1979
999.511	-1201
999.587	-1462
999.664	-1811
999.741	-1633
999.818	-829
999.895	-2355
999.971	-1765
1000.048	-1564
1000.125	-1168
1000.202	-2140
1000.278	-1545
1000.355	-1823
1000.431	-1598
1000.508	-2272
1000.584	-1766
1000.661	-1583
1000.738	-1980
1000.814	-1190
1000.890	-1088
1000.967	-2251
1001.043	-2189
1001.120	-1851
1001.196	-2882
1001.272	-2555
1001.349	-1587
1001.425	-1623
1001.501	-2002
1001.577	-2313
1001.654	-1017
1001.730	-2280
1001.806	-1838
1001.882	-2252
1001.958	-1332
1002.034	-2538
1002.110	-1785
1002.186	-2010
1002.262	-1938
1002.338	-2232
1002.414	-1207
1002.490	-2081
1002.566	-2220
1002.642	-2330
1002.718	-1660
1002.794	-2286
1002.870	-1612
1002.945	-2347
1003.021	-1821
1003.097	-1924
1003.173	-1694
1003.248	-1681
1003.324	-1155
1003.400	-1195
1003.475	-1870
1003.551	-1828
1003.626	-1499
1003.702	-1815
1003.777	-1446
1003.853	-2083
1003.928	-1625
1004.004	-2288
1004.079	-1790
1004.155	-1708
1004.230	-2511
1004.305	-1682
1004.381	-2086
1004.456	-1951
1004.531	-1647
1004.607	-1788
1004.682	-1856
1004.757	-955
1004.832	-966
1004.907	-1853
1004.982	-2018
1005.057	-2042
1005.133	-1766
1005.208	-2134
1005.283	-2411
1005.358	-1194
1005.433	-2167
1005.508	-813
1005.583	-1583
1005.657	-2689
1005.732	-1764
1005.807	-1824
1005.882	-1848
1005.957	-1769
1006.032	-1847
1006.106	-2599
1006.181	-1400
1006.256	-1045
1006.331	-2022
1006.405	-2025
1006.480	-1395
1006.554	-2760
1006.629	-1836
1006.704	-1507
1006.778	-1588
1006.853	-1751
1006.927	-1970
1007.002	-2743
1007.076	-1768
1007.150	-1907
1007.225	-854
1007.299	-2623
1007.373	-1744
1007.448	-2216
1007.522	-1424
1007.596	-1404
1007.671	-1796
1007.745	-1240
1007.819	-2192
1007.893	-2357
1007.967	-1272
1008.041	-2400
1008.115	-1605
1008.190	-1867
1008.264	-1776
1008.338	-2173
1008.412	-2455
1008.486	-1690
1008.560	-1524
1008.633	-1914
1008.707	-1754
1008.781	-1074
1008.855	-1516
1008.929	-1770
1009.003	-1748
1009.076	-2207
1009.150	-1378
1009.224	-2115
1009.298	-1709
1009.371	-1801
1009.445	-1313
1009.519	-2186
1009.592	-1977
1009.666	-1819
1009.739	-1447
1009.813	-2416
1009.886	-601
1009.960	-1983
1010.033	-1729
1010.107	-1675
1010.180	-2212
1010.253	-1000
1010.327	-2037
1010.400	-1325
1010.473	-1349
1010.547	-433
1010.620	-187
1010.693	-290
1010.766	-159
1010.840	588
1010.913	1085
1010.986	-394
1011.059	407
1011.132	428
1011.205	867
1011.278	1401
1011.351	1432
1011.424	2242
1011.497	1619
1011.570	389
1011.643	-66
1011.716	-1777
1011.789	-1024
1011.862	-1034
1011.934	-1253
1012.007	-2382
1012.080	-1220
1012.153	-1269
1012.225	-1443
1012.298	-2386
1012.371	-2263
1012.443	-1662
1012.516	-1896
1012.588	-1420
1012.661	-1924
1012.733	-1750
1012.806	-1408
1012.879	-2065
1012.951	-2345
1013.023	-1814
1013.096	-1267
1013.168	-2158
1013.241	-1841
1013.313	-2667
1013.385	-2306
1013.458	-2179
1013.530	-2083
1013.602	-1547
1013.674	-2119
1013.746	-2243
1013.819	-1642
1013.891	-1949
1013.963	-3243
1014.035	-1626
1014.107	-2229
1014.179	-2216
1014.251	-2093
1014.323	-1689
1014.395	-2027
1014.467	-1680
1014.539	-1404
1014.611	-2375
1014.683	-2413
1014.754	-1714
1014.826	-1824
1014.898	-1435
1014.970	-2611
1015.042	-1047
1015.113	-1415
1015.185	-2378
1015.257	-2519
1015.328	-1827
1015.400	-2216
1015.471	-1447
1015.543	-2799
1015.615	-1311
1015.686	-2151
1015.757	-2276
1015.829	-2040
1015.901	-2249
1015.972	-1582
1016.043	-2606
1016.115	-2176
1016.186	-943
1016.257	-2660
1016.328	-2611
1016.400	-1364
1016.471	-1769
1016.542	-2632
1016.613	-1788
1016.685	-1431
1016.756	-2606
1016.827	-2709
1016.898	-3403
1016.969	-999
1017.040	-2201
1017.111	-2013
1017.182	-1970
1017.253	-1481
1017.324	-2686
1017.395	-1856
1017.466	-1517
1017.537	-2635
1017.608	-2609
1017.678	-2744
1017.749	-2646
1017.820	-1593
1017.891	-3002
1017.961	-2994
1018.032	-1876
1018.103	-1860
1018.173	-2115
1018.244	-1705
1018.315	-2393
1018.385	-2314
1018.456	-2339
1018.526	-2920
1018.597	-2455
1018.667	-2121
1018.738	-2936
1018.808	-1783
1018.878	-2570
1018.949	-1713
1019.019	-2329
1019.089	-1728
1019.160	-1936
1019.230	-3046
1019.300	-1796
1019.371	-3279
1019.441	-2813
1019.511	-2169
1019.581	-2262
1019.651	-1223
1019.721	-1916
1019.791	-3242
1019.861	-1850
1019.931	-2170
1020.001	-2245
1020.071	-2734
1020.141	-1856
1020.211	-1589
1020.281	-2601
1020.351	-1579
1020.421	-2342
1020.491	-1872
1020.560	-2307
1020.630	-2041
1020.700	-1720
1020.770	-2022
1020.839	-1943
1020.909	-3020
1020.979	-2704
1021.048	-2156
1021.118	-2720
1021.187	-2205
1021.257	-2292
1021.326	-1799
1021.396	-3240
1021.465	-2395
1021.535	-1666
1021.604	-2991
1021.674	-2321
1021.743	-2533
1021.812	-2238
1021.882	-2044
1021.951	-2080
1022.020	-2412
1022.089	-1557
1022.159	-1878
1022.228	-1827
1022.297	-3060
1022.366	-1913
1022.435	-1947
1022.504	-2085
1022.573	-2548
1022.642	-1691
1022.711	-2498
1022.781	-2213
1022.849	-2394
1022.918	-2160
1022.987	-1352
1023.056	-2222
1023.125	-2588
1023.194	-2281
1023.263	-1730
1023.331	-3022
1023.400	-1792
1023.469	-2222
1023.538	-2043
1023.606	-1946
1023.675	-1931
1023.744	-2004
1023.812	-2432
1023.881	-2756
1023.949	-2443
1024.018	-2278
1024.086	-2334
1024.155	-2097
1024.223	-3468
1024.292	-2388
1024.360	-1616
1024.429	-2715
1024.497	-2612
1024.565	-2183
1024.634	-2229
1024.702	-2354
1024.770	-2433
1024.838	-3049
1024.907	-2020
1024.975	-2625
1025.043	-1642
1025.111	-2595
1025.179	-2478
1025.247	-2436
1025.315	-3121
1025.383	-2042
1025.451	-2160
1025.519	-2723
1025.587	-2059
1025.655	-2373
1025.723	-2297
1025.791	-1669
1025.859	-1778
1025.927	-1844
1025.995	-2399
1026.062	-2346
1026.130	-2247
1026.198	-2069
1026.266	-2433
1026.333	-2595
1026.401	-1753
1026.469	-2709
1026.536	-2632
1026.604	-2278
1026.671	-2410
1026.739	-2367
1026.806	-2275
1026.874	-2061
1026.941	-2265
1027.009	-2169
1027.076	-1988
1027.144	-1986
1027.211	-2681
1027.278	-2591
1027.345	-2034
1027.413	-2534
1027.480	-2137
1027.547	-2411
1027.614	-1826
1027.682	-1905
1027.749	-2350
1027.816	-2167
1027.883	-2473
1027.950	-1951
1028.017	-2120
1028.084	-1856
1028.151	-2224
1028.218	-2460
1028.285	-2208
1028.352	-2700
1028.419	-2527
1028.486	-2079
1028.553	-2486
1028.619	-2796
1028.686	-1733
1028.753	-2872
1028.820	-2093
1028.886	-2192
1028.953	-2159
1029.020	-2420
1029.086	-3119
1029.153	-2013
1029.220	-2528
1029.286	-2190
1029.353	-1681
1029.419	-2330
1029.486	-1752
1029.552	-2108
1029.619	-2718
1029.685	-2809
1029.751	-2885
1029.818	-1553
1029.884	-1720
1029.951	-1776
1030.017	-2219
1030.083	-2368
1030.149	-2401
1030.216	-1693
1030.282	-2274
1030.348	-2276
1030.414	-3058
1030.480	-2506
1030.546	-1750
1030.612	-2119
1030.678	-2571
1030.744	-2082
1030.810	-1901
1030.876	-1909
1030.942	-1681
1031.008	-1774
1031.074	-2421
1031.140	-2518
1031.206	-1402
1031.272	-2506
1031.337	-1594
1031.403	-2158
1031.469	-2085
1031.534	-2231
1031.600	-1722
1031.666	-2749
1031.731	-3039
1031.797	-1534
1031.863	-2288
1031.928	-2295
1031.994	-2019
1032.059	-2154
1032.125	-1768
1032.190	-1753
1032.256	-2113
1032.321	-2647
1032.386	-2884
1032.452	-2478
1032.517	-2261
1032.582	-2148
1032.647	-1859
1032.713	-2268
1032.778	-1599
1032.843	-2509
1032.908	-2442
1032.974	-2296
1033.039	-2481
1033.104	-2119
1033.169	-2189
1033.234	-2597
1033.299	-2458
1033.364	-3113
1033.429	-2332
1033.494	-2335
1033.559	-2140
1033.624	-2165
1033.688	-2644
1033.753	-2306
1033.818	-1638
1033.883	-1392
1033.948	-2003
1034.013	-2265
1034.077	-1832
1034.142	-2044
1034.207	-2716
1034.271	-2467
1034.336	-1623
1034.400	-1190
1034.465	-2529
1034.530	-1914
1034.594	-1120
1034.658	-1331
1034.723	-3844
1034.787	-2093
1034.852	-1892
1034.916	-1568
1034.981	-1934
1035.045	-3032
1035.109	-2314
1035.173	-1947
1035.238	-1564
1035.302	-2235
1035.366	-2234
1035.430	-2272
1035.495	-2175
1035.559	-1750
1035.623	-2300
1035.687	-2008
1035.751	-1696
1035.815	-1433
1035.879	-1863
1035.943	-2078
1036.007	-2921
1036.071	-2361
1036.135	-1985
1036.198	-1638
1036.262	-2672
1036.326	-1919
1036.390	-1788
1036.454	-2171
1036.517	-1885
1036.581	-2582
1036.645	-1627
1036.709	-1496
1036.772	-2492
1036.836	-2281
1036.900	-2157
1036.963	-1987
1037.026	-1973
1037.090	-2032
1037.154	-2341
1037.217	-1920
1037.280	-1924
1037.344	-2147
1037.407	-2177
1037.471	-2483
1037.534	-2214
1037.597	-1642
1037.661	-2980
1037.724	-1927
1037.787	-2229
1037.850	-2130
1037.913	-3153
1037.977	-1525
1038.040	-2003
1038.103	-2678
1038.166	-2133
1038.229	-1027
1038.292	-1916
1038.355	-2024
1038.418	-2297
1038.481	-2056
1038.544	-1723
1038.607	-1542
1038.670	-2523
1038.732	-2335
1038.795	-2366
1038.858	-1306
1038.921	-1516
1038.984	-1714
1039.046	-2304
1039.109	-2788
1039.172	-2294
1039.234	-2525
1039.297	-2115
1039.360	-2289
1039.422	-1656
1039.485	-1406
1039.547	-2639
1039.610	-2239
1039.672	-2711
1039.734	-2244
1039.797	-1991
1039.859	-2147
1039.922	-1814
1039.984	-1726
1040.046	-1966
1040.109	-3201
1040.171	-2379
1040.233	-2622
1040.295	-2568
1040.358	-2389
1040.420	-1623
1040.482	-1777
1040.544	-2995
1040.606	-2670
1040.668	-2272
1040.730	-2170
1040.792	-2176
1040.854	-2372
1040.916	-2597
1040.978	-2680
1041.040	-2280
1041.102	-2240
1041.164	-1817
1041.225	-2029
1041.287	-2437
1041.349	-2318
1041.411	-1942
1041.472	-1934
1041.534	-2036
1041.596	-2689
1041.657	-2268
1041.719	-2321
1041.781	-1642
1041.842	-2184
1041.904	-1973
1041.965	-2776
1042.027	-2400
1042.088	-2712
1042.150	-2153
1042.211	-2129
1042.272	-1332
1042.334	-2855
1042.395	-2761
1042.456	-2402
1042.518	-2140
1042.579	-2156
1042.640	-2514
1042.701	-1932
1042.763	-2258
1042.824	-1750
1042.885	-2775
1042.946	-2964
1043.007	-2629
1043.068	-1798
1043.129	-2086
1043.190	-2563
1043.251	-1385
1043.312	-2555
1043.373	-1887
1043.434	-1576
1043.495	-2130
1043.556	-2578
1043.616	-2209
1043.677	-2467
1043.738	-1697
1043.799	-2313
1043.859	-2332
1043.920	-2542
1043.981	-2673
1044.041	-2839
1044.102	-2353
1044.162	-2387
1044.223	-2196
1044.284	-1511
1044.344	-2864
1044.405	-2832
1044.465	-2653
1044.525	-2269
1044.586	-2204
1044.646	-2058
1044.707	-1791
1044.767	-2138
1044.827	-2702
1044.887	-1974
1044.948	-1714
1045.008	-2316
1045.068	-2366
1045.128	-2573
1045.188	-2008
1045.249	-2006
1045.309	-2743
1045.369	-1414
1045.429	-2450
1045.489	-2881
1045.549	-1728
1045.609	-2305
1045.669	-2282
1045.729	-1655
1045.789	-2359
1045.848	-1432
1045.908	-2233
1045.968	-1586
1046.028	-2001
1046.088	-1879
1046.147	-1899
1046.207	-2328
1046.267	-1953
1046.326	-1535
1046.386	-1931
1046.446	-1538
1046.505	-735
1046.565	-1173
1046.624	-1413
1046.684	-1429
1046.743	-957
1046.803	-1125
1046.862	-1615
1046.922	0
