'Start Wavelength	183.907
'End Wavelength	1046.922
'Gate Delay	5.000
'Gate Width (ms)	1.050
'Laser Output Level	0.000
'X Position	0.000
'Y Position	0.000
'Z Position	0.000
'Grid Point Number	1.000
'Shot Number	100.000
183.907	390.000
183.977	165.000
184.047	-107
184.116	377
184.186	-56
184.256	433
184.325	357
184.395	-237
184.465	355
184.534	-451
184.604	-278
184.674	524
184.743	-600
184.813	84
184.883	145
184.952	796
185.022	71
185.092	479
185.161	92
185.231	272
185.301	-519
185.370	801
185.440	-95
185.509	-44
185.579	-364
185.649	761
185.718	735
185.788	858
185.857	-1260
185.927	-17
185.996	324
186.066	554
186.136	-333
186.205	515
186.275	7
186.344	98
186.414	543
186.483	322
186.553	765
186.622	1236
186.692	580
186.761	125
186.831	62
186.900	59
186.970	-17
187.039	-177
187.109	873
187.178	312
187.248	117
187.317	766
187.387	-155
187.456	698
187.526	1132
187.595	534
187.664	142
187.734	-21
187.803	553
187.873	231
187.942	332
188.012	-197
188.081	-289
188.150	637
188.220	832
188.289	348
188.358	412
188.428	535
188.497	-190
188.567	403
188.636	598
188.705	307
188.775	192
188.844	279
188.913	89
188.983	165
189.052	-154
189.121	475
189.191	246
189.260	553
189.329	1059
189.399	745
189.468	401
189.537	362
189.606	142
189.676	607
189.745	25
189.814	815
189.883	79
189.953	115
190.022	932
190.091	3981
190.161	3691
190.230	1057
190.299	607
190.368	299
190.437	416
190.507	-67
190.576	503
190.645	572
190.714	-79
190.783	537
190.853	696
190.922	459
190.991	696
191.060	1243
191.129	1133
191.198	580
191.268	213
191.337	755
191.406	842
191.475	922
191.544	317
191.613	1346
191.682	-480
191.752	509
191.821	-204
191.890	310
191.959	51
192.028	622
192.097	340
192.166	426
192.235	150
192.304	288
192.373	34
192.442	552
192.511	213
192.580	537
192.650	340
192.719	532
192.788	468
192.857	-74
192.926	814
192.995	189
193.064	770
193.133	1070
193.202	1152
193.271	1590
193.340	1322
193.409	1440
193.478	1636
193.547	2022
193.615	2152
193.684	2911
193.753	1298
193.822	658
193.891	544
193.960	660
194.029	881
194.098	873
194.167	708
194.236	817
194.305	55
194.374	482
194.443	876
194.512	1547
194.580	1370
194.649	1620
194.718	1223
194.787	774
194.856	826
194.925	1030
194.994	816
195.062	998
195.131	1450
195.200	1831
195.269	1900
195.338	590
195.407	917
195.475	910
195.544	1273
195.613	1181
195.682	1124
195.751	2084
195.819	836
195.888	1138
195.957	2019
196.026	2122
196.094	2560
196.163	2412
196.232	1880
196.301	1676
196.369	1784
196.438	563
196.507	1626
196.576	1088
196.644	428
196.713	907
196.782	302
196.850	382
196.919	726
196.988	452
197.056	699
197.125	1108
197.194	950
197.262	1225
197.331	255
197.400	1508
197.468	355
197.537	660
197.606	866
197.674	2251
197.743	3990
197.812	1808
197.880	4068
197.949	1743
198.017	3270
198.086	2040
198.155	855
198.223	1531
198.292	4722
198.360	1384
198.429	1515
198.497	986
198.566	2625
198.635	4428
198.703	1682
198.772	2196
198.840	5291
198.909	4464
198.977	1164
199.046	989
199.114	1032
199.183	1386
199.251	1562
199.320	1262
199.388	791
199.457	1429
199.525	1322
199.594	590
199.662	1024
199.731	1213
199.799	552
199.867	1515
199.936	1244
200.004	1424
200.073	1521
200.141	417
200.210	914
200.278	1107
200.346	1139
200.415	1354
200.483	1980
200.552	1682
200.620	1394
200.688	964
200.757	543
200.825	904
200.893	957
200.962	1245
201.030	396
201.098	1519
201.167	1125
201.235	1183
201.303	1130
201.372	2365
201.440	1403
201.508	1598
201.577	1560
201.645	631
201.713	944
201.781	1072
201.850	3052
201.918	1816
201.986	631
202.055	1471
202.123	-2
202.191	902
202.259	631
202.327	1430
202.396	1493
202.464	1458
202.532	2276
202.600	7326
202.669	2736
202.737	1301
202.805	747
202.873	1210
202.941	1476
203.009	1592
203.078	923
203.146	556
203.214	916
203.282	742
203.350	1421
203.418	964
203.487	1289
203.555	1009
203.623	1440
203.691	833
203.759	1176
203.827	456
203.895	1501
203.963	989
204.031	1072
204.099	1171
204.168	1126
204.236	1721
204.304	1263
204.372	1394
204.440	845
204.508	1543
204.576	741
204.644	870
204.712	462
204.780	1565
204.848	1469
204.916	728
204.984	1623
205.052	1308
205.120	1670
205.188	1498
205.256	855
205.324	1422
205.392	1602
205.460	1005
205.528	1818
205.596	796
205.664	1275
205.732	1079
205.799	6264
205.867	7046
205.935	1636
206.003	1574
206.071	1635
206.139	1517
206.207	1505
206.275	1100
206.343	1625
206.411	1314
206.478	1202
206.546	1853
206.614	1676
206.682	1417
206.750	1213
206.818	3340
206.885	2328
206.953	152
207.021	1484
207.089	1526
207.157	856
207.225	1419
207.292	1716
207.360	1143
207.428	1699
207.496	1584
207.563	1861
207.631	1387
207.699	1697
207.767	1463
207.834	1168
207.902	1295
207.970	2110
208.038	1672
208.105	1566
208.173	1989
208.241	2212
208.309	2680
208.376	2457
208.444	5021
208.512	1656
208.579	1408
208.647	3008
208.715	2209
208.782	1860
208.850	1683
208.918	1166
208.985	1708
209.053	2878
209.120	2072
209.188	1475
209.256	1710
209.323	2093
209.391	2694
209.459	2417
209.526	1852
209.594	721
209.661	2253
209.729	1948
209.796	1688
209.864	2132
209.932	519
209.999	2214
210.067	2301
210.134	1775
210.202	2275
210.269	3018
210.337	3533
210.404	2255
210.472	2014
210.539	1955
210.607	2902
210.674	3193
210.742	1782
210.809	2575
210.877	2665
210.944	2829
211.012	2411
211.079	2675
211.146	1814
211.214	1860
211.281	3579
211.349	3545
211.416	2459
211.484	3692
211.551	2323
211.618	1554
211.686	1731
211.753	2275
211.821	2390
211.888	1456
211.955	1682
212.023	1930
212.090	2763
212.157	2449
212.225	2847
212.292	5815
212.359	11866
212.427	23693
212.494	8456
212.561	4044
212.629	2591
212.696	2539
212.763	2914
212.831	1997
212.898	2809
212.965	2329
213.032	2786
213.100	3557
213.167	3637
213.234	3044
213.301	2476
213.369	2433
213.436	2503
213.503	2584
213.570	3039
213.638	2775
213.705	1505
213.772	1830
213.839	4059
213.906	2734
213.973	3141
214.041	1836
214.108	2412
214.175	1847
214.242	2200
214.309	1612
214.376	2852
214.444	2953
214.511	3005
214.578	2506
214.645	3140
214.712	3502
214.779	2701
214.846	3012
214.913	3083
214.980	3130
215.048	4350
215.115	4046
215.182	3917
215.249	3317
215.316	2608
215.383	2781
215.450	2855
215.517	2449
215.584	2644
215.651	2568
215.718	2692
215.785	3306
215.852	4147
215.919	3879
215.986	3851
216.053	1496
216.120	3521
216.187	3079
216.254	2579
216.321	3052
216.388	3141
216.455	3675
216.522	2978
216.589	4619
216.656	8285
216.722	6169
216.789	4562
216.856	3840
216.923	3998
216.990	2813
217.057	3733
217.124	4409
217.191	3893
217.258	5326
217.324	6567
217.391	6355
217.458	4719
217.525	3479
217.592	2888
217.659	3246
217.725	4105
217.792	5161
217.859	3716
217.926	2120
217.993	2056
218.059	3076
218.126	2420
218.193	1893
218.260	2047
218.327	1663
218.393	2549
218.460	1893
218.527	2117
218.594	3069
218.660	5472
218.727	5299
218.794	2592
218.860	2524
218.927	2231
218.994	1642
219.061	2265
219.127	4321
219.194	4344
219.261	2199
219.327	2134
219.394	1787
219.461	1525
219.527	1576
219.594	3658
219.661	1971
219.727	1843
219.794	2283
219.860	1700
219.927	2888
219.994	3790
220.060	6908
220.127	3951
220.193	2624
220.260	3733
220.326	4746
220.393	7116
220.460	8562
220.526	5425
220.593	4038
220.659	4574
220.726	4806
220.792	12251
220.859	8825
220.925	11618
220.992	15964
221.058	16023
221.125	14436
221.191	11187
221.258	3875
221.324	4025
221.391	3085
221.457	2719
221.524	2794
221.590	5783
221.657	15716
221.723	7781
221.789	9601
221.856	7816
221.922	4167
221.989	3299
222.055	3190
222.121	2220
222.188	3681
222.254	2713
222.321	2247
222.387	2134
222.453	1567
222.520	2306
222.586	1704
222.652	1825
222.719	1936
222.785	2131
222.851	2330
222.918	1664
222.984	1715
223.050	2504
223.116	1823
223.183	1641
223.249	1752
223.315	1200
223.382	2190
223.448	2800
223.514	866
223.580	1921
223.647	1060
223.713	1447
223.779	1599
223.845	2097
223.911	1828
223.978	1051
224.044	2112
224.110	1810
224.176	1430
224.242	1643
224.309	961
224.375	1958
224.441	2086
224.507	1486
224.573	1707
224.639	1614
224.705	2102
224.772	1469
224.838	1875
224.904	4118
224.970	1824
225.036	2101
225.102	2748
225.168	3243
225.234	2274
225.300	2403
225.366	1853
225.432	2082
225.499	1999
225.565	2462
225.631	2555
225.697	3309
225.763	3041
225.829	3280
225.895	3879
225.961	6595
226.027	5301
226.093	4738
226.159	4770
226.225	6370
226.291	16383
226.357	21932
226.423	11253
226.489	7710
226.554	4344
226.620	4431
226.686	7009
226.752	10143
226.818	14018
226.884	32844
226.950	21818
227.016	9039
227.082	5739
227.148	5280
227.214	5967
227.279	4049
227.345	2980
227.411	4496
227.477	4073
227.543	8911
227.609	7157
227.674	4843
227.740	3743
227.806	4454
227.872	2897
227.938	3989
228.003	5768
228.069	3210
228.135	1681
228.201	2103
228.267	2173
228.332	3417
228.398	4697
228.464	3073
228.530	1849
228.595	1668
228.661	2426
228.727	5806
228.792	3958
228.858	3355
228.924	2930
228.990	4595
229.055	4455
229.121	5412
229.187	2770
229.252	3417
229.318	1856
229.384	3242
229.449	4046
229.515	2037
229.581	902
229.646	3565
229.712	3549
229.777	8560
229.843	7316
229.909	6632
229.974	5780
230.040	4689
230.105	4297
230.171	5485
230.236	6206
230.302	9651
230.368	7282
230.433	4287
230.499	3544
230.564	4296
230.630	2579
230.695	2950
230.761	2842
230.826	2520
230.892	6411
230.957	2731
231.023	2368
231.088	3421
231.154	2896
231.219	3268
231.284	5367
231.350	4673
231.415	2484
231.481	3087
231.546	2153
231.612	2385
231.677	1615
231.742	1804
231.808	3177
231.873	1561
231.939	1531
232.004	6208
232.069	5048
232.135	3346
232.200	2128
232.265	3143
232.331	2453
232.396	2963
232.461	1402
232.527	2948
232.592	2493
232.657	3130
232.723	9256
232.788	5263
232.853	3232
232.918	2126
232.984	2446
233.049	2795
233.114	8618
233.179	5829
233.245	12070
233.310	9404
233.375	3389
233.440	3025
233.506	2259
233.571	2211
233.636	2526
233.701	2763
233.766	9833
233.832	8681
233.897	4575
233.962	5359
234.027	6072
234.092	4684
234.157	4010
234.222	5012
234.288	8870
234.353	25226
234.418	21645
234.483	10815
234.548	8172
234.613	5921
234.678	5807
234.743	7794
234.808	28542
234.873	12471
234.938	5223
235.004	5218
235.069	4983
235.134	4520
235.199	3768
235.264	4025
235.329	3434
235.394	4490
235.459	7127
235.524	5805
235.589	4057
235.654	3422
235.719	2698
235.784	4654
235.849	6919
235.913	15325
235.978	19538
236.043	16466
236.108	5300
236.173	7868
236.238	6371
236.303	3784
236.368	4021
236.433	10410
236.498	14232
236.563	7751
236.627	14842
236.692	42010
236.757	23198
236.822	15354
236.887	11626
236.952	8279
237.017	7153
237.081	8197
237.146	9907
237.211	17841
237.276	44847
237.341	64235
237.405	26414
237.470	14291
237.535	11789
237.600	5790
237.664	6051
237.729	5124
237.794	7143
237.859	12545
237.923	13338
237.988	7932
238.053	13840
238.118	11830
238.182	33173
238.247	21548
238.312	17308
238.376	9521
238.441	8409
238.506	7237
238.570	3308
238.635	4460
238.700	4318
238.764	5024
238.829	16635
238.893	14422
238.958	6948
239.023	6394
239.087	4676
239.152	6337
239.216	3847
239.281	4474
239.346	3438
239.410	4589
239.475	7509
239.539	34352
239.604	16705
239.668	7012
239.733	4576
239.797	6358
239.862	16005
239.926	23615
239.991	8637
240.055	5747
240.120	4743
240.184	5138
240.249	4601
240.313	4402
240.378	6374
240.442	22473
240.507	24334
240.571	7937
240.635	17791
240.700	15392
240.764	6455
240.829	4852
240.893	3605
240.957	4982
241.022	21478
241.086	29809
241.151	13180
241.215	5831
241.279	10927
241.344	17561
241.408	7377
241.472	5582
241.537	5348
241.601	4999
241.665	4090
241.730	4477
241.794	6064
241.858	4548
241.922	5046
241.987	5169
242.051	3450
242.115	3616
242.179	4318
242.244	3889
242.308	5517
242.372	6063
242.436	6896
242.501	5948
242.565	4266
242.629	3223
242.693	3850
242.757	3659
242.822	4914
242.886	6483
242.950	5481
243.014	6636
243.078	7288
243.142	6707
243.206	6643
243.271	6704
243.335	5703
243.399	10251
243.463	40278
243.527	65184
243.591	19689
243.655	10307
243.719	6061
243.783	8501
243.847	13471
243.911	16605
243.975	21791
244.040	11579
244.104	7240
244.168	4933
244.232	12057
244.296	13753
244.360	13838
244.424	9462
244.488	8189
244.552	8612
244.615	5489
244.679	5186
244.743	7948
244.807	5812
244.871	4732
244.935	4189
244.999	3898
245.063	5415
245.127	6489
245.191	12104
245.255	9070
245.319	10040
245.383	6768
245.446	6904
245.510	5415
245.574	6392
245.638	6302
245.702	7435
245.766	13645
245.829	9653
245.893	8012
245.957	6238
246.021	6185
246.085	7647
246.149	10336
246.212	21799
246.276	23906
246.340	12277
246.404	9782
246.467	11197
246.531	13378
246.595	9272
246.659	11009
246.722	9999
246.786	11408
246.850	12206
246.913	12111
246.977	6650
247.041	7954
247.104	7518
247.168	8405
247.232	21909
247.295	32431
247.359	14787
247.423	9948
247.486	16955
247.550	8998
247.614	9078
247.677	11331
247.741	7561
247.804	7105
247.868	9253
247.932	20469
247.995	31260
248.059	11532
248.122	7529
248.186	11240
248.249	20735
248.313	57636
248.376	48492
248.440	30082
248.503	12557
248.567	12795
248.630	20865
248.694	25329
248.757	33130
248.821	55305
248.884	31472
248.948	36415
249.011	45744
249.075	66444
249.138	49007
249.202	21941
249.265	18732
249.328	28146
249.392	15863
249.455	11617
249.519	10074
249.582	14114
249.645	20633
249.709	11911
249.772	10448
249.835	10955
249.899	14117
249.962	10609
250.025	8477
250.089	26076
250.152	28185
250.215	16126
250.279	11923
250.342	14075
250.405	11171
250.468	10890
250.532	15310
250.595	24667
250.658	84646
250.721	90963
250.785	36282
250.848	19625
250.911	12540
250.974	11949
251.038	20524
251.101	31543
251.164	22178
251.227	21680
251.290	18836
251.354	30479
251.417	107280
251.480	74717
251.543	74356
251.606	170239
251.669	99335
251.732	46140
251.795	48577
251.859	51363
251.922	108125
251.985	48150
252.048	22998
252.111	19883
252.174	20799
252.237	40283
252.300	65537
252.363	86535
252.426	124621
252.489	52611
252.552	33181
252.615	25218
252.678	27091
252.741	54675
252.804	77060
252.867	131995
252.930	77509
252.993	41717
253.056	28466
253.119	20624
253.182	18586
253.245	33790
253.308	24567
253.371	30163
253.434	23141
253.497	22920
253.559	35819
253.622	24695
253.685	45700
253.748	34090
253.811	18618
253.874	31716
253.937	23416
254.000	16169
254.062	30528
254.125	33048
254.188	35178
254.251	24698
254.314	17058
254.376	34151
254.439	31965
254.502	28787
254.565	30591
254.628	42478
254.690	31081
254.753	17623
254.816	16175
254.878	17507
254.941	31838
255.004	23798
255.067	16012
255.129	14169
255.192	8183
255.255	8642
255.317	10342
255.380	7241
255.443	5482
255.505	6956
255.568	5809
255.631	6498
255.693	7272
255.756	5595
255.819	5507
255.881	4969
255.944	5076
256.006	6329
256.069	7158
256.132	6064
256.194	12925
256.257	33878
256.319	23555
256.382	19087
256.444	8629
256.507	7147
256.569	6399
256.632	8298
256.694	15385
256.757	29334
256.819	54142
256.882	19830
256.944	10848
257.007	11620
257.069	13916
257.132	7518
257.194	7189
257.257	7433
257.319	7075
257.381	8204
257.444	21921
257.506	79920
257.569	72558
257.631	52460
257.693	24931
257.756	14534
257.818	14877
257.880	8482
257.943	8434
258.005	7025
258.067	6826
258.130	6315
258.192	12300
258.254	26901
258.317	11722
258.379	8838
258.441	24054
258.503	16452
258.566	40261
258.628	31853
258.690	8955
258.753	12073
258.815	21292
258.877	9637
258.939	6990
259.001	7461
259.064	7503
259.126	14012
259.188	14971
259.250	9731
259.312	15238
259.375	40112
259.437	17678
259.499	7859
259.561	8311
259.623	7563
259.685	7763
259.747	8926
259.809	39475
259.872	50716
259.934	86443
259.996	45101
260.058	14941
260.120	7306
260.182	6379
260.244	7286
260.306	5825
260.368	7675
260.430	7916
260.492	11952
260.554	32466
260.616	22474
260.678	50640
260.740	47025
260.802	13721
260.864	11129
260.926	9663
260.988	9763
261.050	9584
261.112	15741
261.174	55546
261.236	32425
261.298	13767
261.359	34710
261.421	32629
261.483	9703
261.545	9204
261.607	6187
261.669	7647
261.731	25298
261.793	41122
261.854	14633
261.916	10553
261.978	6542
262.040	10014
262.102	9493
262.164	22943
262.225	12101
262.287	9066
262.349	22950
262.411	13163
262.472	8090
262.534	27949
262.596	37509
262.658	11412
262.719	7858
262.781	16164
262.843	39530
262.904	14366
262.966	14164
263.028	15784
263.090	86774
263.151	125667
263.213	36664
263.275	19621
263.336	9640
263.398	8581
263.459	6386
263.521	8105
263.583	20399
263.644	11323
263.706	5603
263.767	4464
263.829	4264
263.891	3013
263.952	3984
264.014	4138
264.075	5233
264.137	9663
264.198	7838
264.260	3912
264.321	3388
264.383	14172
264.444	15128
264.506	5687
264.567	4932
264.629	7107
264.690	7387
264.752	6935
264.813	5371
264.875	4339
264.936	4444
264.998	3915
265.059	4278
265.120	4859
265.182	8001
265.243	34056
265.305	20180
265.366	7154
265.427	5542
265.489	5137
265.550	3464
265.611	6683
265.673	5333
265.734	3738
265.795	3660
265.857	4941
265.918	4452
265.979	10733
266.040	54702
266.102	27287
266.163	12038
266.224	11068
266.286	6155
266.347	5146
266.408	6351
266.469	8789
266.530	4960
266.592	6336
266.653	16825
266.714	19829
266.775	6456
266.836	5393
266.898	5244
266.959	7557
267.020	4692
267.081	5264
267.142	5011
267.203	4488
267.264	4306
267.326	6853
267.387	4853
267.448	4035
267.509	5709
267.570	5076
267.631	4154
267.692	4004
267.753	4965
267.814	4562
267.875	14050
267.936	20869
267.997	7452
268.058	8521
268.119	6004
268.180	6790
268.241	4665
268.302	4121
268.363	4261
268.424	6072
268.485	7122
268.546	3778
268.607	3334
268.668	3250
268.729	3939
268.790	5223
268.851	5158
268.912	18673
268.972	16901
269.033	9439
269.094	4097
269.155	3582
269.216	4884
269.277	6754
269.338	4180
269.398	4477
269.459	7299
269.520	10072
269.581	13822
269.642	14915
269.702	9061
269.763	5931
269.824	5723
269.885	9195
269.945	12090
270.006	5278
270.067	4123
270.128	4453
270.188	3950
270.249	4046
270.310	3230
270.370	5131
270.431	5294
270.492	3721
270.553	6483
270.613	15423
270.674	23628
270.734	9041
270.795	7027
270.856	11938
270.916	7539
270.977	5834
271.038	8033
271.098	7939
271.159	14880
271.219	10468
271.280	5361
271.340	4437
271.401	11300
271.462	27479
271.522	10210
271.583	7287
271.643	7645
271.704	5617
271.764	9022
271.825	21163
271.885	61202
271.946	55903
272.006	21069
272.066	35988
272.127	41964
272.187	13124
272.248	8924
272.308	12151
272.369	34569
272.429	15704
272.489	22240
272.550	16335
272.610	21528
272.671	13627
272.731	21910
272.791	28952
272.852	12349
272.912	11809
272.972	6402
273.033	9351
273.093	16187
273.153	10598
273.214	8377
273.274	9717
273.334	33104
273.394	46830
273.455	24051
273.515	27851
273.575	45872
273.635	19681
273.696	42715
273.756	49612
273.816	20815
273.876	15560
273.936	51108
273.997	53159
274.057	14871
274.117	13222
274.177	20366
274.237	70751
274.297	53924
274.358	51082
274.418	44270
274.478	30200
274.538	13668
274.598	18836
274.658	71234
274.718	69807
274.778	22652
274.838	14617
274.898	50174
274.958	101098
275.018	59602
275.078	30364
275.138	16070
275.198	8611
275.258	7972
275.318	16032
275.378	24345
275.438	21012
275.498	15555
275.558	57434
275.618	73718
275.678	33666
275.738	27109
275.798	14842
275.858	7826
275.918	6684
275.978	9940
276.038	8797
276.098	6976
276.157	22341
276.217	41651
276.277	18244
276.337	14439
276.397	9534
276.457	11358
276.517	6297
276.576	5948
276.636	6946
276.696	13676
276.756	33098
276.815	16449
276.875	10375
276.935	13696
276.995	9281
277.055	6149
277.114	6032
277.174	13550
277.234	31545
277.293	12062
277.353	8839
277.413	6762
277.472	8805
277.532	8534
277.592	11380
277.651	45678
277.711	49133
277.771	23062
277.830	81344
277.890	42538
277.950	51392
278.009	93111
278.069	31662
278.128	53933
278.188	52199
278.248	27934
278.307	73410
278.367	31458
278.426	14300
278.486	9555
278.545	7988
278.605	7620
278.664	7217
278.724	8963
278.783	28889
278.843	43095
278.902	14578
278.962	13305
279.021	15995
279.081	38994
279.140	26266
279.199	17979
279.259	16834
279.318	17793
279.378	26648
279.437	48315
279.496	150516
279.556	355526
279.615	220757
279.675	79291
279.734	50352
279.793	93627
279.853	84022
279.912	31374
279.971	23250
280.031	21811
280.090	38191
280.149	48796
280.208	71719
280.268	263422
280.327	185254
280.386	58820
280.445	47789
280.505	30944
280.564	17116
280.623	13995
280.682	25333
280.742	25753
280.801	11341
280.860	9504
280.919	8484
280.978	8231
281.037	7890
281.097	6490
281.156	7743
281.215	6940
281.274	10761
281.333	38543
281.392	18933
281.451	7232
281.510	6412
281.569	6301
281.628	5852
281.688	6295
281.747	7149
281.806	5860
281.865	5280
281.924	6198
281.983	5345
282.042	4567
282.101	5622
282.160	4849
282.219	4525
282.278	6938
282.337	24340
282.396	11420
282.454	6868
282.513	10486
282.572	33627
282.631	13234
282.690	6763
282.749	6363
282.808	8097
282.867	7672
282.926	6648
282.985	5537
283.043	4226
283.102	5456
283.161	7471
283.220	20135
283.279	29263
283.338	9061
283.396	6840
283.455	7316
283.514	7762
283.573	13870
283.631	9955
283.690	6381
283.749	6768
283.808	18474
283.866	15287
283.925	6296
283.984	7973
284.043	11676
284.101	10825
284.160	7557
284.219	8447
284.277	9044
284.336	18270
284.395	48730
284.453	27164
284.512	14861
284.570	22405
284.629	17306
284.688	19413
284.746	21453
284.805	26317
284.863	35676
284.922	40813
284.981	46155
285.039	65650
285.098	112691
285.156	210544
285.215	210846
285.273	233253
285.332	177893
285.390	105697
285.449	66100
285.507	46441
285.566	34921
285.624	26915
285.683	21889
285.741	18096
285.799	16799
285.858	14703
285.916	13918
285.975	11018
286.033	8510
286.091	8413
286.150	7257
286.208	7514
286.267	8068
286.325	9354
286.383	15352
286.442	9311
286.500	6806
286.558	5268
286.616	5327
286.675	9763
286.733	7865
286.791	7340
286.850	8382
286.908	12235
286.966	15824
287.024	6765
287.083	5352
287.141	4738
287.199	6678
287.257	9755
287.315	6569
287.374	9967
287.432	18101
287.490	10196
287.548	8189
287.606	5381
287.664	6104
287.723	10685
287.781	10398
287.839	7798
287.897	9616
287.955	12111
288.013	16041
288.071	38147
288.129	168711
288.187	294150
288.245	106412
288.303	40921
288.361	25103
288.419	16970
288.477	11471
288.535	8759
288.593	7009
288.651	6445
288.709	5300
288.767	5709
288.825	5058
288.883	3946
288.941	3704
288.999	4448
289.057	3505
289.115	3866
289.173	4007
289.231	4603
289.289	4423
289.346	3979
289.404	5914
289.462	12995
289.520	10215
289.578	4600
289.636	2275
289.694	3336
289.751	2946
289.809	2936
289.867	3205
289.925	6126
289.983	5361
290.040	3060
290.098	2917
290.156	5376
290.214	5979
290.271	3268
290.329	2863
290.387	2652
290.444	2917
290.502	1732
290.560	2727
290.617	2150
290.675	2047
290.733	4078
290.790	4582
290.848	3576
290.906	3770
290.963	4585
291.021	3100
291.078	3473
291.136	3405
291.194	15618
291.251	21069
291.309	5647
291.366	2935
291.424	3429
291.481	3963
291.539	5017
291.596	4295
291.654	2135
291.711	2831
291.769	6197
291.826	12183
291.884	6917
291.941	3413
291.999	4653
292.056	4994
292.114	5281
292.171	3134
292.228	4457
292.286	7252
292.343	14151
292.401	13060
292.458	6854
292.515	5746
292.573	8398
292.630	7801
292.687	7544
292.745	4912
292.802	6160
292.859	18340
292.917	36524
292.974	16048
293.031	6362
293.089	4462
293.146	3862
293.203	3456
293.260	2940
293.318	7019
293.375	5304
293.432	2493
293.489	4189
293.546	3533
293.604	9387
293.661	33475
293.718	47026
293.775	19533
293.832	13994
293.889	12635
293.947	14674
294.004	8332
294.061	7887
294.118	17892
294.175	24632
294.232	18072
294.289	8410
294.346	5514
294.403	5972
294.460	7994
294.517	6660
294.574	4529
294.631	4310
294.688	5451
294.745	19078
294.802	49187
294.859	30868
294.916	21422
294.973	14369
295.030	12560
295.087	9045
295.144	5659
295.201	4387
295.258	3956
295.315	7716
295.372	28346
295.429	32662
295.486	12639
295.542	7702
295.599	12356
295.656	14548
295.713	21948
295.770	29048
295.827	9583
295.883	6934
295.940	7455
295.997	15829
296.054	11055
296.111	4691
296.167	4292
296.224	3756
296.281	2688
296.338	2863
296.394	2846
296.451	6483
296.508	21629
296.564	25837
296.621	17841
296.678	48286
296.734	43695
296.791	14940
296.848	11286
296.904	14487
296.961	33480
297.018	43248
297.074	22689
297.131	11008
297.187	7807
297.244	13380
297.301	50561
297.357	56610
297.414	16591
297.470	9171
297.527	6279
297.583	5507
297.640	6400
297.696	5017
297.753	2830
297.809	2983
297.866	2270
297.922	3757
297.979	2818
298.035	5781
298.092	9588
298.148	27906
298.204	19420
298.261	10130
298.317	22114
298.374	44822
298.430	21643
298.486	18563
298.543	13109
298.599	10913
298.656	10911
298.712	24498
298.768	50705
298.824	25442
298.881	9221
298.937	6506
298.993	5595
299.050	8697
299.106	5951
299.162	6257
299.218	5543
299.275	4327
299.331	4645
299.387	15238
299.443	50139
299.500	36366
299.556	13792
299.612	9316
299.668	8117
299.724	10111
299.780	8669
299.837	7092
299.893	13548
299.949	47313
300.005	38594
300.061	41195
300.117	52369
300.173	21419
300.229	13701
300.285	21942
300.341	20245
300.397	10196
300.453	5716
300.510	6462
300.566	6298
300.622	8557
300.678	25834
300.734	40787
300.790	38230
300.845	38401
300.901	28235
300.957	44289
301.013	25313
301.069	10453
301.125	9693
301.181	10668
301.237	6466
301.293	4189
301.349	3902
301.405	4521
301.461	4298
301.516	6119
301.572	8144
301.628	14883
301.684	11868
301.740	21889
301.796	25028
301.851	20455
301.907	35358
301.963	27383
302.019	57759
302.074	123175
302.130	93598
302.186	39467
302.242	18074
302.297	12682
302.353	15140
302.409	28163
302.464	18627
302.520	22014
302.576	54216
302.631	47445
302.687	25589
302.743	10633
302.798	6633
302.854	5341
302.910	6409
302.965	9031
303.021	18129
303.076	15903
303.132	23523
303.187	23545
303.243	9418
303.299	6123
303.354	4469
303.410	3948
303.465	3101
303.521	3674
303.576	3735
303.632	5857
303.687	16127
303.743	39584
303.798	24271
303.853	10566
303.909	6257
303.964	6399
304.020	13700
304.075	17406
304.130	17930
304.186	34422
304.241	29482
304.297	21890
304.352	10534
304.358	10169
304.407	7214
304.449	7486
304.463	7580
304.518	7171
304.539	6735
304.573	6044
304.629	5953
304.630	6070
304.684	11809
304.720	27088
304.739	34631
304.794	35951
304.811	30188
304.850	16411
304.902	7974
304.905	7455
304.960	5776
304.992	5768
305.015	5752
305.071	6269
305.083	5884
305.126	4474
305.173	3130
305.181	2932
305.236	3132
305.264	3980
305.292	4830
305.347	5871
305.354	5909
305.402	6093
305.445	7112
305.457	7437
305.512	9993
305.535	9486
305.567	8652
305.622	8615
305.626	9041
305.678	19214
305.716	39256
305.733	46115
305.788	39635
305.807	34657
305.843	27451
305.897	40668
305.898	40795
305.953	30529
305.988	19594
306.008	14215
306.063	9730
306.078	8726
306.118	6284
306.168	4789
306.173	4695
306.228	3987
306.259	3664
306.283	3351
306.338	3346
306.349	3540
306.393	4510
306.440	4547
306.448	4528
306.503	5101
306.530	5209
306.558	6565
306.613	14333
306.620	15795
306.668	28111
306.711	42923
306.723	44332
306.778	29773
306.801	22069
306.833	14090
306.888	6688
306.892	6403
306.943	5069
306.982	4802
306.997	4691
307.052	3761
307.072	3656
307.107	3751
307.162	4628
307.163	4644
307.217	6347
307.253	7572
307.272	8060
307.327	8422
307.343	8215
307.381	7922
307.434	8270
307.436	8590
307.491	19219
307.524	29565
307.546	32794
307.600	32424
307.614	29023
307.655	16189
307.704	7834
307.710	7611
307.765	8225
307.795	10235
307.819	11694
307.874	14804
307.885	14531
307.929	11868
307.975	10370
307.984	10721
308.038	15124
308.065	18823
308.093	34825
308.148	81675
308.156	92472
308.202	140632
308.246	146145
308.257	138729
308.312	72376
308.336	53933
308.366	46030
308.421	30114
308.426	28621
308.475	16778
308.517	11157
308.530	10463
308.585	9298
308.607	9010
308.639	9067
308.694	10010
308.697	10124
308.748	14967
308.787	20380
308.803	20669
308.857	15954
308.877	14557
308.912	14688
308.967	16529
308.967	16580
309.021	26819
309.058	36618
309.076	45777
309.130	78583
309.148	89773
309.185	145492
309.238	248407
309.239	248984
309.293	253452
309.328	221321
309.348	186083
309.402	86839
309.418	62825
309.457	46730
309.508	33034
309.511	33104
309.566	40124
309.598	47411
309.620	63975
309.674	114756
309.688	125780
309.729	108167
309.778	72659
309.783	70300
309.837	44339
309.868	32547
309.892	39582
309.946	62310
309.959	68875
310.001	83003
310.049	90348
310.055	86491
310.109	46017
310.139	24775
310.163	19626
310.218	11863
310.229	10543
310.272	8095
310.319	6120
310.326	5999
310.381	5474
310.409	5310
310.435	4906
310.489	3850
310.499	3744
310.543	3935
310.589	4076
310.598	4036
310.652	3959
310.679	3829
310.706	3600
310.760	3242
310.769	3160
310.814	3066
310.859	3197
310.868	3276
310.923	3587
310.948	3850
310.977	4570
311.031	5736
311.038	5925
311.085	5416
311.128	4539
311.139	4440
311.193	4315
311.218	4097
311.247	3860
311.301	3621
311.308	3574
311.356	3347
311.398	3217
311.410	3188
311.464	2956
311.488	2907
311.518	3443
311.572	4287
311.578	4412
311.626	7211
311.668	9485
311.680	8889
311.734	5995
311.758	4707
311.788	4623
311.842	4594
311.847	4585
311.896	6040
311.937	7346
311.950	7317
312.004	7098
312.027	7000
312.058	6128
312.112	4552
312.117	4393
312.165	4159
312.207	3961
312.297	4372
312.386	3700
312.476	6000
312.566	16663
312.656	4997
312.745	3226
312.835	3657
312.925	4050
313.015	3605
313.104	3263
313.194	2925
313.284	4112
313.374	8024
313.463	6954
313.553	3521
313.643	3092
313.732	2862
313.822	3169
313.912	3583
314.001	5512
314.091	4443
314.180	6008
314.270	7669
314.360	8210
314.449	6814
314.539	4124
314.628	2366
314.718	4491
314.808	4683
314.897	3798
314.987	4296
315.076	8007
315.166	8564
315.255	5874
315.345	7074
315.434	5840
315.524	5370
315.613	8003
315.703	12825
315.792	19773
315.881	43934
315.971	12631
316.060	15193
316.150	13650
316.239	11216
316.328	3698
316.418	4127
316.507	5000
316.597	7943
316.686	6564
316.775	7858
316.865	11345
316.954	3506
317.043	3317
317.133	4663
317.222	4243
317.311	4670
317.400	4103
317.490	9149
317.579	10120
317.668	5416
317.757	11144
317.847	30226
317.936	79401
318.025	35313
318.114	19983
318.203	10696
318.293	14188
318.382	24488
318.471	21087
318.560	18760
318.649	22924
318.738	5895
318.828	10393
318.917	8735
319.006	7112
319.095	16651
319.184	39944
319.273	38842
319.362	25709
319.451	6751
319.540	7493
319.629	26054
319.718	36056
319.807	7637
319.896	20360
319.985	53228
320.074	23806
320.163	5922
320.252	8052
320.341	5716
320.430	6412
320.519	18677
320.608	7387
320.697	5611
320.786	6842
320.875	11216
320.964	16762
321.053	26839
321.142	43008
321.230	36301
321.319	27487
321.408	63650
321.497	20452
321.586	24856
321.675	18534
321.764	16609
321.852	11731
321.941	39563
322.030	19736
322.119	23987
322.207	67213
322.296	19793
322.385	10441
322.474	24020
322.562	89090
322.651	30008
322.740	31612
322.829	36320
322.917	19762
323.006	20098
323.095	19163
323.183	6730
323.272	14793
323.361	26709
323.449	49516
323.538	15736
323.626	39277
323.715	17806
323.804	8580
323.892	37162
323.981	24734
324.069	6083
324.158	15719
324.246	12266
324.335	13181
324.424	24534
324.512	6824
324.601	10236
324.689	16763
324.778	23377
324.866	15375
324.954	4851
325.043	6804
325.131	10027
325.220	12440
325.308	13995
325.397	14813
325.485	8510
325.574	4143
325.662	4967
325.750	6643
325.839	4150
325.927	3407
326.015	6070
326.104	5928
326.192	6577
326.280	4223
326.369	3402
326.457	10643
326.545	21846
326.634	6550
326.722	2792
326.810	4628
326.898	3263
326.987	5076
327.075	18659
327.163	11420
327.251	4024
327.340	8821
327.428	9459
327.516	3145
327.604	3391
327.692	3630
327.781	3012
327.869	6081
327.957	5186
328.045	7209
328.133	3697
328.221	3886
328.309	4043
328.397	4231
328.485	6372
328.574	10935
328.662	47214
328.750	15283
328.838	3864
328.926	3989
329.014	2778
329.102	7018
329.190	14595
329.278	11915
329.366	2476
329.454	2100
329.542	2465
329.630	2216
329.718	3218
329.806	6397
329.893	3415
329.981	2678
330.069	3163
330.157	11601
330.245	34391
330.333	16075
330.421	3053
330.509	11907
330.597	59120
330.684	28176
330.772	6066
330.860	4988
330.948	5336
331.036	4417
331.123	2081
331.211	2468
331.299	2811
331.387	6538
331.475	12305
331.562	4403
331.650	3013
331.738	4059
331.825	2992
331.913	2961
332.001	2451
332.089	3539
332.176	5298
332.264	14299
332.352	11149
332.439	5689
332.527	3588
332.614	2282
332.702	3150
332.790	3907
332.877	10157
332.965	20192
333.052	8510
333.140	13897
333.228	34527
333.315	6482
333.403	4282
333.490	9031
333.578	15892
333.665	52875
333.753	16816
333.840	4177
333.928	4473
334.015	9072
334.103	14578
334.190	40649
334.278	9929
334.365	6904
334.452	6192
334.540	4084
334.627	3708
334.715	5674
334.802	11300
334.889	53549
334.977	50552
335.064	11053
335.151	4622
335.239	4153
335.326	5720
335.413	22261
335.501	25257
335.588	6042
335.675	4444
335.762	4206
335.850	5591
335.937	6853
336.024	16598
336.111	58997
336.199	28466
336.286	7891
336.373	4484
336.460	3292
336.547	2511
336.635	5041
336.722	4657
336.809	3308
336.896	7347
336.983	17224
337.070	35462
337.157	42730
337.245	32036
337.332	18922
337.419	3705
337.506	2501
337.593	2542
337.680	8196
337.767	20276
337.854	10258
337.941	11009
338.028	15603
338.115	4856
338.202	4712
338.289	10834
338.376	36079
338.463	10207
338.550	14286
338.637	12378
338.724	7148
338.811	8087
338.898	3076
338.984	2967
339.071	3474
339.158	6615
339.245	25041
339.332	12724
339.419	9746
339.506	6395
339.593	3068
339.679	4724
339.766	4965
339.853	6384
339.940	19910
340.027	4595
340.113	6780
340.200	9300
340.287	5940
340.374	10000
340.460	18361
340.547	6212
340.634	13670
340.720	54870
340.807	27179
340.894	3494
340.980	6024
341.067	4710
341.154	5945
341.240	13431
341.327	27844
341.414	8183
341.500	10917
341.587	5069
341.674	4485
341.760	18447
341.847	22045
341.933	5703
342.020	2929
342.106	2817
342.193	6630
342.279	13137
342.366	10742
342.452	18413
342.539	8093
342.625	24658
342.712	58578
342.798	23143
342.885	8289
342.971	2152
343.058	2404
343.144	3568
343.230	4395
343.317	4733
343.403	4061
343.490	2390
343.576	2457
343.662	3779
343.749	6341
343.835	5869
343.921	12149
344.008	88497
344.094	173202
344.180	34795
344.267	16386
344.353	55936
344.439	49479
344.525	25581
344.612	9896
344.698	8167
344.784	6084
344.870	4105
344.957	5342
345.043	9448
345.129	7556
345.215	17536
345.301	10478
345.387	6688
345.474	2913
345.560	2363
345.646	2980
345.732	3245
345.818	7105
345.904	5503
345.990	6992
346.076	4767
346.162	7704
346.249	4819
346.335	3279
346.421	4272
346.507	24193
346.593	75063
346.679	16506
346.765	3548
346.851	5130
346.937	4723
347.023	4044
347.108	6127
347.194	5467
347.280	4389
347.366	6952
347.452	23900
347.538	88289
347.624	66891
347.710	50969
347.796	6094
347.882	3476
347.967	2459
348.053	4096
348.139	2688
348.225	3943
348.311	4367
348.397	4023
348.482	5275
348.568	7549
348.654	3704
348.740	5322
348.825	4872
348.911	9197
348.997	43426
349.083	73503
349.168	10264
349.254	6346
349.340	5886
349.425	3359
349.511	7148
349.597	7444
349.682	20632
349.768	60774
349.854	25143
349.939	4283
350.025	3367
350.110	3455
350.196	3626
350.282	2856
350.367	2181
350.453	4887
350.538	4900
350.624	6936
350.709	5208
350.795	3234
350.880	4113
350.966	5476
351.051	6508
351.137	4305
351.222	4720
351.308	23014
351.393	55201
351.479	14547
351.564	5184
351.649	4055
351.735	2752
351.820	3424
351.906	3704
351.991	6247
352.076	35556
352.162	52514
352.247	9527
352.332	7330
352.418	15863
352.503	20954
352.588	84034
352.673	67189
352.759	13260
352.844	7255
352.929	8105
353.014	12431
353.100	7767
353.185	15475
353.270	23529
353.355	20620
353.441	5141
353.526	4983
353.611	18334
353.696	22599
353.781	11762
353.866	5382
353.952	5811
354.037	20771
354.122	44665
354.207	39749
354.292	12648
354.377	5684
354.462	4525
354.547	7817
354.632	6901
354.717	10180
354.802	17099
354.887	7238
354.972	3183
355.057	2981
355.142	2815
355.227	6374
355.312	10595
355.397	29447
355.482	68619
355.567	31747
355.652	20876
355.737	25181
355.822	68601
355.907	53550
355.991	8170
356.076	5695
356.161	3746
356.246	4158
356.331	4797
356.416	15630
356.501	98594
356.585	97758
356.670	14963
356.755	8830
356.840	15794
356.924	83383
357.009	248680
357.094	93904
357.179	21237
357.263	14835
357.348	12472
357.433	13307
357.517	12722
357.602	10291
357.687	7479
357.771	14989
357.856	33794
357.941	21435
358.025	58675
358.110	216075
358.195	100571
358.279	16045
358.364	13057
358.448	54384
358.533	136256
358.617	101667
358.702	91307
358.787	33923
358.871	20695
358.956	17439
359.040	4233
359.125	4320
359.209	4825
359.294	16311
359.378	26964
359.462	17456
359.547	8599
359.631	4952
359.716	3146
359.800	3745
359.885	5325
359.969	5644
360.053	4067
360.138	5173
360.222	10057
360.306	21084
360.391	13848
360.475	25339
360.559	56020
360.644	51648
360.728	36619
360.812	58785
360.896	139783
360.981	59786
361.065	31673
361.149	9675
361.233	9337
361.318	8332
361.402	8813
361.486	7945
361.570	5245
361.654	8937
361.739	25200
361.823	103175
361.907	137351
361.991	25313
362.075	17612
362.159	39968
362.243	25682
362.327	21279
362.411	25431
362.495	13647
362.580	6073
362.664	4706
362.748	3912
362.832	5794
362.916	8383
363.000	36833
363.084	125962
363.168	165064
363.252	38301
363.336	13609
363.420	15856
363.503	34101
363.587	33314
363.671	11363
363.755	10379
363.839	16548
363.923	7928
364.007	19222
364.091	18058
364.175	13554
364.258	46756
364.342	47166
364.426	75199
364.510	45052
364.594	19146
364.677	28734
364.761	120682
364.845	86830
364.929	33987
365.013	29716
365.096	22335
365.180	26976
365.264	15991
365.347	44367
365.431	18538
365.515	7642
365.598	7429
365.682	5931
365.766	4482
365.849	6080
365.933	6531
366.017	7165
366.100	3517
366.184	2567
366.267	4102
366.351	4303
366.435	3677
366.518	3810
366.602	2809
366.685	5575
366.769	5670
366.852	7741
366.936	16568
367.019	13564
367.103	4322
367.186	5173
367.270	4039
367.353	4190
367.436	4221
367.520	4330
367.603	7427
367.687	13626
367.770	23667
367.853	13850
367.937	39940
368.020	63797
368.104	16918
368.187	17297
368.270	26695
368.353	21961
368.437	19569
368.520	22183
368.603	25317
368.687	50939
368.770	89090
368.853	22543
368.936	17408
369.020	12964
369.103	6664
369.186	4449
369.269	4997
369.352	15344
369.436	21064
369.519	12268
369.602	5190
369.685	7384
369.768	7437
369.851	5453
369.934	3323
370.018	6750
370.101	19595
370.184	15160
370.267	7203
370.350	14705
370.433	25013
370.516	64139
370.599	81516
370.682	29107
370.765	53976
370.848	66855
370.931	102064
371.014	36758
371.097	8610
371.180	6743
371.263	4132
371.346	3268
371.429	4001
371.511	5199
371.594	12750
371.677	15750
371.760	12042
371.843	18240
371.926	85087
372.009	170062
372.091	57978
372.174	43627
372.257	86854
372.340	37667
372.423	19750
372.505	18899
372.588	10654
372.671	39024
372.754	105280
372.836	53807
372.919	16230
373.002	26152
373.085	16111
373.167	19027
373.250	50095
373.332	94848
373.415	129923
373.498	229988
373.580	96764
373.663	117017
373.746	149068
373.828	38533
373.911	14597
373.993	13621
374.076	24055
374.159	23556
374.241	27862
374.324	91360
374.406	64732
374.489	76613
374.571	190026
374.654	85150
374.736	41645
374.819	116929
374.901	173119
374.983	170244
375.066	29772
375.148	9412
375.231	21285
375.313	39298
375.395	20799
375.478	7049
375.560	4787
375.643	10004
375.725	43009
375.807	143790
375.890	102053
375.972	27692
376.054	19568
376.136	17816
376.219	11453
376.301	48838
376.383	129465
376.465	55823
376.548	35193
376.630	49082
376.712	111042
376.794	56350
376.877	6226
376.959	4144
377.041	5114
377.123	5431
377.205	5020
377.287	2743
377.369	3644
377.452	4504
377.534	4289
377.616	5218
377.698	4442
377.780	3362
377.862	5317
377.944	6180
378.026	2884
378.108	4047
378.190	3968
378.272	3781
378.354	2094
378.436	3156
378.518	6042
378.600	18750
378.682	25791
378.764	64307
378.846	53683
378.928	14138
379.010	21919
379.091	12756
379.173	5658
379.255	4527
379.337	8587
379.419	36105
379.501	88165
379.583	37492
379.664	9210
379.746	26857
379.828	66405
379.910	92929
379.991	77087
380.073	14236
380.155	8380
380.237	7207
380.318	4224
380.400	6007
380.482	15234
380.564	25110
380.645	24580
380.727	23764
380.809	11949
380.890	9136
380.972	6609
381.053	5787
381.135	7630
381.217	25998
381.298	67467
381.380	36490
381.461	29764
381.543	112785
381.624	140302
381.706	28726
381.787	11845
381.869	14478
381.951	57408
382.032	174949
382.113	121051
382.195	26160
382.276	16978
382.358	45159
382.439	103572
382.521	121859
382.602	165092
382.684	91071
382.765	151192
382.846	214011
382.928	339943
383.009	203336
383.090	125825
383.172	420703
383.253	617105
383.334	224779
383.416	165169
383.497	95021
383.578	47025
383.659	99695
383.741	358429
383.822	791591
383.903	452714
383.984	153851
384.066	206126
384.147	135879
384.228	29931
384.309	22004
384.390	17690
384.471	11942
384.553	13372
384.634	18350
384.715	19337
384.796	10681
384.877	16383
384.958	59887
385.039	78068
385.120	29389
385.201	10603
385.282	11761
385.363	10731
385.444	11865
385.525	24557
385.606	74001
385.687	66372
385.768	13979
385.849	21808
385.930	86176
386.011	136603
386.092	40843
386.173	8694
386.254	5780
386.335	5365
386.416	10227
386.496	39268
386.577	64844
386.658	20554
386.739	10415
386.820	7260
386.901	5339
386.981	6257
387.062	6234
387.143	17887
387.224	62189
387.304	60119
387.385	18235
387.466	8032
387.547	9073
387.627	8590
387.708	26699
387.789	105837
387.869	128468
387.950	34381
388.031	5662
388.111	2127
388.192	6876
388.273	8997
388.353	8608
388.434	7794
388.514	22556
388.595	88663
388.676	120988
388.756	69795
388.837	59621
388.917	42053
388.998	6915
389.078	6552
389.159	6289
389.239	5164
389.320	11323
389.400	9620
389.480	23458
389.561	59657
389.641	33961
389.722	10683
389.802	19212
389.883	29398
389.963	68056
390.043	41014
390.124	8920
390.204	23287
390.284	71876
390.365	48396
390.445	31387
390.525	93414
390.605	101575
390.686	38926
390.766	13499
390.846	6600
390.927	4821
391.007	3542
391.087	5762
391.167	6312
391.247	5025
391.328	5441
391.408	6598
391.488	4752
391.568	3836
391.648	7676
391.728	14664
391.808	12195
391.888	15207
391.969	34662
392.049	58905
392.129	21865
392.209	26781
392.289	66779
392.369	36954
392.449	11336
392.529	11856
392.609	14070
392.689	22528
392.769	64556
392.849	59903
392.929	33822
393.009	78398
393.089	70636
393.169	55813
393.248	196442
393.328	607102
393.408	645337
393.488	186043
393.568	47034
393.648	24202
393.728	14971
393.807	10579
393.887	8949
393.967	8642
394.047	9621
394.127	11486
394.206	16024
394.286	67442
394.366	256547
394.446	277819
394.525	56609
394.605	11394
394.685	10185
394.764	17641
394.844	27910
394.924	23916
395.003	12395
395.083	9713
395.163	7209
395.242	8206
395.322	7349
395.402	4230
395.481	5779
395.561	15680
395.640	39588
395.720	40618
395.799	30585
395.879	24330
395.958	18817
396.038	88924
396.117	330628
396.197	364788
396.276	87676
396.356	23284
396.435	15897
396.515	16607
396.594	24577
396.673	55524
396.753	208465
396.832	549932
396.912	443696
396.991	119834
397.070	28365
397.150	14846
397.229	10496
397.308	14674
397.388	23307
397.467	12106
397.546	5480
397.625	4577
397.705	9024
397.784	10324
397.863	4971
397.942	2730
398.022	2667
398.101	8821
398.180	22006
398.259	13382
398.338	6212
398.417	6192
398.497	3257
398.576	4260
398.655	2727
398.734	3116
398.813	2508
398.892	9571
398.971	23319
399.050	14380
399.129	2260
399.208	2287
399.287	2053
399.366	1783
399.445	1709
399.524	3021
399.603	2551
399.682	9437
399.761	19794
399.840	32921
399.919	22423
399.998	4138
400.077	1276
400.156	1603
400.235	3492
400.313	2169
400.392	5770
400.471	35098
400.550	57897
400.629	16753
400.708	4990
400.786	3649
400.865	4650
400.944	6833
401.023	6460
401.102	1726
401.180	1577
401.259	1635
401.338	1783
401.416	5029
401.495	4734
401.574	3161
401.652	2017
401.731	5023
401.810	4684
401.888	3407
401.967	1323
402.046	3104
402.124	4962
402.203	6587
402.281	3465
402.360	4808
402.438	6985
402.517	4765
402.596	1844
402.674	2520
402.753	1180
402.831	1675
402.910	4253
402.988	25388
403.066	77830
403.145	52129
403.223	28192
403.302	67397
403.380	56801
403.459	51322
403.537	22566
403.615	6467
403.694	735
403.772	2055
403.850	1538
403.929	2059
404.007	2512
404.085	9741
404.164	11835
404.242	4177
404.320	3485
404.398	8194
404.477	35736
404.555	133600
404.633	124530
404.711	20093
404.789	3928
404.868	4787
404.946	2673
405.024	1554
405.102	569
405.180	1897
405.258	594
405.336	2287
405.415	1246
405.493	6496
405.571	8206
405.649	2987
405.727	194
405.805	4438
405.883	5197
405.961	4428
406.039	2739
406.117	1628
406.195	8164
406.273	40420
406.351	120647
406.429	78724
406.507	8471
406.585	2478
406.663	4235
406.740	7959
406.818	5001
406.896	2727
406.974	3023
407.052	14081
407.130	72868
407.208	107173
407.285	22722
407.363	3544
407.441	3049
407.519	3435
407.596	4357
407.674	10791
407.752	19586
407.830	17528
407.907	7607
407.985	4914
408.063	1816
408.141	1411
408.218	3088
408.296	5086
408.373	5464
408.451	6025
408.529	4500
408.606	2499
408.684	1231
408.762	1667
408.839	-128
408.917	627
408.994	830
409.072	737
409.149	1503
409.227	4242
409.304	4662
409.382	3787
409.459	4558
409.537	7046
409.614	5353
409.692	3127
409.769	3477
409.846	7269
409.924	8143
410.001	5469
410.079	3604
410.156	2804
410.233	2093
410.311	2392
410.388	1351
410.465	2756
410.543	1678
410.620	2213
410.697	3192
410.775	5824
410.852	1413
410.929	4615
411.006	5552
411.083	2985
411.161	5381
411.238	5845
411.315	2511
411.392	1684
411.469	4004
411.547	3381
411.624	629
411.701	2037
411.778	4414
411.855	10648
411.932	5673
412.009	1933
412.086	2110
412.163	2658
412.240	2633
412.317	3117
412.394	2319
412.471	1669
412.548	1209
412.625	1734
412.702	2013
412.779	5021
412.856	4261
412.933	-206
413.010	1497
413.087	6424
413.164	31200
413.241	49089
413.318	12510
413.395	6336
413.471	8908
413.548	4472
413.625	2153
413.702	2896
413.779	1687
413.855	774
413.932	391
414.009	26
414.086	578
414.162	1791
414.239	5313
414.316	31858
414.393	71181
414.469	29753
414.546	1982
414.623	250
414.699	2001
414.776	3568
414.853	1571
414.929	2479
415.006	1103
415.082	1515
415.159	246
415.236	2241
415.312	2938
415.389	7883
415.465	10678
415.542	5616
415.618	2290
415.695	6670
415.771	5305
415.848	3285
415.924	1666
416.000	951
416.077	787
416.153	-107
416.230	-247
416.306	266
416.383	-433
416.459	649
416.535	-426
416.612	843
416.688	1176
416.764	1855
416.841	1638
416.917	779
416.993	1126
417.069	2064
417.146	3020
417.222	4249
417.298	3362
417.374	2131
417.451	1850
417.527	4030
417.603	4795
417.679	3911
417.755	1711
417.831	910
417.908	921
417.984	642
418.060	1043
418.136	7809
418.212	12243
418.288	4821
418.364	938
418.440	1642
418.516	3646
418.592	3088
418.668	12312
418.744	24217
418.820	18004
418.896	3894
418.972	517
419.048	2484
419.124	9476
419.200	7959
419.276	1365
419.352	246
419.428	1010
419.504	2350
419.579	4013
419.655	2794
419.731	3992
419.807	15639
419.883	28072
419.959	19853
420.034	4022
420.110	11284
420.186	42766
420.262	38205
420.337	5799
420.413	3752
420.489	1187
420.565	1615
420.640	247
420.716	2437
420.792	825
420.867	2407
420.943	1446
421.019	5421
421.094	4270
421.170	2074
421.245	318
421.321	1411
421.397	1759
421.472	4833
421.548	10263
421.623	10624
421.699	4530
421.774	4403
421.850	3470
421.925	9280
422.001	7172
422.076	4503
422.152	5385
422.227	10865
422.302	12048
422.378	15265
422.453	28743
422.529	75301
422.604	214528
422.679	348217
422.755	247540
422.830	89117
422.905	30190
422.981	16036
423.056	9504
423.131	7968
423.207	6051
423.282	8084
423.357	14898
423.432	11021
423.508	10201
423.583	24839
423.658	18618
423.733	4562
423.808	4464
423.883	7310
423.959	6434
424.034	4113
424.109	3195
424.184	1228
424.259	346
424.334	1729
424.409	842
424.484	1932
424.559	1502
424.634	1771
424.709	4670
424.784	6131
424.859	2688
424.934	7205
425.009	32567
425.084	54329
425.159	21386
425.234	2350
425.309	878
425.384	6550
425.459	11488
425.534	4867
425.609	107
425.683	-44
425.758	682
425.833	1603
425.908	3700
425.983	20061
426.058	53983
426.132	24575
426.207	1754
426.282	2174
426.357	155
426.431	576
426.506	702
426.581	824
426.655	1083
426.730	1678
426.805	1086
426.879	1930
426.954	1428
427.029	8801
427.103	49539
427.178	110792
427.253	52666
427.327	4955
427.402	4090
427.476	10715
427.551	6263
427.625	1342
427.700	1087
427.774	716
427.849	448
427.923	396
427.998	-149
428.072	1607
428.147	5413
428.221	28862
428.296	71902
428.370	41735
428.444	4437
428.519	2152
428.593	2773
428.667	3544
428.742	3624
428.816	8297
428.890	36370
428.965	68091
429.039	22075
429.113	5944
429.188	2203
429.262	1203
429.336	6217
429.410	23748
429.485	15195
429.559	3410
429.633	2492
429.707	1136
429.781	6650
429.855	39838
429.930	72234
430.004	29265
430.078	19550
430.152	31199
430.226	83379
430.300	98088
430.374	15069
430.448	3467
430.522	7729
430.596	20460
430.670	26061
430.744	93571
430.818	150509
430.892	37235
430.966	3618
431.040	1428
431.114	-79
431.188	328
431.262	205
431.336	642
431.410	2987
431.484	9049
431.557	9343
431.631	1790
431.705	1821
431.779	14242
431.853	57257
431.927	46953
432.000	5153
432.074	511
432.148	706
432.222	1072
432.295	213
432.369	-21
432.443	4460
432.516	40931
432.590	103290
432.664	44590
432.737	3435
432.811	125
432.885	-266
432.958	-148
433.032	-1246
433.106	-85
433.179	-256
433.253	540
433.326	-537
433.400	438
433.473	-718
433.547	-223
433.620	672
433.694	5087
433.767	4370
433.841	392
433.914	-349
433.988	224
434.061	-323
434.134	-331
434.208	-976
434.281	-175
434.355	-673
434.428	332
434.501	-643
434.575	2
434.648	-126
434.721	-168
434.795	-833
434.868	371
434.941	-817
435.014	-305
435.088	485
435.161	2933
435.234	7319
435.307	7780
435.381	2364
435.454	2247
435.527	3221
435.600	3971
435.673	1832
435.746	1123
435.819	579
435.892	887
435.966	-61
436.039	271
436.112	-215
436.185	-288
436.258	-749
436.331	-630
436.404	-740
436.477	-774
436.550	-802
436.623	-15
436.696	-1047
436.769	949
436.842	-125
436.915	420
436.987	1500
437.060	237
437.133	-628
437.206	-658
437.279	-300
437.352	1107
437.425	-513
437.498	1792
437.570	5261
437.643	6567
437.716	735
437.789	582
437.861	2183
437.934	8054
438.007	3461
438.080	166
438.152	1177
438.225	7414
438.298	54580
438.370	139214
438.443	63953
438.516	10248
438.588	1396
438.661	551
438.734	201
438.806	939
438.879	1950
438.951	2742
439.024	3498
439.096	1097
439.169	-79
439.241	-269
439.314	-878
439.386	28
439.459	1113
439.531	2178
439.604	1244
439.676	-138
439.749	-1012
439.821	-402
439.893	-245
439.966	632
440.038	-712
440.110	1457
440.183	541
440.255	875
440.327	1878
440.400	22310
440.472	88510
440.544	68572
440.617	6924
440.689	3622
440.761	4130
440.833	8018
440.905	5242
440.978	490
441.050	-309
441.122	443
441.194	-133
441.266	130
441.338	-461
441.411	4735
441.483	32374
441.555	51791
441.627	10401
441.699	1583
441.771	456
441.843	352
441.915	-510
441.987	-112
442.059	308
442.131	855
442.203	1077
442.275	1749
442.347	2427
442.419	4801
442.491	26823
442.563	71897
442.635	33850
442.706	11204
442.778	10874
442.850	2448
442.922	-697
442.994	1239
443.066	2259
443.137	2341
443.209	187
443.281	2602
443.353	6594
443.425	34820
443.496	127108
443.568	134269
443.640	49331
443.711	7550
443.783	1682
443.855	1294
443.926	-69
443.998	121
444.070	485
444.141	1057
444.213	4294
444.285	7024
444.356	3420
444.428	1791
444.499	-658
444.571	-200
444.642	526
444.714	855
444.785	3971
444.857	3430
444.928	1718
445.000	3254
445.071	1763
445.143	3648
445.214	3866
445.285	5071
445.357	16062
445.428	78702
445.500	195796
445.571	126326
445.642	63248
445.714	18517
445.785	7930
445.856	4434
445.928	5964
445.999	5144
446.070	2633
446.141	4679
446.213	6850
446.284	2316
446.355	-160
446.426	573
446.497	392
446.569	1422
446.640	4570
446.711	5817
446.782	675
446.853	363
446.924	901
446.995	1839
447.066	110
447.138	-215
447.209	17
447.280	-1030
447.351	-717
447.422	-971
447.493	-858
447.564	1733
447.635	5006
447.706	1628
447.777	-921
447.847	-686
447.918	-1370
447.989	-348
448.060	263
448.131	2197
448.202	4600
448.273	5020
448.344	620
448.414	436
448.485	209
448.556	-397
448.627	-828
448.698	855
448.768	-831
448.839	145
448.910	385
448.981	1563
449.051	763
449.122	-123
449.193	-1242
449.263	-779
449.334	-1095
449.405	1475
449.475	6541
449.546	3914
449.616	310
449.687	1482
449.758	17
449.828	-530
449.899	-994
449.969	-395
450.040	-404
450.110	256
450.181	-433
450.251	-15
450.322	-1161
450.392	-140
450.463	-1411
450.533	-1139
450.604	-1109
450.674	-557
450.744	-942
450.815	-1171
450.885	-633
450.955	-612
451.026	-1223
451.096	-56
451.166	-442
451.237	366
451.307	1964
451.377	1099
451.447	-353
451.518	-649
451.588	-837
451.658	-533
451.728	107
451.799	2882
451.869	3152
451.939	268
452.009	-1219
452.079	-229
452.149	-614
452.219	233
452.289	2928
452.360	2699
452.430	-75
452.500	1147
452.570	1791
452.640	3010
452.710	7707
452.780	11394
452.850	12433
452.920	16214
452.990	3938
453.060	1688
453.129	2357
453.199	2393
453.269	4359
453.339	11975
453.409	19636
453.479	16390
453.549	23768
453.619	24342
453.688	10147
453.758	1635
453.828	-466
453.898	-52
453.968	-933
454.037	-460
454.087	-634
454.107	-712
454.168	-536
454.177	-522
454.247	-1085
454.249	-1057
454.316	-631
454.330	-566
454.386	-404
454.411	-32
454.456	552
454.492	1527
454.525	2401
454.574	1501
454.595	1112
454.655	-76
454.665	-276
454.734	225
454.736	257
454.804	762
454.817	1332
454.873	3637
454.898	3882
454.943	4318
454.979	2377
455.013	628
455.060	121
455.082	-111
455.141	914
455.152	1079
455.221	1973
455.222	2022
455.291	4268
455.303	3962
455.360	2599
455.384	3117
455.430	3886
455.465	3198
455.499	2520
455.546	3190
455.569	3490
455.627	3164
455.638	3125
455.707	321
455.708	326
455.777	-394
455.789	-339
455.846	-169
455.869	-181
455.916	-63
455.950	25
455.985	14
456.031	-155
456.054	-237
456.112	-427
456.124	-506
456.193	-291
456.193	-299
456.262	199
456.274	283
456.332	617
456.355	598
456.401	514
456.436	54
456.470	-401
456.516	139
456.540	412
456.597	-119
456.609	-248
456.678	231
456.678	226
456.747	-285
456.759	-230
456.817	45
456.840	-91
456.886	-309
456.920	-244
456.955	-160
457.001	-317
457.024	-500
457.082	316
457.093	501
457.162	1014
457.163	1025
457.232	1361
457.243	1098
457.301	-63
457.324	-59
457.370	135
457.405	229
457.439	154
457.485	85
457.508	123
457.566	638
457.577	764
457.646	1379
457.647	1396
457.715	3518
457.727	3964
457.784	5567
457.808	7189
457.853	8510
457.889	10154
457.922	12359
457.969	9043
457.991	7997
458.050	8629
458.060	8730
458.129	16253
458.130	16463
458.198	17802
458.211	15273
458.267	8523
458.292	6141
458.336	3546
458.372	3850
458.405	4927
458.453	7799
458.474	9280
458.533	15869
458.543	15847
458.611	25139
458.614	25061
458.680	18813
458.694	14981
458.749	5289
458.775	3868
458.818	1568
458.855	1253
458.887	1106
458.936	641
458.955	411
459.016	815
459.024	878
459.093	458
459.097	471
459.162	889
459.177	1068
459.230	1634
459.257	2068
459.299	2330
459.338	1841
459.368	1566
459.418	2049
459.437	2153
459.499	1238
459.505	1177
459.574	888
459.579	907
459.643	1031
459.659	950
459.711	635
459.740	813
459.780	1041
459.820	1124
459.849	1163
459.900	888
459.917	846
459.981	927
459.986	933
460.054	1469
460.061	1477
460.123	1997
460.141	2171
460.191	2471
460.222	2864
460.260	3034
460.302	3481
460.328	3454
460.382	2875
460.397	2909
460.462	1561
460.465	1606
460.534	4134
460.543	4507
460.602	7054
460.623	8178
460.671	12767
460.703	17203
460.739	14245
460.783	9586
460.808	9610
460.864	3250
460.876	2287
460.944	1270
460.945	1254
461.013	1590
461.024	1660
461.081	2147
461.104	2272
461.150	1734
461.184	1464
461.218	1613
461.264	1474
461.286	1502
461.345	1835
461.355	1736
461.423	745
461.425	731
461.491	1343
461.505	1484
461.559	2163
461.585	2484
461.628	3378
461.665	4069
461.696	3775
461.745	4291
461.764	4353
461.825	2380
461.832	2328
461.901	1925
461.905	1986
461.969	1736
461.985	1640
462.037	1924
462.065	1781
462.105	1580
462.145	1674
462.173	1971
462.225	2374
462.241	2400
462.305	3217
462.310	3187
462.378	2432
462.385	2252
462.446	1986
462.465	2061
462.514	1678
462.545	1486
462.582	1314
462.625	1103
462.650	1291
462.705	1496
462.718	1501
462.785	1434
462.786	1432
462.854	1513
462.865	1540
462.922	1663
462.945	1824
462.990	2058
463.025	1831
463.058	1910
463.104	2279
463.126	2076
463.184	1125
463.194	1155
463.262	1671
463.264	1694
463.330	1790
463.344	1804
463.398	2227
463.424	2191
463.466	1736
463.504	1793
463.533	1979
463.583	1782
463.601	1829
463.663	2396
463.669	2464
463.737	3158
463.743	3255
463.805	4047
463.823	4089
463.873	4553
463.903	4969
463.940	4713
463.982	4596
464.008	4146
464.062	2618
464.076	2525
464.142	1787
464.144	1773
464.211	1743
464.221	1732
464.279	2226
464.301	2463
464.347	2426
464.381	2329
464.414	2313
464.461	2275
464.482	2328
464.540	2456
464.550	2585
464.617	3476
464.620	3499
464.685	4459
464.699	4704
464.753	4121
464.779	3798
464.820	4156
464.859	4505
464.888	3925
464.938	2665
464.956	2874
465.018	3964
465.023	3930
465.091	3052
465.098	2984
465.158	3155
465.177	3239
465.226	3344
465.257	3280
465.293	3705
465.336	4154
465.361	4552
465.416	5584
465.428	5542
465.495	5430
465.496	5446
465.563	6725
465.575	6906
465.631	6248
465.654	6121
465.698	4860
465.734	3540
465.765	3329
465.813	3029
465.833	3048
465.893	3167
465.900	3077
465.968	2265
465.972	2201
466.035	2695
466.052	2858
466.102	2935
466.131	2935
466.170	3137
466.210	3351
466.237	3405
466.290	3445
466.304	3348
466.369	2951
466.372	2982
466.439	3675
466.449	3773
466.506	4381
466.528	4580
466.573	6401
466.607	7813
466.641	9150
466.687	10947
466.708	10979
466.766	11112
466.775	10465
466.842	5457
466.845	5210
466.909	4237
466.925	4014
466.977	3543
467.004	3333
467.044	3684
467.083	4004
467.111	4898
467.163	6602
467.178	6506
467.242	6008
467.245	5979
467.312	5202
467.321	5091
467.379	4778
467.400	4652
467.446	4902
467.480	5073
467.559	5171
467.638	5218
467.717	5424
467.796	6532
467.875	7285
467.955	4885
468.034	7583
468.113	10300
468.192	10902
468.271	5081
468.350	6290
468.429	7841
468.508	7068
468.588	5371
468.667	4836
468.746	4287
468.825	4158
468.904	4151
468.983	5872
469.062	6077
469.141	6513
469.220	3691
469.299	4180
469.378	3981
469.456	5647
469.535	5386
469.614	4521
469.693	5178
469.772	5841
469.851	6208
469.930	5019
470.009	5279
470.088	7464
470.166	12584
470.245	21099
470.324	20122
470.403	8415
470.482	7044
470.560	5773
470.639	6412
470.718	7799
470.797	5348
470.875	6094
470.954	6988
471.033	6371
471.111	3399
471.190	3512
471.269	3219
471.347	3138
471.426	4126
471.505	4323
471.583	4400
471.662	4591
471.740	3863
471.819	3446
471.898	3340
471.976	4034
472.055	3033
472.133	4551
472.212	4682
472.290	4363
472.369	3460
472.447	3877
472.526	3770
472.604	5592
472.683	5244
472.761	4769
472.839	4890
472.918	4562
472.996	3787
473.075	4433
473.153	4151
473.231	3616
473.310	4495
473.388	4545
473.466	5577
473.545	6310
473.623	9272
473.701	6705
473.780	3692
473.858	4037
473.936	5517
474.014	4392
474.093	5296
474.171	5431
474.249	6434
474.327	3334
474.405	3692
474.484	4409
474.562	3899
474.640	3220
474.718	3767
474.796	3183
474.874	4342
474.952	3395
475.030	3963
475.108	3988
475.187	4946
475.265	6915
475.343	11384
475.421	9338
475.499	3471
475.577	4625
475.655	4911
475.733	7836
475.811	7916
475.889	7928
475.966	4411
476.044	5028
476.122	8280
476.200	10117
476.278	5548
476.356	3370
476.434	4341
476.512	7098
476.590	8705
476.667	6182
476.745	2609
476.823	4274
476.901	3206
476.979	3308
477.056	4021
477.134	3918
477.212	3825
477.290	4001
477.367	2182
477.445	3435
477.523	3146
477.601	2313
477.678	2338
477.756	2790
477.834	2857
477.911	3288
477.989	3659
478.066	2938
478.144	3753
478.222	9764
478.299	14030
478.377	7835
478.454	2836
478.532	2711
478.609	3187
478.687	3717
478.764	3296
478.842	4608
478.919	5844
478.997	3900
479.074	2389
479.152	2882
479.229	3302
479.307	2873
479.384	2396
479.461	2638
479.539	3361
479.616	2296
479.694	2552
479.771	3195
479.848	2398
479.926	3247
480.003	4249
480.080	2744
480.157	3077
480.235	2605
480.312	3047
480.389	2861
480.467	3938
480.544	3979
480.621	3572
480.698	3864
480.775	3392
480.853	3162
480.930	2845
481.007	2906
481.084	4071
481.161	3232
481.238	2709
481.315	2682
481.392	2075
481.470	2294
481.547	1929
481.624	2565
481.701	3035
481.778	2706
481.855	3207
481.932	3518
482.009	5670
482.086	3870
482.163	5530
482.240	12048
482.317	19798
482.393	7844
482.470	2628
482.547	2902
482.624	2550
482.701	3740
482.778	2004
482.855	2383
482.932	2640
483.009	2583
483.085	3960
483.162	4265
483.239	4682
483.316	2934
483.393	2786
483.469	2541
483.546	3041
483.623	3531
483.699	2691
483.776	2801
483.853	3497
483.930	6468
484.006	9057
484.083	13076
484.160	11417
484.236	15472
484.313	11045
484.389	8288
484.466	8699
484.543	8863
484.619	8129
484.696	9933
484.772	9020
484.849	7907
484.925	7294
485.002	7906
485.078	7826
485.155	7337
485.231	6726
485.308	6559
485.384	7465
485.461	9836
485.537	10003
485.614	10453
485.690	6587
485.766	7125
485.843	11690
485.919	19003
485.995	14148
486.072	6919
486.148	5894
486.224	6486
486.301	7098
486.377	7582
486.453	7532
486.530	9218
486.606	10544
486.682	11022
486.758	11674
486.835	11095
486.911	11505
486.987	24113
487.063	40589
487.139	48550
487.215	26867
487.292	9034
487.368	8598
487.444	8742
487.520	12878
487.596	14780
487.672	34920
487.748	76841
487.824	76374
487.900	14556
487.976	9102
488.052	8640
488.128	11799
488.204	7968
488.280	6977
488.356	9064
488.432	13091
488.508	15337
488.584	8634
488.660	7601
488.736	8017
488.812	9187
488.888	14391
488.964	29389
489.039	69163
489.115	81269
489.191	24561
489.267	7410
489.343	6583
489.418	5833
489.494	5583
489.570	5124
489.646	6108
489.722	5356
489.797	5244
489.873	8468
489.949	13836
490.024	9243
490.100	5446
490.176	7342
490.251	11331
490.327	14164
490.403	4995
490.478	5921
490.554	4839
490.629	4740
490.705	5441
490.781	5772
490.856	5771
490.932	8979
491.007	8021
491.083	5376
491.158	5862
491.234	7539
491.309	9202
491.385	7663
491.460	4477
491.536	6064
491.611	6067
491.686	9631
491.762	18661
491.837	43552
491.913	63601
491.988	92864
492.063	80104
492.139	10758
492.214	5934
492.289	4797
492.365	6247
492.440	7609
492.515	5774
492.590	5444
492.666	4528
492.741	6703
492.816	6312
492.891	5158
492.967	4451
493.042	4667
493.117	3875
493.192	5168
493.267	8075
493.342	15526
493.418	12016
493.493	3681
493.568	3303
493.643	4581
493.718	6297
493.793	10543
493.868	13369
493.943	7975
494.018	4006
494.093	3985
494.168	4368
494.243	4045
494.318	3312
494.393	4267
494.468	3549
494.543	4734
494.618	6181
494.693	3743
494.768	3912
494.842	4233
494.917	4681
494.992	4713
495.067	3687
495.142	4054
495.217	5600
495.292	5099
495.366	6239
495.441	8144
495.516	11359
495.591	35428
495.665	113608
495.740	185658
495.815	30364
495.890	5861
495.964	4130
496.039	6583
496.114	4795
496.188	5288
496.263	4635
496.338	4410
496.412	4947
496.487	6746
496.561	8895
496.636	7861
496.710	5583
496.785	5921
496.860	5204
496.934	4796
497.009	6056
497.083	5246
497.158	4433
497.232	6073
497.307	7395
497.381	5631
497.455	5831
497.530	6563
497.604	4691
497.679	5813
497.753	8273
497.827	9956
497.902	8483
497.976	13691
498.050	39344
498.125	97679
498.199	61522
498.273	21548
498.348	17996
498.422	13178
498.496	14422
498.570	9891
498.645	4958
498.719	5062
498.793	6718
498.867	10363
498.941	16134
499.016	47174
499.090	80227
499.164	14076
499.238	4213
499.312	6208
499.386	8771
499.460	5563
499.534	6009
499.609	7252
499.683	5325
499.757	7860
499.831	24968
499.905	58894
499.979	30938
500.053	9850
500.127	14953
500.201	13663
500.275	6609
500.349	6936
500.422	9596
500.496	19765
500.570	41553
500.644	47498
500.718	48207
500.792	7464
500.866	4714
500.940	5757
501.013	4640
501.087	8182
501.161	17838
501.235	13777
501.309	24181
501.382	48193
501.456	28937
501.530	11929
501.603	12293
501.677	5356
501.751	3474
501.825	6919
501.898	9568
501.972	17783
502.046	7538
502.119	6664
502.193	13450
502.266	19022
502.340	6871
502.413	11073
502.487	13963
502.561	6664
502.634	5301
502.708	7226
502.781	4902
502.855	3183
502.928	1714
503.002	3037
503.075	2391
503.149	3512
503.222	3075
503.295	2229
503.369	3480
503.442	6542
503.516	17909
503.589	27991
503.662	13386
503.736	7258
503.809	16304
503.882	12490
503.956	23728
504.029	28083
504.102	49498
504.175	44725
504.249	8355
504.322	5485
504.395	4635
504.468	2864
504.542	2673
504.615	2933
504.688	3063
504.761	2976
504.834	5121
504.907	11088
504.980	14181
505.053	5663
505.127	9157
505.200	6459
505.273	3149
505.346	2211
505.419	1724
505.492	3142
505.565	1745
505.638	2587
505.711	1785
505.784	1657
505.857	1403
505.930	3595
506.003	1049
506.076	3165
506.149	1679
506.221	2214
506.294	4256
506.367	11771
506.440	27375
506.513	10627
506.586	3378
506.659	2890
506.731	3972
506.804	6432
506.877	7535
506.950	2738
507.022	3440
507.095	3007
507.168	4723
507.241	4139
507.313	3250
507.386	4770
507.459	8845
507.531	3500
507.604	2305
507.677	3036
507.749	2775
507.822	7737
507.894	13128
507.967	10176
508.040	4536
508.112	4121
508.185	4344
508.257	6047
508.330	7878
508.402	3448
508.475	2856
508.547	3644
508.620	3089
508.692	4568
508.765	3136
508.837	2483
508.909	2822
508.982	3743
509.054	5169
509.127	3118
509.199	2470
509.271	2265
509.344	2050
509.416	2826
509.488	2407
509.560	3763
509.633	5344
509.705	5173
509.777	5585
509.849	8431
509.922	2702
509.994	3282
510.066	3384
510.138	3558
510.210	8364
510.283	5852
510.355	4731
510.427	3582
510.499	4669
510.571	4321
510.643	5655
510.715	12748
510.787	6700
510.859	5464
510.931	6811
511.003	11632
511.076	6795
511.148	3303
511.219	3345
511.291	4648
511.363	4741
511.435	3953
511.507	2878
511.579	4155
511.651	3194
511.723	3676
511.795	3253
511.867	2834
511.939	4028
512.010	5536
512.082	5302
512.154	3816
512.226	5146
512.298	8359
512.369	9868
512.441	9021
512.513	9640
512.585	5174
512.656	5974
512.728	6148
512.800	3862
512.871	4301
512.943	4385
513.015	3494
513.086	5525
513.158	4922
513.230	7772
513.301	14578
513.373	13399
513.444	4974
513.516	4175
513.588	5013
513.659	7235
513.731	8640
513.802	9471
513.874	29055
513.945	32999
514.016	6283
514.088	5214
514.159	7290
514.231	9700
514.302	9072
514.374	5149
514.445	5119
514.516	9366
514.588	4862
514.659	4671
514.730	7395
514.802	9405
514.873	5373
514.944	6094
515.016	7174
515.087	7482
515.158	7772
515.229	6706
515.301	6137
515.372	5561
515.443	3866
515.514	4288
515.585	3854
515.656	5350
515.728	5209
515.799	4120
515.870	5540
515.941	6538
516.012	6023
516.083	10143
516.154	12461
516.225	17157
516.296	13807
516.367	12472
516.438	16134
516.509	23518
516.580	59289
516.651	227858
516.722	457324
516.793	88943
516.864	25565
516.935	22646
517.006	30596
517.077	63782
517.148	210227
517.219	683063
517.289	502677
517.360	52401
517.431	17328
517.502	11020
517.573	10773
517.643	10910
517.714	11763
517.785	12577
517.856	13412
517.926	17464
517.997	21189
518.068	27876
518.138	47947
518.209	135557
518.280	559302
518.350	1032303
518.421	179023
518.492	25145
518.562	15605
518.633	13856
518.703	15647
518.774	34138
518.845	74851
518.915	41721
518.986	12937
519.056	17120
519.127	34980
519.197	42679
519.268	38457
519.338	13573
519.408	11280
519.479	19156
519.549	9326
519.620	6949
519.690	5247
519.760	4739
519.831	6910
519.901	5579
519.971	3730
520.042	3574
520.112	5234
520.182	10188
520.253	7988
520.323	5210
520.393	9233
520.463	11069
520.534	7503
520.604	14470
520.674	5611
520.744	9099
520.814	21559
520.885	12202
520.955	15803
521.025	29716
521.095	7117
521.165	3932
521.235	3559
521.305	3468
521.375	4419
521.445	7341
521.515	10079
521.585	12965
521.655	8601
521.725	8779
521.795	5484
521.865	2841
521.935	6503
522.005	3794
522.075	2863
522.145	3966
522.215	3350
522.285	5521
522.355	7665
522.424	10114
522.494	8798
522.564	15220
522.634	50373
522.704	89078
522.774	14861
522.843	5462
522.913	7945
522.983	8059
523.053	5651
523.122	7595
523.192	21546
523.262	65749
523.331	27311
523.401	4653
523.471	4238
523.540	4637
523.610	3140
523.680	3516
523.749	2470
523.819	4165
523.888	2813
523.958	2977
524.027	3183
524.097	2732
524.166	3309
524.236	4349
524.305	4987
524.375	2890
524.444	1297
524.514	3971
524.583	2751
524.653	3045
524.722	3567
524.791	2697
524.861	3868
524.930	3808
524.999	5349
525.069	6849
525.138	3699
525.207	3107
525.277	4861
525.346	4162
525.415	4111
525.484	4998
525.554	4416
525.623	3868
525.692	5236
525.761	5423
525.830	5597
525.900	7238
525.969	13592
526.038	23565
526.107	67889
526.176	132311
526.245	66756
526.314	37191
526.383	84253
526.452	86716
526.522	180418
526.591	98546
526.660	40897
526.729	18619
526.797	33004
526.867	114500
526.935	344466
527.004	376690
527.073	92488
527.142	8012
527.211	7582
527.280	8940
527.349	7265
527.418	3267
527.487	3873
527.555	2453
527.624	2623
527.693	2536
527.762	3495
527.831	2265
527.899	4042
527.968	3975
528.037	2699
528.106	8060
528.174	12919
528.243	7226
528.312	16740
528.380	13644
528.449	2101
528.518	3361
528.586	1302
528.655	3275
528.723	2278
528.792	1885
528.861	2033
528.929	280
528.998	2183
529.066	1337
529.135	2832
529.203	1714
529.272	1842
529.340	3497
529.409	3742
529.477	2657
529.545	1618
529.614	4515
529.682	2942
529.751	3246
529.819	5352
529.887	2362
529.956	1671
530.024	2556
530.092	2484
530.161	7537
530.229	9387
530.297	2440
530.365	3846
530.434	1831
530.502	2194
530.570	2039
530.638	446
530.707	4354
530.775	3731
530.843	1834
530.911	2668
530.979	3088
531.047	2185
531.115	2870
531.183	1933
531.252	2699
531.320	1939
531.388	2003
531.456	3079
531.524	1181
531.592	2930
531.660	4651
531.728	2781
531.796	1675
531.864	2333
531.932	3523
532.000	3044
532.067	3192
532.135	5091
532.203	5997
532.271	7804
532.339	21889
532.407	43682
532.475	12214
532.542	7063
532.610	10601
532.678	25627
532.746	124975
532.814	145155
532.881	19967
532.949	5044
533.017	4129
533.084	3775
533.152	3537
533.220	4476
533.287	3540
533.355	2822
533.423	2583
533.490	2801
533.558	2868
533.625	2652
533.693	2436
533.761	3446
533.828	4297
533.896	5469
533.963	15969
534.031	17164
534.098	20016
534.166	5793
534.233	3075
534.300	4560
534.368	3963
534.435	3045
534.503	4579
534.570	4280
534.637	3336
534.705	5345
534.772	7946
534.840	20915
534.907	82276
534.974	44127
535.041	4943
535.109	3925
535.176	2908
535.243	4076
535.310	5266
535.378	2507
535.445	3140
535.512	3053
535.579	3306
535.646	2686
535.714	3838
535.781	4776
535.848	4553
535.915	3408
535.982	3436
536.049	2985
536.116	4904
536.183	3654
536.250	3327
536.317	4483
536.384	7568
536.451	13629
536.518	10419
536.585	4953
536.652	10798
536.719	19015
536.786	8760
536.853	8573
536.920	17375
536.987	26221
537.053	36410
537.120	116614
537.187	41490
537.254	4724
537.321	3902
537.388	5010
537.454	3473
537.521	3280
537.588	3531
537.654	6000
537.721	4767
537.788	5353
537.855	3977
537.921	4548
537.988	3959
538.055	4695
538.121	4390
538.188	6594
538.254	15678
538.321	28537
538.388	9955
538.454	5515
538.521	3800
538.587	4459
538.654	3610
538.720	4658
538.787	4613
538.853	5116
538.920	5842
538.986	5292
539.053	3618
539.119	4925
539.185	6152
539.252	11042
539.318	12618
539.385	7573
539.451	5325
539.517	6570
539.583	12303
539.650	41779
539.716	55506
539.782	8933
539.849	5108
539.915	5819
539.981	6372
540.047	7854
540.114	5474
540.180	6814
540.246	7661
540.312	13906
540.378	31351
540.444	24025
540.510	47151
540.576	69269
540.643	9357
540.709	4486
540.775	5336
540.841	5455
540.907	7220
540.973	10588
541.039	14215
541.105	12636
541.171	5773
541.237	3744
541.303	5400
541.369	10125
541.435	15838
541.500	25056
541.566	8784
541.632	4892
541.698	4724
541.764	4642
541.830	4692
541.896	3732
541.961	5772
542.027	5606
542.093	5117
542.159	5807
542.224	6714
542.290	13876
542.356	28239
542.421	22730
542.487	7227
542.553	5786
542.618	5878
542.684	5317
542.750	6007
542.815	10566
542.881	27969
542.947	81354
543.012	24148
543.078	5414
543.143	4813
543.209	6360
543.274	5737
543.340	11340
543.405	36643
543.471	27690
543.536	4638
543.602	5485
543.667	3059
543.732	5023
543.798	4181
543.863	4824
543.928	2928
543.994	3581
544.059	4233
544.124	4176
544.190	4582
544.255	4964
544.320	5447
544.386	6583
544.451	12071
544.516	12909
544.581	17694
544.646	61246
544.712	43544
544.777	6393
544.842	5662
544.907	5489
544.972	4699
545.037	4788
545.102	5158
545.168	5677
545.233	5281
545.298	7745
545.363	7364
545.428	13606
545.493	38584
545.558	51378
545.623	10744
545.688	5877
545.753	4930
545.818	5299
545.883	6112
545.947	4940
546.012	6470
546.077	5591
546.142	7668
546.207	8089
546.272	13355
546.337	10729
546.401	7591
546.466	5966
546.531	6294
546.596	8984
546.661	9292
546.725	8307
546.790	7404
546.855	8551
546.919	8076
546.984	10520
547.049	10891
547.113	12397
547.178	12633
547.243	15553
547.307	17834
547.372	19646
547.436	17804
547.501	18663
547.565	21293
547.630	23335
547.695	19199
547.759	17981
547.823	17309
547.888	18241
547.952	18510
548.017	19879
548.081	22049
548.146	20385
548.210	20839
548.274	22331
548.339	19342
548.403	18354
548.468	17937
548.532	18189
548.596	18082
548.660	18146
548.725	21748
548.789	22123
548.853	21646
548.917	19881
548.982	19778
549.046	17267
549.110	14763
549.174	17644
549.238	19615
549.303	20102
549.367	21200
549.431	18802
549.495	18149
549.559	20005
549.623	24397
549.687	27466
549.751	30772
549.815	28947
549.879	28023
549.943	26359
550.007	29013
550.071	28771
550.135	30010
550.199	22765
550.263	23171
550.327	22849
550.391	23502
550.455	25665
550.519	27165
550.582	31882
550.646	41341
550.710	34199
550.774	31269
550.838	31241
550.901	32362
550.965	35021
551.029	35590
551.093	39273
551.156	45714
551.220	59048
551.284	60050
551.347	41273
551.411	40555
551.475	36026
551.538	34540
551.602	30102
551.666	29297
551.729	25967
551.793	27052
551.856	26410
551.920	26111
551.983	26490
552.047	25687
552.110	26018
552.174	26046
552.237	26928
552.301	24210
552.364	23656
552.428	23426
552.491	24349
552.554	26042
552.618	25898
552.681	29368
552.745	35015
552.808	62274
552.871	56916
552.934	30608
552.998	25835
553.061	23654
553.124	22957
553.187	23367
553.251	23635
553.314	23349
553.377	24754
553.440	27406
553.503	30681
553.567	28305
553.630	24419
553.693	24337
553.756	24874
553.819	23077
553.882	22391
553.945	23063
554.008	23292
554.071	23566
554.134	23419
554.197	20959
554.260	21728
554.323	23056
554.386	22837
554.449	23137
554.512	24141
554.575	21863
554.638	22693
554.701	22025
554.764	21137
554.827	20620
554.889	19408
554.952	18782
555.015	18181
555.078	18685
555.141	18707
555.203	18741
555.266	18926
555.329	18756
555.391	18029
555.454	19734
555.517	18294
555.580	16144
555.642	16342
555.705	15914
555.768	15656
555.830	15798
555.893	14537
555.955	14679
556.018	14248
556.080	14713
556.143	15388
556.206	14402
556.268	14417
556.330	15404
556.393	14549
556.455	14640
556.518	15979
556.580	15261
556.643	12961
556.705	13094
556.767	13758
556.830	13541
556.892	17364
556.955	22434
557.017	13066
557.079	12161
557.142	12776
557.204	19087
557.266	34033
557.328	16306
557.391	8950
557.453	10545
557.515	12335
557.577	16083
557.639	12262
557.701	10183
557.764	8961
557.826	9932
557.888	11903
557.950	11861
558.012	14691
558.074	23610
558.136	67539
558.198	86043
558.260	19892
558.322	13161
558.384	14685
558.446	17152
558.508	19032
558.570	27518
558.632	54526
558.694	61905
558.756	93603
558.818	332991
558.880	384013
558.942	88602
559.003	96627
559.065	26679
559.127	18164
559.189	17905
559.251	25128
559.312	49967
559.374	164365
559.436	297882
559.498	58550
559.559	17391
559.621	18148
559.683	27121
559.744	63036
559.806	202923
559.868	133227
559.929	19466
559.991	23254
560.052	53484
560.114	100143
560.176	43516
560.237	83122
560.299	65292
560.360	10366
560.422	6685
560.483	7178
560.545	6319
560.606	6475
560.667	5666
560.729	5582
560.790	5129
560.852	6405
560.913	5473
560.974	5574
561.036	5946
561.097	5987
561.158	6240
561.220	6480
561.281	6159
561.342	6885
561.403	9892
561.465	18403
561.526	52593
561.587	33718
561.648	6694
561.709	6126
561.771	6102
561.832	4648
561.893	5334
561.954	4340
562.015	5769
562.076	5411
562.137	4935
562.198	5077
562.259	5010
562.320	5809
562.381	9358
562.442	11958
562.503	6565
562.564	5066
562.625	5029
562.686	4821
562.747	5133
562.808	4934
562.869	4815
562.930	5458
562.991	4766
563.051	4595
563.112	4603
563.173	5020
563.234	4685
563.294	5698
563.355	5144
563.416	5959
563.477	4870
563.537	4382
563.598	4488
563.659	4660
563.720	4860
563.780	5964
563.841	5805
563.901	5098
563.962	5206
564.023	4112
564.083	5162
564.144	4841
564.204	4155
564.265	4417
564.325	5363
564.386	7584
564.446	4784
564.507	4544
564.567	5087
564.628	4345
564.688	4495
564.749	4536
564.809	5401
564.869	5024
564.930	4274
564.990	5182
565.050	3895
565.111	4854
565.171	4786
565.231	4642
565.292	5269
565.352	4243
565.412	5655
565.472	5661
565.532	6010
565.593	5005
565.653	4383
565.713	5679
565.773	6450
565.833	11651
565.893	10652
565.953	4549
566.013	4550
566.074	5445
566.134	7383
566.194	8681
566.254	8767
566.314	5387
566.374	3560
566.434	4662
566.494	4607
566.554	4841
566.614	4784
566.673	4559
566.733	5254
566.793	5046
566.853	5672
566.913	5366
566.973	5169
567.033	6363
567.092	5954
567.152	5962
567.212	5394
567.272	5077
567.331	4840
567.391	5033
567.451	5911
567.511	6561
567.570	5827
567.630	5260
567.690	4460
567.749	5645
567.809	5205
567.868	6641
567.928	6473
567.988	5710
568.047	5468
568.107	8212
568.166	11244
568.226	17952
568.285	19034
568.345	11697
568.404	10605
568.464	9211
568.523	8154
568.582	9899
568.642	12237
568.701	15175
568.761	25875
568.820	34239
568.879	21849
568.939	14327
568.998	10352
569.057	8624
569.116	7038
569.176	5973
569.235	5485
569.294	5905
569.353	4624
569.413	4959
569.472	4903
569.531	4002
569.590	5369
569.649	5407
569.708	4410
569.767	5827
569.827	6702
569.886	4960
569.945	5601
570.004	5407
570.063	4935
570.122	6582
570.181	5609
570.240	4638
570.299	6618
570.358	5821
570.417	4820
570.475	5247
570.534	5902
570.593	6991
570.652	5894
570.711	5276
570.770	4999
570.829	6346
570.887	7121
570.946	7398
571.005	4715
571.064	6672
571.122	7786
571.181	5602
571.240	3897
571.299	3763
571.357	4504
571.416	4917
571.475	5033
571.533	4809
571.592	3915
571.650	4494
571.709	4537
571.768	5837
571.826	4848
571.885	4267
571.943	4464
572.002	4400
572.060	4147
572.119	3862
572.177	3400
572.236	3757
572.294	2828
572.352	4921
572.411	4347
572.469	4023
572.528	3702
572.586	4045
572.644	5679
572.703	6038
572.761	3595
572.819	4395
572.877	3719
572.936	3111
572.994	3635
573.052	3836
573.110	4671
573.169	4724
573.227	3606
573.285	3452
573.343	4423
573.401	3984
573.459	4039
573.517	3592
573.576	3849
573.634	4457
573.692	3785
573.750	3897
573.808	3010
573.866	4088
573.924	4317
573.982	3498
574.040	3903
574.098	4102
574.155	3658
574.213	3540
574.271	3565
574.329	3921
574.387	4635
574.445	3371
574.503	3021
574.560	3699
574.618	3702
574.676	3308
574.734	3486
574.792	3501
574.849	2458
574.907	2880
574.965	2998
575.022	2850
575.080	3056
575.138	4205
575.195	4019
575.253	3984
575.311	4438
575.368	4029
575.426	2819
575.483	3895
575.541	3110
575.598	2881
575.656	3950
575.713	2902
575.771	3097
575.828	4008
575.886	3206
575.943	3493
576.001	3236
576.058	2869
576.115	4213
576.173	4954
576.230	5954
576.287	7786
576.345	3633
576.402	3391
576.459	4274
576.517	4160
576.574	3326
576.631	3218
576.688	3098
576.746	2571
576.803	2500
576.860	3374
576.917	3694
576.974	2556
577.031	3317
577.089	3540
577.146	3129
577.203	3876
577.260	3599
577.317	3771
577.374	3683
577.431	3416
577.488	4120
577.545	2593
577.602	2604
577.659	3241
577.716	2997
577.773	2395
577.830	3304
577.886	2612
577.943	2491
578.000	2909
578.057	3683
578.114	3722
578.171	2988
578.227	2792
578.284	2794
578.341	3508
578.398	3284
578.454	3621
578.511	3994
578.568	3832
578.625	3618
578.681	3193
578.738	2828
578.794	3062
578.851	3645
578.908	3939
578.964	4053
579.021	4377
579.077	3378
579.134	4227
579.190	3291
579.247	3363
579.303	3640
579.360	2463
579.416	3770
579.473	3703
579.529	2505
579.586	3310
579.642	3297
579.698	3571
579.755	4059
579.811	3364
579.867	3736
579.924	2893
579.980	2843
580.036	3104
580.093	2839
580.149	2687
580.205	3620
580.261	3242
580.317	3976
580.374	4556
580.430	4477
580.486	3427
580.542	3484
580.598	3684
580.619	3742
580.654	3841
580.692	3784
580.710	3757
580.765	3047
580.767	3020
580.823	3678
580.838	3688
580.879	3704
580.911	3420
580.935	3204
580.984	3254
580.991	3257
581.047	3284
581.057	3436
581.103	4088
581.130	4417
581.159	4781
581.203	3677
581.215	3375
581.270	3816
581.276	3795
581.326	3592
581.349	3868
581.382	4267
581.422	4157
581.438	4093
581.494	3373
581.494	3387
581.550	4619
581.567	4681
581.606	4761
581.640	4015
581.661	3557
581.713	4821
581.717	4921
581.773	4542
581.786	4392
581.829	3910
581.859	4530
581.885	5041
581.932	4497
581.940	4389
581.996	4120
582.004	4202
582.052	4576
582.077	4533
582.107	4526
582.150	4838
582.163	4919
582.219	4975
582.223	4960
582.274	4874
582.296	4721
582.330	4368
582.368	4735
582.386	4940
582.441	4120
582.441	4115
582.497	4791
582.514	4630
582.552	4351
582.587	4773
582.608	5087
582.659	4642
582.663	4601
582.719	5100
582.732	5002
582.774	4534
582.805	4950
582.830	5391
582.877	4707
582.885	4572
582.941	5552
582.950	5539
582.996	5477
583.023	5524
583.052	5509
583.095	5032
583.107	4950
583.162	6154
583.168	6123
583.218	5702
583.240	5635
583.273	5556
583.313	5645
583.328	5665
583.384	6285
583.385	6269
583.439	5848
583.458	6006
583.494	6363
583.531	6266
583.549	6187
583.603	5996
583.605	5989
583.660	6409
583.676	6301
583.715	6231
583.748	6683
583.770	6883
583.820	6788
583.825	6785
583.881	6717
583.893	6462
583.936	5672
583.965	6112
583.991	6483
584.038	6409
584.046	6383
584.101	6299
584.110	6316
584.156	6329
584.183	6546
584.211	6944
584.255	6574
584.266	6518
584.321	7361
584.328	7456
584.376	7843
584.400	7722
584.431	7673
584.472	7520
584.486	7556
584.541	8026
584.545	8055
584.596	7917
584.617	7505
584.651	7485
584.689	8168
584.706	8285
584.761	8196
584.762	8195
584.816	9326
584.834	9497
584.871	9694
584.906	8964
584.926	8689
584.978	9449
584.980	9482
585.035	10244
585.051	10376
585.090	10964
585.123	11289
585.145	11438
585.195	11381
585.200	11467
585.254	13147
585.267	13533
585.309	14140
585.340	14749
585.364	15485
585.412	17311
585.419	17630
585.473	20835
585.484	21967
585.528	27784
585.556	34242
585.583	44456
585.628	71298
585.637	81446
585.692	175446
585.700	180739
585.747	198864
585.772	178042
585.801	103700
585.845	37425
585.856	32705
585.910	19770
585.917	18207
585.965	16447
585.989	15351
586.019	14547
586.061	14189
586.074	14259
586.128	14708
586.133	14726
586.183	15354
586.205	15568
586.237	15639
586.277	14693
586.292	14337
586.346	14407
586.349	14355
586.401	14228
586.421	14214
586.455	14259
586.493	14455
586.509	14900
586.564	16086
586.565	16120
586.618	19422
586.637	19521
586.672	18494
586.709	18238
586.727	18548
586.781	18823
586.781	18858
586.835	17403
586.853	17191
586.889	16994
586.925	16312
586.944	16200
586.996	16864
586.998	16924
587.052	17225
587.068	17127
587.106	17484
587.140	18153
587.161	18357
587.212	18279
587.215	18349
587.269	18909
587.284	19106
587.323	19420
587.356	19662
587.377	20064
587.427	20938
587.431	21017
587.485	21056
587.499	21042
587.539	21688
587.571	22140
587.593	22682
587.643	23545
587.648	23654
587.702	24569
587.715	24689
587.755	25472
587.786	25922
587.810	26347
587.858	27472
587.864	27725
587.917	29313
587.930	29569
587.971	30966
588.001	32048
588.025	33113
588.073	34833
588.079	35218
588.133	38533
588.145	39162
588.187	42966
588.217	45507
588.241	47635
588.288	51611
588.295	52606
588.348	60443
588.360	62017
588.402	68653
588.431	73173
588.456	78192
588.503	88378
588.510	90347
588.564	105236
588.575	108583
588.617	127049
588.646	140883
588.671	158606
588.718	196462
588.725	207494
588.778	302134
588.789	324669
588.832	509128
588.861	646995
588.886	840906
588.932	1197037
588.939	1220906
588.993	1296808
589.004	1299669
589.047	1025281
589.075	843516
589.100	666805
589.147	360826
589.154	347371
589.207	243384
589.218	222176
589.261	204223
589.290	193585
589.314	201654
589.361	221750
589.368	233008
589.421	333410
589.433	357689
589.475	584423
589.504	752082
589.528	927088
589.576	1207380
589.582	1184688
589.635	892218
589.647	831294
589.689	507612
589.718	289429
589.742	237489
589.790	134783
589.795	131528
589.849	98723
589.861	91020
589.902	80238
589.932	71613
589.955	67146
590.004	57328
590.009	56966
590.062	51671
590.075	50125
590.115	47220
590.146	44872
590.168	44428
590.218	42943
590.222	42938
590.275	41110
590.289	40446
590.328	39558
590.360	38524
590.381	38108
590.431	37046
590.435	37129
590.488	36212
590.503	35840
590.541	35736
590.574	35476
590.594	35302
590.645	34113
590.647	34220
590.700	34097
590.716	33868
590.753	33637
590.787	33437
590.806	33497
590.859	32984
590.859	33105
590.912	33269
590.930	33325
590.965	33989
591.001	34293
591.018	34080
591.071	33228
591.072	33098
591.124	33717
591.143	33914
591.177	34791
591.214	35393
591.230	35479
591.283	35337
591.285	35207
591.336	36453
591.356	36719
591.389	37276
591.427	37430
591.442	36779
591.495	34123
591.498	33792
591.547	32980
591.569	32493
591.600	33016
591.640	33320
591.653	33428
591.706	33440
591.711	33308
591.759	33524
591.782	33462
591.811	34042
591.853	34573
591.864	34712
591.917	34713
591.924	34574
591.969	35110
591.995	35264
592.022	35388
592.066	35139
592.075	35304
592.127	35539
592.137	35454
592.180	35928
592.208	35956
592.233	35689
592.279	34859
592.285	35163
592.338	36623
592.350	36803
592.390	36262
592.421	35647
592.443	35984
592.491	36278
592.495	36402
592.548	36225
592.562	36042
592.600	36370
592.633	36405
592.653	36484
592.704	36134
592.705	36378
592.775	38211
592.846	37498
592.916	38690
592.987	40760
593.058	38782
593.128	35851
593.199	36819
593.270	36873
593.341	36606
593.411	38120
593.482	39124
593.553	38208
593.623	37583
593.694	38897
593.764	38138
593.835	39441
593.906	37712
593.976	37635
594.047	39311
594.117	40504
594.188	40054
594.258	40367
594.329	39893
594.399	40589
594.470	41151
594.540	42119
594.611	41792
594.681	41681
594.751	40713
594.822	42169
594.892	44787
594.963	43945
595.033	45587
595.103	45916
595.174	45979
595.244	49865
595.314	50344
595.384	48096
595.455	47643
595.525	50061
595.595	50350
595.665	52202
595.736	49929
595.806	50012
595.876	51003
595.946	49777
596.016	51664
596.087	54030
596.157	53819
596.227	53106
596.297	55470
596.367	59129
596.437	61714
596.507	62916
596.577	63348
596.647	62497
596.717	63350
596.787	65760
596.857	66238
596.927	65477
596.997	66660
597.067	65485
597.137	66980
597.207	68369
597.277	68520
597.347	66924
597.417	66197
597.487	67436
597.557	68414
597.626	68761
597.696	69176
597.766	69018
597.836	66736
597.906	62580
597.975	60780
598.045	61954
598.115	62877
598.185	66739
598.254	73588
598.324	80958
598.394	82787
598.464	82193
598.533	76940
598.603	74099
598.672	71309
598.742	73029
598.812	71525
598.881	73534
598.951	72492
599.020	72736
599.090	75686
599.159	76330
599.229	74350
599.299	72150
599.368	73401
599.437	74306
599.507	68262
599.576	64792
599.646	65945
599.715	65747
599.785	64720
599.854	63959
599.924	62334
599.993	61813
600.062	63254
600.132	64476
600.201	66804
600.270	76515
600.340	81602
600.409	78629
600.478	77687
600.547	78527
600.617	77608
600.686	63686
600.755	60830
600.824	57762
600.894	54103
600.963	54480
601.032	53286
601.101	51901
601.170	49241
601.239	50993
601.308	51236
601.378	52410
601.447	48681
601.516	51207
601.585	52097
601.654	57408
601.723	52813
601.792	51915
601.861	53004
601.930	57067
601.999	61856
602.068	57451
602.137	60439
602.206	62977
602.275	58747
602.343	63812
602.412	65855
602.481	59300
602.550	58510
602.619	59028
602.688	61721
602.756	60841
602.825	60647
602.894	62021
602.963	62150
603.032	63037
603.100	63171
603.169	63281
603.238	63594
603.307	63538
603.375	63922
603.444	65980
603.513	65523
603.581	68031
603.650	68644
603.719	65925
603.787	68394
603.856	68245
603.924	70032
603.993	72527
604.061	74066
604.130	77449
604.198	79637
604.267	80939
604.335	81085
604.404	82960
604.472	83669
604.541	83346
604.609	85570
604.678	86273
604.746	85645
604.815	87571
604.883	88515
604.951	88514
605.020	90985
605.088	92053
605.156	91552
605.225	93714
605.293	93947
605.361	95049
605.429	95915
605.498	97913
605.566	100451
605.634	104121
605.702	106004
605.771	110041
605.839	110898
605.907	108195
605.975	104864
606.043	102299
606.111	100550
606.180	102188
606.248	100413
606.316	100047
606.384	101448
606.452	103315
606.520	110792
606.588	109452
606.656	105234
606.724	104161
606.792	96062
606.860	88157
606.928	80343
606.996	77266
607.064	75722
607.132	77740
607.200	81453
607.267	85472
607.335	86991
607.403	88981
607.471	87573
607.539	82709
607.607	85165
607.674	77218
607.742	75776
607.810	76637
607.878	76338
607.946	74714
608.013	79945
608.081	81126
608.149	82121
608.216	83233
608.284	85460
608.352	86821
608.419	85568
608.487	84922
608.555	82221
608.622	83127
608.690	88191
608.757	97042
608.825	101203
608.893	100240
608.960	96761
609.028	94672
609.095	91036
609.163	89229
609.230	82349
609.298	74242
609.365	77018
609.432	83864
609.500	89640
609.567	101196
609.635	116917
609.702	124060
609.769	120876
609.837	99432
609.904	80255
609.971	82000
610.039	89454
610.106	106229
610.173	180801
610.241	403927
610.308	325272
610.375	128159
610.442	90979
610.509	82681
610.577	81046
610.644	84240
610.711	85333
610.778	89310
610.845	91245
610.912	97175
610.980	100654
611.047	100832
611.114	99905
611.181	97592
611.248	95818
611.315	99789
611.382	102693
611.449	104606
611.516	109142
611.583	107644
611.650	107415
611.717	109001
611.784	108691
611.851	115668
611.918	123230
611.984	137143
612.051	179861
612.118	325989
612.185	788154
612.252	688624
612.319	172787
612.386	137812
612.452	128718
612.519	121557
612.586	119478
612.653	123266
612.719	126008
612.786	123720
612.853	114793
612.919	109156
612.986	113007
613.053	107475
613.120	100235
613.186	96155
613.253	99091
613.319	96857
613.386	98877
613.453	100272
613.519	102849
613.586	108499
613.652	127923
613.719	117413
613.785	116520
613.852	101990
613.918	99678
613.985	101280
614.051	105764
614.118	106962
614.184	103921
614.250	99604
614.317	101711
614.383	99862
614.449	102623
614.516	102706
614.582	102409
614.648	99784
614.715	99396
614.781	98760
614.847	98050
614.914	98341
614.980	94984
615.046	94246
615.112	97715
615.179	98792
615.245	98931
615.311	99069
615.377	104013
615.443	107690
615.509	101498
615.575	104132
615.642	103199
615.708	106934
615.774	109751
615.840	114783
615.906	123925
615.972	144389
616.038	207151
616.104	392731
616.170	908864
616.236	1057319
616.302	242620
616.368	164925
616.434	129680
616.500	117574
616.565	124156
616.631	152390
616.697	131427
616.763	128232
616.829	167657
616.895	291523
616.961	313411
617.026	147087
617.092	103877
617.158	101516
617.224	100553
617.289	96714
617.355	90207
617.421	88818
617.487	89986
617.552	84676
617.618	82405
617.684	83302
617.749	85017
617.815	81287
617.880	78257
617.946	80156
618.012	82035
618.077	85880
618.143	82563
618.208	80386
618.274	86091
618.339	88882
618.405	75859
618.470	73522
618.536	74044
618.601	72205
618.667	70456
618.732	66551
618.798	65623
618.863	63475
618.928	63938
618.994	66927
619.059	69039
619.124	82926
619.190	75133
619.255	63034
619.320	64263
619.386	62943
619.451	62544
619.516	61431
619.581	62999
619.647	64627
619.712	64329
619.777	62757
619.842	62573
619.907	63213
619.972	64882
620.038	66150
620.103	62192
620.168	61821
620.233	62988
620.298	63121
620.363	63405
620.428	64574
620.493	66400
620.558	67104
620.623	66868
620.688	67949
620.753	66745
620.818	67618
620.883	68566
620.948	69022
621.013	67994
621.078	66929
621.143	66700
621.207	69646
621.272	68164
621.337	68526
621.402	66837
621.467	66597
621.532	66759
621.596	66983
621.661	64892
621.726	63305
621.791	63252
621.855	67022
621.920	67311
621.985	65155
622.049	67470
622.114	66999
622.179	67755
622.243	67810
622.308	69857
622.373	72723
622.437	72370
622.502	68527
622.566	67746
622.631	66668
622.695	70161
622.760	69314
622.824	68319
622.889	69671
622.953	74135
623.018	89276
623.082	98289
623.147	74302
623.211	73341
623.276	73110
623.340	68916
623.404	66661
623.469	65672
623.533	67128
623.597	66638
623.662	65928
623.726	63160
623.790	58494
623.854	57120
623.919	57346
623.983	57543
624.047	60052
624.111	59430
624.176	61374
624.240	60993
624.304	67322
624.368	61919
624.432	60465
624.496	62650
624.560	67559
624.625	73351
624.689	65833
624.753	65616
624.817	64246
624.881	62528
624.945	59026
625.009	56673
625.073	57868
625.137	60008
625.201	69554
625.265	74704
625.329	61020
625.393	60879
625.456	60962
625.520	60436
625.584	61737
625.648	65487
625.712	67102
625.776	73377
625.839	76138
625.903	60472
625.967	50148
626.031	54300
626.095	65159
626.158	60847
626.222	47599
626.286	45367
626.349	43244
626.413	41641
626.477	42536
626.540	41404
626.604	39789
626.668	39656
626.731	38388
626.795	39593
626.858	39826
626.922	39278
626.986	38688
627.049	37157
627.113	38660
627.176	38440
627.240	37495
627.303	37900
627.366	36857
627.430	38608
627.493	37831
627.557	36953
627.620	37655
627.684	38824
627.747	40273
627.810	36204
627.874	33555
627.937	32528
628.000	34104
628.064	34120
628.127	30362
628.190	30268
628.253	29454
628.317	29714
628.380	27181
628.443	26269
628.506	27748
628.569	27286
628.632	25036
628.696	24968
628.759	25553
628.822	24037
628.885	24941
628.948	23866
629.011	23799
629.074	25037
629.137	22652
629.200	21631
629.263	23861
629.326	21365
629.389	21298
629.452	21779
629.515	22286
629.578	21942
629.641	23748
629.704	22516
629.767	23633
629.830	21705
629.892	21420
629.955	20553
630.018	22963
630.081	24036
630.144	30373
630.207	24533
630.269	24613
630.332	20761
630.395	20686
630.458	20188
630.520	19642
630.583	20120
630.646	20662
630.708	19573
630.771	19099
630.834	20508
630.896	19991
630.959	20082
631.021	20277
631.084	20128
631.146	20141
631.209	20027
631.272	19294
631.334	19666
631.397	20172
631.459	20306
631.522	22796
631.584	22056
631.646	22189
631.709	22652
631.771	26761
631.834	24333
631.896	21521
631.958	19192
632.021	20794
632.083	18735
632.145	19345
632.208	19064
632.270	20448
632.332	18559
632.395	17503
632.457	19717
632.519	17987
632.581	18908
632.643	17972
632.706	18443
632.768	17591
632.830	18948
632.892	18816
632.954	18190
633.016	19859
633.078	18444
633.141	18549
633.203	17710
633.265	18583
633.327	17599
633.389	18537
633.451	19866
633.513	24219
633.575	22202
633.637	23051
633.698	23330
633.760	19843
633.822	19603
633.884	19744
633.946	19451
634.008	19193
634.070	19306
634.132	20163
634.193	20468
634.255	22733
634.317	22343
634.379	24147
634.441	21362
634.502	20319
634.564	18755
634.626	18091
634.687	17302
634.749	18287
634.811	17425
634.873	16482
634.934	17593
634.996	17643
635.057	17239
635.119	16951
635.181	17102
635.242	18056
635.304	16376
635.365	18768
635.427	17968
635.488	18136
635.550	16317
635.611	17541
635.673	15526
635.734	19001
635.796	17959
635.857	20492
635.918	18704
635.980	20691
636.041	21633
636.102	22792
636.164	23268
636.225	23050
636.286	19788
636.348	19690
636.409	17099
636.470	17012
636.531	17281
636.593	15913
636.654	16527
636.715	15698
636.776	15370
636.838	14542
636.899	15303
636.960	15117
637.021	15774
637.082	14390
637.143	14158
637.204	14592
637.265	14123
637.326	14338
637.387	14543
637.448	13470
637.509	14239
637.570	14983
637.631	14794
637.692	14492
637.753	14077
637.814	13448
637.875	13951
637.936	14614
637.997	13631
638.058	14091
638.119	14313
638.179	14001
638.240	13165
638.301	14231
638.362	12170
638.423	13181
638.483	13103
638.544	12278
638.605	13557
638.666	12476
638.726	13625
638.787	12495
638.848	12891
638.908	12044
638.969	12446
639.030	11887
639.090	12148
639.151	12622
639.211	14453
639.272	17765
639.332	27299
639.393	21800
639.453	13411
639.514	13094
639.574	12520
639.635	11858
639.695	12395
639.756	11570
639.816	14654
639.877	14774
639.937	22406
639.997	34271
640.058	16319
640.118	11998
640.178	12007
640.239	11345
640.299	11535
640.359	11646
640.420	12102
640.480	12610
640.540	13312
640.600	13487
640.661	13271
640.721	12445
640.781	16298
640.841	13335
640.901	11800
640.961	12311
641.021	13055
641.082	15102
641.142	20708
641.202	16829
641.262	10172
641.322	11939
641.382	10993
641.442	11254
641.502	10468
641.562	10890
641.622	10327
641.682	11873
641.742	12409
641.802	12171
641.861	12144
641.921	12347
641.981	13061
642.041	14003
642.101	15301
642.161	13832
642.221	10841
642.280	10167
642.340	10192
642.400	10136
642.460	10997
642.519	10464
642.579	10006
642.639	11183
642.698	9176
642.758	11692
642.818	11339
642.877	10905
642.937	11845
642.997	13333
643.056	19243
643.116	15114
643.175	11645
643.235	11258
643.294	11394
643.354	11985
643.414	13368
643.473	14285
643.532	16320
643.592	22088
643.651	32660
643.711	54445
643.770	100366
643.830	221868
643.889	624696
643.948	252568
644.008	31978
644.067	19004
644.126	15100
644.186	13289
644.245	12517
644.304	10500
644.363	11918
644.423	9659
644.482	10816
644.541	10485
644.600	10038
644.659	13000
644.719	13520
644.778	21201
644.837	30049
644.896	55996
644.955	144087
645.014	81313
645.073	16640
645.132	11160
645.191	11461
645.250	11066
645.309	11496
645.368	11206
645.427	13546
645.486	16647
645.545	33271
645.604	16318
645.663	11575
645.722	9868
645.781	11300
645.840	12139
645.898	13337
645.957	20288
646.016	29049
646.075	52089
646.134	96203
646.192	222496
646.251	499706
646.310	113376
646.369	20524
646.427	16679
646.486	12348
646.545	12062
646.603	10894
646.662	9809
646.721	9938
646.779	9255
646.838	8681
646.896	11386
646.955	14612
647.014	19693
647.072	30900
647.131	83322
647.189	69941
647.248	11718
647.306	9892
647.365	9528
647.423	7243
647.481	9043
647.540	7075
647.598	8153
647.657	7740
647.715	7745
647.773	6888
647.832	7592
647.890	6375
647.948	7031
648.007	8096
648.065	6685
648.123	6388
648.181	8130
648.240	6823
648.298	6850
648.356	6380
648.414	7140
648.472	7924
648.531	7636
648.589	6230
648.647	6371
648.705	6181
648.763	6569
648.821	6999
648.879	7318
648.937	8233
648.995	8772
649.053	10313
649.111	14760
649.169	23794
649.227	40949
649.285	73650
649.343	228814
649.401	195431
649.459	41662
649.516	31126
649.574	10954
649.632	11832
649.690	10361
649.748	12076
649.806	13310
649.863	22368
649.921	54877
649.979	63753
650.037	12119
650.094	6508
650.152	7415
650.210	5782
650.268	6449
650.325	6343
650.383	5889
650.440	4828
650.498	5806
650.556	5740
650.613	5296
650.671	6324
650.728	5916
650.786	5600
650.843	6541
650.901	5306
650.958	5665
651.016	5240
651.073	6000
651.131	4993
651.188	4473
651.246	5143
651.303	4327
651.360	4971
651.418	4830
651.475	5305
651.532	3983
651.590	5386
651.647	4287
651.704	5033
651.762	4149
651.819	5561
651.876	4128
651.933	4788
651.990	4706
652.048	3480
652.105	3509
652.162	4758
652.219	4297
652.276	4309
652.333	5440
652.390	3636
652.448	4857
652.505	4517
652.562	4246
652.619	4342
652.676	4195
652.733	5276
652.790	4408
652.847	3998
652.904	4580
652.961	3946
653.017	4157
653.074	4318
653.131	4501
653.188	3167
653.245	4453
653.302	4620
653.359	3515
653.415	5180
653.472	3161
653.529	4392
653.586	4076
653.642	3993
653.699	4864
653.756	3253
653.813	3874
653.869	4343
653.926	3986
653.983	3024
654.039	4292
654.096	4379
654.152	5120
654.209	2994
654.266	3703
654.322	3236
654.379	4651
654.435	4532
654.492	5423
654.548	6009
654.605	9206
654.661	6609
654.717	3995
654.774	3539
654.830	3468
654.887	3424
654.943	4004
655.000	4149
655.056	4365
655.112	4129
655.168	3081
655.225	3828
655.281	3869
655.337	3373
655.394	5092
655.450	3988
655.506	4368
655.562	3736
655.618	5505
655.675	2797
655.731	3881
655.787	3276
655.843	4036
655.899	3176
655.955	4860
656.011	3913
656.067	3255
656.123	3979
656.179	4015
656.235	4409
656.291	3769
656.347	4385
656.403	3236
656.459	3051
656.515	3436
656.571	3576
656.627	4406
656.683	3311
656.739	5113
656.795	3914
656.850	5667
656.906	4873
656.962	4453
657.018	4203
657.074	3199
657.129	4757
657.185	5636
657.241	9885
657.297	9619
657.352	4135
657.408	2300
657.464	5084
657.519	4048
657.575	2722
657.630	3425
657.686	3810
657.742	2961
657.797	3916
657.853	2935
657.908	5323
657.964	3407
658.019	3610
658.075	4086
658.130	3230
658.186	2591
658.241	3220
658.297	3354
658.352	3034
658.407	3721
658.463	2884
658.518	3736
658.573	2943
658.629	2325
658.684	3945
658.739	3669
658.795	2914
658.850	3869
658.905	2878
658.960	4227
659.016	2819
659.071	3155
659.126	4370
659.181	3629
659.236	7859
659.291	9537
659.346	5335
659.401	4363
659.457	4280
659.512	2782
659.567	4193
659.622	3425
659.677	3674
659.732	2862
659.787	3576
659.842	3717
659.897	3671
659.952	4248
660.007	3485
660.061	2710
660.116	2535
660.171	3165
660.226	2698
660.281	3903
660.336	2513
660.391	3894
660.445	3242
660.500	2863
660.555	3314
660.610	2708
660.664	3411
660.719	3599
660.774	3884
660.828	3791
660.883	4202
660.938	3459
660.992	2225
661.047	3653
661.101	2681
661.156	2848
661.211	2696
661.265	2889
661.320	2397
661.374	3524
661.429	2622
661.483	4060
661.538	2392
661.592	2970
661.647	3745
661.701	3394
661.755	2328
661.810	3284
661.864	2176
661.919	1745
661.973	2380
662.027	2748
662.081	2123
662.136	1825
662.190	2506
662.244	3001
662.299	2514
662.353	2823
662.407	3357
662.461	2550
662.515	2549
662.569	2780
662.624	3243
662.678	2837
662.732	2790
662.786	2834
662.840	2429
662.894	2964
662.948	2306
663.002	2767
663.056	2354
663.110	2511
663.164	2774
663.218	3214
663.272	2224
663.326	4157
663.380	3862
663.434	2424
663.488	2401
663.542	3599
663.595	2224
663.649	2446
663.703	3056
663.757	3123
663.811	1981
663.864	3430
663.918	2978
663.972	2681
664.026	3318
664.079	3706
664.133	2912
664.187	3018
664.240	2778
664.294	3153
664.348	2049
664.401	2490
664.455	3561
664.508	2307
664.562	2628
664.615	2782
664.669	1898
664.722	2297
664.776	2712
664.829	2173
664.883	2985
664.936	2343
664.990	2243
665.043	2882
665.097	2781
665.150	3508
665.203	2218
665.257	2994
665.310	3115
665.363	3074
665.417	2872
665.470	3247
665.523	2783
665.576	3348
665.630	3248
665.683	3014
665.736	2550
665.789	3059
665.842	2325
665.895	2871
665.949	3766
666.002	2467
666.055	2576
666.108	3197
666.161	3400
666.214	2725
666.267	3384
666.320	3571
666.373	4126
666.426	2839
666.479	2675
666.532	2528
666.585	2164
666.638	2512
666.691	2215
666.744	3072
666.796	2191
666.849	2419
666.902	2996
666.955	2785
667.008	1777
667.060	1749
667.113	1567
667.166	2714
667.219	2507
667.271	1701
667.324	2531
667.377	2305
667.430	3605
667.482	3099
667.535	3071
667.587	3553
667.640	3930
667.693	4168
667.745	5985
667.798	10571
667.850	3291
667.903	2732
667.955	2799
668.008	3088
668.060	3090
668.113	3064
668.165	2622
668.218	2153
668.270	3142
668.322	2785
668.375	2436
668.427	3606
668.479	2959
668.532	2546
668.584	2576
668.636	2354
668.689	2244
668.741	1854
668.793	2555
668.845	2969
668.898	2520
668.950	2367
669.002	2363
669.054	2019
669.106	2270
669.158	2905
669.211	2584
669.263	2113
669.315	2392
669.367	3005
669.419	2186
669.471	3099
669.523	3309
669.575	4416
669.627	3040
669.679	2714
669.731	2484
669.783	3277
669.835	2890
669.886	3086
669.938	3047
669.990	2459
670.042	2498
670.094	2660
670.146	3604
670.197	3129
670.249	3647
670.301	3946
670.353	4735
670.404	7665
670.456	11123
670.508	16431
670.560	27975
670.611	49787
670.663	86388
670.715	175064
670.766	395173
670.818	168165
670.869	21928
670.921	9777
670.972	7634
671.024	5522
671.075	4586
671.127	4267
671.178	3322
671.230	3969
671.281	2701
671.333	2935
671.384	3587
671.436	4324
671.487	4996
671.538	5894
671.590	7547
671.641	11476
671.692	18858
671.744	42916
671.795	34119
671.846	9581
671.897	4172
671.949	4341
672.000	3162
672.051	3606
672.102	2957
672.153	1764
672.204	2285
672.256	3039
672.307	2434
672.358	2117
672.409	2714
672.460	2947
672.511	2408
672.562	1641
672.613	2735
672.664	1709
672.715	2175
672.766	2304
672.817	1876
672.868	2049
672.919	1913
672.970	2265
673.021	2198
673.071	1980
673.122	1857
673.173	1936
673.224	2268
673.275	1686
673.326	2105
673.376	2062
673.427	1742
673.478	1644
673.528	1789
673.579	2127
673.630	1461
673.680	2567
673.731	1794
673.782	1817
673.832	2194
673.883	1871
673.934	2299
673.984	2030
674.035	1609
674.085	1443
674.136	2265
674.186	1757
674.237	1944
674.287	1742
674.338	2030
674.388	2001
674.438	819
674.489	2282
674.539	1270
674.589	1707
674.640	2049
674.690	1943
674.740	1867
674.791	2622
674.841	1737
674.891	2096
674.942	1571
674.992	2303
675.042	1666
675.092	904
675.142	1704
675.193	1302
675.243	1425
675.293	1380
675.343	1109
675.393	2627
675.443	1937
675.493	1613
675.543	1055
675.593	1352
675.643	2165
675.693	1024
675.743	2259
675.793	2065
675.843	1220
675.893	773
675.943	1908
675.993	1927
676.043	1409
676.093	2144
676.142	1166
676.192	1203
676.242	833
676.292	1598
676.341	1047
676.391	1608
676.441	1837
676.491	1566
676.540	1041
676.590	1370
676.640	1868
676.689	1851
676.739	566
676.789	867
676.838	1325
676.888	1698
676.937	1432
676.987	1034
677.037	1691
677.086	631
677.136	984
677.185	1334
677.235	1217
677.284	1092
677.333	1589
677.383	1322
677.432	728
677.482	1429
677.531	1397
677.580	1443
677.630	1287
677.679	1397
677.728	1074
677.778	1622
677.827	1016
677.876	837
677.925	536
677.975	1122
678.024	1299
678.073	1721
678.122	1461
678.171	1067
678.220	1046
678.269	947
678.319	2252
678.368	2004
678.417	939
678.466	2325
678.515	1272
678.564	1218
678.613	1137
678.662	1325
678.711	1054
678.760	1376
678.809	1095
678.857	1059
678.906	1453
678.955	1041
679.004	1056
679.053	968
679.102	1462
679.151	1455
679.199	797
679.248	2074
679.297	1829
679.346	704
679.394	603
679.443	1150
679.492	2488
679.540	863
679.589	900
679.638	1529
679.686	682
679.735	1075
679.784	1420
679.832	1693
679.881	1004
679.929	1175
679.978	877
680.026	520
680.075	923
680.123	1073
680.172	915
680.220	909
680.268	1129
680.317	988
680.365	440
680.414	1367
680.462	181
680.510	1051
680.559	1350
680.607	708
680.655	1248
680.703	1269
680.752	357
680.800	811
680.848	547
680.896	465
680.945	1
680.993	819
681.041	846
681.089	652
681.137	358
681.185	-466
681.233	263
681.258	574
681.281	842
681.329	1277
681.377	1112
681.380	1147
681.425	1278
681.473	781
681.502	785
681.521	741
681.569	2051
681.617	1044
681.624	982
681.665	376
681.713	1655
681.745	1395
681.761	1233
681.809	766
681.857	1795
681.867	1808
681.904	1744
681.952	1377
681.989	1683
682.000	1736
682.048	1972
682.096	1386
682.111	1583
682.143	1931
682.191	1288
682.233	1869
682.239	1925
682.286	1611
682.334	2250
682.354	1874
682.382	1324
682.430	2581
682.476	1890
682.477	1851
682.525	2519
682.572	1356
682.598	1883
682.620	2307
682.667	2246
682.715	2687
682.720	2666
682.763	2267
682.810	2858
682.841	2956
682.857	2957
682.905	2689
682.952	3178
682.963	3241
683.000	3263
683.047	3122
683.085	3247
683.095	3278
683.142	3193
683.190	2856
683.206	2922
683.237	2991
683.284	3005
683.328	3150
683.332	3145
683.379	3149
683.426	3196
683.449	3256
683.473	3238
683.521	3472
683.568	3323
683.571	3320
683.615	3026
683.662	4160
683.693	3755
683.709	3494
683.757	3734
683.804	3188
683.814	3460
683.851	4412
683.898	3938
683.936	4425
683.945	4514
683.992	4464
684.039	4574
684.057	4724
684.086	5002
684.133	5267
684.179	4441
684.180	4383
684.227	5417
684.274	4647
684.300	4933
684.321	5179
684.368	4880
684.415	5442
684.422	5456
684.462	5283
684.509	4647
684.543	4373
684.556	4298
684.603	5388
684.649	4621
684.665	4759
684.696	4985
684.743	4803
684.786	4916
684.790	4912
684.837	4808
684.883	5221
684.908	4905
684.930	4649
684.977	5659
685.023	5360
685.029	5428
685.070	5721
685.117	5281
685.150	5763
685.164	5972
685.210	6090
685.257	5587
685.272	5627
685.303	5645
685.350	5802
685.393	6619
685.396	6696
685.443	6369
685.490	7521
685.514	7797
685.536	7744
685.583	7298
685.629	7191
685.636	7130
685.675	6762
685.722	6928
685.757	6752
685.768	6703
685.815	6627
685.861	6841
685.878	6768
685.908	6555
685.954	6347
686.000	6525
686.000	6527
686.047	6311
686.093	6721
686.121	7274
686.139	7563
686.185	7237
686.232	7253
686.242	7142
686.278	6554
686.324	7151
686.363	6438
686.370	6336
686.416	7304
686.463	7113
686.484	6714
686.509	6341
686.555	6798
686.601	6915
686.606	6984
686.647	7369
686.693	7342
686.727	6914
686.739	6758
686.785	6495
686.831	6664
686.848	6769
686.877	6983
686.923	7062
686.969	6752
686.969	6749
687.015	6810
687.061	7362
687.090	7185
687.107	7155
687.153	6747
687.199	7354
687.211	7261
687.245	6901
687.291	6983
687.332	7597
687.336	7661
687.382	7595
687.428	7362
687.453	7554
687.474	7636
687.520	7910
687.565	7604
687.574	7510
687.611	7313
687.657	8230
687.695	7700
687.702	7626
687.748	8078
687.794	8190
687.816	8261
687.839	8199
687.885	8679
687.931	8186
687.937	8178
687.976	8160
688.022	8065
688.058	8342
688.067	8457
688.113	8024
688.158	8805
688.179	8807
688.204	8707
688.249	8630
688.295	8597
688.300	8645
688.340	9121
688.386	8954
688.421	8652
688.431	8552
688.477	9036
688.522	8891
688.542	8836
688.567	8894
688.613	9264
688.658	8767
688.663	8823
688.703	9145
688.749	9097
688.784	9089
688.794	9124
688.839	9208
688.884	9356
688.905	9559
688.930	9698
688.975	9411
689.020	8952
689.026	8948
689.065	9176
689.110	8923
689.146	9191
689.155	9264
689.201	8828
689.246	9472
689.267	9446
689.291	9401
689.336	9142
689.381	9380
689.388	9389
689.426	9539
689.471	9338
689.509	9223
689.516	9220
689.561	9229
689.606	9299
689.630	9235
689.651	9149
689.696	9088
689.741	9202
689.750	9171
689.785	9347
689.830	10046
689.871	10263
689.875	10263
689.920	9761
689.965	10375
689.992	9970
690.010	9748
690.054	9369
690.099	9061
690.112	9072
690.144	9354
690.189	9658
690.233	10150
690.233	10166
690.278	9973
690.323	9702
690.354	9911
690.367	10028
690.412	9703
690.457	10082
690.474	10235
690.501	10423
690.546	9947
690.590	9785
690.595	9764
690.635	9846
690.680	9699
690.716	9728
690.724	9777
690.769	9932
690.813	10437
690.836	10355
690.857	10336
690.902	10847
690.946	10328
690.957	10489
690.991	11036
691.035	11081
691.077	11251
691.080	11293
691.124	11798
691.168	12340
691.198	12254
691.213	12006
691.257	12104
691.301	11645
691.318	11526
691.346	11567
691.390	11514
691.434	11409
691.439	11369
691.478	11228
691.522	11310
691.559	11182
691.567	11243
691.611	11743
691.655	12041
691.680	12236
691.699	12290
691.743	12532
691.787	12351
691.800	12273
691.831	11975
691.875	11961
691.919	11819
691.921	11794
691.964	11734
692.008	11385
692.041	11299
692.052	11393
692.096	11440
692.139	11974
692.162	11931
692.183	11797
692.227	11750
692.271	11595
692.282	11571
692.315	11777
692.359	12000
692.402	12060
692.403	12084
692.447	12032
692.490	12399
692.523	12364
692.534	12361
692.578	12295
692.622	12376
692.643	12364
692.666	12274
692.709	11963
692.753	11799
692.763	11777
692.797	12126
692.840	11970
692.884	12248
692.884	12275
692.928	12357
692.971	12584
693.004	12493
693.015	12493
693.059	12723
693.102	12591
693.124	12521
693.146	12491
693.189	12301
693.233	12501
693.245	12511
693.276	12920
693.320	13128
693.363	13553
693.365	13549
693.407	13763
693.450	13259
693.485	13184
693.493	13200
693.537	13191
693.580	12876
693.605	12798
693.624	12873
693.667	13180
693.710	13119
693.725	13150
693.753	13661
693.797	14415
693.840	15158
693.845	15192
693.883	15230
693.926	15406
693.966	15367
693.970	15323
694.013	14639
694.056	13981
694.086	13445
694.099	13427
694.142	13244
694.185	13188
694.206	13166
694.229	13301
694.272	13295
694.315	13504
694.326	13480
694.358	13895
694.401	14371
694.444	14890
694.446	14885
694.487	16235
694.530	17576
694.566	18533
694.573	18269
694.616	16625
694.659	14705
694.686	13617
694.702	13740
694.745	13968
694.787	13818
694.806	13809
694.830	13707
694.873	13619
694.916	13363
694.926	13293
694.959	13387
695.002	13447
695.044	13464
695.046	13434
695.087	14000
695.130	14519
695.166	14992
695.172	14989
695.215	14412
695.258	14399
695.286	14068
695.301	14155
695.343	14291
695.386	14660
695.406	14704
695.428	14555
695.471	14282
695.514	14167
695.526	14025
695.556	14342
695.599	15077
695.641	15395
695.646	15408
695.684	15329
695.726	15183
695.766	15250
695.769	15290
695.811	15146
695.854	14906
695.886	14679
695.896	14737
695.938	14902
695.981	15084
696.005	15183
696.023	15161
696.065	14853
696.108	14842
696.125	14722
696.150	14873
696.192	15031
696.235	15011
696.245	15033
696.277	15239
696.319	15561
696.361	15521
696.365	15493
696.404	15430
696.446	15386
696.485	15301
696.488	15374
696.530	15745
696.572	16100
696.604	16354
696.614	16326
696.656	15910
696.698	15705
696.724	15440
696.740	15541
696.783	15761
696.825	16038
696.844	16076
696.867	15971
696.909	15776
696.951	15530
696.964	15403
696.992	15538
697.034	15782
697.076	15854
697.083	15832
697.118	16252
697.160	16863
697.202	17347
697.203	17315
697.244	16930
697.286	16501
697.323	15984
697.327	16047
697.369	16240
697.411	16540
697.442	16706
697.453	16888
697.494	17344
697.536	17864
697.562	18169
697.578	18296
697.620	18436
697.661	18627
697.682	18681
697.703	19051
697.744	19612
697.786	20324
697.801	20471
697.828	21189
697.869	22288
697.911	23380
697.921	23588
697.952	22140
697.994	20125
698.035	18134
698.040	17843
698.077	17603
698.118	17277
698.160	16951
698.160	16903
698.201	17316
698.243	17671
698.279	17970
698.284	18039
698.325	18202
698.367	18408
698.399	18465
698.408	18475
698.449	18290
698.491	18182
698.518	18028
698.532	18140
698.573	18333
698.614	18541
698.638	18589
698.656	18648
698.697	18721
698.738	18740
698.757	18711
698.779	18819
698.820	18928
698.862	19035
698.877	19022
698.903	19034
698.944	18978
698.985	18925
698.996	18861
699.026	18772
699.067	18579
699.116	18301
699.235	19032
699.354	18168
699.474	17639
699.593	19040
699.713	19229
699.832	17926
699.951	19033
700.070	19740
700.190	18377
700.309	17789
700.428	18106
700.547	17755
700.667	17378
700.786	18181
700.905	17077
701.024	16746
701.143	17750
701.262	16356
701.381	17494
701.500	18523
701.619	20699
701.738	19330
701.857	16808
701.976	15825
702.095	15768
702.214	18278
702.333	20541
702.452	19585
702.571	16979
702.690	16985
702.809	15627
702.928	16420
703.047	16576
703.165	16710
703.284	16253
703.403	15765
703.522	16100
703.640	15970
703.759	17679
703.878	20719
703.997	15864
704.115	15159
704.234	15185
704.353	15890
704.471	15669
704.590	15620
704.708	14536
704.827	15256
704.946	14848
705.064	14221
705.183	14379
705.301	14718
705.420	16484
705.538	16707
705.656	15111
705.775	14493
705.893	14265
706.012	15883
706.130	15176
706.249	15499
706.367	15148
706.485	15585
706.604	15344
706.722	16028
706.840	18530
706.958	16824
707.077	16420
707.195	14429
707.313	14502
707.431	14731
707.549	13846
707.668	14009
707.786	14347
707.904	13294
708.022	13707
708.140	14056
708.258	13489
708.376	14871
708.494	13412
708.612	15144
708.730	15593
708.848	16300
708.966	16973
709.084	18067
709.202	16105
709.320	15552
709.438	14449
709.556	14528
709.674	14268
709.791	14213
709.909	13656
710.027	13959
710.145	13603
710.263	13435
710.380	13956
710.498	14244
710.616	13774
710.733	13921
710.851	13421
710.969	14886
711.086	13970
711.204	14257
711.322	13774
711.439	13500
711.557	13547
711.674	12616
711.792	13171
711.909	13021
712.027	11820
712.144	12681
712.262	13380
712.379	12908
712.497	14534
712.614	15777
712.732	14814
712.849	14519
712.966	15517
713.084	21037
713.201	16595
713.318	15675
713.436	14829
713.553	14276
713.670	14435
713.787	14860
713.905	15018
714.022	14442
714.139	14844
714.256	17848
714.373	20787
714.490	32916
714.608	65840
714.725	280550
714.842	654291
714.959	69316
715.076	20625
715.193	16907
715.310	16280
715.427	13815
715.544	13330
715.661	14331
715.778	12364
715.895	14012
716.011	13396
716.128	13583
716.245	13628
716.362	15861
716.479	20806
716.596	13595
716.713	13194
716.829	12234
716.946	12185
717.063	11908
717.180	12280
717.296	12197
717.413	12123
717.530	11834
717.646	12567
717.763	11658
717.880	10144
717.996	11552
718.113	12933
718.229	11915
718.346	11503
718.462	11974
718.579	16045
718.695	31681
718.812	29108
718.928	14017
719.045	12181
719.161	10733
719.277	11565
719.394	10996
719.510	11672
719.626	11516
719.743	12990
719.859	17144
719.975	26923
720.092	78920
720.208	305078
720.324	89685
720.440	14812
720.557	13419
720.673	21553
720.789	26889
720.905	21661
721.021	17553
721.137	10646
721.253	10426
721.369	10860
721.486	10790
721.602	11968
721.718	10553
721.834	9270
721.950	11259
722.066	9437
722.181	9883
722.297	11106
722.413	11054
722.529	10101
722.645	9882
722.761	8916
722.877	10356
722.993	10038
723.108	11313
723.224	9638
723.340	9105
723.456	8918
723.571	9580
723.687	9217
723.803	9601
723.918	9333
724.034	9894
724.150	7634
724.265	8921
724.381	10394
724.497	15419
724.612	8874
724.728	8363
724.843	8705
724.959	8585
725.074	11074
725.190	13554
725.305	9300
725.421	8695
725.536	8062
725.651	8553
725.767	9014
725.882	7649
725.997	8569
726.113	9514
726.228	8252
726.343	8147
726.459	7729
726.574	8335
726.689	7989
726.804	9078
726.920	8690
727.035	8455
727.150	7769
727.265	7215
727.380	8258
727.495	8157
727.610	7527
727.725	6809
727.841	8093
727.956	8463
728.071	9730
728.186	8331
728.301	8763
728.416	8087
728.531	8784
728.645	8162
728.760	8161
728.875	10734
728.990	10379
729.105	9449
729.220	9802
729.335	10725
729.449	7833
729.564	7608
729.679	7259
729.794	7659
729.908	8359
730.023	7520
730.138	7604
730.253	8639
730.367	7610
730.482	7366
730.596	8211
730.711	8390
730.826	9276
730.940	8595
731.055	7911
731.169	9225
731.284	7724
731.398	8040
731.513	7801
731.627	8514
731.742	9378
731.856	9526
731.970	9542
732.085	11100
732.199	12580
732.313	17860
732.428	35883
732.542	120801
732.656	158323
732.771	25188
732.885	11842
732.999	10646
733.113	10102
733.227	10410
733.342	10072
733.456	9726
733.570	9003
733.684	8323
733.798	8073
733.912	8163
734.026	8272
734.140	8448
734.254	8784
734.368	9419
734.482	12714
734.596	9154
734.710	8484
734.824	7804
734.938	7729
735.052	8993
735.166	9871
735.280	9419
735.393	8857
735.507	7975
735.621	8448
735.735	9226
735.849	8736
735.962	8334
736.076	8359
736.190	8459
736.303	8167
736.417	9952
736.531	7799
736.644	8743
736.758	8453
736.872	7963
736.985	6422
737.099	7554
737.212	6603
737.326	7554
737.439	7665
737.553	6965
737.666	7673
737.780	6448
737.893	7478
738.007	7748
738.120	8049
738.233	7201
738.347	7929
738.460	7048
738.573	8873
738.687	9129
738.800	9135
738.913	11545
739.026	10486
739.140	7234
739.253	7437
739.366	6846
739.479	6437
739.592	7019
739.705	6938
739.818	7076
739.932	6343
740.045	8232
740.158	7889
740.271	7643
740.384	7979
740.497	7667
740.610	8263
740.723	8035
740.836	7815
740.949	8127
741.062	11406
741.174	12232
741.287	7857
741.400	7646
741.513	7431
741.626	8435
741.739	7794
741.851	7744
741.964	6653
742.077	7140
742.189	6102
742.302	7811
742.415	7868
742.527	7052
742.640	7071
742.753	6110
742.865	6333
742.978	6688
743.090	6852
743.203	6992
743.316	6776
743.428	5490
743.541	6525
743.653	6187
743.766	5492
743.878	6476
743.990	6569
744.103	7402
744.215	6778
744.327	7377
744.440	8082
744.552	14762
744.664	11610
744.777	6318
744.889	5550
745.001	6280
745.113	6972
745.226	6338
745.338	6287
745.450	6019
745.562	5748
745.674	5283
745.786	6022
745.898	5734
746.010	5975
746.122	6093
746.234	6836
746.347	5697
746.459	7186
746.570	5622
746.682	5496
746.794	6326
746.906	5360
747.018	5292
747.130	5903
747.242	5824
747.354	5392
747.466	5830
747.577	5780
747.689	5986
747.801	5337
747.913	5599
748.024	5196
748.136	5428
748.248	5111
748.359	5398
748.471	5312
748.583	5121
748.694	4164
748.806	5626
748.918	5531
749.029	6492
749.141	6563
749.252	6906
749.364	7290
749.475	14900
749.587	14243
749.698	5378
749.809	6272
749.921	5363
750.032	4974
750.144	4150
750.255	4701
750.366	4329
750.478	4666
750.589	4927
750.700	5542
750.811	6426
750.923	7628
751.034	14328
751.145	26382
751.256	7254
751.367	5052
751.479	5202
751.590	4737
751.701	4875
751.812	4708
751.923	5311
752.034	4565
752.145	3776
752.256	3978
752.367	5074
752.478	4256
752.589	4436
752.700	4778
752.811	4797
752.922	4558
753.032	5672
753.143	7713
753.254	4888
753.365	4783
753.476	5654
753.586	4490
753.697	4316
753.808	4556
753.919	4522
754.029	4697
754.140	4527
754.251	4062
754.361	4732
754.472	4712
754.582	4496
754.693	4477
754.804	4469
754.914	3982
755.025	4464
755.135	4244
755.246	4053
755.356	3878
755.466	4012
755.577	4118
755.687	4284
755.798	3825
755.908	3795
756.018	4260
756.129	3981
756.239	4194
756.349	4414
756.460	3943
756.570	4763
756.680	4030
756.790	4661
756.900	6357
757.011	4906
757.121	3797
757.231	4147
757.341	4304
757.451	4337
757.561	4275
757.671	3821
757.781	3486
757.891	4562
758.001	4287
758.111	4156
758.221	3781
758.331	5135
758.441	6590
758.551	7704
758.661	9773
758.771	4664
758.880	3880
758.990	4303
759.100	3382
759.210	4234
759.320	4536
759.429	3546
759.539	4764
759.649	4562
759.758	4536
759.868	5340
759.978	5118
760.087	5945
760.197	5497
760.307	4539
760.416	5048
760.526	4410
760.635	4769
760.745	5394
760.854	5218
760.964	6285
761.073	5726
761.182	5052
761.292	4832
761.401	4626
761.511	4386
761.620	4276
761.729	4251
761.839	3960
761.948	4006
762.057	5380
762.166	4998
762.276	4232
762.385	4668
762.494	4169
762.603	3603
762.712	4527
762.822	4117
762.931	3181
763.040	3402
763.149	3492
763.258	3278
763.367	4114
763.476	3778
763.585	4054
763.694	3679
763.803	3148
763.912	3926
764.021	3864
764.130	3979
764.238	3686
764.347	4806
764.456	3959
764.565	4378
764.674	3674
764.783	3504
764.891	4003
765.000	4177
765.109	4443
765.217	4332
765.326	4032
765.435	5873
765.543	5789
765.652	6013
765.761	6242
765.869	8234
765.978	9838
766.086	15375
766.195	29510
766.303	69216
766.412	242373
766.520	424495
766.629	94538
766.737	22172
766.846	12330
766.954	8264
767.062	7622
767.171	5747
767.279	5701
767.387	4297
767.496	5659
767.604	4747
767.712	4041
767.820	3546
767.928	4367
768.037	4461
768.145	4855
768.253	4543
768.361	4159
768.469	3775
768.577	4144
768.685	4100
768.793	4474
768.901	4351
769.009	4026
769.117	4059
769.225	5003
769.333	5680
769.441	7608
769.549	13225
769.657	26251
769.765	80915
769.873	289676
769.981	177768
770.088	21388
770.196	9733
770.304	6872
770.412	6126
770.519	5225
770.627	4868
770.735	4926
770.842	4930
770.950	3713
771.058	5243
771.165	5209
771.273	4141
771.380	4784
771.488	4907
771.595	5712
771.703	4374
771.810	5215
771.918	4118
772.025	4227
772.133	5385
772.240	4991
772.348	5619
772.455	4577
772.562	4933
772.670	4876
772.777	5306
772.884	4824
772.991	4350
773.099	5500
773.206	4869
773.313	4061
773.420	4743
773.528	5013
773.635	3740
773.742	4949
773.849	4436
773.956	4623
774.063	3742
774.170	4978
774.277	5430
774.384	4331
774.491	5218
774.598	4541
774.705	4796
774.812	6096
774.919	5886
775.026	4643
775.133	3939
775.239	4111
775.346	3900
775.453	4136
775.560	4401
775.667	3831
775.773	3489
775.880	4414
775.987	3913
776.093	4094
776.200	4237
776.307	3347
776.413	4595
776.520	3266
776.627	4499
776.733	3689
776.840	3604
776.946	4355
777.053	3555
777.159	3988
777.266	3223
777.372	4269
777.478	4381
777.585	4465
777.691	4229
777.798	4567
777.904	4602
778.010	6291
778.117	7889
778.223	3997
778.329	3800
778.435	3965
778.542	4413
778.648	3408
778.754	3057
778.860	3289
778.966	3090
779.072	4168
779.178	4150
779.284	3084
779.391	3272
779.497	3072
779.603	4080
779.708	3484
779.815	3419
779.920	5582
780.026	11592
780.132	5346
780.238	3117
780.344	3220
780.450	3870
780.556	3661
780.661	2567
780.767	4000
780.873	3962
780.979	4006
781.085	3334
781.190	3040
781.296	2758
781.402	2505
781.507	2815
781.613	3068
781.719	1494
781.824	3398
781.930	3448
782.035	2884
782.141	3147
782.246	2094
782.352	2928
782.457	3357
782.563	3025
782.668	2892
782.773	2924
782.879	1606
782.984	3451
783.090	4372
783.195	7523
783.300	7521
783.405	3558
783.511	2718
783.616	3400
783.721	2381
783.826	2635
783.932	3494
784.037	3259
784.142	2881
784.247	3576
784.352	2970
784.457	3209
784.562	3222
784.667	3284
784.772	3232
784.877	2781
784.982	3064
785.087	2625
785.192	2583
785.297	2167
785.402	3148
785.507	3211
785.611	2760
785.716	2816
785.821	3049
785.926	3049
786.031	2219
786.135	1981
786.240	2388
786.345	1404
786.450	2126
786.554	2634
786.659	1925
786.763	1990
786.868	3144
786.973	3492
787.077	2233
787.182	2669
787.286	2684
787.391	2945
787.495	2502
787.600	2545
787.704	2743
787.809	2710
787.913	2417
788.017	1886
788.122	3024
788.226	2817
788.330	1521
788.435	2470
788.539	3215
788.643	2923
788.747	2119
788.852	2618
788.956	2157
789.060	1884
789.164	2150
789.268	2053
789.372	2243
789.476	2223
789.580	2582
789.684	2444
789.788	2679
789.892	1965
789.996	2726
790.100	2536
790.204	1870
790.308	2795
790.412	1908
790.516	1990
790.620	1697
790.724	2518
790.828	2660
790.931	2056
791.035	3081
791.139	2587
791.242	2648
791.346	2901
791.450	2644
791.554	2334
791.657	1173
791.761	3259
791.864	2333
791.968	1833
792.072	2610
792.175	2135
792.279	1684
792.382	1257
792.486	2581
792.589	1367
792.693	2980
792.796	1786
792.899	2650
793.003	2360
793.106	1624
793.209	2169
793.313	3057
793.416	1497
793.519	3338
793.623	4558
793.726	10443
793.829	4974
793.932	2152
794.035	2031
794.138	3189
794.242	2422
794.345	3007
794.448	2844
794.551	5591
794.654	8519
794.757	6700
794.860	3745
794.963	2423
795.066	1907
795.169	1907
795.272	1886
795.375	2596
795.477	1483
795.580	1255
795.683	769
795.786	2247
795.889	1109
795.991	1852
796.094	2500
796.197	1496
796.300	2062
796.402	1927
796.505	1904
796.608	938
796.710	1843
796.813	1789
796.915	2136
797.018	1784
797.120	1542
797.223	1248
797.326	2523
797.428	1552
797.530	2087
797.633	1393
797.735	2402
797.838	2537
797.940	2959
798.042	1700
798.145	2186
798.247	2461
798.349	1611
798.452	2059
798.554	2676
798.656	1705
798.758	2880
798.860	2368
798.962	1892
799.065	1553
799.167	1494
799.269	1405
799.371	1697
799.473	3492
799.575	2629
799.677	2764
799.779	3371
799.881	5728
799.983	5994
800.085	2454
800.187	2208
800.289	1002
800.390	1525
800.492	1422
800.594	1695
800.696	1005
800.798	1465
800.899	1328
801.001	1791
801.103	1990
801.205	1235
801.306	1785
801.408	1136
801.509	1605
801.611	1894
801.713	1596
801.814	1628
801.916	961
802.017	1347
802.119	993
802.220	1510
802.322	635
802.423	2792
802.525	1192
802.626	1933
802.727	1600
802.829	2525
802.930	414
803.031	2345
803.133	1989
803.234	882
803.335	1923
803.436	1373
803.538	1236
803.639	456
803.740	1492
803.841	1379
803.942	2336
804.043	1237
804.144	1077
804.245	1399
804.346	877
804.447	2323
804.548	3150
804.649	5663
804.750	1846
804.851	1184
804.952	688
805.053	1539
805.154	891
805.255	2047
805.355	1894
805.456	1328
805.557	1494
805.658	890
805.758	1594
805.859	1281
805.960	1227
806.061	1495
806.161	1736
806.262	817
806.362	700
806.463	1481
806.564	1144
806.664	1158
806.765	1595
806.865	1340
806.966	1009
807.066	1298
807.166	1413
807.267	1829
807.367	1877
807.468	1585
807.568	845
807.668	1681
807.769	1871
807.869	1720
807.969	1544
808.069	827
808.170	673
808.270	1193
808.370	1711
808.470	2486
808.570	3501
808.670	1381
808.770	1209
808.870	942
808.970	774
809.070	1154
809.170	949
809.271	1137
809.370	1311
809.470	938
809.570	421
809.670	862
809.770	982
809.870	1610
809.970	1346
810.070	751
810.169	1349
810.269	276
810.369	1735
810.469	749
810.568	1216
810.668	725
810.768	1042
810.867	774
810.967	255
811.066	979
811.166	707
811.265	1737
811.365	437
811.464	653
811.564	1217
811.663	1089
811.763	396
811.862	989
811.962	788
812.061	1037
812.160	754
812.260	811
812.359	1367
812.458	1518
812.557	2152
812.657	2964
812.756	2702
812.855	950
812.954	617
813.053	1626
813.153	630
813.252	669
813.351	1295
813.450	900
813.549	928
813.648	1198
813.747	820
813.846	1444
813.945	1365
814.044	836
814.143	1239
814.242	1981
814.341	1361
814.439	849
814.538	1310
814.637	620
814.736	1553
814.835	1577
814.933	164
815.032	1408
815.131	877
815.229	1760
815.328	2950
815.427	2342
815.525	2861
815.624	1944
815.722	2087
815.821	1587
815.919	2232
816.018	1536
816.116	2893
816.215	1878
816.313	2703
816.412	2432
816.510	2551
816.609	3716
816.707	3379
816.805	2915
816.904	1900
817.002	3569
817.100	3942
817.198	3387
817.296	3252
817.395	3606
817.493	3822
817.591	2417
817.689	3703
817.787	5036
817.885	6159
817.983	10900
818.081	20580
818.179	48405
818.277	128610
818.375	193766
818.473	57267
818.571	15413
818.669	9561
818.767	7555
818.865	7907
818.963	8294
819.061	12108
819.158	20088
819.256	40055
819.354	97295
819.452	249847
819.549	275394
819.647	72031
819.745	20851
819.842	12321
819.940	9544
820.038	6430
820.135	4727
820.233	5160
820.330	3774
820.428	3074
820.525	3594
820.623	3308
820.720	2025
820.818	3081
820.915	3088
821.012	2540
821.110	1177
821.207	2483
821.304	1501
821.402	2371
821.499	2725
821.596	2801
821.693	2433
821.791	3220
821.888	3286
821.985	7939
822.082	10235
822.179	3869
822.276	2562
822.373	2054
822.470	1494
822.567	2065
822.664	1806
822.761	2034
822.858	1317
822.955	1691
823.052	880
823.149	1521
823.246	3358
823.343	1355
823.440	2619
823.536	902
823.633	1904
823.730	2090
823.827	1688
823.923	839
824.020	2273
824.117	1606
824.213	1599
824.310	1785
824.407	765
824.503	2485
824.600	2183
824.696	623
824.793	1196
824.889	1366
824.986	1594
825.082	1357
825.179	1188
825.275	1348
825.371	2071
825.468	2009
825.564	348
825.660	2308
825.757	1719
825.853	1125
825.949	1500
826.045	1471
826.142	1139
826.238	986
826.334	1940
826.430	1508
826.526	1193
826.622	682
826.718	890
826.814	502
826.910	1891
827.006	1205
827.102	185
827.198	1609
827.294	974
827.390	1080
827.486	1888
827.582	-63
827.678	1086
827.774	1757
827.869	688
827.965	1709
828.061	490
828.157	1848
828.252	904
828.348	728
828.444	1585
828.539	363
828.635	1265
828.731	1880
828.826	898
828.922	955
829.017	781
829.113	1461
829.208	1283
829.304	1590
829.399	1991
829.495	1647
829.590	1181
829.685	1245
829.781	618
829.876	1015
829.971	277
830.066	47
830.162	1491
830.257	816
830.352	1717
830.447	1976
830.543	1099
830.638	247
830.733	1779
830.828	1343
830.923	1037
831.018	1264
831.113	1481
831.208	771
831.303	954
831.398	871
831.493	708
831.588	1198
831.683	665
831.778	704
831.873	1085
831.967	1812
832.062	802
832.157	537
832.252	2746
832.346	1587
832.441	1940
832.536	3899
832.631	6499
832.725	11524
832.820	2881
832.914	884
833.009	1126
833.104	1545
833.198	2632
833.293	1184
833.387	1266
833.482	1448
833.576	-41
833.670	1304
833.765	916
833.859	1492
833.954	2615
834.048	1057
834.142	740
834.237	802
834.331	1128
834.425	927
834.519	333
834.613	747
834.708	242
834.802	1350
834.896	356
834.990	465
835.084	992
835.178	986
835.272	1064
835.366	790
835.460	1765
835.554	272
835.648	1009
835.742	632
835.836	492
835.930	107
836.024	1021
836.117	1831
836.211	650
836.305	847
836.399	897
836.493	199
836.586	1623
836.680	369
836.774	593
836.867	765
836.961	-65
837.055	1637
837.148	460
837.242	726
837.335	749
837.429	602
837.522	33
837.616	828
837.709	881
837.803	887
837.896	824
837.989	1422
838.083	1215
838.176	1153
838.269	1349
838.363	762
838.456	454
838.549	1943
838.642	4044
838.735	10840
838.829	8438
838.922	1156
839.015	824
839.108	764
839.201	677
839.294	799
839.387	530
839.480	-430
839.573	131
839.666	547
839.759	369
839.852	70
839.945	582
840.038	-59
840.131	800
840.223	-1
840.316	949
840.409	1281
840.502	359
840.594	1028
840.687	-890
840.780	54
840.873	-619
840.965	-450
841.058	544
841.150	1172
841.243	621
841.336	911
841.428	46
841.521	-61
841.613	316
841.706	841
841.798	-285
841.890	-349
841.983	-97
842.075	646
842.167	664
842.260	275
842.352	928
842.444	877
842.537	710
842.629	1751
842.721	483
842.813	681
842.905	173
842.997	640
843.090	-44
843.182	249
843.274	1141
843.366	1929
843.458	4668
843.550	5660
843.642	1051
843.734	549
843.826	350
843.918	1291
844.009	456
844.101	145
844.193	423
844.285	-88
844.377	464
844.469	1131
844.560	-227
844.652	657
844.744	1534
844.835	223
844.927	786
845.019	987
845.110	451
845.202	994
845.293	499
845.385	155
845.476	227
845.568	867
845.659	40
845.751	759
845.842	474
845.934	-350
846.025	-55
846.116	345
846.208	-430
846.299	-312
846.390	33
846.482	348
846.573	1363
846.664	1653
846.755	2423
846.846	4062
846.937	-145
847.029	173
847.120	-40
847.211	90
847.302	736
847.393	0
847.484	895
847.575	-396
847.666	-529
847.757	638
847.847	359
847.938	482
848.029	112
848.120	647
848.211	308
848.302	171
848.392	504
848.483	172
848.574	241
848.664	-282
848.755	-35
848.846	407
848.936	-112
849.027	-328
849.118	724
849.208	353
849.299	1145
849.389	2264
849.480	4577
849.570	10242
849.661	19773
849.751	43027
849.841	30335
849.932	4267
850.022	618
850.112	422
850.203	1144
850.293	279
850.383	849
850.474	-460
850.564	1002
850.654	540
850.744	409
850.834	442
850.924	-234
851.014	1011
851.104	-385
851.194	991
851.284	1209
851.374	2694
851.464	1434
851.554	813
851.644	343
851.734	926
851.824	1459
851.914	540
852.004	-71
852.094	-541
852.183	1039
852.273	1019
852.363	-421
852.452	492
852.542	739
852.632	391
852.721	723
852.811	128
852.901	614
852.990	696
853.080	947
853.169	655
853.259	838
853.348	581
853.438	397
853.527	2376
853.617	3153
853.706	7244
853.795	12528
853.885	28959
853.974	59173
854.063	99570
854.152	198535
854.242	140774
854.331	26266
854.420	6725
854.509	3884
854.598	3056
854.687	2389
854.777	2239
854.866	767
854.955	1523
855.044	417
855.133	523
855.222	730
855.311	876
855.400	726
855.488	-86
855.577	592
855.666	429
855.755	1278
855.844	818
855.933	-91
856.021	826
856.110	392
856.199	-677
856.288	-486
856.376	618
856.465	-278
856.554	742
856.642	98
856.731	893
856.819	-251
856.908	-830
856.996	418
857.085	-478
857.173	-671
857.262	23
857.350	487
857.438	196
857.527	106
857.615	201
857.703	772
857.792	-34
857.880	388
857.968	130
858.056	562
858.145	716
858.233	-234
858.321	316
858.409	-193
858.497	-494
858.585	510
858.673	663
858.761	153
858.849	-298
858.937	9
859.025	-533
859.113	875
859.201	541
859.289	235
859.377	819
859.465	-667
859.552	-20
859.640	-130
859.728	624
859.816	439
859.903	754
859.991	-586
860.079	238
860.166	588
860.254	80
860.342	-207
860.429	-242
860.517	36
860.604	164
860.692	63
860.779	536
860.867	82
860.954	580
861.042	523
861.129	658
861.216	480
861.304	132
861.391	294
861.478	-599
861.565	217
861.653	1051
861.740	-99
861.827	-294
861.914	518
862.001	843
862.089	-268
862.176	-402
862.263	367
862.350	42
862.437	0
862.524	-141
862.611	-585
862.698	44
862.785	442
862.871	789
862.958	-807
863.045	-386
863.132	-30
863.219	-465
863.306	-1638
863.392	-19
863.479	-159
863.566	457
863.652	10
863.739	63
863.826	-83
863.912	-490
863.999	-102
864.086	-78
864.172	-374
864.259	-118
864.345	-374
864.432	68
864.518	499
864.604	362
864.691	353
864.777	322
864.863	1033
864.950	364
865.036	355
865.122	1504
865.209	2314
865.295	2327
865.381	2236
865.467	2633
865.553	2987
865.639	4224
865.726	8058
865.812	14930
865.898	31805
865.984	52415
866.070	80932
866.156	138214
866.242	63392
866.328	10956
866.414	4187
866.499	2818
866.585	2601
866.671	2173
866.757	1961
866.843	2083
866.928	1365
867.014	1143
867.100	1686
867.186	1576
867.271	3314
867.357	2583
867.442	2770
867.528	1492
867.614	1113
867.699	1441
867.785	1317
867.870	1493
867.956	1040
868.041	1613
868.127	1801
868.212	1022
868.297	1433
868.383	1476
868.468	2277
868.553	5596
868.639	6737
868.724	9782
868.809	17450
868.894	6936
868.979	881
869.065	1481
869.150	157
869.235	521
869.320	358
869.405	696
869.490	-422
869.575	943
869.660	777
869.745	278
869.830	775
869.915	1286
870.000	894
870.085	770
870.169	584
870.254	1911
870.339	457
870.424	-747
870.509	1301
870.593	221
870.678	502
870.763	831
870.847	1061
870.932	727
871.016	1197
871.101	528
871.186	167
871.270	831
871.355	-341
871.439	829
871.523	1065
871.608	714
871.692	-412
871.777	799
871.861	754
871.945	353
872.030	710
872.114	515
872.198	101
872.282	-321
872.367	646
872.451	282
872.535	611
872.619	946
872.703	500
872.787	317
872.871	52
872.955	405
873.039	-92
873.123	380
873.207	759
873.291	-46
873.375	-94
873.459	-569
873.543	647
873.627	598
873.711	384
873.794	857
873.878	23
873.962	-159
874.045	-274
874.129	1061
874.137	1004
874.213	433
874.245	422
874.296	418
874.352	-54
874.380	-295
874.460	-229
874.464	-226
874.547	290
874.568	251
874.631	113
874.676	354
874.714	570
874.784	261
874.798	190
874.881	924
874.892	696
874.965	-833
874.999	-524
875.048	-79
875.107	783
875.131	1123
875.215	232
875.215	232
875.298	721
875.323	639
875.381	454
875.430	987
875.465	1349
875.538	985
875.548	943
875.631	788
875.646	620
875.714	-280
875.753	-321
875.798	-325
875.861	86
875.881	200
875.964	409
875.968	377
876.047	-75
876.076	254
876.130	775
876.183	444
876.213	309
876.291	1222
876.296	1276
876.379	466
876.398	461
876.462	534
876.506	160
876.545	-238
876.613	-7
876.628	56
876.711	4
876.721	59
876.794	388
876.828	50
876.877	-321
876.935	217
876.960	433
877.043	198
877.043	200
877.125	667
877.150	721
877.208	868
877.258	435
877.291	116
877.365	279
877.374	315
877.456	416
877.472	409
877.539	153
877.579	91
877.622	217
877.687	776
877.704	878
877.787	826
877.794	750
877.869	-68
877.901	105
877.952	423
878.008	729
878.034	842
878.115	135
878.117	124
878.199	-109
878.222	109
878.282	588
878.329	535
878.364	545
878.437	797
878.447	808
878.529	107
878.544	117
878.611	185
878.651	-71
878.694	-281
878.758	396
878.776	630
878.858	619
878.865	627
878.941	530
878.972	489
879.023	232
879.078	-95
879.105	-85
879.185	507
879.187	520
879.269	1008
879.292	1060
879.351	867
879.399	428
879.433	165
879.506	17
879.516	11
879.598	113
879.613	187
879.680	616
879.720	483
879.762	355
879.827	447
879.844	412
879.926	430
879.933	432
880.007	527
880.040	799
880.089	1279
880.147	2016
880.171	2348
880.253	4197
880.254	4223
880.335	7874
880.360	8624
880.417	11058
880.467	13575
880.499	15501
880.574	27534
880.580	28197
880.662	13999
880.680	11372
880.744	2856
880.787	1522
880.825	937
880.893	525
880.907	470
880.989	591
881.000	600
881.070	532
881.106	525
881.152	604
881.213	424
881.233	292
881.315	-143
881.319	-171
881.396	-222
881.426	29
881.478	281
881.532	71
881.559	88
881.639	380
881.641	381
881.722	368
881.745	318
881.803	259
881.852	652
881.885	827
881.958	504
881.966	488
882.047	403
882.064	482
882.129	1071
882.171	1358
882.210	1413
882.277	2739
882.291	3044
882.372	1941
882.383	1836
882.454	646
882.489	258
882.535	122
882.596	72
882.616	20
882.697	-104
882.702	-70
882.778	610
882.808	494
882.859	172
882.914	95
882.940	3
883.020	-167
883.021	-167
883.102	-121
883.127	-230
883.183	-23
883.233	212
883.264	179
883.339	263
883.345	265
883.426	-225
883.445	-160
883.507	36
883.551	-172
883.587	-236
883.657	177
883.668	335
883.749	1352
883.763	1386
883.830	538
883.869	305
883.910	295
883.975	98
883.991	31
884.072	292
884.081	244
884.152	-23
884.187	-85
884.233	-28
884.292	132
884.314	113
884.394	161
884.398	152
884.475	95
884.504	27
884.555	18
884.610	229
884.636	166
884.716	-151
884.716	-147
884.797	54
884.821	216
884.877	235
884.927	-25
884.958	25
885.033	383
885.038	392
885.118	210
885.139	226
885.199	381
885.244	564
885.279	449
885.350	-134
885.359	-144
885.439	341
885.456	295
885.520	-3
885.561	-12
885.600	281
885.667	895
885.680	776
885.760	-148
885.773	-320
885.840	108
885.878	374
885.920	254
885.984	303
886.000	467
886.080	1131
886.089	1169
886.160	671
886.195	615
886.240	537
886.300	191
886.320	209
886.400	485
886.406	487
886.480	612
886.511	762
886.560	859
886.616	762
886.640	721
886.720	822
886.722	816
886.800	474
886.827	384
886.879	100
886.932	-123
886.959	86
887.038	667
887.039	667
887.119	324
887.143	226
887.198	546
887.248	906
887.278	897
887.354	532
887.358	505
887.437	75
887.459	-27
887.517	750
887.564	1320
887.596	919
887.669	48
887.676	66
887.755	144
887.774	198
887.835	455
887.880	643
887.914	480
887.985	-47
887.994	-55
888.073	53
888.090	69
888.153	152
888.195	116
888.232	178
888.300	458
888.311	492
888.391	629
888.405	649
888.470	509
888.510	394
888.549	273
888.615	155
888.628	112
888.708	-165
888.720	-226
888.787	618
888.825	1141
888.866	606
888.930	-266
888.945	-133
889.024	660
889.035	756
889.103	455
889.140	280
889.182	254
889.245	241
889.261	109
889.340	-516
889.349	-589
889.419	495
889.454	1053
889.498	645
889.559	66
889.577	241
889.656	1023
889.664	1100
889.735	905
889.768	807
889.814	752
889.873	680
889.978	66
890.083	584
890.187	557
890.292	1053
890.397	1532
890.501	585
890.606	913
890.710	806
890.815	1150
890.919	638
891.024	288
891.128	689
891.233	653
891.337	351
891.442	-58
891.546	97
891.650	260
891.755	611
891.859	742
891.963	886
892.068	335
892.172	1758
892.276	396
892.380	1062
892.484	271
892.589	739
892.693	346
892.797	904
892.901	304
893.005	922
893.109	307
893.213	1053
893.317	-188
893.421	905
893.525	137
893.629	625
893.733	-53
893.837	218
893.941	-809
894.045	1327
894.148	707
894.252	472
894.356	202
894.460	706
894.564	100
894.667	421
894.771	915
894.875	611
894.978	350
895.082	1043
895.186	255
895.289	486
895.393	427
895.496	883
895.600	220
895.703	656
895.807	262
895.910	693
896.014	-966
896.117	429
896.221	944
896.324	450
896.427	-281
896.531	525
896.634	-783
896.737	785
896.840	352
896.944	523
897.047	729
897.150	1303
897.253	-55
897.356	340
897.460	378
897.563	212
897.666	556
897.769	570
897.872	92
897.975	917
898.078	-563
898.181	543
898.284	126
898.387	103
898.490	173
898.593	1320
898.695	82
898.798	25
898.901	481
899.004	1208
899.107	131
899.209	-344
899.312	-312
899.415	731
899.518	-28
899.620	671
899.723	109
899.826	185
899.928	978
900.031	1288
900.133	-152
900.236	-61
900.338	51
900.441	455
900.543	363
900.646	268
900.748	-202
900.851	446
900.953	229
901.055	288
901.158	213
901.260	604
901.362	10
901.465	855
901.567	-28
901.669	672
901.771	542
901.873	87
901.976	-330
902.078	-325
902.180	-767
902.282	813
902.384	-369
902.486	755
902.588	477
902.690	221
902.792	1048
902.894	467
902.996	577
903.098	221
903.200	-377
903.302	314
903.404	-7
903.505	509
903.607	-342
903.709	46
903.811	30
903.913	48
904.014	-31
904.116	35
904.218	-126
904.319	257
904.421	16
904.523	97
904.624	910
904.726	798
904.827	366
904.929	-136
905.030	353
905.132	304
905.233	452
905.335	-153
905.436	-252
905.537	497
905.639	224
905.740	-544
905.841	-290
905.943	433
906.044	-595
906.145	668
906.247	-83
906.348	513
906.449	-232
906.550	440
906.651	-197
906.752	-125
906.854	235
906.955	-608
907.056	-119
907.157	88
907.258	437
907.359	-234
907.460	-2
907.561	-48
907.662	-710
907.762	-133
907.863	-527
907.964	-366
908.065	367
908.166	-387
908.267	-173
908.367	-48
908.468	370
908.569	474
908.670	-446
908.770	331
908.871	-590
908.971	-185
909.072	291
909.173	-541
909.273	-244
909.374	507
909.474	-165
909.575	-825
909.675	-182
909.776	123
909.876	-68
909.977	595
910.077	-39
910.177	62
910.278	-380
910.378	-148
910.478	31
910.579	435
910.679	209
910.779	415
910.879	1094
910.980	301
911.080	-502
911.180	171
911.280	114
911.380	-61
911.480	-573
911.580	-94
911.680	-48
911.780	-47
911.880	71
911.980	542
912.080	-957
912.180	-177
912.280	-20
912.380	-520
912.480	17
912.580	269
912.679	-427
912.779	675
912.879	447
912.979	32
913.078	-815
913.178	306
913.278	719
913.377	431
913.477	125
913.577	11
913.676	-252
913.776	-46
913.875	1029
913.975	1034
914.074	-259
914.174	198
914.273	314
914.373	248
914.472	206
914.572	-301
914.671	332
914.770	103
914.870	205
914.969	342
915.068	186
915.167	251
915.267	-764
915.366	-61
915.465	161
915.564	304
915.663	105
915.763	606
915.862	409
915.961	109
916.060	18
916.159	-846
916.258	-79
916.357	-277
916.456	-80
916.555	-83
916.654	-362
916.752	491
916.851	-158
916.950	-97
917.049	-148
917.148	-354
917.247	281
917.345	278
917.444	-442
917.543	459
917.642	-562
917.740	462
917.839	-436
917.937	515
918.036	-49
918.135	140
918.233	-240
918.332	511
918.430	-116
918.529	-71
918.627	-24
918.726	560
918.824	-493
918.923	299
919.021	11
919.119	-275
919.218	-13
919.316	350
919.414	-536
919.512	326
919.611	808
919.709	336
919.807	-122
919.905	114
920.003	-5
920.102	151
920.200	511
920.298	120
920.396	297
920.494	542
920.592	-432
920.690	181
920.788	981
920.886	-382
920.984	570
921.082	481
921.180	699
921.277	-350
921.375	32
921.473	373
921.571	-105
921.669	215
921.766	-94
921.864	722
921.962	672
922.060	-82
922.157	153
922.255	555
922.352	245
922.450	-397
922.548	-100
922.645	523
922.743	-74
922.840	1140
922.938	1729
923.035	914
923.133	865
923.230	622
923.327	1399
923.425	1844
923.522	483
923.619	1152
923.717	235
923.814	1345
923.911	465
924.008	1263
924.106	785
924.203	1132
924.300	551
924.397	993
924.494	1035
924.591	316
924.688	235
924.786	1318
924.883	891
924.979	712
925.077	690
925.173	1126
925.270	603
925.367	823
925.464	603
925.561	1065
925.658	373
925.755	691
925.852	1555
925.948	1860
926.045	1489
926.142	1710
926.239	1588
926.335	1245
926.432	1738
926.529	1282
926.625	1659
926.722	1815
926.818	476
926.915	1307
927.011	1013
927.108	509
927.204	362
927.301	723
927.397	199
927.494	1521
927.590	875
927.687	672
927.783	884
927.879	1016
927.976	16
928.072	879
928.168	576
928.264	1419
928.361	1094
928.457	870
928.553	472
928.649	436
928.745	326
928.841	1061
928.937	710
929.033	1010
929.129	204
929.225	-47
929.321	1015
929.417	674
929.513	-166
929.609	857
929.705	912
929.801	1113
929.897	529
929.993	563
930.089	1242
930.184	821
930.280	1176
930.376	875
930.471	1193
930.567	886
930.663	235
930.758	-28
930.854	818
930.950	1309
931.045	986
931.141	1020
931.236	245
931.332	1349
931.427	17
931.523	690
931.618	397
931.714	324
931.809	62
931.905	1235
932.000	392
932.095	-425
932.191	437
932.286	512
932.381	635
932.476	91
932.572	380
932.667	1414
932.762	844
932.857	263
932.952	264
933.047	636
933.142	1140
933.237	450
933.332	266
933.427	1111
933.522	383
933.617	341
933.712	-382
933.807	987
933.902	552
933.997	1570
934.092	924
934.187	-745
934.282	-120
934.376	688
934.471	-86
934.566	292
934.661	8
934.755	499
934.850	-345
934.945	1005
935.039	-342
935.134	884
935.228	-209
935.323	850
935.417	-34
935.512	279
935.606	151
935.701	521
935.795	43
935.890	514
935.984	407
936.079	906
936.173	285
936.267	717
936.362	292
936.456	342
936.550	563
936.644	968
936.738	-82
936.833	491
936.927	747
937.021	113
937.115	-15
937.209	487
937.303	500
937.397	702
937.491	334
937.585	558
937.679	-87
937.773	1485
937.867	486
937.961	337
938.055	554
938.149	583
938.243	-437
938.337	-2
938.430	420
938.524	1093
938.618	632
938.712	2198
938.805	912
938.899	536
938.993	761
939.086	607
939.180	1018
939.274	1592
939.367	1921
939.461	651
939.554	101
939.648	164
939.741	491
939.835	289
939.928	620
940.022	874
940.115	521
940.208	105
940.302	568
940.395	1192
940.488	369
940.582	864
940.675	100
940.768	182
940.861	-57
940.954	118
941.048	431
941.141	-15
941.234	46
941.327	621
941.420	940
941.513	529
941.606	-67
941.699	823
941.792	94
941.885	496
941.978	200
942.071	-261
942.164	-364
942.257	375
942.349	-448
942.442	679
942.535	462
942.628	374
942.721	372
942.813	-135
942.906	239
942.999	156
943.091	-355
943.184	-308
943.277	-432
943.369	594
943.462	-469
943.554	243
943.647	-718
943.739	43
943.832	607
943.924	-67
944.017	105
944.109	-381
944.201	184
944.294	465
944.386	323
944.478	421
944.571	-553
944.663	790
944.755	87
944.847	439
944.940	-87
945.032	-702
945.124	190
945.216	957
945.308	232
945.400	1011
945.492	191
945.584	-67
945.676	-354
945.768	416
945.860	126
945.952	599
946.044	-14
946.136	340
946.228	-61
946.320	-148
946.412	-44
946.503	-11
946.595	870
946.687	395
946.779	-66
946.870	200
946.962	-981
947.054	793
947.145	-473
947.237	-18
947.329	642
947.420	195
947.512	-350
947.603	895
947.695	17
947.786	693
947.878	-53
947.969	1089
948.061	-198
948.152	768
948.243	28
948.335	126
948.426	-432
948.517	-186
948.609	344
948.700	109
948.791	255
948.882	312
948.973	-132
949.065	91
949.156	65
949.247	497
949.338	-57
949.429	-294
949.520	-64
949.611	43
949.702	-308
949.793	819
949.884	-430
949.975	-22
950.066	567
950.157	-51
950.247	193
950.338	92
950.429	-748
950.520	370
950.611	-382
950.701	5
950.792	-571
950.883	86
950.973	-577
951.064	334
951.155	-167
951.245	925
951.336	-360
951.427	-297
951.517	-243
951.608	542
951.698	224
951.788	95
951.879	-261
951.969	648
952.060	-504
952.150	-287
952.240	-411
952.331	-561
952.421	673
952.511	635
952.602	-202
952.692	85
952.782	833
952.872	-194
952.962	-584
953.052	429
953.143	281
953.233	600
953.323	382
953.413	988
953.503	844
953.593	202
953.683	-287
953.773	-248
953.863	471
953.953	-158
954.042	-71
954.132	-150
954.222	183
954.312	369
954.402	50
954.492	-438
954.581	-681
954.671	-176
954.761	-1080
954.850	292
954.940	-757
955.030	-446
955.119	-249
955.209	486
955.298	-787
955.388	281
955.477	-98
955.567	-220
955.656	-657
955.746	140
955.835	-655
955.925	477
956.014	-1081
956.103	-223
956.193	79
956.282	578
956.371	146
956.461	-559
956.550	-450
956.639	-416
956.728	-56
956.817	681
956.906	-789
956.995	-130
957.085	223
957.174	351
957.263	181
957.352	-128
957.441	-632
957.530	479
957.619	-46
957.708	-244
957.796	341
957.885	408
957.974	-1077
958.063	218
958.152	-158
958.241	253
958.329	-445
958.418	28
958.507	-812
958.596	994
958.684	-101
958.773	243
958.861	241
958.950	-296
959.039	-74
959.127	276
959.216	-549
959.304	83
959.393	-163
959.481	-304
959.570	-394
959.658	-502
959.746	476
959.835	274
959.923	-789
960.011	379
960.100	-344
960.188	38
960.276	-157
960.365	-138
960.453	-709
960.541	-737
960.629	-987
960.717	337
960.805	-287
960.893	-69
960.981	-737
961.069	-27
961.158	-103
961.245	521
961.333	151
961.421	343
961.509	-13
961.597	-161
961.685	-250
961.773	-20
961.861	-487
961.949	59
962.036	-990
962.124	-87
962.212	-1008
962.299	598
962.387	-973
962.475	-964
962.562	-969
962.650	328
962.738	-506
962.825	-368
962.913	152
963.000	-258
963.088	-212
963.175	40
963.263	-306
963.350	-736
963.438	-392
963.525	-786
963.612	-105
963.700	-603
963.787	302
963.874	741
963.962	470
964.049	-874
964.136	-625
964.223	422
964.310	-666
964.398	6
964.485	-803
964.572	85
964.659	-188
964.746	77
964.833	272
964.920	-276
965.007	-76
965.094	-632
965.181	-730
965.268	-478
965.355	-172
965.441	130
965.528	-467
965.615	175
965.702	-1054
965.789	-500
965.875	-851
965.962	-192
966.049	-846
966.136	310
966.222	-572
966.309	433
966.395	-209
966.482	-21
966.569	-798
966.655	-150
966.742	-281
966.828	-562
966.915	-809
967.001	-224
967.087	-210
967.174	-360
967.260	-388
967.347	-532
967.433	-459
967.519	449
967.605	-1198
967.692	-543
967.778	-488
967.864	-202
967.950	-612
968.036	-311
968.123	-714
968.209	281
968.295	-321
968.381	367
968.467	-233
968.553	-823
968.639	40
968.725	-820
968.811	-221
968.897	59
968.983	-368
969.069	-857
969.154	238
969.240	214
969.326	-373
969.412	391
969.497	-1064
969.583	8
969.669	337
969.755	598
969.840	-825
969.926	281
970.012	-944
970.097	135
970.183	44
970.268	-39
970.354	-418
970.439	-1292
970.525	-879
970.610	-455
970.696	-358
970.781	-155
970.866	-1118
970.952	126
971.037	-1065
971.122	-342
971.208	-538
971.293	-867
971.378	-1032
971.463	-1223
971.549	-418
971.634	-1242
971.719	-605
971.804	-274
971.889	-668
971.974	-346
972.059	-57
972.144	-301
972.229	-527
972.314	-222
972.399	-1448
972.484	-1133
972.569	-286
972.654	-1102
972.739	-563
972.824	308
972.908	-898
972.993	-502
973.078	-1124
973.163	-594
973.247	-1090
973.332	-919
973.417	-25
973.501	-872
973.586	-888
973.671	-678
973.755	-536
973.840	-229
973.924	133
974.009	51
974.093	-823
974.178	425
974.262	-741
974.346	-232
974.431	-842
974.515	-372
974.600	-1554
974.684	-866
974.768	-920
974.852	-481
974.937	-1688
975.021	-334
975.105	-630
975.189	-769
975.273	-109
975.358	-1070
975.442	-1451
975.526	-501
975.610	-414
975.694	-505
975.778	-1239
975.862	-645
975.946	-1818
976.030	462
976.114	-502
976.198	-545
976.281	-595
976.365	-685
976.449	-400
976.533	-560
976.617	-1358
976.700	115
976.784	-354
976.868	-544
976.951	-449
977.035	-367
977.119	-1853
977.202	-166
977.286	-800
977.369	-64
977.453	648
977.536	-436
977.620	-832
977.703	233
977.787	-821
977.870	-415
977.953	-133
978.037	-633
978.120	-459
978.203	-817
978.287	-561
978.370	-539
978.453	-1333
978.536	351
978.620	-246
978.703	564
978.786	-764
978.869	-565
978.952	-531
979.035	531
979.118	-1021
979.201	-459
979.284	-1338
979.367	-526
979.450	-470
979.533	-187
979.616	-1071
979.699	-413
979.782	-944
979.865	-478
979.948	-362
980.030	-708
980.113	-362
980.196	-1128
980.279	-148
980.361	-916
980.444	-1683
980.526	-227
980.609	-663
980.692	-1113
980.774	59
980.857	-729
980.939	-576
981.022	-264
981.104	-733
981.187	-1143
981.269	-1001
981.352	-685
981.434	-1429
981.516	-1103
981.599	143
981.681	-419
981.763	-873
981.846	-354
981.928	-458
982.010	-870
982.092	-1082
982.174	-598
982.256	-633
982.339	-207
982.421	-781
982.503	-144
982.585	-2054
982.667	32
982.749	-681
982.831	-861
982.913	-1668
982.995	391
983.077	-1009
983.158	-270
983.240	-1700
983.322	-234
983.404	-490
983.486	-868
983.568	-824
983.649	-389
983.731	-265
983.813	-1049
983.894	-418
983.976	-530
984.058	-779
984.139	323
984.221	-929
984.302	213
984.384	-749
984.465	-587
984.547	-9
984.628	-971
984.710	-790
984.791	-264
984.872	-956
984.954	-1324
985.035	-727
985.116	-685
985.198	-768
985.279	252
985.360	-764
985.441	-633
985.522	133
985.604	-455
985.685	-1845
985.766	691
985.847	94
985.928	-575
986.009	-839
986.090	-324
986.171	-452
986.252	-828
986.333	-786
986.414	536
986.495	-711
986.576	-261
986.656	-1123
986.737	-78
986.818	-267
986.899	-7
986.980	-1186
987.060	-645
987.141	-375
987.222	221
987.302	-943
987.383	-1235
987.464	-594
987.544	-266
987.625	-845
987.705	-366
987.786	-486
987.866	218
987.947	-105
988.027	-453
988.108	-836
988.188	228
988.268	-145
988.349	627
988.429	-509
988.509	-217
988.589	-1562
988.670	-2352
988.750	480
988.830	-634
988.910	-370
988.990	-551
989.070	-1366
989.151	-502
989.231	-165
989.311	-163
989.391	-532
989.471	-370
989.551	-388
989.631	-361
989.711	-195
989.791	41
989.870	-1444
989.950	-783
990.030	-198
990.110	-507
990.190	-1055
990.269	-924
990.349	-1121
990.429	-255
990.509	-913
990.588	-496
990.668	-906
990.747	-383
990.827	-1106
990.907	-112
990.986	-948
991.066	-875
991.145	-146
991.225	-15
991.304	-107
991.383	-539
991.463	-1251
991.542	-375
991.622	-1347
991.701	-252
991.780	-853
991.859	-1271
991.939	-380
992.018	-2120
992.097	-298
992.176	-362
992.256	-1089
992.335	-465
992.414	213
992.493	-782
992.572	-826
992.651	178
992.730	-1153
992.809	-1385
992.888	-1016
992.967	-251
993.046	-824
993.125	-349
993.203	-1074
993.282	-238
993.361	-554
993.440	-285
993.519	-918
993.597	-522
993.676	-90
993.755	-309
993.834	-833
993.912	-1068
993.991	63
994.069	-191
994.148	-1191
994.226	-573
994.305	-881
994.384	-431
994.462	-161
994.540	-699
994.619	-1158
994.697	-504
994.776	-361
994.854	35
994.932	-93
995.011	-334
995.089	-897
995.167	-1265
995.245	-314
995.324	-1092
995.402	-939
995.480	-1209
995.558	-1073
995.636	-856
995.714	-1770
995.792	-698
995.870	-1373
995.948	-784
996.026	-744
996.104	-936
996.182	-390
996.260	-458
996.338	-625
996.416	-1487
996.494	-1212
996.572	-261
996.649	-409
996.727	-1075
996.805	-610
996.883	-1188
996.960	-1090
997.038	-453
997.116	-1036
997.193	-1291
997.271	-891
997.348	-609
997.426	-1017
997.504	-853
997.581	-119
997.658	-422
997.736	-1690
997.813	-1719
997.891	-686
997.968	-1124
998.046	-1099
998.123	-81
998.200	-1012
998.277	-1228
998.355	-282
998.432	-887
998.509	-1447
998.586	-549
998.663	-13
998.741	-981
998.818	-2504
998.895	-1497
998.972	-530
999.049	-845
999.126	-1526
999.203	-228
999.280	-98
999.357	-499
999.434	-1047
999.511	-578
999.587	-932
999.664	-1706
999.741	-610
999.818	-905
999.895	-944
999.971	-785
1000.048	-645
1000.125	49
1000.202	-1165
1000.278	-595
1000.355	-904
1000.431	-1016
1000.508	-739
1000.584	-1040
1000.661	-537
1000.738	-557
1000.814	-829
1000.890	-354
1000.967	-1269
1001.043	-591
1001.120	-1733
1001.196	-776
1001.272	-1717
1001.349	-1379
1001.425	-1074
1001.501	-805
1001.577	-1502
1001.654	-979
1001.730	-1568
1001.806	-975
1001.882	-1914
1001.958	-554
1002.034	-27
1002.110	-759
1002.186	-1726
1002.262	-1092
1002.338	-909
1002.414	-554
1002.490	-489
1002.566	-1667
1002.642	-1638
1002.718	26
1002.794	-1515
1002.870	-249
1002.945	-1210
1003.021	-416
1003.097	-700
1003.173	-484
1003.248	-1529
1003.324	-551
1003.400	-1617
1003.475	-559
1003.551	-1843
1003.626	-1496
1003.702	-1748
1003.777	-1027
1003.853	-1690
1003.928	-1707
1004.004	-1546
1004.079	-1358
1004.155	-1145
1004.230	-1444
1004.305	-662
1004.381	-981
1004.456	-1254
1004.531	-417
1004.607	-1414
1004.682	-1645
1004.757	-1505
1004.832	-1150
1004.907	-1579
1004.982	-815
1005.057	-783
1005.133	-1218
1005.208	-1428
1005.283	-607
1005.358	-487
1005.433	-1174
1005.508	-1034
1005.583	-1655
1005.657	-1721
1005.732	-1090
1005.807	-1178
1005.882	-1818
1005.957	-1754
1006.032	-962
1006.106	-920
1006.181	-653
1006.256	-429
1006.331	-1389
1006.405	-1110
1006.480	-636
1006.554	-1582
1006.629	-646
1006.704	-1947
1006.778	-653
1006.853	-1115
1006.927	-1964
1007.002	-579
1007.076	-1328
1007.150	-1289
1007.225	-960
1007.299	-819
1007.373	-1442
1007.448	-1041
1007.522	-495
1007.596	-1234
1007.671	-1330
1007.745	-762
1007.819	-1417
1007.893	-959
1007.967	-1303
1008.041	-1995
1008.115	-601
1008.190	-595
1008.264	-722
1008.338	-1347
1008.412	-1315
1008.486	-515
1008.560	-1215
1008.633	-1052
1008.707	-1783
1008.781	-985
1008.855	-1155
1008.929	-1491
1009.003	-1577
1009.076	-1391
1009.150	-718
1009.224	-1454
1009.298	-807
1009.371	-1551
1009.445	-909
1009.519	-427
1009.592	-1959
1009.666	-1328
1009.739	-998
1009.813	-1698
1009.886	-193
1009.960	-2424
1010.033	-372
1010.107	-1161
1010.180	-2058
1010.253	-1035
1010.327	-640
1010.400	-1402
1010.473	-803
1010.547	-546
1010.620	-1022
1010.693	-1076
1010.766	-1685
1010.840	-227
1010.913	-944
1010.986	-2139
1011.059	-609
1011.132	-532
1011.205	-66
1011.278	-1521
1011.351	-129
1011.424	-1063
1011.497	-355
1011.570	-1208
1011.643	-672
1011.716	-1124
1011.789	-1634
1011.862	-1289
1011.934	-791
1012.007	-2450
1012.080	-1268
1012.153	-2100
1012.225	-12
1012.298	-1109
1012.371	-653
1012.443	-907
1012.516	-944
1012.588	-1302
1012.661	36
1012.733	-1404
1012.806	-1219
1012.879	-1256
1012.951	-1329
1013.023	-889
1013.096	-1360
1013.168	-1231
1013.241	-325
1013.313	-1519
1013.385	-560
1013.458	-735
1013.530	-225
1013.602	-1636
1013.674	-687
1013.746	-955
1013.819	-1374
1013.891	-921
1013.963	-1423
1014.035	-1149
1014.107	-583
1014.179	-1039
1014.251	-1833
1014.323	-1478
1014.395	-1013
1014.467	-554
1014.539	-1057
1014.611	-1448
1014.683	-884
1014.754	-1420
1014.826	-980
1014.898	-1251
1014.970	-1743
1015.042	-1132
1015.113	-264
1015.185	-1184
1015.257	-1496
1015.328	-1074
1015.400	-1404
1015.471	-920
1015.543	-1648
1015.615	-1379
1015.686	-986
1015.757	-1006
1015.829	-1010
1015.901	-1447
1015.972	-1300
1016.043	-477
1016.115	-1221
1016.186	-1027
1016.257	-1258
1016.328	-1003
1016.400	-512
1016.471	-1605
1016.542	-1745
1016.613	-1414
1016.685	-589
1016.756	-657
1016.827	-1604
1016.898	-1660
1016.969	-380
1017.040	-1086
1017.111	-1244
1017.182	-1291
1017.253	-1384
1017.324	-1228
1017.395	-1723
1017.466	-1875
1017.537	-1766
1017.608	-973
1017.678	-1114
1017.749	-1195
1017.820	-549
1017.891	-1160
1017.961	-1661
1018.032	-1573
1018.103	-926
1018.173	-1242
1018.244	-832
1018.315	-2090
1018.385	-816
1018.456	-1101
1018.526	-1083
1018.597	-1334
1018.667	-674
1018.738	-983
1018.808	-1738
1018.878	-1334
1018.949	-578
1019.019	-1783
1019.089	-1222
1019.160	-1926
1019.230	-1135
1019.300	-1189
1019.371	-1424
1019.441	-1234
1019.511	-1580
1019.581	-996
1019.651	-1368
1019.721	-1679
1019.791	-827
1019.861	-1922
1019.931	-744
1020.001	-901
1020.071	-1535
1020.141	-1936
1020.211	-991
1020.281	-1402
1020.351	-2360
1020.421	-1034
1020.491	-339
1020.560	-1811
1020.630	-1376
1020.700	-2318
1020.770	-1482
1020.839	-2115
1020.909	-1146
1020.979	-1527
1021.048	-1755
1021.118	-1358
1021.187	-732
1021.257	-1259
1021.326	-369
1021.396	-1144
1021.465	-1033
1021.535	-1686
1021.604	-2373
1021.674	-574
1021.743	-1430
1021.812	-667
1021.882	-1140
1021.951	-2105
1022.020	-1233
1022.089	-1531
1022.159	-1772
1022.228	-1041
1022.297	-1431
1022.366	-1611
1022.435	-978
1022.504	-2123
1022.573	-1440
1022.642	-770
1022.711	-1903
1022.781	-1432
1022.849	-601
1022.918	-2092
1022.987	-1392
1023.056	-1871
1023.125	-741
1023.194	-1637
1023.263	-2090
1023.331	-1472
1023.400	-850
1023.469	-2019
1023.538	-1490
1023.606	-2223
1023.675	-551
1023.744	-1590
1023.812	-1216
1023.881	-1175
1023.949	-1337
1024.018	-1622
1024.086	-1159
1024.155	-1828
1024.223	-1464
1024.292	-1394
1024.360	-1279
1024.429	-1389
1024.497	-1382
1024.565	-1960
1024.634	-1599
1024.702	-1311
1024.770	-1269
1024.838	-1717
1024.907	-909
1024.975	-2411
1025.043	-934
1025.111	-1865
1025.179	-808
1025.247	-1726
1025.315	-1867
1025.383	-1380
1025.451	-1107
1025.519	-1932
1025.587	-1370
1025.655	-1309
1025.723	-1834
1025.791	-1699
1025.859	-765
1025.927	-1485
1025.995	-1596
1026.062	-1539
1026.130	-1222
1026.198	-2197
1026.266	-1353
1026.333	-880
1026.401	-932
1026.469	-1590
1026.536	-1355
1026.604	-2262
1026.671	-1389
1026.739	-1186
1026.806	-1692
1026.874	-2222
1026.941	-1795
1027.009	-1745
1027.076	-1446
1027.144	-1364
1027.211	-1846
1027.278	-1499
1027.345	-1340
1027.413	-1315
1027.480	-1613
1027.547	-1062
1027.614	-1457
1027.682	-1841
1027.749	-1820
1027.816	-1850
1027.883	-751
1027.950	-1039
1028.017	-2299
1028.084	-1140
1028.151	-1971
1028.218	-1273
1028.285	-1496
1028.352	-1703
1028.419	-1673
1028.486	-2545
1028.553	-1314
1028.619	-2269
1028.686	-727
1028.753	-1375
1028.820	-1450
1028.886	-2591
1028.953	-1738
1029.020	-1502
1029.086	-1710
1029.153	-1510
1029.220	-1528
1029.286	-1373
1029.353	-1452
1029.419	-1517
1029.486	-1441
1029.552	-1887
1029.619	-1604
1029.685	-2280
1029.751	-1426
1029.818	-1522
1029.884	-1922
1029.951	-771
1030.017	-955
1030.083	-1658
1030.149	-1364
1030.216	-2171
1030.282	-2343
1030.348	-1868
1030.414	-1849
1030.480	-1670
1030.546	-1829
1030.612	-2242
1030.678	-1500
1030.744	-1825
1030.810	-1232
1030.876	-2267
1030.942	-738
1031.008	-1605
1031.074	-1867
1031.140	-1803
1031.206	-669
1031.272	-2280
1031.337	-1286
1031.403	-1621
1031.469	-1409
1031.534	-2346
1031.600	-1715
1031.666	-2160
1031.731	-1729
1031.797	-1178
1031.863	-1672
1031.928	-1997
1031.994	-1451
1032.059	-1383
1032.125	-1234
1032.190	-1610
1032.256	-1260
1032.321	-1809
1032.386	-1831
1032.452	-1499
1032.517	-1874
1032.582	-2293
1032.647	-2058
1032.713	-1925
1032.778	-1067
1032.843	-2190
1032.908	-1921
1032.974	-1828
1033.039	-2480
1033.104	-1411
1033.169	-1249
1033.234	-2327
1033.299	-1590
1033.364	-944
1033.429	-1909
1033.494	-1371
1033.559	-1011
1033.624	-1341
1033.688	-1525
1033.753	-2193
1033.818	-1371
1033.883	-1651
1033.948	-1489
1034.013	-1348
1034.077	-1765
1034.142	-1357
1034.207	-1804
1034.271	-1454
1034.336	-770
1034.400	-1781
1034.465	-828
1034.530	-1748
1034.594	-1055
1034.658	-1319
1034.723	-2177
1034.787	-1769
1034.852	-558
1034.916	-2037
1034.981	-1159
1035.045	-1550
1035.109	-1236
1035.173	-1682
1035.238	-1814
1035.302	-2070
1035.366	-2026
1035.430	-1829
1035.495	-2166
1035.559	-1534
1035.623	-1802
1035.687	-1987
1035.751	-1531
1035.815	-1841
1035.879	-1694
1035.943	-1648
1036.007	-2170
1036.071	-2181
1036.135	-1881
1036.198	-2550
1036.262	-2197
1036.326	-1730
1036.390	-1572
1036.454	-2626
1036.517	-1191
1036.581	-1665
1036.645	-1496
1036.709	-592
1036.772	-1248
1036.836	-1161
1036.900	-1736
1036.963	-2220
1037.026	-1601
1037.090	-1623
1037.154	-1627
1037.217	-1637
1037.280	-2413
1037.344	-1455
1037.407	-2407
1037.471	-1837
1037.534	-1791
1037.597	-1970
1037.661	-2088
1037.724	-1887
1037.787	-1216
1037.850	-1333
1037.913	-1579
1037.977	-1043
1038.040	-1764
1038.103	-2089
1038.166	-1019
1038.229	-1145
1038.292	-796
1038.355	-1262
1038.418	-1284
1038.481	-2115
1038.544	-2067
1038.607	-2362
1038.670	-2176
1038.732	-1828
1038.795	-1928
1038.858	-2304
1038.921	-1504
1038.984	-1763
1039.046	-1279
1039.109	-1296
1039.172	-1834
1039.234	-2391
1039.297	-1408
1039.360	-1877
1039.422	-1845
1039.485	-2238
1039.547	-1292
1039.610	-1467
1039.672	-2053
1039.734	-2617
1039.797	-1741
1039.859	-1519
1039.922	-1631
1039.984	-1696
1040.046	-1111
1040.109	-2417
1040.171	-2074
1040.233	-1750
1040.295	-1838
1040.358	-2889
1040.420	-2157
1040.482	-1950
1040.544	-1701
1040.606	-1474
1040.668	-656
1040.730	-2299
1040.792	-1596
1040.854	-798
1040.916	-1293
1040.978	-2242
1041.040	-1113
1041.102	-2359
1041.164	-756
1041.225	-2546
1041.287	-2504
1041.349	-2611
1041.411	-1224
1041.472	-2032
1041.534	-2202
1041.596	-1481
1041.657	-1961
1041.719	-1661
1041.781	-1083
1041.842	-1886
1041.904	-1254
1041.965	-1901
1042.027	-1626
1042.088	-1830
1042.150	-1838
1042.211	-2052
1042.272	-594
1042.334	-2310
1042.395	-1569
1042.456	-1964
1042.518	-1214
1042.579	-2013
1042.640	-1133
1042.701	-1533
1042.763	-1218
1042.824	-1936
1042.885	-1009
1042.946	-2457
1043.007	-1235
1043.068	-1597
1043.129	-1398
1043.190	-2229
1043.251	-1007
1043.312	-1644
1043.373	-448
1043.434	-2634
1043.495	-1323
1043.556	-1786
1043.616	-1808
1043.677	-2270
1043.738	-1083
1043.799	-1862
1043.859	-1792
1043.920	-1736
1043.981	-1271
1044.041	-2087
1044.102	-1477
1044.162	-1533
1044.223	-2270
1044.284	-1485
1044.344	-971
1044.405	-2370
1044.465	-1423
1044.525	-1606
1044.586	-2154
1044.646	-2026
1044.707	-1567
1044.767	-1931
1044.827	-1961
1044.887	-1666
1044.948	-1056
1045.008	-2091
1045.068	-1263
1045.128	-1430
1045.188	-916
1045.249	-841
1045.309	-1487
1045.369	-1245
1045.429	-885
1045.489	-1842
1045.549	-1615
1045.609	-2106
1045.669	-1088
1045.729	-1706
1045.789	-1734
1045.848	-1849
1045.908	-1266
1045.968	-661
1046.028	-1749
1046.088	-2121
1046.147	-275
1046.207	-865
1046.267	-1343
1046.326	-768
1046.386	-909
1046.446	-2040
1046.505	-1099
1046.565	-704
1046.624	-415
1046.684	-509
1046.743	-630
1046.803	-101
1046.862	570
1046.922	0
