'Start Wavelength	183.907
'End Wavelength	1046.922
'Gate Delay	5.000
'Gate Width (ms)	1.050
'Laser Output Level	0.000
'X Position	0.000
'Y Position	0.000
'Z Position	0.000
'Grid Point Number	1.000
'Shot Number	100.000
183.907	1451.000
183.977	272.000
184.047	721
184.116	28
184.186	997
184.256	-105
184.325	758
184.395	123
184.465	1038
184.534	497
184.604	608
184.674	-43
184.743	934
184.813	1146
184.883	1488
184.952	827
185.022	990
185.092	764
185.161	1402
185.231	1129
185.301	1345
185.370	1535
185.440	755
185.509	1306
185.579	805
185.649	828
185.718	1506
185.788	1119
185.857	631
185.927	749
185.996	1876
186.066	82
186.136	1266
186.205	748
186.275	1266
186.344	1559
186.414	758
186.483	580
186.553	2627
186.622	3463
186.692	1670
186.761	270
186.831	932
186.900	1176
186.970	1625
187.039	914
187.109	1977
187.178	1638
187.248	1921
187.317	1661
187.387	1388
187.456	1332
187.526	2114
187.595	1564
187.664	1972
187.734	1657
187.803	2171
187.873	1550
187.942	2339
188.012	1515
188.081	1295
188.150	1370
188.220	2983
188.289	2676
188.358	2108
188.428	1763
188.497	1558
188.567	1765
188.636	1302
188.705	1670
188.775	1222
188.844	1599
188.913	1799
188.983	1568
189.052	1416
189.121	1253
189.191	2875
189.260	2028
189.329	2948
189.399	1233
189.468	1397
189.537	1317
189.606	1706
189.676	1830
189.745	2913
189.814	2740
189.883	2493
189.953	1419
190.022	4011
190.091	11174
190.161	9832
190.230	3587
190.299	2030
190.368	2204
190.437	1928
190.507	2493
190.576	2440
190.645	1675
190.714	1898
190.783	2131
190.853	2208
190.922	3225
190.991	3340
191.060	3410
191.129	2994
191.198	2554
191.268	2061
191.337	2055
191.406	2998
191.475	1747
191.544	1364
191.613	2008
191.682	1262
191.752	2001
191.821	2151
191.890	2495
191.959	2614
192.028	1686
192.097	2435
192.166	1662
192.235	1610
192.304	1646
192.373	1478
192.442	1342
192.511	1990
192.580	1571
192.650	1826
192.719	1493
192.788	2374
192.857	2134
192.926	2405
192.995	3281
193.064	3946
193.133	4509
193.202	6028
193.271	4660
193.340	4622
193.409	5380
193.478	5696
193.547	6642
193.615	8647
193.684	7457
193.753	5319
193.822	3820
193.891	3661
193.960	3263
194.029	3295
194.098	1958
194.167	2297
194.236	2620
194.305	2238
194.374	1469
194.443	2259
194.512	3186
194.580	3209
194.649	4579
194.718	3330
194.787	2729
194.856	1660
194.925	2523
194.994	3367
195.062	3219
195.131	4148
195.200	3806
195.269	5936
195.338	3490
195.407	3203
195.475	2719
195.544	4704
195.613	3338
195.682	2641
195.751	5600
195.819	5155
195.888	3007
195.957	5620
196.026	5757
196.094	5799
196.163	5777
196.232	5069
196.301	3941
196.369	4608
196.438	3156
196.507	3843
196.576	2320
196.644	2066
196.713	1708
196.782	2970
196.850	3049
196.919	1998
196.988	3334
197.056	2663
197.125	2608
197.194	2897
197.262	1497
197.331	2904
197.400	2327
197.468	3185
197.537	2277
197.606	3765
197.674	6590
197.743	10283
197.812	4711
197.880	12408
197.949	6436
198.017	10993
198.086	5307
198.155	3771
198.223	5134
198.292	11813
198.360	4280
198.429	4165
198.497	4169
198.566	9647
198.635	9375
198.703	4542
198.772	3525
198.840	14947
198.909	10429
198.977	4445
199.046	4470
199.114	4267
199.183	4316
199.251	3421
199.320	3205
199.388	3457
199.457	3988
199.525	3597
199.594	3264
199.662	2718
199.731	2748
199.799	4385
199.867	3920
199.936	3788
200.004	3469
200.073	4552
200.141	3117
200.210	2926
200.278	2619
200.346	3547
200.415	4258
200.483	4561
200.552	3356
200.620	3689
200.688	3142
200.757	3560
200.825	3667
200.893	3742
200.962	2936
201.030	2873
201.098	3674
201.167	3905
201.235	3588
201.303	3590
201.372	3419
201.440	3357
201.508	4445
201.577	4143
201.645	4048
201.713	3040
201.781	4522
201.850	4709
201.918	4433
201.986	4799
202.055	3796
202.123	3726
202.191	4112
202.259	4107
202.327	3383
202.396	4641
202.464	5637
202.532	7935
202.600	17973
202.669	7664
202.737	4146
202.805	2645
202.873	3939
202.941	4376
203.009	3226
203.078	4107
203.146	3932
203.214	4656
203.282	4296
203.350	4560
203.418	3746
203.487	3690
203.555	2950
203.623	4706
203.691	3520
203.759	4078
203.827	3144
203.895	4886
203.963	4371
204.031	4445
204.099	4517
204.168	4414
204.236	4700
204.304	3869
204.372	6134
204.440	4911
204.508	3540
204.576	3081
204.644	4481
204.712	3289
204.780	3324
204.848	3843
204.916	3061
204.984	4239
205.052	4219
205.120	5783
205.188	3775
205.256	3839
205.324	4019
205.392	3993
205.460	5826
205.528	6112
205.596	4460
205.664	3978
205.732	5218
205.799	18265
205.867	19313
205.935	6664
206.003	4490
206.071	4864
206.139	4823
206.207	7596
206.275	5760
206.343	5017
206.411	4569
206.478	4530
206.546	5151
206.614	5083
206.682	4173
206.750	4323
206.818	6329
206.885	6225
206.953	3430
207.021	4964
207.089	3906
207.157	4669
207.225	4845
207.292	4342
207.360	4606
207.428	4323
207.496	4114
207.563	4654
207.631	3760
207.699	3625
207.767	4661
207.834	3935
207.902	4536
207.970	4933
208.038	5059
208.105	4977
208.173	5576
208.241	6869
208.309	6357
208.376	6843
208.444	11488
208.512	6088
208.579	4442
208.647	6590
208.715	6222
208.782	6021
208.850	5026
208.918	5111
208.985	5019
209.053	5149
209.120	4434
209.188	4658
209.256	4836
209.323	5386
209.391	8334
209.459	6141
209.526	4559
209.594	4704
209.661	4800
209.729	5739
209.796	5179
209.864	5290
209.932	4942
209.999	5738
210.067	7362
210.134	6587
210.202	6603
210.269	8698
210.337	9393
210.404	5618
210.472	5725
210.539	6184
210.607	7536
210.674	8610
210.742	5894
210.809	5643
210.877	7127
210.944	7430
211.012	6990
211.079	7429
211.146	5992
211.214	7713
211.281	12038
211.349	8551
211.416	6452
211.484	7720
211.551	6263
211.618	6574
211.686	5754
211.753	5525
211.821	6041
211.888	5824
211.955	6628
212.023	6536
212.090	6645
212.157	6774
212.225	8307
212.292	15524
212.359	30440
212.427	63437
212.494	22338
212.561	11461
212.629	8749
212.696	7800
212.763	6272
212.831	6384
212.898	6076
212.965	6019
213.032	6981
213.100	8507
213.167	9161
213.234	8223
213.301	7060
213.369	7225
213.436	6782
213.503	6340
213.570	10602
213.638	10539
213.705	5642
213.772	6476
213.839	14463
213.906	11359
213.973	9793
214.041	7084
214.108	6713
214.175	7171
214.242	7032
214.309	6802
214.376	7171
214.444	7438
214.511	8638
214.578	7598
214.645	7119
214.712	8119
214.779	7670
214.846	7849
214.913	9266
214.980	10073
215.048	11144
215.115	11356
215.182	10347
215.249	8651
215.316	7791
215.383	7004
215.450	7328
215.517	7490
215.584	7253
215.651	7017
215.718	6835
215.785	8752
215.852	10873
215.919	11917
215.986	10767
216.053	6588
216.120	6290
216.187	9018
216.254	8915
216.321	7937
216.388	8786
216.455	11602
216.522	13510
216.589	13093
216.656	20049
216.722	16264
216.789	12236
216.856	12424
216.923	10692
216.990	9836
217.057	9056
217.124	13294
217.191	11354
217.258	14240
217.324	16627
217.391	16809
217.458	11604
217.525	10230
217.592	8466
217.659	8926
217.725	9584
217.792	16096
217.859	15183
217.926	13576
217.993	7172
218.059	7034
218.126	8162
218.193	12077
218.260	5880
218.327	5410
218.393	6065
218.460	4851
218.527	4669
218.594	8165
218.660	15675
218.727	14965
218.794	6006
218.860	5948
218.927	5491
218.994	5844
219.061	5994
219.127	8979
219.194	14873
219.261	8633
219.327	5056
219.394	4795
219.461	4627
219.527	4730
219.594	9913
219.661	6522
219.727	4375
219.794	6695
219.860	6397
219.927	18316
219.994	26666
220.060	21551
220.127	11371
220.193	8101
220.260	8550
220.326	13040
220.393	21001
220.460	25421
220.526	14775
220.593	11287
220.659	10668
220.726	14054
220.792	32956
220.859	26223
220.925	34527
220.992	44305
221.058	44761
221.125	39362
221.191	29076
221.258	12631
221.324	10736
221.391	11736
221.457	19020
221.524	13495
221.590	15936
221.657	43422
221.723	21416
221.789	29370
221.856	19433
221.922	11324
221.989	8348
222.055	7879
222.121	7526
222.188	9336
222.254	7108
222.321	6680
222.387	5038
222.453	5270
222.520	8397
222.586	10692
222.652	7758
222.719	13599
222.785	21995
222.851	9631
222.918	7018
222.984	20516
223.050	16537
223.116	8937
223.183	5700
223.249	4457
223.315	4008
223.382	5407
223.448	5037
223.514	3853
223.580	3697
223.647	3845
223.713	3598
223.779	4135
223.845	5545
223.911	4149
223.978	4450
224.044	4831
224.110	4599
224.176	4217
224.242	6606
224.309	4516
224.375	4108
224.441	4910
224.507	4353
224.573	4822
224.639	5851
224.705	8977
224.772	4766
224.838	4732
224.904	8049
224.970	5938
225.036	5851
225.102	7011
225.168	7014
225.234	4987
225.300	7599
225.366	4920
225.432	4460
225.499	5735
225.565	6819
225.631	6592
225.697	6382
225.763	6860
225.829	7644
225.895	9965
225.961	17320
226.027	14491
226.093	13658
226.159	13601
226.225	18691
226.291	49064
226.357	64353
226.423	33249
226.489	19352
226.554	13375
226.620	12805
226.686	20573
226.752	31155
226.818	43773
226.884	98774
226.950	65513
227.016	24668
227.082	15997
227.148	14202
227.214	15722
227.279	15267
227.345	11858
227.411	10691
227.477	10758
227.543	22534
227.609	21616
227.674	14343
227.740	9889
227.806	7997
227.872	6861
227.938	10355
228.003	20213
228.069	7789
228.135	5364
228.201	5317
228.267	6593
228.332	8400
228.398	14079
228.464	7286
228.530	5050
228.595	5576
228.661	7213
228.727	14665
228.792	9697
228.858	6376
228.924	8186
228.990	9605
229.055	11070
229.121	11154
229.187	6832
229.252	9318
229.318	7619
229.384	17339
229.449	14213
229.515	5629
229.581	4086
229.646	6867
229.712	9699
229.777	22367
229.843	18229
229.909	15076
229.974	16893
230.040	12236
230.105	9670
230.171	11192
230.236	15708
230.302	24454
230.368	16096
230.433	8823
230.499	8851
230.564	12897
230.630	7630
230.695	5709
230.761	6214
230.826	5082
230.892	12996
230.957	6571
231.023	5512
231.088	5291
231.154	5563
231.219	6784
231.284	13323
231.350	10540
231.415	6489
231.481	5182
231.546	5123
231.612	4252
231.677	4679
231.742	4787
231.808	6827
231.873	5604
231.939	5544
232.004	13702
232.069	10730
232.135	7329
232.200	5884
232.265	4663
232.331	5282
232.396	3796
232.461	4055
232.527	5070
232.592	5733
232.657	8099
232.723	27709
232.788	13716
232.853	6442
232.918	5060
232.984	6598
233.049	6560
233.114	27782
233.179	15953
233.245	34906
233.310	29242
233.375	8852
233.440	8160
233.506	5993
233.571	5216
233.636	7047
233.701	8180
233.766	30430
233.832	26537
233.897	12351
233.962	12643
234.027	13564
234.092	12451
234.157	11272
234.222	12726
234.288	26522
234.353	77276
234.418	65117
234.483	29001
234.548	19647
234.613	13578
234.678	13797
234.743	22509
234.808	85888
234.873	36323
234.938	13830
235.004	11109
235.069	12342
235.134	11074
235.199	9885
235.264	8291
235.329	7792
235.394	10052
235.459	21812
235.524	16461
235.589	10186
235.654	7709
235.719	8236
235.784	8899
235.849	17680
235.913	44696
235.978	57574
236.043	49598
236.108	15259
236.173	20985
236.238	17149
236.303	10805
236.368	12158
236.433	29210
236.498	44788
236.563	20585
236.627	43729
236.692	128696
236.757	74379
236.822	43896
236.887	38338
236.952	24544
237.017	23925
237.081	23696
237.146	30846
237.211	52708
237.276	135658
237.341	195089
237.405	83592
237.470	40447
237.535	36130
237.600	18348
237.664	15824
237.729	13885
237.794	21676
237.859	33172
237.923	40098
237.988	19918
238.053	41640
238.118	36041
238.182	106191
238.247	65256
238.312	53111
238.376	26778
238.441	29666
238.506	18743
238.570	10059
238.635	11172
238.700	10853
238.764	12636
238.829	52385
238.893	43094
238.958	20504
239.023	15807
239.087	12140
239.152	15548
239.216	10293
239.281	9861
239.346	10794
239.410	10097
239.475	21311
239.539	107574
239.604	53842
239.668	17453
239.733	11433
239.797	17104
239.862	43643
239.926	68407
239.991	23536
240.055	12871
240.120	12019
240.184	12000
240.249	13032
240.313	11612
240.378	17375
240.442	71987
240.507	77519
240.571	22629
240.635	54643
240.700	44908
240.764	17633
240.829	12063
240.893	10521
240.957	14123
241.022	64626
241.086	92627
241.151	37806
241.215	14197
241.279	30427
241.344	50689
241.408	17817
241.472	12309
241.537	13201
241.601	10927
241.665	9784
241.730	10962
241.794	14384
241.858	11396
241.922	10758
241.987	9129
242.051	9335
242.115	10664
242.179	9643
242.244	8943
242.308	10842
242.372	16965
242.436	23686
242.501	12051
242.565	9872
242.629	8668
242.693	9345
242.757	8294
242.822	13853
242.886	13151
242.950	15141
243.014	18197
243.078	16390
243.142	15152
243.206	17030
243.271	18757
243.335	17425
243.399	22542
243.463	100264
243.527	169913
243.591	45431
243.655	23687
243.719	15403
243.783	16739
243.847	28642
243.911	39996
243.975	57326
244.040	32519
244.104	17743
244.168	14625
244.232	31538
244.296	32029
244.360	30106
244.424	27169
244.488	22580
244.552	21150
244.615	15662
244.679	13306
244.743	21450
244.807	16871
244.871	10946
244.935	10309
244.999	11988
245.063	13518
245.127	15665
245.191	24681
245.255	19496
245.319	21766
245.383	18016
245.446	15954
245.510	12600
245.574	15006
245.638	13846
245.702	17911
245.766	37088
245.829	22530
245.893	23958
245.957	14989
246.021	17388
246.085	20983
246.149	31057
246.212	59044
246.276	62407
246.340	32396
246.404	24988
246.467	29501
246.531	41079
246.595	23758
246.659	27185
246.722	24458
246.786	27398
246.850	31211
246.913	32733
246.977	16447
247.041	21237
247.104	22026
247.168	20365
247.232	56081
247.295	91686
247.359	37040
247.423	25539
247.486	43774
247.550	23699
247.614	23227
247.677	29221
247.741	18508
247.804	18021
247.868	22539
247.932	54012
247.995	81043
248.059	31579
248.122	19574
248.186	27813
248.249	52183
248.313	156202
248.376	126694
248.440	81975
248.503	30954
248.567	30427
248.630	52355
248.694	63091
248.757	78770
248.821	143741
248.884	74717
248.948	96956
249.011	116765
249.075	178710
249.138	127030
249.202	58701
249.265	48605
249.328	81743
249.392	41557
249.455	26385
249.519	21693
249.582	32721
249.645	49609
249.709	32113
249.772	27594
249.835	26389
249.899	38265
249.962	23208
250.025	21435
250.089	65538
250.152	68568
250.215	38153
250.279	30613
250.342	34485
250.405	29359
250.468	26140
250.532	35189
250.595	54321
250.658	210692
250.721	221446
250.785	83277
250.848	42923
250.911	28405
250.974	25997
251.038	49107
251.101	79899
251.164	56422
251.227	53733
251.290	41193
251.354	68525
251.417	268449
251.480	178422
251.543	161713
251.606	436919
251.669	231386
251.732	108276
251.795	121031
251.859	123894
251.922	270815
251.985	114905
252.048	56067
252.111	47410
252.174	49581
252.237	99668
252.300	169634
252.363	214767
252.426	320447
252.489	134141
252.552	109782
252.615	76417
252.678	69625
252.741	137664
252.804	189257
252.867	328998
252.930	200597
252.993	122511
253.056	73221
253.119	68214
253.182	50497
253.245	72961
253.308	55774
253.371	80689
253.434	72742
253.497	65420
253.559	101587
253.622	71926
253.685	120591
253.748	86555
253.811	48798
253.874	90654
253.937	66164
254.000	41845
254.062	78673
254.125	89909
254.188	110645
254.251	71470
254.314	47716
254.376	90575
254.439	78976
254.502	71898
254.565	79083
254.628	111073
254.690	76891
254.753	44469
254.816	41384
254.878	50897
254.941	88711
255.004	65995
255.067	43370
255.129	38647
255.192	20355
255.255	22350
255.317	26158
255.380	18012
255.443	15580
255.505	18080
255.568	20741
255.631	20996
255.693	19372
255.756	15451
255.819	15257
255.881	14075
255.944	13989
256.006	18268
256.069	16256
256.132	17191
256.194	35546
256.257	102923
256.319	71501
256.382	57912
256.444	23110
256.507	17709
256.569	15323
256.632	22149
256.694	47602
256.757	83834
256.819	158541
256.882	55321
256.944	29052
257.007	27693
257.069	38989
257.132	25809
257.194	17976
257.257	20740
257.319	20075
257.381	24732
257.444	64856
257.506	234747
257.569	200089
257.631	133628
257.693	65117
257.756	41005
257.818	44160
257.880	21055
257.943	20252
258.005	17452
258.067	19078
258.130	18726
258.192	31145
258.254	77108
258.317	32185
258.379	22043
258.441	61845
258.503	42276
258.566	120486
258.628	94808
258.690	26203
258.753	27939
258.815	50075
258.877	23309
258.939	16238
259.001	15725
259.064	16721
259.126	39187
259.188	43065
259.250	26163
259.312	39366
259.375	100067
259.437	41358
259.499	19745
259.561	18288
259.623	21469
259.685	22254
259.747	25365
259.809	118292
259.872	152652
259.934	269180
259.996	156922
260.058	44390
260.120	23740
260.182	17518
260.244	16729
260.306	15750
260.368	17993
260.430	19865
260.492	53170
260.554	94013
260.616	60335
260.678	148314
260.740	138997
260.802	36732
260.864	30996
260.926	25658
260.988	25214
261.050	26788
261.112	81036
261.174	193702
261.236	101413
261.298	38086
261.359	104483
261.421	94725
261.483	28059
261.545	23191
261.607	16674
261.669	18941
261.731	75074
261.793	118885
261.854	46963
261.916	29773
261.978	30157
262.040	34983
262.102	27077
262.164	68204
262.225	33891
262.287	21484
262.349	57725
262.411	33217
262.472	21639
262.534	82279
262.596	112940
262.658	33205
262.719	23234
262.781	46993
262.843	123696
262.904	40799
262.966	37530
263.028	42731
263.090	246838
263.151	357406
263.213	110845
263.275	61916
263.336	28299
263.398	21087
263.459	17295
263.521	20930
263.583	51241
263.644	27286
263.706	15424
263.767	14167
263.829	13632
263.891	11739
263.952	12318
264.014	12063
264.075	36654
264.137	60928
264.198	26366
264.260	13450
264.321	13820
264.383	54404
264.444	86640
264.506	25477
264.567	20311
264.629	47679
264.690	69848
264.752	25395
264.813	18056
264.875	13872
264.936	15537
264.998	13748
265.059	12023
265.120	12035
265.182	23223
265.243	97490
265.305	58622
265.366	18864
265.427	14028
265.489	12557
265.550	11190
265.611	17793
265.673	16737
265.734	13957
265.795	11523
265.857	11596
265.918	13206
265.979	31824
266.040	159570
266.102	78461
266.163	34786
266.224	32271
266.286	17505
266.347	13093
266.408	16716
266.469	25371
266.530	15344
266.592	13306
266.653	43570
266.714	48408
266.775	15789
266.836	11544
266.898	12377
266.959	27964
267.020	15203
267.081	11742
267.142	9631
267.203	10120
267.264	9480
267.326	11542
267.387	10263
267.448	8832
267.509	11621
267.570	9712
267.631	9917
267.692	8008
267.753	10324
267.814	11187
267.875	35846
267.936	54181
267.997	33772
268.058	23361
268.119	15218
268.180	15909
268.241	12432
268.302	11476
268.363	12098
268.424	15190
268.485	20328
268.546	11766
268.607	9023
268.668	8456
268.729	9246
268.790	14145
268.851	17520
268.912	51370
268.972	42680
269.033	23860
269.094	12679
269.155	10567
269.216	12793
269.277	19310
269.338	12200
269.398	11482
269.459	16946
269.520	22008
269.581	32000
269.642	33195
269.702	21746
269.763	15173
269.824	12281
269.885	22885
269.945	26332
270.006	11517
270.067	10021
270.128	10615
270.188	11953
270.249	12221
270.310	10014
270.370	13307
270.431	16730
270.492	10668
270.553	14418
270.613	40072
270.674	60310
270.734	23012
270.795	15077
270.856	27783
270.916	19359
270.977	14548
271.038	19245
271.098	16990
271.159	36983
271.219	29328
271.280	14638
271.340	13279
271.401	33537
271.462	80230
271.522	29427
271.583	21129
271.643	23238
271.704	16885
271.764	22420
271.825	53827
271.885	151492
271.946	138151
272.006	50219
272.066	91017
272.127	103078
272.187	33256
272.248	23978
272.308	31632
272.369	88685
272.429	39820
272.489	59898
272.550	45448
272.610	51215
272.671	33025
272.731	67764
272.791	87161
272.852	35233
272.912	28647
272.972	17261
273.033	22555
273.093	47676
273.153	31978
273.214	21676
273.274	26628
273.334	104381
273.394	123070
273.455	53464
273.515	73050
273.575	120734
273.635	47307
273.696	110588
273.756	123837
273.816	47147
273.876	37828
273.936	151840
273.997	164488
274.057	42901
274.117	34977
274.177	54973
274.237	193918
274.297	156053
274.358	145621
274.418	117706
274.478	74974
274.538	38304
274.598	56345
274.658	214334
274.718	208397
274.778	66989
274.838	42914
274.898	159283
274.958	309414
275.018	162719
275.078	79744
275.138	44235
275.198	27707
275.258	24232
275.318	45348
275.378	63692
275.438	50348
275.498	41126
275.558	168718
275.618	210419
275.678	88761
275.738	71945
275.798	52052
275.858	30618
275.918	17842
275.978	25127
276.038	19188
276.098	19425
276.157	55867
276.217	102459
276.277	41590
276.337	33330
276.397	21362
276.457	28390
276.517	19653
276.576	15921
276.636	17894
276.696	34928
276.756	83791
276.815	42421
276.875	26845
276.935	35956
276.995	21914
277.055	15646
277.114	16742
277.174	32920
277.234	74344
277.293	30044
277.353	20497
277.413	15796
277.472	21881
277.532	19812
277.592	23118
277.651	83486
277.711	89964
277.771	45397
277.830	155938
277.890	82322
277.950	106581
278.009	189034
278.069	58147
278.128	91664
278.188	89342
278.248	49932
278.307	123492
278.367	59896
278.426	30249
278.486	21249
278.545	18195
278.605	16201
278.664	15844
278.724	19447
278.783	69650
278.843	108444
278.902	31767
278.962	29142
279.021	33295
279.081	69434
279.140	48777
279.199	34437
279.259	31669
279.318	33651
279.378	45942
279.437	89340
279.496	294213
279.556	796080
279.615	448035
279.675	144279
279.734	93516
279.793	178054
279.853	170222
279.912	61341
279.971	44730
280.031	41623
280.090	82914
280.149	102301
280.208	146851
280.268	610145
280.327	389764
280.386	115830
280.445	99222
280.505	71483
280.564	41274
280.623	35419
280.682	60278
280.742	61680
280.801	24709
280.860	21293
280.919	21386
280.978	19717
281.037	23647
281.097	18320
281.156	16756
281.215	17130
281.274	26025
281.333	97716
281.392	46742
281.451	17686
281.510	14559
281.569	15744
281.628	14316
281.688	12752
281.747	18522
281.806	20062
281.865	12351
281.924	14996
281.983	13774
282.042	11313
282.101	11467
282.160	12312
282.219	10939
282.278	18025
282.337	56993
282.396	27473
282.454	21218
282.513	28848
282.572	80166
282.631	32279
282.690	16427
282.749	15874
282.808	23328
282.867	24051
282.926	17911
282.985	11418
283.043	10431
283.102	13125
283.161	21670
283.220	65519
283.279	77727
283.338	22943
283.396	17392
283.455	16445
283.514	18821
283.573	29511
283.631	20168
283.690	14615
283.749	14026
283.808	39926
283.866	32246
283.925	14984
283.984	16190
284.043	25171
284.101	22850
284.160	23463
284.219	38474
284.277	21505
284.336	38245
284.395	110875
284.453	59417
284.512	27289
284.570	40359
284.629	27852
284.688	25600
284.746	24893
284.805	29239
284.863	40324
284.922	44488
284.981	48631
285.039	66552
285.098	122019
285.156	331432
285.215	612137
285.273	490257
285.332	228502
285.390	124645
285.449	77646
285.507	52140
285.566	41722
285.624	35127
285.683	27830
285.741	23441
285.799	24055
285.858	26751
285.916	20872
285.975	15056
286.033	14461
286.091	13686
286.150	12983
286.208	19120
286.267	24829
286.325	21239
286.383	30338
286.442	21418
286.500	12900
286.558	11249
286.616	12015
286.675	19185
286.733	15804
286.791	15523
286.850	19878
286.908	32468
286.966	36489
287.024	17044
287.083	13661
287.141	11732
287.199	14212
287.257	22878
287.315	15509
287.374	22613
287.432	42808
287.490	23366
287.548	20454
287.606	15069
287.664	16319
287.723	35186
287.781	40078
287.839	19526
287.897	24028
287.955	27788
288.013	38924
288.071	86417
288.129	388360
288.187	692691
288.245	234011
288.303	92001
288.361	61286
288.419	62248
288.477	36637
288.535	23906
288.593	19740
288.651	18930
288.709	14885
288.767	16750
288.825	16182
288.883	16356
288.941	15536
288.999	13789
289.057	13378
289.115	17794
289.173	16969
289.231	16929
289.289	18889
289.346	15988
289.404	17721
289.462	30918
289.520	26829
289.578	13258
289.636	9768
289.694	8984
289.751	9243
289.809	9359
289.867	9887
289.925	16162
289.983	16932
290.040	9121
290.098	9763
290.156	14746
290.214	16783
290.271	9974
290.329	9751
290.387	8423
290.444	8253
290.502	6518
290.560	10556
290.617	12970
290.675	13403
290.733	13016
290.790	14612
290.848	12296
290.906	20175
290.963	16308
291.021	17240
291.078	14384
291.136	17742
291.194	66922
291.251	84104
291.309	22981
291.366	13994
291.424	13579
291.481	13589
291.539	12154
291.596	10840
291.654	9547
291.711	9258
291.769	17118
291.826	32806
291.884	17412
291.941	12550
291.999	12855
292.056	17615
292.114	14766
292.171	11824
292.228	13931
292.286	20195
292.343	39482
292.401	45535
292.458	30067
292.515	21615
292.573	23550
292.630	24121
292.687	27638
292.745	18695
292.802	32485
292.859	77406
292.917	96047
292.974	43891
293.031	20067
293.089	18012
293.146	14599
293.203	12477
293.260	13490
293.318	26382
293.375	31679
293.432	17212
293.489	12779
293.546	13918
293.604	25603
293.661	78427
293.718	123751
293.775	60680
293.832	36304
293.889	30403
293.947	35690
294.004	22774
294.061	24555
294.118	54763
294.175	99661
294.232	99197
294.289	37342
294.346	24258
294.403	21913
294.460	29849
294.517	22427
294.574	18496
294.631	17427
294.688	21559
294.745	61574
294.802	172690
294.859	143050
294.916	70217
294.973	46462
295.030	37144
295.087	27312
295.144	19891
295.201	18307
295.258	17357
295.315	23455
295.372	79498
295.429	92322
295.486	42335
295.542	33806
295.599	97484
295.656	112781
295.713	92088
295.770	88886
295.827	35308
295.883	24881
295.940	27867
295.997	46449
296.054	34826
296.111	22932
296.167	18842
296.224	13429
296.281	14363
296.338	13754
296.394	15456
296.451	23438
296.508	67618
296.564	88731
296.621	62032
296.678	132714
296.734	130485
296.791	50511
296.848	34961
296.904	42355
296.961	84191
297.018	119419
297.074	72486
297.131	33356
297.187	27394
297.244	39220
297.301	135136
297.357	148288
297.414	50348
297.470	27176
297.527	21770
297.583	18751
297.640	21476
297.696	15332
297.753	13911
297.809	13548
297.866	12645
297.922	13503
297.979	14219
298.035	17168
298.092	29412
298.148	74387
298.204	54007
298.261	31795
298.317	71964
298.374	128484
298.430	63534
298.486	55959
298.543	43745
298.599	29463
298.656	28697
298.712	56809
298.768	103059
298.824	53226
298.881	23723
298.937	17111
298.993	20269
299.050	26623
299.106	20560
299.162	19135
299.218	17448
299.275	14346
299.331	18050
299.387	40859
299.443	124016
299.500	90628
299.556	37914
299.612	26560
299.668	24576
299.724	29366
299.780	26660
299.837	20326
299.893	41283
299.949	121917
300.005	102551
300.061	115314
300.117	148269
300.173	61113
300.229	41254
300.285	55941
300.341	49636
300.397	26531
300.453	20046
300.510	19183
300.566	20560
300.622	26714
300.678	68807
300.734	102905
300.790	99300
300.845	98809
300.901	73415
300.957	110099
301.013	66147
301.069	30771
301.125	28412
301.181	27408
301.237	20242
301.293	16386
301.349	14695
301.405	13429
301.461	14563
301.516	15705
301.572	24040
301.628	39204
301.684	36816
301.740	64328
301.796	68486
301.851	53891
301.907	86539
301.963	73302
302.019	148633
302.074	311707
302.130	233959
302.186	97162
302.242	50439
302.297	37259
302.353	43012
302.409	72950
302.464	52726
302.520	60395
302.576	136750
302.631	119796
302.687	66586
302.743	32987
302.798	23256
302.854	18600
302.910	21970
302.965	36039
303.021	53421
303.076	45270
303.132	62220
303.187	59065
303.243	29369
303.299	20123
303.354	17562
303.410	16202
303.465	16345
303.521	15405
303.576	17129
303.632	20798
303.687	44818
303.743	101412
303.798	64717
303.853	30151
303.909	22746
303.964	22122
304.020	36687
304.075	43137
304.130	46484
304.186	78828
304.241	73140
304.297	55341
304.352	31772
304.358	30811
304.407	23031
304.449	23011
304.463	23014
304.518	23960
304.539	22700
304.573	20751
304.629	23694
304.630	24042
304.684	40766
304.720	74702
304.739	91396
304.794	95567
304.811	81252
304.850	47314
304.902	28832
304.905	27694
304.960	21806
304.992	21596
305.015	21409
305.071	18859
305.083	18385
305.126	16700
305.173	13325
305.181	12804
305.236	13815
305.264	15666
305.292	17629
305.347	22291
305.354	22185
305.402	21282
305.445	23106
305.457	23679
305.512	29913
305.535	29364
305.567	28725
305.622	32466
305.626	33949
305.678	65537
305.716	116996
305.733	134517
305.788	117683
305.807	104453
305.843	84636
305.897	110750
305.898	110978
305.953	86781
305.988	60925
306.008	48063
306.063	33729
306.078	30971
306.118	24254
306.168	18611
306.173	18188
306.228	16142
306.259	15804
306.283	15627
306.338	17976
306.349	18240
306.393	19497
306.440	21231
306.448	21819
306.503	25849
306.530	34229
306.558	49403
306.613	123447
306.620	127439
306.668	141356
306.711	141313
306.723	136960
306.778	85036
306.801	64913
306.833	44895
306.888	26568
306.892	25772
306.943	20319
306.982	19421
306.997	19364
307.052	19855
307.072	21809
307.107	29243
307.162	48917
307.163	49272
307.217	82645
307.253	99932
307.272	102805
307.327	89939
307.343	78632
307.381	59351
307.434	55954
307.436	57076
307.491	120991
307.524	162494
307.546	168724
307.600	112936
307.614	96913
307.655	58335
307.704	36429
307.710	36764
307.765	54799
307.795	79260
307.819	96216
307.874	137932
307.885	132675
307.929	85599
307.975	48731
307.984	47067
308.038	55203
308.065	65702
308.093	112691
308.148	247948
308.156	278016
308.202	399297
308.246	409517
308.257	389328
308.312	205004
308.336	149762
308.366	123006
308.421	80604
308.426	76696
308.475	48762
308.517	34177
308.530	32068
308.585	29114
308.607	28933
308.639	34295
308.694	47358
308.697	49169
308.748	108270
308.787	163556
308.803	163038
308.857	100045
308.877	78234
308.912	62370
308.967	55416
308.967	55379
309.021	66966
309.058	79788
309.076	100072
309.130	176805
309.148	207343
309.185	357229
309.238	630978
309.239	631997
309.293	610308
309.328	505696
309.348	419949
309.402	190993
309.418	136755
309.457	98837
309.508	65888
309.511	65407
309.566	67229
309.598	72285
309.620	89808
309.674	143884
309.688	156393
309.729	137995
309.778	100875
309.783	98441
309.837	72030
309.868	59762
309.892	80403
309.946	141609
309.959	158217
310.001	189015
310.049	204932
310.055	196720
310.109	106512
310.139	59581
310.163	49585
310.218	37217
310.229	35042
310.272	30363
310.319	26588
310.326	26338
310.381	26681
310.409	25832
310.435	25088
310.489	24985
310.499	24989
310.543	28485
310.589	33633
310.598	33249
310.652	29728
310.679	26794
310.706	22894
310.760	15743
310.769	14772
310.814	13129
310.859	11962
310.868	12273
310.923	14389
310.948	15629
310.977	18909
311.031	25858
311.038	26735
311.085	23964
311.128	20388
311.139	19838
311.193	17578
311.218	16619
311.247	15444
311.301	13081
311.308	12852
311.356	14340
311.398	15709
311.410	15368
311.464	13581
311.488	12729
311.518	13451
311.572	15145
311.578	15362
311.626	23027
311.668	29767
311.680	30257
311.734	32162
311.758	33024
311.788	31951
311.842	29629
311.847	29406
311.896	39470
311.937	48602
311.950	46603
312.004	37330
312.027	33181
312.058	27739
312.112	18308
312.117	17384
312.165	17456
312.207	17566
312.297	30022
312.386	21183
312.476	24700
312.566	46943
312.656	19016
312.745	14242
312.835	17072
312.925	20099
313.015	23392
313.104	22926
313.194	13563
313.284	16182
313.374	22894
313.463	18220
313.553	14784
313.643	13434
313.732	10869
313.822	12691
313.912	15569
314.001	20795
314.091	25830
314.180	32309
314.270	27701
314.360	36924
314.449	25618
314.539	14934
314.628	15447
314.718	24171
314.808	30629
314.897	14538
314.987	15454
315.076	25183
315.166	35960
315.255	32005
315.345	32176
315.434	35184
315.524	31312
315.613	34581
315.703	42841
315.792	93658
315.881	269521
315.971	76745
316.060	78391
316.150	125519
316.239	117280
316.328	31721
316.418	15517
316.507	18956
316.597	25339
316.686	25104
316.775	70571
316.865	112774
316.954	19331
317.043	14523
317.133	17134
317.222	14424
317.311	14693
317.400	16665
317.490	27739
317.579	29380
317.668	23153
317.757	46683
317.847	164036
317.936	460597
318.025	137103
318.114	93517
318.203	45071
318.293	57865
318.382	95012
318.471	72617
318.560	111148
318.649	166520
318.738	33489
318.828	34160
318.917	31351
319.006	56205
319.095	139006
319.184	224698
319.273	118782
319.362	63838
319.451	24269
319.540	26382
319.629	70146
319.718	89017
319.807	35230
319.896	105449
319.985	262646
320.074	83382
320.163	42000
320.252	77075
320.341	51621
320.430	38753
320.519	52989
320.608	28457
320.697	24398
320.786	25251
320.875	34135
320.964	45853
321.053	71068
321.142	108308
321.230	92041
321.319	92431
321.408	187509
321.497	68001
321.586	79096
321.675	126447
321.764	91316
321.852	61940
321.941	109157
322.030	57589
322.119	87163
322.207	211814
322.296	154283
322.385	70722
322.474	83050
322.562	236029
322.651	95771
322.740	96461
322.829	146830
322.917	169146
323.006	72777
323.095	61270
323.183	55070
323.272	69234
323.361	162077
323.449	370951
323.538	123011
323.626	319879
323.715	131715
323.804	91101
323.892	302366
323.981	122010
324.069	45093
324.158	193146
324.246	116138
324.335	46404
324.424	66088
324.512	26457
324.601	49593
324.689	219062
324.778	319253
324.866	131150
324.954	29282
325.043	31709
325.131	88212
325.220	147666
325.308	145767
325.397	116726
325.485	48719
325.574	18527
325.662	17004
325.750	21557
325.839	15403
325.927	16764
326.015	27806
326.104	75693
326.192	74614
326.280	18186
326.369	19704
326.457	30686
326.545	54087
326.634	20949
326.722	14536
326.810	16876
326.898	14814
326.987	20509
327.075	62996
327.163	70369
327.251	47578
327.340	207427
327.428	216313
327.516	27415
327.604	24384
327.692	23583
327.781	40514
327.869	64445
327.957	32143
328.045	26713
328.133	16620
328.221	33923
328.309	17093
328.397	15445
328.485	20399
328.574	35500
328.662	123660
328.750	76812
328.838	31339
328.926	15690
329.014	13424
329.102	29966
329.190	77889
329.278	38922
329.366	9912
329.454	12660
329.542	11597
329.630	11241
329.718	12743
329.806	19468
329.893	18802
329.981	13140
330.069	9545
330.157	25635
330.245	54546
330.333	27078
330.421	13310
330.509	37466
330.597	147415
330.684	80538
330.772	37171
330.860	61317
330.948	64832
331.036	21956
331.123	10279
331.211	14253
331.299	21078
331.387	68218
331.475	88597
331.562	27330
331.650	14561
331.738	28786
331.825	36027
331.913	13564
332.001	12677
332.089	30856
332.176	71196
332.264	192052
332.352	100613
332.439	27465
332.527	19769
332.614	25855
332.702	31347
332.790	20699
332.877	94340
332.965	143130
333.052	27240
333.140	40960
333.228	75304
333.315	20100
333.403	28922
333.490	113203
333.578	65937
333.665	71552
333.753	33207
333.840	16718
333.928	33311
334.015	105964
334.103	139154
334.190	305980
334.278	62643
334.365	42784
334.452	27695
334.540	20067
334.627	36402
334.715	42107
334.802	113871
334.889	567066
334.977	368067
335.064	44221
335.151	24218
335.239	25275
335.326	36950
335.413	163642
335.501	151605
335.588	25853
335.675	19172
335.762	35434
335.850	48075
335.937	33826
336.024	140050
336.111	481454
336.199	152759
336.286	29709
336.373	16545
336.460	14199
336.547	16380
336.635	23717
336.722	18934
336.809	17187
336.896	32026
336.983	113527
337.070	235800
337.157	279859
337.245	332287
337.332	176143
337.419	24436
337.506	16992
337.593	22336
337.680	104534
337.767	208928
337.854	67329
337.941	93938
338.028	129956
338.115	34299
338.202	43076
338.289	118939
338.376	324229
338.463	81255
338.550	153725
338.637	115555
338.724	90090
338.811	108429
338.898	20774
338.984	15961
339.071	22174
339.158	25736
339.245	70990
339.332	41721
339.419	97278
339.506	64355
339.593	12557
339.679	13226
339.766	13792
339.853	24616
339.940	48335
340.027	15318
340.113	18357
340.200	27919
340.287	19199
340.374	27487
340.460	42603
340.547	17940
340.634	39850
340.720	135964
340.807	63160
340.894	12611
340.980	18260
341.067	14636
341.154	17210
341.240	32593
341.327	63107
341.414	16441
341.500	16589
341.587	14546
341.674	15336
341.760	45715
341.847	51080
341.933	14050
342.020	7448
342.106	8022
342.193	19386
342.279	32702
342.366	25955
342.452	42219
342.539	23136
342.625	65207
342.712	138107
342.798	53027
342.885	21215
342.971	8070
343.058	8458
343.144	10977
343.230	10958
343.317	10819
343.403	9917
343.490	7233
343.576	8996
343.662	12070
343.749	15833
343.835	18164
343.921	37680
344.008	218020
344.094	389389
344.180	79160
344.267	45448
344.353	155989
344.439	157139
344.525	63660
344.612	21151
344.698	21329
344.784	15045
344.870	10539
344.957	14510
345.043	23220
345.129	21743
345.215	40921
345.301	21159
345.387	13949
345.474	9646
345.560	13675
345.646	21763
345.732	14990
345.818	15877
345.904	14645
345.990	21358
346.076	31016
346.162	53921
346.249	15718
346.335	10636
346.421	13982
346.507	66709
346.593	171160
346.679	38434
346.765	14212
346.851	16418
346.937	15843
347.023	11525
347.108	16511
347.194	13176
347.280	10824
347.366	18698
347.452	65524
347.538	211423
347.624	163964
347.710	142875
347.796	25868
347.882	14703
347.967	13977
348.053	23681
348.139	14498
348.225	12505
348.311	12135
348.397	10202
348.482	17688
348.568	20759
348.654	10109
348.740	16517
348.825	16041
348.911	28522
348.997	117199
349.083	188290
349.168	32797
349.254	13848
349.340	13158
349.425	10442
349.511	21052
349.597	23740
349.682	51251
349.768	137002
349.854	56058
349.939	15350
350.025	11965
350.110	9389
350.196	9300
350.282	9353
350.367	12523
350.453	44129
350.538	35931
350.624	23256
350.709	18354
350.795	12342
350.880	13146
350.966	16558
351.051	36777
351.137	25700
351.222	14942
351.308	55028
351.393	117990
351.479	27371
351.564	10165
351.649	13613
351.735	10004
351.820	9986
351.906	11683
351.991	24654
352.076	93022
352.162	111783
352.247	23390
352.332	17246
352.418	31370
352.503	46780
352.588	187249
352.673	142594
352.759	32142
352.844	17185
352.929	20547
353.014	28713
353.100	17466
353.185	30628
353.270	54704
353.355	49768
353.441	15953
353.526	25764
353.611	51365
353.696	53956
353.781	27968
353.866	14239
353.952	15426
354.037	52455
354.122	108682
354.207	92139
354.292	31837
354.377	13795
354.462	12263
354.547	22599
354.632	18622
354.717	29317
354.802	32393
354.887	14016
354.972	9585
355.057	8698
355.142	8933
355.227	15647
355.312	30057
355.397	76275
355.482	165545
355.567	74208
355.652	54772
355.737	64789
355.822	165476
355.907	117510
355.991	18821
356.076	13128
356.161	11224
356.246	9904
356.331	12462
356.416	45639
356.501	245757
356.585	220877
356.670	31902
356.755	21119
356.840	39504
356.924	206224
357.009	574783
357.094	205287
357.179	50611
357.263	36709
357.348	38468
357.433	38868
357.517	31751
357.602	25217
357.687	18532
357.771	21809
357.856	26122
357.941	30401
358.025	148214
358.110	504370
358.195	218242
358.279	36160
358.364	33593
358.448	137804
358.533	311917
358.617	228803
358.702	208595
358.787	77283
358.871	48486
358.956	38660
359.040	13169
359.125	9991
359.209	11373
359.294	15490
359.378	23264
359.462	36298
359.547	25866
359.631	20903
359.716	11955
359.800	16130
359.885	26451
359.969	18161
360.053	11301
360.138	13337
360.222	26329
360.306	50781
360.391	33705
360.475	47443
360.559	100517
360.644	126235
360.728	91399
360.812	152346
360.896	333896
360.981	164458
361.065	90367
361.149	23728
361.233	24517
361.318	22384
361.402	25860
361.486	19756
361.570	14617
361.654	24465
361.739	69836
361.823	252953
361.907	312961
361.991	55293
362.075	45312
362.159	99725
362.243	64788
362.327	59441
362.411	64816
362.495	42229
362.580	21316
362.664	14272
362.748	13613
362.832	16172
362.916	29653
363.000	107387
363.084	316449
363.168	382722
363.252	93856
363.336	39174
363.420	68933
363.503	212854
363.587	198290
363.671	38593
363.755	34212
363.839	45632
363.923	23323
364.007	51623
364.091	64497
364.175	103748
364.258	283491
364.342	192048
364.426	197459
364.510	111355
364.594	58048
364.677	87787
364.761	297785
364.845	196795
364.929	80349
365.013	69138
365.096	58317
365.180	70986
365.264	105109
365.347	278333
365.431	120230
365.515	38027
365.598	20452
365.682	19579
365.766	46118
365.849	48958
365.933	28849
366.017	37446
366.100	26710
366.184	15236
366.267	15417
366.351	13167
366.435	12334
366.518	9245
366.602	9344
366.685	14588
366.769	19790
366.852	41738
366.936	62100
367.019	36104
367.103	37033
367.186	52257
367.270	16600
367.353	10721
367.436	12011
367.520	11910
367.603	20017
367.687	36349
367.770	57842
367.853	35701
367.937	99192
368.020	143316
368.104	40533
368.187	43962
368.270	59510
368.353	56765
368.437	121091
368.520	251071
368.603	125469
368.687	135261
368.770	204614
368.853	57873
368.936	62315
369.020	59224
369.103	21762
369.186	15753
369.269	18326
369.352	42109
369.436	60134
369.519	35407
369.602	17750
369.685	19143
369.768	23097
369.851	17975
369.934	12792
370.018	23955
370.101	51438
370.184	39959
370.267	29373
370.350	51714
370.433	81970
370.516	180151
370.599	234361
370.682	98455
370.765	126198
370.848	159143
370.931	249591
371.014	97491
371.097	22212
371.180	15378
371.263	8627
371.346	8930
371.429	9435
371.511	15022
371.594	32624
371.677	55296
371.760	54933
371.843	46555
371.926	193427
372.009	367702
372.091	123266
372.174	113335
372.257	207009
372.340	87323
372.423	88211
372.505	94412
372.588	39027
372.671	98575
372.754	248820
372.836	127730
372.919	113751
373.002	179754
373.085	56838
373.167	46849
373.250	121169
373.332	224548
373.415	311014
373.498	539318
373.580	231371
373.663	339278
373.746	390935
373.828	92302
373.911	43445
373.993	66745
374.076	193781
374.159	171392
374.241	92440
374.324	217208
374.406	144910
374.489	188803
374.571	427550
374.654	184422
374.736	109344
374.819	290113
374.901	409206
374.983	382175
375.066	69319
375.148	43483
375.231	166715
375.313	264884
375.395	104105
375.478	24119
375.560	16075
375.643	31170
375.725	124785
375.807	386927
375.890	366893
375.972	209176
376.054	129415
376.136	199972
376.219	82292
376.301	132846
376.383	304180
376.465	126449
376.548	93057
376.630	125364
376.712	265690
376.794	122384
376.877	16186
376.959	13478
377.041	22578
377.123	51364
377.205	50640
377.287	12119
377.369	9885
377.452	13776
377.534	12138
377.616	13659
377.698	12833
377.780	11470
377.862	14810
377.944	13770
378.026	8608
378.108	9184
378.190	10042
378.272	10644
378.354	7681
378.436	10819
378.518	37955
378.600	99516
378.682	86114
378.764	153221
378.846	117674
378.928	41557
379.010	49968
379.091	27040
379.173	12693
379.255	14305
379.337	25641
379.419	92683
379.501	203367
379.583	85885
379.664	26441
379.746	70768
379.828	159680
379.910	210213
379.991	166530
380.073	32977
380.155	21709
380.237	17130
380.318	11309
380.400	17158
380.482	40543
380.564	62811
380.645	56884
380.727	52584
380.809	28865
380.890	22341
380.972	16166
381.053	15320
381.135	20735
381.217	66143
381.298	153412
381.380	82497
381.461	83932
381.543	289330
381.624	320907
381.706	64369
381.787	35126
381.869	41344
381.951	143062
382.032	411655
382.113	264568
382.195	67776
382.276	42057
382.358	103917
382.439	236244
382.521	281350
382.602	379028
382.684	209344
382.765	356520
382.846	386324
382.928	463292
383.009	270268
383.090	193968
383.172	666799
383.253	978699
383.334	389393
383.416	359426
383.497	183028
383.578	80288
383.659	169130
383.741	612643
383.822	1359772
383.903	749762
383.984	303125
384.066	471978
384.147	292222
384.228	61930
384.309	47850
384.390	36675
384.471	26593
384.553	32438
384.634	48393
384.715	44620
384.796	22785
384.877	39922
384.958	136554
385.039	164561
385.120	59542
385.201	28443
385.282	41436
385.363	41131
385.444	34491
385.525	69653
385.606	184445
385.687	152658
385.768	47047
385.849	66552
385.930	203555
386.011	298225
386.092	89429
386.173	24817
386.254	24972
386.335	24526
386.416	33865
386.496	101899
386.577	153668
386.658	67173
386.739	43919
386.820	39756
386.901	34093
386.981	26159
387.062	19918
387.143	51207
387.224	149991
387.304	140753
387.385	54479
387.466	42337
387.547	47687
387.627	31989
387.708	76864
387.789	257076
387.869	286004
387.950	76332
388.031	18404
388.111	28251
388.192	73507
388.273	97689
388.353	52871
388.434	26772
388.514	63577
388.595	211230
388.676	271549
388.756	153258
388.837	141597
388.917	91580
388.998	22349
389.078	18099
389.159	17399
389.239	17946
389.320	29785
389.400	32240
389.480	72062
389.561	148681
389.641	73558
389.722	31926
389.802	52889
389.883	78845
389.963	172946
390.043	135063
390.124	54851
390.204	71125
390.284	173421
390.365	128911
390.445	157700
390.525	284649
390.605	228884
390.686	81321
390.766	28946
390.846	16926
390.927	13882
391.007	17379
391.087	21155
391.167	22617
391.247	25001
391.328	52580
391.408	63879
391.488	37998
391.568	16089
391.648	25769
391.728	35049
391.808	32696
391.888	42823
391.969	89477
392.049	135223
392.129	70228
392.209	81206
392.289	159036
392.369	108920
392.449	97155
392.529	62158
392.609	47102
392.689	69972
392.769	163277
392.849	149118
392.929	131449
393.009	251155
393.089	201825
393.169	223075
393.248	745181
393.328	1988692
393.408	1996594
393.488	631802
393.568	176315
393.648	88115
393.728	56796
393.807	42852
393.887	33969
393.967	30916
394.047	33229
394.127	37765
394.206	57183
394.286	219621
394.366	722308
394.446	723632
394.525	161083
394.605	42715
394.685	59265
394.764	144783
394.844	214455
394.924	139411
395.003	40256
395.083	28852
395.163	25217
395.242	23760
395.322	24315
395.402	18794
395.481	31190
395.561	109776
395.640	232702
395.720	189433
395.799	230155
395.879	165821
395.958	81267
396.038	299497
396.117	948091
396.197	989926
396.276	298288
396.356	117864
396.435	99417
396.515	70207
396.594	89440
396.673	205951
396.753	742327
396.832	1746082
396.912	1321964
396.991	348065
397.070	92531
397.150	52528
397.229	37006
397.308	48994
397.388	65134
397.467	36052
397.546	19159
397.625	18216
397.705	26362
397.784	28485
397.863	16924
397.942	12454
398.022	22883
398.101	96258
398.180	213275
398.259	113104
398.338	31256
398.417	22707
398.497	17794
398.576	17817
398.655	12709
398.734	11371
398.813	19093
398.892	90347
398.971	215059
399.050	105878
399.129	14568
399.208	9497
399.287	10219
399.366	9663
399.445	9724
399.524	11821
399.603	12556
399.682	33261
399.761	101372
399.840	232333
399.919	164519
399.998	25562
400.077	8360
400.156	10087
400.235	14136
400.313	13446
400.392	24804
400.471	88910
400.550	132272
400.629	43519
400.708	19236
400.786	28400
400.865	65217
400.944	65009
401.023	26803
401.102	8256
401.180	8195
401.259	13075
401.338	16431
401.416	22870
401.495	20215
401.574	16098
401.652	14168
401.731	20849
401.810	18595
401.888	9405
401.967	5696
402.046	11041
402.124	19463
402.203	28071
402.281	16062
402.360	31650
402.438	75482
402.517	54253
402.596	20170
402.674	19884
402.753	11065
402.831	9600
402.910	14700
402.988	64415
403.066	155819
403.145	92414
403.223	56214
403.302	117964
403.380	94940
403.459	84927
403.537	39657
403.615	16562
403.694	6575
403.772	5849
403.850	6140
403.929	6354
404.007	8303
404.085	20092
404.164	22919
404.242	8912
404.320	10008
404.398	22401
404.477	98192
404.555	333673
404.633	284870
404.711	41967
404.789	10707
404.868	10807
404.946	8201
405.024	4694
405.102	5906
405.180	6346
405.258	6951
405.336	8929
405.415	12708
405.493	27703
405.571	21030
405.649	8832
405.727	10376
405.805	17463
405.883	16163
405.961	19918
406.039	23800
406.117	12097
406.195	23370
406.273	112638
406.351	301157
406.429	189954
406.507	36880
406.585	14594
406.663	12748
406.740	20674
406.818	17577
406.896	10256
406.974	11699
407.052	45802
407.130	188722
407.208	250399
407.285	52163
407.363	10959
407.441	10161
407.519	10202
407.596	14487
407.674	40721
407.752	92269
407.830	97743
407.907	44032
407.985	15381
408.063	8480
408.141	8547
408.218	20622
408.296	21280
408.373	13486
408.451	15141
408.529	13689
408.606	6933
408.684	4525
408.762	4644
408.839	3672
408.917	4275
408.994	5843
409.072	6482
409.149	6092
409.227	13834
409.304	16268
409.382	11813
409.459	13843
409.537	21255
409.614	18025
409.692	12309
409.769	13893
409.846	24426
409.924	30251
410.001	22295
410.079	12965
410.156	9420
410.233	8689
410.311	8220
410.388	7086
410.465	11978
410.543	11973
410.620	9917
410.697	11099
410.775	14669
410.852	8955
410.929	14714
411.006	18280
411.083	15638
411.161	31435
411.238	35170
411.315	18942
411.392	9511
411.469	15434
411.547	17682
411.624	9390
411.701	8965
411.778	14211
411.855	30506
411.932	18664
412.009	8540
412.086	8488
412.163	12870
412.240	16103
412.317	20084
412.394	16145
412.471	6973
412.548	5468
412.625	9112
412.702	16257
412.779	27156
412.856	16085
412.933	7005
413.010	6404
413.087	20767
413.164	82588
413.241	110677
413.318	31451
413.395	18646
413.471	26693
413.548	12561
413.625	8901
413.702	15428
413.779	11034
413.855	4515
413.932	4075
414.009	4159
414.086	4663
414.162	6035
414.239	20426
414.316	88586
414.393	165086
414.469	64499
414.546	7529
414.623	5281
414.699	6410
414.776	10209
414.853	6269
414.929	8576
415.006	9482
415.082	13833
415.159	8998
415.236	6867
415.312	7927
415.389	22738
415.465	29859
415.542	16411
415.618	9663
415.695	18750
415.771	14380
415.848	12759
415.924	11903
416.000	10178
416.077	5735
416.153	3456
416.230	2253
416.306	4862
416.383	7227
416.459	5655
416.535	3494
416.612	5127
416.688	4939
416.764	5577
416.841	4836
416.917	6836
416.993	6690
417.069	10865
417.146	14896
417.222	16097
417.298	10227
417.374	7382
417.451	9683
417.527	12937
417.603	14613
417.679	10823
417.755	8022
417.831	4342
417.908	4025
417.984	4560
418.060	6883
418.136	23651
418.212	32252
418.288	12303
418.364	6778
418.440	9156
418.516	17315
418.592	29162
418.668	44777
418.744	61220
418.820	42096
418.896	12480
418.972	5102
419.048	10067
419.124	24626
419.200	21855
419.276	6043
419.352	3205
419.428	4393
419.504	8550
419.579	12600
419.655	9163
419.731	11267
419.807	40663
419.883	71088
419.959	49103
420.034	15197
420.110	34583
420.186	102936
420.262	82475
420.337	17695
420.413	11760
420.489	6254
420.565	5162
420.640	5262
420.716	7918
420.792	4770
420.867	7004
420.943	7522
421.019	16662
421.094	13492
421.170	6768
421.245	3789
421.321	6505
421.397	7945
421.472	20310
421.548	44963
421.623	32499
421.699	13126
421.774	13520
421.850	12883
421.925	23475
422.001	20946
422.076	14303
422.152	17053
422.227	28650
422.302	30584
422.378	42699
422.453	83248
422.529	204531
422.604	520404
422.679	767725
422.755	532932
422.830	194519
422.905	69553
422.981	40704
423.056	26333
423.131	19854
423.207	16086
423.282	21681
423.357	36576
423.432	27504
423.508	27192
423.583	58460
423.658	45108
423.733	16895
423.808	19578
423.883	21289
423.959	17041
424.034	13551
424.109	10256
424.184	5670
424.259	5417
424.334	5054
424.409	4799
424.484	6364
424.559	9204
424.634	8943
424.709	14420
424.784	17060
424.859	11706
424.934	24475
425.009	82654
425.084	125051
425.159	49415
425.234	8343
425.309	3052
425.384	5624
425.459	5628
425.534	6982
425.609	9542
425.683	7400
425.758	5003
425.833	8590
425.908	14976
425.983	57975
426.058	131647
426.132	65560
426.207	16902
426.282	24625
426.357	22502
426.431	7537
426.506	7783
426.581	9396
426.655	7710
426.730	6760
426.805	7238
426.879	8548
426.954	9461
427.029	31144
427.103	133429
427.178	271333
427.253	126900
427.327	19529
427.402	21825
427.476	33587
427.551	15628
427.625	13207
427.700	11897
427.774	9717
427.849	12001
427.923	7577
427.998	6464
428.072	11582
428.147	29304
428.221	98295
428.296	207133
428.370	107916
428.444	23236
428.519	37621
428.593	65885
428.667	59195
428.742	65407
428.816	70751
428.890	164004
428.965	211847
429.039	89794
429.113	73826
429.188	27067
429.262	10097
429.336	24748
429.410	64214
429.485	51030
429.559	54873
429.633	41005
429.707	15204
429.781	52315
429.855	203216
429.930	276373
430.004	207061
430.078	271415
430.152	225903
430.226	255511
430.300	240158
430.374	43086
430.448	24295
430.522	100037
430.596	229545
430.670	152053
430.744	264325
430.818	367070
430.892	88194
430.966	13860
431.040	8116
431.114	6175
431.188	6716
431.262	8535
431.336	12369
431.410	37320
431.484	83952
431.557	49801
431.631	9321
431.705	10539
431.779	52113
431.853	167080
431.927	122626
432.000	16563
432.074	8485
432.148	14583
432.222	12960
432.295	4816
432.369	6403
432.443	25121
432.516	126482
432.590	263745
432.664	109325
432.737	14713
432.811	4787
432.885	2483
432.958	3949
433.032	3554
433.106	2922
433.179	2192
433.253	3542
433.326	3507
433.400	2869
433.473	3441
433.547	2584
433.620	4630
433.694	15834
433.767	18393
433.841	9290
433.914	3565
433.988	3507
434.061	4921
434.134	5483
434.208	2748
434.281	2337
434.355	3387
434.428	4765
434.501	3234
434.575	4733
434.648	6157
434.721	3480
434.795	2505
434.868	2213
434.941	1625
435.014	2388
435.088	3665
435.161	7528
435.234	14975
435.307	20410
435.381	10029
435.454	8763
435.527	12425
435.600	12391
435.673	8169
435.746	6399
435.819	4903
435.892	5097
435.966	3494
436.039	4086
436.112	5281
436.185	2863
436.258	2574
436.331	1819
436.404	1770
436.477	2583
436.550	1539
436.623	3054
436.696	2860
436.769	6248
436.842	5717
436.915	9002
436.987	12793
437.060	5429
437.133	2119
437.206	4199
437.279	4256
437.352	3567
437.425	2430
437.498	6499
437.570	13665
437.643	15820
437.716	4570
437.789	4646
437.861	17926
437.934	44393
438.007	21501
438.080	5130
438.152	6136
438.225	24955
438.298	149129
438.370	347586
438.443	160353
438.516	41189
438.588	10221
438.661	4375
438.734	4929
438.806	8735
438.879	9751
438.951	14275
439.024	22177
439.096	10304
439.169	3976
439.241	4021
439.314	5127
439.386	15780
439.459	29076
439.531	39754
439.604	15427
439.676	3809
439.749	1909
439.821	2495
439.893	3631
439.966	7145
440.038	10680
440.110	10947
440.183	5507
440.255	5013
440.327	12908
440.400	79125
440.472	245660
440.544	167647
440.617	25784
440.689	17164
440.761	25737
440.833	38075
440.905	24427
440.978	6425
441.050	3101
441.122	4130
441.194	2757
441.266	4826
441.338	4053
441.411	17119
441.483	82912
441.555	122457
441.627	34837
441.699	22819
441.771	23890
441.843	10420
441.915	4183
441.987	3515
442.059	3929
442.131	9912
442.203	17569
442.275	20631
442.347	16844
442.419	20820
442.491	91749
442.563	206103
442.635	112832
442.706	83482
442.778	63042
442.850	13634
442.922	6595
442.994	12371
443.066	18230
443.137	13829
443.209	8814
443.281	14108
443.353	35431
443.425	131694
443.496	372020
443.568	362820
443.640	138065
443.711	29922
443.783	12236
443.855	9917
443.926	6392
443.998	10424
444.070	14698
444.141	14014
444.213	18696
444.285	24982
444.356	27317
444.428	25099
444.499	9855
444.571	3988
444.642	4064
444.714	8129
444.785	16961
444.857	29907
444.928	63442
445.000	43013
445.071	44188
445.143	50336
445.214	26713
445.285	45685
445.357	123410
445.428	292481
445.500	571304
445.571	396145
445.642	199795
445.714	104323
445.785	98660
445.856	37417
445.928	23549
445.999	21818
446.070	17277
446.141	16072
446.213	20385
446.284	15597
446.355	15683
446.426	12462
446.497	10749
446.569	23087
446.640	33267
446.711	23499
446.782	11162
446.853	21950
446.924	20608
446.995	12819
447.066	12593
447.138	25730
447.209	15116
447.280	4436
447.351	2871
447.422	5039
447.493	10910
447.564	16439
447.635	19244
447.706	10288
447.777	3235
447.847	3183
447.918	5449
447.989	13798
448.060	21666
448.131	45893
448.202	41659
448.273	26895
448.344	11927
448.414	6036
448.485	6061
448.556	5216
448.627	2995
448.698	3715
448.768	2919
448.839	8972
448.910	23953
448.981	22056
449.051	8200
449.122	4383
449.193	2499
449.263	4997
449.334	3880
449.405	9624
449.475	23395
449.546	21700
449.616	25819
449.687	22889
449.758	7063
449.828	5008
449.899	3748
449.969	3314
450.040	4884
450.110	13812
450.181	16639
450.251	7329
450.322	3793
450.392	5386
450.463	4710
450.533	3946
450.604	4654
450.674	5193
450.744	4193
450.815	4754
450.885	4773
450.955	4226
451.026	3490
451.096	5995
451.166	11117
451.237	32255
451.307	70943
451.377	34776
451.447	6277
451.518	5212
451.588	5078
451.658	6049
451.728	18477
451.799	73074
451.869	84855
451.939	24792
452.009	5975
452.079	5292
452.149	6694
452.219	23726
452.289	84459
452.360	69389
452.430	15616
452.500	9402
452.570	12168
452.640	20691
452.710	61089
452.780	89830
452.850	60858
452.920	49416
452.990	19474
453.060	10390
453.129	14358
453.199	23211
453.269	91563
453.339	185405
453.409	279298
453.479	278706
453.549	406549
453.619	435098
453.688	201070
453.758	31286
453.828	10481
453.898	9170
453.968	7386
454.037	6966
454.087	6378
454.107	6103
454.168	5203
454.177	5035
454.247	4308
454.249	4498
454.316	6200
454.330	7554
454.386	10988
454.411	24090
454.456	44813
454.492	55469
454.525	65606
454.574	37918
454.595	26231
454.655	10902
454.665	8415
454.734	14061
454.736	14883
454.804	30681
454.817	41111
454.873	78157
454.898	85974
454.943	100964
454.979	74702
455.013	52879
455.060	32083
455.082	22662
455.141	23948
455.152	23119
455.221	58785
455.222	59635
455.291	96382
455.303	87090
455.360	52276
455.384	45839
455.430	32914
455.465	37474
455.499	38123
455.546	61017
455.569	70558
455.627	54035
455.638	52019
455.707	14078
455.708	14090
455.777	8659
455.789	8757
455.846	8803
455.869	8006
455.916	6557
455.950	7751
455.985	8393
456.031	8774
456.054	9146
456.112	7837
456.124	7767
456.193	8924
456.193	8842
456.262	12462
456.274	13685
456.332	18087
456.355	20419
456.401	21761
456.436	16865
456.470	13724
456.516	9150
456.540	7002
456.597	5687
456.609	5403
456.678	6061
456.678	6030
456.747	5287
456.759	5314
456.817	5370
456.840	5120
456.886	5034
456.920	6240
456.955	8424
457.001	9947
457.024	10890
457.082	15994
457.093	17057
457.162	28792
457.163	28970
457.232	30098
457.243	27086
457.301	18014
457.324	13970
457.370	7889
457.405	7368
457.439	7054
457.485	7613
457.508	8158
457.566	9207
457.577	9477
457.646	12878
457.647	12968
457.715	18198
457.727	19405
457.784	26255
457.808	32138
457.853	36205
457.889	38682
457.922	43143
457.969	36344
457.991	35316
458.050	38822
458.060	38966
458.129	59365
458.130	59901
458.198	56000
458.211	48875
458.267	32418
458.292	26188
458.336	19803
458.372	20984
458.405	26007
458.453	36784
458.474	42572
458.533	66385
458.543	65974
458.611	87762
458.614	87520
458.680	64012
458.694	52844
458.749	27615
458.775	21758
458.818	13696
458.855	12924
458.887	12465
458.936	12417
458.955	12099
459.016	12833
459.024	12970
459.093	12815
459.097	12878
459.162	13772
459.177	14048
459.230	15448
459.257	17031
459.299	18876
459.338	18900
459.368	18224
459.418	18729
459.437	18111
459.499	14120
459.505	14014
459.574	11693
459.579	11702
459.643	11745
459.659	11638
459.711	12145
459.740	12764
459.780	13691
459.820	15199
459.849	16186
459.900	17634
459.917	16766
459.981	14157
459.986	14204
460.054	12726
460.061	12618
460.123	13594
460.141	14212
460.191	15668
460.222	17097
460.260	17244
460.302	18331
460.328	18303
460.382	15582
460.397	15776
460.462	14531
460.465	14782
460.534	24936
460.543	26137
460.602	38281
460.623	43457
460.671	61354
460.703	78292
460.739	63489
460.783	38423
460.808	36718
460.864	19743
460.876	17280
460.944	15079
460.945	15033
461.013	14697
461.024	14533
461.081	14792
461.104	15548
461.150	15045
461.184	13988
461.218	14288
461.264	14068
461.286	13941
461.345	14417
461.355	14771
461.423	17704
461.425	17770
461.491	28870
461.505	31323
461.559	61075
461.585	75059
461.628	111494
461.665	148240
461.696	130526
461.745	113420
461.764	103892
461.825	43158
461.832	42383
461.901	22321
461.905	22372
461.969	18084
461.985	17274
462.037	20734
462.065	22168
462.105	32357
462.145	43373
462.173	55676
462.225	79596
462.241	82116
462.305	99824
462.310	96528
462.378	43427
462.385	35395
462.446	24120
462.465	21763
462.514	16881
462.545	17113
462.582	17476
462.625	17451
462.650	18392
462.705	20891
462.718	22741
462.785	31858
462.786	32146
462.854	49068
462.865	52208
462.922	48199
462.945	46996
462.990	35852
463.025	23504
463.058	21804
463.104	19078
463.126	18130
463.184	18067
463.194	18270
463.262	20296
463.264	20363
463.330	22234
463.344	22584
463.398	24956
463.424	26049
463.466	26306
463.504	26985
463.533	27437
463.583	27407
463.601	29274
463.663	35385
463.669	37471
463.737	62270
463.743	64545
463.805	97617
463.823	107204
463.873	160419
463.903	194168
463.940	164559
463.982	135250
464.008	109149
464.062	42300
464.076	40610
464.142	23072
464.144	22731
464.211	20290
464.221	20240
464.279	23170
464.301	24580
464.347	28936
464.381	32016
464.414	38013
464.461	46323
464.482	42970
464.540	34892
464.550	33998
464.617	25793
464.620	25422
464.685	27163
464.699	28003
464.753	29417
464.779	30040
464.820	33079
464.859	35763
464.888	39139
464.938	44639
464.956	42752
465.018	36659
465.023	36091
465.091	27494
465.098	26456
465.158	25383
465.177	25166
465.226	25959
465.257	26630
465.293	29644
465.336	33039
465.361	39256
465.416	53310
465.428	60914
465.495	101759
465.496	102349
465.563	168992
465.575	180610
465.631	153885
465.654	143273
465.698	85276
465.734	32830
465.765	30286
465.813	25403
465.833	24078
465.893	23890
465.900	23841
465.968	23539
465.972	23474
466.035	22819
466.052	22649
466.102	23007
466.131	23053
466.170	23545
466.210	24099
466.237	24738
466.290	25827
466.304	25798
466.369	25427
466.372	25609
466.439	29670
466.449	30214
466.506	45487
466.528	51237
466.573	93221
466.607	124583
466.641	174545
466.687	243622
466.708	233046
466.766	203671
466.775	186074
466.842	50499
466.845	43972
466.909	34997
466.925	33204
466.977	32749
467.004	32888
467.044	33009
467.083	33053
467.111	35212
467.163	39115
467.178	39146
467.242	38906
467.245	39092
467.312	41482
467.321	41722
467.379	45867
467.400	47239
467.446	55306
467.480	60956
467.559	39793
467.638	38439
467.717	42177
467.796	43533
467.875	49321
467.955	65423
468.034	144716
468.113	281533
468.192	268511
468.271	40490
468.350	38950
468.429	45523
468.508	42443
468.588	38637
468.667	41594
468.746	40809
468.825	39299
468.904	40568
468.983	67719
469.062	109438
469.141	87873
469.220	34448
469.299	38155
469.378	36218
469.456	36838
469.535	35153
469.614	40393
469.693	54325
469.772	74554
469.851	111433
469.930	38101
470.009	32321
470.088	32066
470.166	37327
470.245	45206
470.324	45554
470.403	36500
470.482	32681
470.560	33747
470.639	37733
470.718	40983
470.797	39404
470.875	61030
470.954	88680
471.033	64100
471.111	27732
471.190	27247
471.269	28093
471.347	30234
471.426	35012
471.505	41674
471.583	33043
471.662	30449
471.740	29726
471.819	29526
471.898	29085
471.976	30098
472.055	33695
472.133	48524
472.212	69562
472.290	61380
472.369	30920
472.447	29301
472.526	27052
472.604	30838
472.683	32340
472.761	34051
472.839	32241
472.918	32588
472.996	38196
473.075	49593
473.153	36160
473.231	35672
473.310	45696
473.388	36382
473.466	36729
473.545	39754
473.623	47301
473.701	38805
473.780	30052
473.858	31152
473.936	31051
474.014	33202
474.093	53509
474.171	87788
474.249	121513
474.327	37789
474.405	27104
474.484	27332
474.562	30366
474.640	30713
474.718	35762
474.796	29267
474.874	25917
474.952	25417
475.030	26110
475.108	26695
475.187	28548
475.265	34709
475.343	45590
475.421	41065
475.499	29799
475.577	42790
475.655	87355
475.733	188141
475.811	261428
475.889	241436
475.966	68634
476.044	37429
476.122	46929
476.200	51210
476.278	39510
476.356	39058
476.434	42441
476.512	48298
476.590	58537
476.667	43484
476.745	36140
476.823	37951
476.901	40956
476.979	42124
477.056	39856
477.134	39240
477.212	37049
477.290	34383
477.367	34425
477.445	34315
477.523	35547
477.601	36302
477.678	42230
477.756	58816
477.834	50976
477.911	34121
477.989	36906
478.066	38338
478.144	49350
478.222	45115
478.299	60298
478.377	41482
478.454	31465
478.532	32103
478.609	34951
478.687	34299
478.764	32420
478.842	34965
478.919	37764
478.997	34538
479.074	39214
479.152	53079
479.229	66067
479.307	30516
479.384	29550
479.461	32536
479.539	42823
479.616	47564
479.694	37809
479.771	50015
479.848	55002
479.926	83480
480.003	53399
480.080	31051
480.157	32495
480.235	31740
480.312	39602
480.389	64127
480.467	105144
480.544	92307
480.621	44536
480.698	48423
480.775	55080
480.853	51562
480.930	42588
481.007	47335
481.084	55566
481.161	54006
481.238	45234
481.315	36271
481.392	36798
481.470	39733
481.547	38829
481.624	38198
481.701	38991
481.778	44466
481.855	61656
481.932	100918
482.009	159214
482.086	56129
482.163	41849
482.240	54064
482.317	73836
482.393	48298
482.470	41322
482.547	42381
482.624	38124
482.701	43410
482.778	34775
482.855	31187
482.932	32202
483.009	34650
483.085	41529
483.162	46924
483.239	40815
483.316	35141
483.393	35231
483.469	39932
483.546	50721
483.623	46124
483.699	36187
483.776	40778
483.853	54478
483.930	121811
484.006	266704
484.083	299668
484.160	75761
484.236	85676
484.313	67813
484.389	61341
484.466	53581
484.543	55248
484.619	61529
484.696	70098
484.772	81983
484.849	78847
484.925	54934
485.002	58553
485.078	66322
485.155	62290
485.231	53219
485.308	55776
485.384	71160
485.461	126760
485.537	231019
485.614	166709
485.690	55695
485.766	54545
485.843	65347
485.919	87619
485.995	70462
486.072	48151
486.148	47580
486.224	52076
486.301	63503
486.377	77592
486.453	70338
486.530	59221
486.606	72575
486.682	100117
486.758	168232
486.835	161067
486.911	158935
486.987	269235
487.063	174267
487.139	183426
487.215	110362
487.292	54690
487.368	57954
487.444	70749
487.520	84623
487.596	75049
487.672	136872
487.748	279265
487.824	272886
487.900	76113
487.976	66305
488.052	83107
488.128	91449
488.204	66967
488.280	67084
488.356	133048
488.432	299168
488.508	295539
488.584	58497
488.660	49870
488.736	50213
488.812	55782
488.888	72158
488.964	119444
489.039	246131
489.115	288584
489.191	106970
489.267	59296
489.343	52194
489.418	41523
489.494	41982
489.570	41396
489.646	43251
489.722	47566
489.797	70887
489.873	163057
489.949	325184
490.024	119306
490.100	44962
490.176	49514
490.251	62056
490.327	68645
490.403	40157
490.478	37426
490.554	34417
490.629	35724
490.705	38890
490.781	44277
490.856	47119
490.932	49878
491.007	50231
491.083	49602
491.158	58959
491.234	124569
491.309	261119
491.385	134037
491.460	51934
491.536	48101
491.611	40039
491.686	50976
491.762	83394
491.837	176187
491.913	273937
491.988	373662
492.063	306214
492.139	135869
492.214	55219
492.289	35644
492.365	40019
492.440	49947
492.515	57270
492.590	47807
492.666	44855
492.741	88232
492.816	115782
492.891	37215
492.967	30526
493.042	30907
493.117	28906
493.192	32053
493.267	44783
493.342	67445
493.418	53398
493.493	29503
493.568	29796
493.643	39471
493.718	67774
493.793	100157
493.868	66432
493.943	39243
494.018	34291
494.093	38633
494.168	32279
494.243	27877
494.318	26721
494.393	28559
494.468	26546
494.543	30065
494.618	36147
494.693	33810
494.768	36776
494.842	29510
494.917	28471
494.992	29642
495.067	26418
495.142	27083
495.217	30052
495.292	32836
495.366	42418
495.441	57380
495.516	74204
495.591	147842
495.665	408879
495.740	626710
495.815	133387
495.890	58417
495.964	50211
496.039	50305
496.114	48398
496.188	49999
496.263	49951
496.338	54179
496.412	67478
496.487	65862
496.561	67780
496.636	59427
496.710	56729
496.785	72595
496.860	71379
496.934	49355
497.009	48980
497.083	47641
497.158	54453
497.232	73193
497.307	77364
497.381	64663
497.455	99656
497.530	107103
497.604	61114
497.679	87403
497.753	144492
497.827	126061
497.902	95621
497.976	189634
498.050	638850
498.125	1609070
498.199	737550
498.273	118988
498.348	91582
498.422	76350
498.496	78727
498.570	65943
498.645	60118
498.719	72287
498.793	108559
498.867	201792
498.941	315280
499.016	899253
499.090	1419174
499.164	182418
499.238	56364
499.312	58004
499.386	70012
499.460	64836
499.534	67781
499.609	96765
499.683	148400
499.757	162216
499.831	511033
499.905	1291535
499.979	551591
500.053	191383
500.127	138384
500.201	87758
500.275	65577
500.349	65531
500.422	81597
500.496	142891
500.570	354022
500.644	849337
500.718	930347
500.792	103345
500.866	83760
500.940	108759
501.013	71689
501.087	86353
501.161	141702
501.235	266276
501.309	685797
501.382	1339502
501.456	523161
501.530	289056
501.603	379288
501.677	77795
501.751	66862
501.825	106096
501.898	271877
501.972	541614
502.046	148938
502.119	118969
502.193	325858
502.266	535883
502.340	179395
502.413	363970
502.487	453914
502.561	201303
502.634	54075
502.708	56022
502.781	49056
502.855	42558
502.928	42593
503.002	42355
503.075	46794
503.149	49104
503.222	49641
503.295	57517
503.369	79021
503.442	185495
503.516	612003
503.589	957519
503.662	372177
503.736	245271
503.809	499483
503.882	312868
503.956	566323
504.029	259741
504.102	195716
504.175	165629
504.249	65334
504.322	75733
504.395	56588
504.468	46580
504.542	46614
504.615	32632
504.688	32419
504.761	40202
504.834	46915
504.907	59144
504.980	70862
505.053	46399
505.127	58903
505.200	70789
505.273	82783
505.346	41109
505.419	37733
505.492	33092
505.565	27547
505.638	31303
505.711	33479
505.784	31875
505.857	30868
505.930	33170
506.003	34392
506.076	41803
506.149	70482
506.221	69117
506.294	96644
506.367	335021
506.440	647472
506.513	147244
506.586	70695
506.659	35891
506.731	36754
506.804	53718
506.877	62081
506.950	39699
507.022	38665
507.095	69994
507.168	51787
507.241	31675
507.313	29026
507.386	38301
507.459	42752
507.531	28172
507.604	27972
507.677	25732
507.749	24671
507.822	39662
507.894	60950
507.967	45358
508.040	28072
508.112	30683
508.185	31687
508.257	34062
508.330	42567
508.402	34032
508.475	37459
508.547	37300
508.620	57526
508.692	75424
508.765	29473
508.837	25789
508.909	25575
508.982	29255
509.054	31752
509.127	26035
509.199	25058
509.271	24803
509.344	22846
509.416	24301
509.488	25791
509.560	25664
509.633	29615
509.705	33662
509.777	36450
509.849	43009
509.922	26829
509.994	23868
510.066	26334
510.138	29564
510.210	40501
510.283	37690
510.355	33360
510.427	38538
510.499	72066
510.571	60567
510.643	34556
510.715	51093
510.787	36594
510.859	37566
510.931	47378
511.003	50016
511.076	36665
511.148	29265
511.219	43761
511.291	94248
511.363	61125
511.435	24637
511.507	25114
511.579	25177
511.651	24924
511.723	24812
511.795	25348
511.867	33279
511.939	69221
512.010	141266
512.082	50423
512.154	30506
512.226	29107
512.298	40464
512.369	48014
512.441	41015
512.513	42636
512.585	32879
512.656	39982
512.728	38870
512.800	27976
512.871	32362
512.943	27433
513.015	24871
513.086	27845
513.158	31649
513.230	40286
513.301	60153
513.373	52778
513.444	27772
513.516	25038
513.588	27329
513.659	34181
513.731	40826
513.802	45696
513.874	103040
513.945	112067
514.016	31553
514.088	28745
514.159	36162
514.231	47462
514.302	44159
514.374	38188
514.445	69495
514.516	141712
514.588	55546
514.659	73844
514.730	115363
514.802	44720
514.873	29145
514.944	29086
515.016	35589
515.087	49412
515.158	102542
515.229	86044
515.301	47993
515.372	34816
515.443	25324
515.514	24398
515.585	23184
515.656	23326
515.728	23734
515.799	25868
515.870	28561
515.941	29659
516.012	29484
516.083	36416
516.154	46385
516.225	58054
516.296	42062
516.367	36895
516.438	44454
516.509	59098
516.580	114686
516.651	371940
516.722	777589
516.793	196256
516.864	88022
516.935	84653
517.006	94049
517.077	157132
517.148	365365
517.219	986709
517.289	1035345
517.360	576325
517.431	101902
517.502	54070
517.573	54233
517.643	53272
517.714	55251
517.785	55237
517.856	58523
517.926	62665
517.997	67341
518.068	73853
518.138	99264
518.209	218657
518.280	810242
518.350	1589195
518.421	317945
518.492	76123
518.562	75650
518.633	77295
518.703	79339
518.774	147987
518.845	284792
518.915	166667
518.986	78636
519.056	95708
519.127	172435
519.197	358919
519.268	704516
519.338	195583
519.408	84332
519.479	87285
519.549	55235
519.620	43377
519.690	36880
519.760	41601
519.831	44586
519.901	39806
519.971	39973
520.042	52878
520.112	59046
520.182	54191
520.253	51027
520.323	40812
520.393	44178
520.463	44979
520.534	55794
520.604	66053
520.674	50599
520.744	64788
520.814	80607
520.885	118305
520.955	408762
521.025	710896
521.095	110415
521.165	47860
521.235	47948
521.305	38409
521.375	35958
521.445	45673
521.515	53213
521.585	63819
521.655	51993
521.725	66411
521.795	77964
521.865	57047
521.935	87524
522.005	50593
522.075	36779
522.145	43860
522.215	68597
522.285	93317
522.355	171779
522.424	263811
522.494	133735
522.564	75908
522.634	192171
522.704	285091
522.774	64095
522.843	39109
522.913	42403
522.983	47218
523.053	37935
523.122	42726
523.192	83391
523.262	220301
523.331	105246
523.401	33035
523.471	30640
523.540	31662
523.610	27225
523.680	31497
523.749	35711
523.819	58205
523.888	39104
523.958	30421
524.027	39285
524.097	39478
524.166	34535
524.236	38827
524.305	35966
524.375	32557
524.444	32139
524.514	35676
524.583	48127
524.653	60024
524.722	52550
524.791	32875
524.861	33913
524.930	31871
524.999	39794
525.069	50647
525.138	55109
525.207	55824
525.277	35784
525.346	35633
525.415	34080
525.484	42703
525.554	56509
525.623	38919
525.692	38635
525.761	38601
525.830	39597
525.900	50643
525.969	78001
526.038	101393
526.107	240063
526.176	440716
526.245	230045
526.314	151089
526.383	291006
526.452	303490
526.522	629154
526.591	363865
526.660	147123
526.729	79077
526.797	122256
526.867	386167
526.935	1063201
527.004	1168610
527.073	289569
527.142	49938
527.211	40185
527.280	48279
527.349	38635
527.418	29285
527.487	30069
527.555	27697
527.624	26539
527.693	25368
527.762	29039
527.831	26233
527.899	29421
527.968	28950
528.037	31606
528.106	44320
528.174	71648
528.243	63630
528.312	118262
528.380	78015
528.449	32403
528.518	26943
528.586	22097
528.655	24696
528.723	24354
528.792	28375
528.861	33218
528.929	25373
528.998	24327
529.066	23591
529.135	23321
529.203	22804
529.272	23321
529.340	24963
529.409	27192
529.477	30988
529.545	49108
529.614	40218
529.682	64721
529.751	48009
529.819	53595
529.887	27656
529.956	27262
530.024	25804
530.092	24669
530.161	36018
530.229	44190
530.297	23311
530.365	20777
530.434	20768
530.502	20461
530.570	21934
530.638	21279
530.707	26240
530.775	27373
530.843	23443
530.911	23883
530.979	21426
531.047	24108
531.115	24949
531.183	23782
531.252	25472
531.320	27212
531.388	23896
531.456	24324
531.524	21650
531.592	24720
531.660	26791
531.728	24935
531.796	22701
531.864	24410
531.932	25669
532.000	23917
532.067	25956
532.135	27022
532.203	33586
532.271	37290
532.339	83483
532.407	146282
532.475	49614
532.542	36048
532.610	46127
532.678	96729
532.746	389057
532.814	423840
532.881	68343
532.949	29215
533.017	26419
533.084	26655
533.152	25746
533.220	27492
533.287	26984
533.355	23714
533.423	24311
533.490	23273
533.558	25571
533.625	30208
533.693	28868
533.761	28227
533.828	29548
533.896	32721
533.963	60525
534.031	66476
534.098	76080
534.166	32302
534.233	25782
534.300	28722
534.368	28889
534.435	27155
534.503	25820
534.570	26511
534.637	26504
534.705	31018
534.772	39304
534.840	82111
534.907	269146
534.974	149744
535.041	44788
535.109	43032
535.176	24020
535.243	25717
535.310	27857
535.378	24512
535.445	22933
535.512	23645
535.579	26472
535.646	24704
535.714	26283
535.781	28639
535.848	29666
535.915	29284
535.982	27771
536.049	28841
536.116	28854
536.183	28019
536.250	29254
536.317	31576
536.384	40995
536.451	58975
536.518	48740
536.585	41275
536.652	55705
536.719	70772
536.786	47014
536.853	45215
536.920	83877
536.987	103143
537.053	129163
537.120	352578
537.187	121873
537.254	32604
537.321	30689
537.388	29832
537.454	28469
537.521	26908
537.588	27809
537.654	31711
537.721	32114
537.788	29567
537.855	27329
537.921	30530
537.988	28837
538.055	30255
538.121	30653
538.188	36025
538.254	67360
538.321	100469
538.388	45256
538.454	32434
538.521	27897
538.587	27438
538.654	27931
538.720	27162
538.787	27910
538.853	37904
538.920	47152
538.986	45420
539.053	35384
539.119	35173
539.185	35091
539.252	45851
539.318	53765
539.385	37993
539.451	34221
539.517	37523
539.583	58188
539.650	159471
539.716	181060
539.782	40907
539.849	31850
539.915	32859
539.981	37199
540.047	41561
540.114	35982
540.180	36964
540.246	38821
540.312	62616
540.378	114723
540.444	86669
540.510	154259
540.576	208314
540.643	44924
540.709	30566
540.775	32267
540.841	37521
540.907	61067
540.973	59557
541.039	59166
541.105	52069
541.171	33232
541.237	32156
541.303	33198
541.369	40094
541.435	62381
541.500	90624
541.566	42000
541.632	30340
541.698	28065
541.764	29989
541.830	30540
541.896	30055
541.961	30156
542.027	29790
542.093	31262
542.159	33672
542.224	41520
542.290	59932
542.356	104524
542.421	78267
542.487	37590
542.553	37879
542.618	39184
542.684	32575
542.750	35332
542.815	49739
542.881	118576
542.947	246237
543.012	77607
543.078	29578
543.143	29904
543.209	33832
543.274	34525
543.340	48869
543.405	119736
543.471	89469
543.536	31616
543.602	34337
543.667	30259
543.732	28833
543.798	30891
543.863	29038
543.928	28003
543.994	28444
544.059	28080
544.124	28180
544.190	28480
544.255	28978
544.320	29568
544.386	35230
544.451	50497
544.516	51371
544.581	70322
544.646	200538
544.712	138542
544.777	44130
544.842	52291
544.907	50757
544.972	41228
545.037	43316
545.102	46741
545.168	46742
545.233	47313
545.298	54848
545.363	59433
545.428	66824
545.493	136299
545.558	169290
545.623	58793
545.688	46303
545.753	44803
545.818	44573
545.883	46094
545.947	48376
546.012	58911
546.077	50942
546.142	48454
546.207	52667
546.272	66212
546.337	59660
546.401	49369
546.466	48404
546.531	50487
546.596	53577
546.661	51028
546.725	48772
546.790	48586
546.855	51382
546.919	52834
546.984	57438
547.049	66646
547.113	73891
547.178	66342
547.243	78139
547.307	88638
547.372	107576
547.436	96615
547.501	79543
547.565	86395
547.630	94807
547.695	101015
547.759	114965
547.823	80351
547.888	76329
547.952	78056
548.017	87791
548.081	109705
548.146	128356
548.210	93672
548.274	85433
548.339	77657
548.403	75579
548.468	72297
548.532	73970
548.596	75371
548.660	79396
548.725	93426
548.789	113177
548.853	93707
548.917	96254
548.982	133668
549.046	93045
549.110	72637
549.174	73143
549.238	77359
549.303	79369
549.367	81956
549.431	77235
549.495	75573
549.559	78617
549.623	90814
549.687	104507
549.751	115478
549.815	107684
549.879	101825
549.943	101400
550.007	108871
550.071	107418
550.135	109561
550.199	97409
550.263	95122
550.327	118719
550.391	124032
550.455	100315
550.519	103310
550.582	115126
550.646	140745
550.710	124553
550.774	115508
550.838	116557
550.901	120681
550.965	128202
551.029	135670
551.093	156717
551.156	217588
551.220	373349
551.284	265515
551.347	222425
551.411	410202
551.475	223444
551.538	120472
551.602	107661
551.666	105143
551.729	98429
551.793	100292
551.856	96850
551.920	96886
551.983	95197
552.047	94037
552.110	95322
552.174	96415
552.237	94429
552.301	88461
552.364	88779
552.428	88340
552.491	91741
552.554	91111
552.618	92568
552.681	95561
552.745	102884
552.808	130930
552.871	130166
552.934	100926
552.998	98626
553.061	96290
553.124	85012
553.187	87374
553.251	92312
553.314	89076
553.377	89708
553.440	96702
553.503	109353
553.567	100175
553.630	90967
553.693	92916
553.756	91213
553.819	86666
553.882	86685
553.945	84825
554.008	85167
554.071	86605
554.134	84918
554.197	78321
554.260	79920
554.323	87187
554.386	88105
554.449	85433
554.512	83971
554.575	84007
554.638	86523
554.701	81001
554.764	79595
554.827	78207
554.889	71558
554.952	70994
555.015	71524
555.078	73216
555.141	71467
555.203	70678
555.266	73348
555.329	72873
555.391	70116
555.454	74003
555.517	70728
555.580	65487
555.642	63058
555.705	63706
555.768	65771
555.830	63658
555.893	59317
555.955	60651
556.018	61449
556.080	61301
556.143	60789
556.206	63507
556.268	65702
556.330	66308
556.393	63500
556.455	76245
556.518	112470
556.580	75325
556.643	54707
556.705	54603
556.767	56585
556.830	58796
556.892	70026
556.955	83390
557.017	59714
557.079	54145
557.142	56321
557.204	76681
557.266	115358
557.328	68139
557.391	50266
557.453	49493
557.515	55337
557.577	65365
557.639	57536
557.701	49988
557.764	48868
557.826	54230
557.888	56835
557.950	55230
558.012	60353
558.074	91280
558.136	224519
558.198	264848
558.260	79804
558.322	59622
558.384	62777
558.446	68406
558.508	79490
558.570	102838
558.632	177024
558.694	194125
558.756	300392
558.818	1020454
558.880	1124167
558.942	282258
559.003	295896
559.065	92764
559.127	69414
559.189	74207
559.251	91806
559.312	167765
559.374	518166
559.436	881090
559.498	185966
559.559	70226
559.621	74455
559.683	109660
559.744	241912
559.806	647455
559.868	412993
559.929	89084
559.991	97881
560.052	193202
560.114	322035
560.176	149105
560.237	266829
560.299	212859
560.360	60617
560.422	52968
560.483	51221
560.545	49712
560.606	48673
560.667	48440
560.729	46376
560.790	45393
560.852	46982
560.913	45979
560.974	45428
561.036	45741
561.097	46153
561.158	45265
561.220	47580
561.281	46443
561.342	48565
561.403	57828
561.465	84316
561.526	176001
561.587	121396
561.648	49299
561.709	45303
561.771	45850
561.832	44997
561.893	43822
561.954	42524
562.015	42752
562.076	42789
562.137	43243
562.198	43547
562.259	44004
562.320	46336
562.381	55718
562.442	67025
562.503	47038
562.564	42038
562.625	41437
562.686	45075
562.747	48875
562.808	45112
562.869	52747
562.930	61527
562.991	53698
563.051	50119
563.112	45997
563.173	44765
563.234	43016
563.294	43335
563.355	43442
563.416	43302
563.477	44666
563.537	48140
563.598	49252
563.659	46882
563.720	47196
563.780	49210
563.841	48453
563.901	45371
563.962	44387
564.023	45580
564.083	46520
564.144	48528
564.204	47957
564.265	52935
564.325	82429
564.386	139303
564.446	66087
564.507	42980
564.567	42992
564.628	42491
564.688	43978
564.749	47859
564.809	62970
564.869	57433
564.930	39959
564.990	40911
565.050	40385
565.111	40209
565.171	40340
565.231	38690
565.292	39008
565.352	39920
565.412	42164
565.472	42742
565.532	42524
565.593	40292
565.653	39474
565.713	42563
565.773	45281
565.833	57270
565.893	53696
565.953	40553
566.013	41247
566.074	52390
566.134	83766
566.194	120872
566.254	83155
566.314	51960
566.374	41303
566.434	42703
566.494	40382
566.554	39852
566.614	40504
566.673	41037
566.733	44635
566.793	45557
566.853	42897
566.913	41793
566.973	44127
567.033	47896
567.092	45776
567.152	44541
567.212	43318
567.272	48419
567.331	48758
567.391	47085
567.451	58322
567.511	85102
567.570	55530
567.630	41063
567.690	39836
567.749	39919
567.809	39643
567.868	44444
567.928	49248
567.988	47890
568.047	42196
568.107	44216
568.166	48545
568.226	62229
568.285	63463
568.345	51546
568.404	47166
568.464	45327
568.523	45179
568.582	46162
568.642	51468
568.701	59078
568.761	78486
568.820	95357
568.879	85022
568.939	77704
568.998	50769
569.057	44064
569.116	40879
569.176	37693
569.235	36822
569.294	38070
569.353	38163
569.413	41645
569.472	39346
569.531	36828
569.590	36892
569.649	34850
569.708	36184
569.767	44163
569.827	52200
569.886	37945
569.945	36418
570.004	41556
570.063	38427
570.122	43262
570.181	48525
570.240	55155
570.299	49527
570.358	46433
570.417	36378
570.475	37045
570.534	40431
570.593	40996
570.652	44335
570.711	41210
570.770	43485
570.829	44758
570.887	42328
570.946	41159
571.005	35513
571.064	39156
571.122	45279
571.181	48134
571.240	37342
571.299	38699
571.357	45121
571.416	44261
571.475	58272
571.533	45235
571.592	42650
571.650	41559
571.709	36918
571.768	37929
571.826	33999
571.885	34913
571.943	35915
572.002	39210
572.060	36196
572.119	33032
572.177	32289
572.236	31199
572.294	31288
572.352	32799
572.411	32113
572.469	32612
572.528	32851
572.586	35895
572.644	45060
572.703	46438
572.761	37066
572.819	33091
572.877	31976
572.936	31326
572.994	30828
573.052	33832
573.110	35041
573.169	31284
573.227	30187
573.285	29946
573.343	32340
573.401	31682
573.459	31410
573.517	31668
573.576	30741
573.634	33467
573.692	33879
573.750	31633
573.808	34655
573.866	40863
573.924	51853
573.982	41338
574.040	31170
574.098	31656
574.155	29145
574.213	28469
574.271	31560
574.329	30853
574.387	28374
574.445	28397
574.503	27576
574.560	26558
574.618	27101
574.676	27618
574.734	28561
574.792	27289
574.849	26658
574.907	25716
574.965	26994
575.022	26337
575.080	25999
575.138	29313
575.195	30033
575.253	31260
575.311	29832
575.368	27018
575.426	25910
575.483	26390
575.541	26927
575.598	29045
575.656	29860
575.713	27590
575.771	26572
575.828	28251
575.886	29395
575.943	31269
576.001	31388
576.058	32893
576.115	37073
576.173	47562
576.230	49034
576.287	44394
576.345	34636
576.402	32954
576.459	34093
576.517	36450
576.574	43156
576.631	40302
576.688	33145
576.746	31405
576.803	32664
576.860	31022
576.917	29763
576.974	30520
577.031	31390
577.089	31666
577.146	31284
577.203	33280
577.260	35322
577.317	41909
577.374	46735
577.431	36025
577.488	31538
577.545	28240
577.602	30425
577.659	29457
577.716	28320
577.773	28285
577.830	27387
577.886	28584
577.943	28562
578.000	30604
578.057	33715
578.114	33306
578.171	42523
578.227	35869
578.284	28951
578.341	29856
578.398	31853
578.454	37245
578.511	44439
578.568	46670
578.625	34164
578.681	28672
578.738	28152
578.794	28428
578.851	28403
578.908	29678
578.964	29991
579.021	29085
579.077	27293
579.134	26933
579.190	26930
579.247	28200
579.303	26998
579.360	26053
579.416	26654
579.473	26759
579.529	25596
579.586	26376
579.642	27789
579.698	30151
579.755	28404
579.811	26454
579.867	26672
579.924	25700
579.980	27141
580.036	27621
580.093	26774
580.149	28181
580.205	27956
580.261	29431
580.317	33092
580.374	39649
580.430	43566
580.486	35068
580.542	30340
580.598	29732
580.619	29756
580.654	29833
580.692	29713
580.710	29710
580.765	28891
580.767	28898
580.823	29893
580.838	29721
580.879	29360
580.911	28697
580.935	28277
580.984	27711
580.991	27672
581.047	29416
581.057	29506
581.103	30030
581.130	30270
581.159	30596
581.203	31202
581.215	31394
581.270	30644
581.276	30574
581.326	30190
581.349	30423
581.382	30836
581.422	31610
581.438	31993
581.494	32560
581.494	32524
581.550	31192
581.567	31878
581.606	33422
581.640	32726
581.661	32322
581.713	31252
581.717	31199
581.773	30598
581.786	30736
581.829	31220
581.859	31056
581.885	31015
581.932	31121
581.940	31127
581.996	32165
582.004	31844
582.052	30308
582.077	30063
582.107	29782
582.150	30799
582.163	31132
582.219	30969
582.223	30872
582.274	29906
582.296	31199
582.330	33347
582.368	31692
582.386	30933
582.441	29237
582.441	29243
582.497	28769
582.514	28645
582.552	28481
582.587	28716
582.608	28945
582.659	28741
582.663	28720
582.719	28616
582.732	28884
582.774	29817
582.805	29934
582.830	30064
582.877	29063
582.885	28883
582.941	28443
582.950	28493
582.996	28752
583.023	29121
583.052	29704
583.095	29317
583.107	29116
583.162	30383
583.168	30343
583.218	30350
583.240	29837
583.273	28956
583.313	28165
583.328	27855
583.384	28699
583.385	28678
583.439	28155
583.458	27823
583.494	27151
583.531	27855
583.549	28290
583.603	28282
583.605	28278
583.660	27576
583.676	27914
583.715	28722
583.748	29547
583.770	30205
583.820	30682
583.825	30681
583.881	28514
583.893	28472
583.936	28637
583.965	28836
583.991	28871
584.038	29551
584.046	29666
584.101	29553
584.110	29401
584.156	28645
584.183	28396
584.211	28157
584.255	27136
584.266	26808
584.321	27565
584.328	27566
584.376	28046
584.400	27888
584.431	27377
584.472	27814
584.486	27993
584.541	27554
584.545	27663
584.596	29444
584.617	29438
584.651	29744
584.689	30499
584.706	30584
584.761	30625
584.762	30631
584.816	30960
584.834	31166
584.871	31331
584.906	31848
584.926	32196
584.978	32473
584.980	32474
585.035	33446
585.051	33632
585.090	34451
585.123	35807
585.145	36678
585.195	37758
585.200	37866
585.254	39237
585.267	39918
585.309	42200
585.340	43799
585.364	45415
585.412	49173
585.419	49685
585.473	57291
585.484	60205
585.528	74291
585.556	90323
585.583	114051
585.628	175832
585.637	198165
585.692	423069
585.700	432862
585.747	461641
585.772	402545
585.801	231081
585.845	91116
585.856	80250
585.910	50262
585.917	46787
585.965	42968
585.989	41390
586.019	39711
586.061	38077
586.074	38024
586.128	39588
586.133	39810
586.183	43704
586.205	44491
586.237	44300
586.277	43512
586.292	43193
586.346	42022
586.349	42075
586.401	42460
586.421	43198
586.455	45935
586.493	52445
586.509	56991
586.564	81804
586.565	82603
586.618	123752
586.637	115574
586.672	78656
586.709	62449
586.727	56686
586.781	45904
586.781	45890
586.835	41600
586.853	40499
586.889	38803
586.925	37808
586.944	37883
586.996	39199
586.998	39247
587.052	40375
587.068	40493
587.106	40175
587.140	40438
587.161	40694
587.212	41652
587.215	41703
587.269	42547
587.284	42662
587.323	42613
587.356	42933
587.377	43446
587.427	44104
587.431	44071
587.485	43844
587.499	43788
587.539	44350
587.571	45654
587.593	46708
587.643	47976
587.648	48090
587.702	49789
587.715	50372
587.755	52043
587.786	52153
587.810	51977
587.858	52243
587.864	52346
587.917	54941
587.930	55753
587.971	60538
588.001	62459
588.025	62379
588.073	61985
588.079	62065
588.133	63664
588.145	64365
588.187	68664
588.217	71260
588.241	73993
588.288	80659
588.295	81684
588.348	89936
588.360	91800
588.402	100262
588.431	106355
588.456	111840
588.503	124019
588.510	126278
588.564	145965
588.575	150847
588.617	171726
588.646	189324
588.671	210877
588.718	263427
588.725	275775
588.778	395456
588.789	428226
588.832	662394
588.861	854228
588.886	1130916
588.932	1643108
588.939	1687706
588.993	1825793
589.004	1826294
589.047	1300052
589.075	978962
589.100	749373
589.147	385014
589.154	370217
589.207	272311
589.218	253667
589.261	240383
589.290	235989
589.314	246919
589.361	279704
589.368	292308
589.421	420953
589.433	456155
589.475	746236
589.504	976848
589.528	1238264
589.576	1617839
589.582	1580997
589.635	1093248
589.647	1001514
589.689	575704
589.718	304016
589.742	252629
589.790	157716
589.795	155078
589.849	133994
589.861	130038
589.902	134524
589.932	129262
589.955	113045
590.004	85091
590.009	83893
590.062	72974
590.075	70305
590.115	67056
590.146	64766
590.168	64151
590.218	62439
590.222	62370
590.275	61965
590.289	61717
590.328	61409
590.360	60829
590.381	59837
590.431	57906
590.435	57872
590.488	57098
590.503	56893
590.541	57374
590.574	57533
590.594	56807
590.645	55317
590.647	55333
590.700	54964
590.716	54956
590.753	54322
590.787	53710
590.806	53749
590.859	53721
590.859	53727
590.912	53047
590.930	52979
590.965	53414
591.001	53610
591.018	53436
591.071	52770
591.072	52748
591.124	52830
591.143	52846
591.177	53008
591.214	53048
591.230	53723
591.283	56062
591.285	56147
591.336	58484
591.356	59271
591.389	59839
591.427	60148
591.442	58846
591.495	54235
591.498	53872
591.547	52877
591.569	52436
591.600	52146
591.640	51747
591.653	52054
591.706	53467
591.711	53617
591.759	55902
591.782	57337
591.811	61072
591.853	65626
591.864	64228
591.917	57018
591.924	56017
591.969	54701
591.995	53989
592.022	54820
592.066	56163
592.075	56962
592.127	62105
592.137	63133
592.180	71496
592.208	76274
592.233	70928
592.279	61046
592.285	60513
592.338	55947
592.350	54899
592.390	54463
592.421	54133
592.443	54338
592.491	54708
592.495	54814
592.548	56047
592.562	56367
592.600	56108
592.633	55850
592.653	55437
592.704	54033
592.705	54376
592.775	56200
592.846	56452
592.916	59472
592.987	62980
593.058	60612
593.128	55991
593.199	54891
593.270	55008
593.341	54391
593.411	57647
593.482	58626
593.553	57201
593.623	56894
593.694	58274
593.764	64596
593.835	60281
593.906	57562
593.976	59505
594.047	62083
594.117	70473
594.188	75315
594.258	63077
594.329	58978
594.399	61809
594.470	59858
594.540	62645
594.611	62439
594.681	61668
594.751	64456
594.822	67033
594.892	69637
594.963	71513
595.033	70957
595.103	74353
595.174	77742
595.244	97773
595.314	126234
595.384	83274
595.455	74449
595.525	77978
595.595	80513
595.665	79972
595.736	77963
595.806	79319
595.876	79042
595.946	78189
596.016	78862
596.087	83446
596.157	82671
596.227	82813
596.297	86538
596.367	92237
596.437	99292
596.507	110888
596.577	136747
596.647	104185
596.717	97578
596.787	99295
596.857	99066
596.927	98985
596.997	100213
597.067	100177
597.137	101406
597.207	102114
597.277	104228
597.347	100769
597.417	99005
597.487	97889
597.557	100606
597.626	103807
597.696	107795
597.766	116658
597.836	132635
597.906	107869
597.975	91734
598.045	92109
598.115	94441
598.185	99728
598.254	109141
598.324	119235
598.394	120926
598.464	120644
598.533	115719
598.603	107520
598.672	107058
598.742	107294
598.812	106324
598.881	108576
598.951	106296
599.020	106272
599.090	107656
599.159	111619
599.229	107973
599.299	103891
599.368	106797
599.437	106081
599.507	100737
599.576	100263
599.646	96783
599.715	94839
599.785	96381
599.854	97251
599.924	100823
599.993	98604
600.062	93089
600.132	95689
600.201	98541
600.270	113654
600.340	119627
600.409	113033
600.478	112271
600.547	114119
600.617	111905
600.686	93398
600.755	85798
600.824	84334
600.894	80907
600.963	78589
601.032	75067
601.101	75693
601.170	72421
601.239	71607
601.308	73681
601.378	73687
601.447	70873
601.516	71252
601.585	70901
601.654	77043
601.723	74538
601.792	73516
601.861	75531
601.930	78535
601.999	85776
602.068	79239
602.137	83943
602.206	84202
602.275	80168
602.343	91006
602.412	94454
602.481	81584
602.550	79160
602.619	81291
602.688	85323
602.756	84887
602.825	82323
602.894	83349
602.963	86403
603.032	86476
603.100	86781
603.169	86517
603.238	87943
603.307	87374
603.375	87085
603.444	88210
603.513	90623
603.581	91537
603.650	92863
603.719	91199
603.787	92976
603.856	96126
603.924	99147
603.993	104003
604.061	101857
604.130	108188
604.198	110632
604.267	111530
604.335	111039
604.404	113379
604.472	115739
604.541	116332
604.609	116731
604.678	117139
604.746	115784
604.815	120900
604.883	122991
604.951	123516
605.020	122674
605.088	127709
605.156	128888
605.225	131863
605.293	129302
605.361	133158
605.429	134541
605.498	136452
605.566	143394
605.634	146360
605.702	148756
605.771	154968
605.839	156370
605.907	151078
605.975	146024
606.043	142608
606.111	143025
606.180	143549
606.248	141911
606.316	142150
606.384	142203
606.452	155091
606.520	165177
606.588	157645
606.656	151259
606.724	147466
606.792	139076
606.860	127925
606.928	115281
606.996	112781
607.064	107807
607.132	110704
607.200	117365
607.267	122811
607.335	123167
607.403	126765
607.471	125081
607.539	119933
607.607	121614
607.674	109160
607.742	108834
607.810	111876
607.878	109301
607.946	110579
608.013	112090
608.081	118819
608.149	118911
608.216	118634
608.284	124146
608.352	123479
608.419	126650
608.487	137906
608.555	128953
608.622	121750
608.690	125603
608.757	139333
608.825	146342
608.893	143997
608.960	143291
609.028	145503
609.095	149272
609.163	136106
609.230	119474
609.298	108823
609.365	109466
609.432	116754
609.500	124589
609.567	142941
609.635	162499
609.702	175713
609.769	170514
609.837	144825
609.904	119793
609.971	120625
610.039	132725
610.106	168825
610.173	309046
610.241	734905
610.308	555059
610.375	169315
610.442	126689
610.509	119124
610.577	115714
610.644	118178
610.711	122120
610.778	124944
610.845	128873
610.912	136363
610.980	142159
611.047	144466
611.114	142634
611.181	136761
611.248	134896
611.315	140453
611.382	144893
611.449	149910
611.516	152681
611.583	150779
611.650	152674
611.717	156077
611.784	159855
611.851	167740
611.918	185167
611.984	216166
612.051	298184
612.118	575640
612.185	1461825
612.252	1265671
612.319	278174
612.386	203010
612.452	188806
612.519	180938
612.586	189864
612.653	183405
612.719	176197
612.786	172396
612.853	160505
612.919	153445
612.986	156419
613.053	148397
613.120	140095
613.186	133141
613.253	135649
613.319	134819
613.386	136303
613.453	139518
613.519	148109
613.586	152454
613.652	180648
613.719	164048
613.785	161659
613.852	140678
613.918	138380
613.985	138985
614.051	145923
614.118	150372
614.184	148366
614.250	136231
614.317	139945
614.383	138165
614.449	139880
614.516	139665
614.582	142329
614.648	140763
614.715	134701
614.781	135609
614.847	136339
614.914	138962
614.980	135085
615.046	131198
615.112	133283
615.179	135502
615.245	136846
615.311	136905
615.377	142591
615.443	145917
615.509	142442
615.575	147789
615.642	145038
615.708	151473
615.774	160744
615.840	174078
615.906	193882
615.972	237529
616.038	350081
616.104	701562
616.170	1691241
616.236	1958089
616.302	430015
616.368	274316
616.434	203471
616.500	180916
616.565	193332
616.631	248156
616.697	209499
616.763	204427
616.829	284064
616.895	531762
616.961	579144
617.026	246779
617.092	158210
617.158	146926
617.224	143976
617.289	135497
617.355	130936
617.421	130654
617.487	130658
617.552	122433
617.618	118947
617.684	119739
617.749	120836
617.815	114300
617.880	112827
617.946	111992
618.012	115647
618.077	115474
618.143	112388
618.208	111822
618.274	119105
618.339	126288
618.405	107992
618.470	103212
618.536	105053
618.601	109243
618.667	103784
618.732	96306
618.798	92327
618.863	93035
618.928	92124
618.994	96100
619.059	101356
619.124	119008
619.190	109210
619.255	94020
619.320	92323
619.386	94329
619.451	90348
619.516	88786
619.581	89339
619.647	90578
619.712	91318
619.777	87803
619.842	89405
619.907	92842
619.972	92712
620.038	93848
620.103	87081
620.168	87564
620.233	87153
620.298	88660
620.363	88681
620.428	90882
620.493	93034
620.558	93921
620.623	93139
620.688	93665
620.753	92324
620.818	94470
620.883	96571
620.948	95496
621.013	95453
621.078	94729
621.143	95759
621.207	100839
621.272	97834
621.337	100849
621.402	101456
621.467	112648
621.532	120186
621.596	105791
621.661	98336
621.726	94444
621.791	94520
621.855	98420
621.920	101319
621.985	99775
622.049	110470
622.114	109268
622.179	103922
622.243	106298
622.308	107539
622.373	110013
622.437	109194
622.502	101945
622.566	100556
622.631	102061
622.695	103064
622.760	102747
622.824	101540
622.889	102381
622.953	107978
623.018	132366
623.082	145925
623.147	110399
623.211	105906
623.276	106217
623.340	102146
623.404	96016
623.469	95505
623.533	96096
623.597	96200
623.662	93283
623.726	90358
623.790	85926
623.854	83003
623.919	85603
623.983	85014
624.047	88908
624.111	86054
624.176	87858
624.240	93842
624.304	102440
624.368	89584
624.432	88661
624.496	91217
624.560	97444
624.625	108459
624.689	96293
624.753	95656
624.817	95551
624.881	90357
624.945	85547
625.009	81279
625.073	85195
625.137	89907
625.201	101885
625.265	108771
625.329	87986
625.393	89687
625.456	91318
625.520	91610
625.584	99821
625.648	111715
625.712	139351
625.776	240653
625.839	300802
625.903	167144
625.967	90247
626.031	112299
626.095	186855
626.158	111847
626.222	72491
626.286	66319
626.349	64688
626.413	61673
626.477	65473
626.540	62443
626.604	61979
626.668	61463
626.731	60656
626.795	61567
626.858	64314
626.922	61121
626.986	59925
627.049	58956
627.113	60958
627.176	59845
627.240	57886
627.303	59056
627.366	59723
627.430	60756
627.493	59554
627.557	59335
627.620	60453
627.684	60647
627.747	61892
627.810	59883
627.874	54915
627.937	53250
628.000	55033
628.064	55481
628.127	50574
628.190	49975
628.253	49812
628.317	47562
628.380	45325
628.443	45669
628.506	47934
628.569	44457
628.632	42989
628.696	41985
628.759	42323
628.822	40561
628.885	40233
628.948	40107
629.011	40318
629.074	41252
629.137	39814
629.200	38615
629.263	43091
629.326	37913
629.389	37311
629.452	37577
629.515	40689
629.578	38911
629.641	40286
629.704	40045
629.767	41643
629.830	36558
629.892	36813
629.955	36643
630.018	40251
630.081	41298
630.144	52639
630.207	42023
630.269	43109
630.332	41605
630.395	40426
630.458	35104
630.520	34138
630.583	35594
630.646	33154
630.708	34192
630.771	34315
630.834	35097
630.896	34001
630.959	32951
631.021	34054
631.084	34973
631.146	37191
631.209	41557
631.272	36499
631.334	33461
631.397	34768
631.459	33454
631.522	36783
631.584	37087
631.646	39870
631.709	40837
631.771	50374
631.834	44868
631.896	37204
631.958	33931
632.021	34181
632.083	33275
632.145	34752
632.208	33514
632.270	35060
632.332	32051
632.395	31170
632.457	33543
632.519	32361
632.581	31494
632.643	31207
632.706	31529
632.768	30362
632.830	31372
632.892	31759
632.954	31978
633.016	33201
633.078	30413
633.141	31414
633.203	30779
633.265	31708
633.327	30202
633.389	31306
633.451	34416
633.513	41532
633.575	39768
633.637	40530
633.698	38084
633.760	33471
633.822	32616
633.884	33573
633.946	33251
634.008	33779
634.070	34807
634.132	36129
634.193	39174
634.255	42645
634.317	43429
634.379	42502
634.441	39245
634.502	36415
634.564	33577
634.626	33208
634.687	33601
634.749	31492
634.811	29725
634.873	28197
634.934	29057
634.996	29429
635.057	29413
635.119	29156
635.181	29865
635.242	29692
635.304	28957
635.365	31254
635.427	29001
635.488	30567
635.550	28960
635.611	29703
635.673	28813
635.734	33043
635.796	33401
635.857	35591
635.918	36144
635.980	39548
636.041	41137
636.102	44898
636.164	43972
636.225	43309
636.286	38092
636.348	36023
636.409	31919
636.470	31396
636.531	29897
636.593	32076
636.654	32318
636.715	26594
636.776	24994
636.838	25685
636.899	26799
636.960	25417
637.021	25125
637.082	26312
637.143	25559
637.204	24089
637.265	22744
637.326	24622
637.387	23855
637.448	23593
637.509	24365
637.570	23595
637.631	23113
637.692	22518
637.753	21383
637.814	22927
637.875	22797
637.936	23256
637.997	23047
638.058	23780
638.119	24511
638.179	23518
638.240	22696
638.301	22844
638.362	21853
638.423	23144
638.483	22759
638.544	20639
638.605	20649
638.666	20478
638.726	22325
638.787	21500
638.848	20574
638.908	21137
638.969	20165
639.030	21162
639.090	20975
639.151	22037
639.211	22876
639.272	27786
639.332	43557
639.393	33694
639.453	21396
639.514	23902
639.574	20599
639.635	18982
639.695	20272
639.756	20423
639.816	21436
639.877	24927
639.937	36828
639.997	57490
640.058	27609
640.118	19876
640.178	19001
640.239	18323
640.299	18900
640.359	18673
640.420	19139
640.480	21589
640.540	23877
640.600	24710
640.661	22315
640.721	21073
640.781	27817
640.841	22818
640.901	20388
640.961	20117
641.021	21775
641.082	25775
641.142	34007
641.202	27724
641.262	16892
641.322	18899
641.382	17575
641.442	18551
641.502	17326
641.562	19653
641.622	17949
641.682	19389
641.742	20899
641.802	21970
641.861	21263
641.921	22302
641.981	23371
642.041	23419
642.101	26336
642.161	23698
642.221	17016
642.280	17781
642.340	16286
642.400	16578
642.460	17647
642.519	18638
642.579	18120
642.639	19267
642.698	16146
642.758	19188
642.818	18108
642.877	18933
642.937	18819
642.997	21768
643.056	31035
643.116	23824
643.175	19251
643.235	19104
643.294	19486
643.354	21727
643.414	22467
643.473	26888
643.532	33220
643.592	45138
643.651	66619
643.711	110933
643.770	201749
643.830	441581
643.889	1222617
643.948	506977
644.008	62421
644.067	35265
644.126	28070
644.186	24336
644.245	20478
644.304	17551
644.363	19689
644.423	17288
644.482	19260
644.541	19324
644.600	19339
644.659	24317
644.719	28072
644.778	40071
644.837	61026
644.896	114824
644.955	300088
645.014	170500
645.073	30802
645.132	22889
645.191	20565
645.250	19447
645.309	20391
645.368	21405
645.427	24616
645.486	34630
645.545	67618
645.604	32826
645.663	18504
645.722	19013
645.781	20778
645.840	23368
645.898	28756
645.957	41764
646.016	60519
646.075	102793
646.134	191410
646.192	444657
646.251	990912
646.310	238261
646.369	43737
646.427	30514
646.486	24760
646.545	20204
646.603	18241
646.662	17865
646.721	17726
646.779	16016
646.838	17682
646.896	22595
646.955	27145
647.014	38584
647.072	63571
647.131	174943
647.189	148084
647.248	23781
647.306	16794
647.365	14828
647.423	13451
647.481	14765
647.540	13416
647.598	14346
647.657	13341
647.715	14139
647.773	12306
647.832	13644
647.890	12400
647.948	13642
648.007	13793
648.065	12398
648.123	12498
648.181	14436
648.240	13098
648.298	11675
648.356	13087
648.414	13929
648.472	13253
648.531	13349
648.589	12888
648.647	13121
648.705	12735
648.763	13440
648.821	14387
648.879	14808
648.937	17185
648.995	18708
649.053	22723
649.111	33950
649.169	51562
649.227	84217
649.285	153712
649.343	471327
649.401	408645
649.459	77662
649.516	54157
649.574	21950
649.632	22166
649.690	25744
649.748	24249
649.806	29321
649.863	46916
649.921	115147
649.979	133007
650.037	24323
650.094	13283
650.152	14004
650.210	12230
650.268	12406
650.325	11898
650.383	12562
650.440	9687
650.498	11397
650.556	11025
650.613	9554
650.671	10317
650.728	10847
650.786	11901
650.843	13170
650.901	10993
650.958	10894
651.016	9566
651.073	10326
651.131	9327
651.188	9761
651.246	11357
651.303	9970
651.360	10887
651.418	10426
651.475	9938
651.532	8732
651.590	9501
651.647	9017
651.704	9408
651.762	10040
651.819	10530
651.876	9952
651.933	9199
651.990	10005
652.048	8716
652.105	10080
652.162	9251
652.219	8908
652.276	9555
652.333	10036
652.390	8240
652.448	8742
652.505	8928
652.562	9754
652.619	7453
652.676	9268
652.733	9945
652.790	8916
652.847	7040
652.904	8988
652.961	7607
653.017	8228
653.074	8276
653.131	9191
653.188	7316
653.245	8802
653.302	8731
653.359	8146
653.415	8947
653.472	8173
653.529	8210
653.586	8526
653.642	8171
653.699	9642
653.756	7215
653.813	8317
653.869	8016
653.926	7959
653.983	7344
654.039	8398
654.096	8661
654.152	8780
654.209	7998
654.266	9745
654.322	9073
654.379	10655
654.435	11641
654.492	11233
654.548	14753
654.605	26357
654.661	17056
654.717	9803
654.774	9825
654.830	9746
654.887	9707
654.943	10365
655.000	9978
655.056	10363
655.112	10739
655.168	9329
655.225	9216
655.281	12243
655.337	13305
655.394	23457
655.450	21425
655.506	15143
655.562	21296
655.618	25474
655.675	10099
655.731	9809
655.787	8405
655.843	10401
655.899	8532
655.955	11487
656.011	10131
656.067	8735
656.123	11051
656.179	11391
656.235	12521
656.291	10913
656.347	12187
656.403	11014
656.459	11486
656.515	12169
656.571	13227
656.627	11648
656.683	10339
656.739	11309
656.795	8256
656.850	9366
656.906	11963
656.962	11662
657.018	9158
657.074	8981
657.129	10676
657.185	12693
657.241	19953
657.297	19650
657.352	10139
657.408	8315
657.464	10615
657.519	9799
657.575	7673
657.630	8412
657.686	7474
657.742	7651
657.797	8496
657.853	8599
657.908	10119
657.964	7995
658.019	8599
658.075	9098
658.130	8209
658.186	7247
658.241	7389
658.297	8353
658.352	7349
658.407	7992
658.463	7769
658.518	8505
658.573	7387
658.629	8031
658.684	6554
658.739	9173
658.795	6917
658.850	7558
658.905	6918
658.960	8633
659.016	7459
659.071	8344
659.126	9051
659.181	10184
659.236	13913
659.291	18926
659.346	11419
659.401	10511
659.457	8568
659.512	8773
659.567	9415
659.622	8006
659.677	8047
659.732	7623
659.787	9430
659.842	9447
659.897	13440
659.952	10335
660.007	8487
660.061	8041
660.116	8512
660.171	8489
660.226	6830
660.281	8143
660.336	6617
660.391	8166
660.445	7024
660.500	8170
660.555	8196
660.610	7605
660.664	8207
660.719	7629
660.774	8275
660.828	9059
660.883	8659
660.938	8551
660.992	6997
661.047	8151
661.101	6672
661.156	7610
661.211	6571
661.265	7288
661.320	6832
661.374	7787
661.429	7236
661.483	8624
661.538	7361
661.592	7619
661.647	7278
661.701	8332
661.755	7173
661.810	8510
661.864	7514
661.919	7728
661.973	8513
662.027	7499
662.081	6805
662.136	8497
662.190	7841
662.244	9995
662.299	8182
662.353	8174
662.407	8089
662.461	9153
662.515	9465
662.569	8701
662.624	9257
662.678	8677
662.732	8973
662.786	8310
662.840	8987
662.894	8966
662.948	7789
663.002	7847
663.056	8083
663.110	7988
663.164	8646
663.218	7856
663.272	8566
663.326	9737
663.380	9735
663.434	10249
663.488	8488
663.542	9426
663.595	8957
663.649	8804
663.703	8732
663.757	8763
663.811	7349
663.864	8783
663.918	8539
663.972	8598
664.026	8545
664.079	7952
664.133	8912
664.187	8785
664.240	7586
664.294	8122
664.348	7650
664.401	8818
664.455	8599
664.508	7656
664.562	8430
664.615	8028
664.669	8186
664.722	8424
664.776	8127
664.829	8873
664.883	8553
664.936	8585
664.990	8602
665.043	9924
665.097	10543
665.150	12268
665.203	9149
665.257	9360
665.310	9825
665.363	9341
665.417	10269
665.470	8817
665.523	10122
665.576	10423
665.630	8804
665.683	10001
665.736	10203
665.789	10846
665.842	8719
665.895	9147
665.949	9330
666.002	9622
666.055	9308
666.108	10661
666.161	9812
666.214	10528
666.267	10561
666.320	11621
666.373	10562
666.426	10348
666.479	9594
666.532	11693
666.585	11974
666.638	13717
666.691	12658
666.744	13357
666.796	12492
666.849	12820
666.902	10267
666.955	9549
667.008	8951
667.060	9165
667.113	8461
667.166	8792
667.219	9102
667.271	9318
667.324	9099
667.377	9199
667.430	9087
667.482	9864
667.535	9673
667.587	10722
667.640	10670
667.693	12742
667.745	16879
667.798	23230
667.850	13342
667.903	10640
667.955	10006
668.008	10087
668.060	10597
668.113	12248
668.165	12028
668.218	12313
668.270	10723
668.322	10546
668.375	11076
668.427	10994
668.479	10190
668.532	11282
668.584	10822
668.636	10932
668.689	10523
668.741	10624
668.793	10787
668.845	11224
668.898	10260
668.950	10637
669.002	10681
669.054	10178
669.106	10429
669.158	11384
669.211	10078
669.263	10951
669.315	10084
669.367	10793
669.419	11084
669.471	12093
669.523	11602
669.575	14290
669.627	13247
669.679	12161
669.731	11741
669.783	11461
669.835	11752
669.886	11857
669.938	10886
669.990	10442
670.042	9727
670.094	10365
670.146	9586
670.197	10873
670.249	10677
670.301	10814
670.353	11421
670.404	12611
670.456	14945
670.508	19272
670.560	27078
670.611	39520
670.663	60864
670.715	114985
670.766	255213
670.818	122314
670.869	22744
670.921	14175
670.972	12994
671.024	11473
671.075	10754
671.127	11011
671.178	10605
671.230	11404
671.281	10469
671.333	11353
671.384	13711
671.436	13747
671.487	16705
671.538	18929
671.590	24474
671.641	33172
671.692	49500
671.744	98954
671.795	90469
671.846	32336
671.897	17982
671.949	16259
672.000	13464
672.051	12645
672.102	13351
672.153	11558
672.204	11766
672.256	12280
672.307	11471
672.358	12137
672.409	12401
672.460	11245
672.511	10612
672.562	11127
672.613	11365
672.664	10459
672.715	11340
672.766	10940
672.817	10288
672.868	10657
672.919	10368
672.970	10107
673.021	10403
673.071	11183
673.122	9961
673.173	10566
673.224	10015
673.275	10853
673.326	9096
673.376	10058
673.427	9704
673.478	10352
673.528	9800
673.579	9781
673.630	10112
673.680	11215
673.731	10655
673.782	9200
673.832	10186
673.883	11722
673.934	9918
673.984	9452
674.035	9965
674.085	11010
674.136	10353
674.186	12100
674.237	13255
674.287	18300
674.338	17405
674.388	11043
674.438	10659
674.489	9360
674.539	11546
674.589	11483
674.640	10333
674.690	10920
674.740	11131
674.791	12228
674.841	11801
674.891	12511
674.942	10504
674.992	11348
675.042	10405
675.092	9847
675.142	10376
675.193	9727
675.243	10068
675.293	10728
675.343	9992
675.393	10318
675.443	10670
675.493	9183
675.543	9180
675.593	10364
675.643	10148
675.693	10107
675.743	9720
675.793	9935
675.843	9109
675.893	10152
675.943	9290
675.993	8849
676.043	10473
676.093	9742
676.142	8925
676.192	9804
676.242	9987
676.292	9641
676.341	9066
676.391	10841
676.441	10148
676.491	8675
676.540	7965
676.590	9426
676.640	8965
676.689	10109
676.739	8514
676.789	8540
676.838	8347
676.888	8548
676.937	8451
676.987	10137
677.037	8126
677.086	8365
677.136	8188
677.185	8571
677.235	8267
677.284	8026
677.333	8456
677.383	8415
677.432	7651
677.482	7539
677.531	8314
677.580	9956
677.630	8413
677.679	7635
677.728	8511
677.778	8715
677.827	7545
677.876	7814
677.925	7559
677.975	7939
678.024	8054
678.073	7761
678.122	9107
678.171	10151
678.220	8758
678.269	9742
678.319	10565
678.368	10769
678.417	9100
678.466	10785
678.515	10584
678.564	9950
678.613	9020
678.662	9936
678.711	8865
678.760	9722
678.809	7930
678.857	9267
678.906	9305
678.955	9398
679.004	9601
679.053	8849
679.102	9785
679.151	8781
679.199	9413
679.248	8456
679.297	9210
679.346	9132
679.394	8665
679.443	8810
679.492	8777
679.540	8613
679.589	8784
679.638	10159
679.686	8166
679.735	8039
679.784	9068
679.832	10225
679.881	9273
679.929	7947
679.978	7500
680.026	7445
680.075	8843
680.123	8575
680.172	8622
680.220	7849
680.268	7687
680.317	8890
680.365	7024
680.414	7310
680.462	7408
680.510	7983
680.559	7990
680.607	8001
680.655	7543
680.703	7831
680.752	8022
680.800	7922
680.848	7276
680.896	7734
680.945	7809
680.993	7614
681.041	7968
681.089	8009
681.137	7051
681.185	7044
681.233	7758
681.258	7933
681.281	8038
681.329	7613
681.377	7792
681.380	7841
681.425	7544
681.473	9004
681.502	9138
681.521	9123
681.569	9581
681.617	8593
681.624	8715
681.665	8995
681.713	9507
681.745	8840
681.761	8428
681.809	8465
681.857	9992
681.867	9865
681.904	9165
681.952	9790
681.989	9548
682.000	9402
682.048	9779
682.096	9525
682.111	9677
682.143	9763
682.191	9734
682.233	10738
682.239	10826
682.286	9952
682.334	9718
682.354	9986
682.382	10240
682.430	10661
682.476	10409
682.477	10347
682.525	9901
682.572	10298
682.598	10573
682.620	10724
682.667	10576
682.715	11252
682.720	11290
682.763	11193
682.810	11155
682.841	11721
682.857	11880
682.905	11525
682.952	11585
682.963	11723
683.000	11922
683.047	12010
683.085	11928
683.095	11857
683.142	11899
683.190	11019
683.206	11194
683.237	11408
683.284	12585
683.328	12351
683.332	12283
683.379	12054
683.426	12396
683.449	12573
683.473	12687
683.521	12456
683.568	12705
683.571	12737
683.615	12494
683.662	13037
683.693	12975
683.709	12904
683.757	12941
683.804	13428
683.814	13526
683.851	13699
683.898	13737
683.936	13501
683.945	13398
683.992	13167
684.039	14314
684.057	14556
684.086	14931
684.133	15257
684.179	14975
684.180	14909
684.227	15928
684.274	15450
684.300	15584
684.321	15751
684.368	15083
684.415	15700
684.422	15751
684.462	15370
684.509	14314
684.543	14462
684.556	14585
684.603	14874
684.649	14589
684.665	14819
684.696	15274
684.743	15055
684.786	15824
684.790	15880
684.837	16294
684.883	17261
684.908	17488
684.930	17617
684.977	18953
685.023	18650
685.029	18666
685.070	17833
685.117	16494
685.150	16753
685.164	17069
685.210	18544
685.257	19674
685.272	19695
685.303	19329
685.350	18707
685.393	19198
685.396	19248
685.443	20298
685.490	21410
685.514	21558
685.536	21343
685.583	21352
685.629	20791
685.636	20845
685.675	20768
685.722	20386
685.757	19796
685.768	19724
685.815	20923
685.861	21171
685.878	20985
685.908	20387
685.954	20155
686.000	21168
686.000	21192
686.047	22493
686.093	25587
686.121	26228
686.139	26024
686.185	24817
686.232	24623
686.242	24470
686.278	22773
686.324	21565
686.363	20369
686.370	20316
686.416	19020
686.463	20147
686.484	19578
686.509	19252
686.555	19630
686.601	19489
686.606	19588
686.647	20223
686.693	20264
686.727	20265
686.739	20276
686.785	19937
686.831	20930
686.848	20771
686.877	20283
686.923	20340
686.969	19707
686.969	19703
687.015	19882
687.061	20420
687.090	20555
687.107	20602
687.153	20868
687.199	21048
687.211	20926
687.245	20628
687.291	20701
687.332	21655
687.336	21803
687.382	22849
687.428	23105
687.453	22969
687.474	22154
687.520	21630
687.565	21524
687.574	21236
687.611	20635
687.657	20805
687.695	20155
687.702	20177
687.748	21241
687.794	22346
687.816	22652
687.839	22375
687.885	20976
687.931	20876
687.937	20772
687.976	20775
688.022	21073
688.058	21354
688.067	21464
688.113	22255
688.158	22145
688.179	22489
688.204	22573
688.249	21225
688.295	21326
688.300	21390
688.340	22991
688.386	24358
688.421	23946
688.431	23620
688.477	23790
688.522	23314
688.542	23358
688.567	23565
688.613	23295
688.658	24397
688.663	24292
688.703	23371
688.749	23351
688.784	22980
688.794	22991
688.839	23329
688.884	23699
688.905	23437
688.930	22919
688.975	22946
689.020	22707
689.026	22708
689.065	23528
689.110	23998
689.146	24385
689.155	24276
689.201	23620
689.246	22446
689.267	22240
689.291	22489
689.336	22882
689.381	23122
689.388	23082
689.426	23134
689.471	23888
689.509	23883
689.516	23775
689.561	23296
689.606	22300
689.630	22222
689.651	22572
689.696	22641
689.741	23511
689.750	23434
689.785	23300
689.830	24015
689.871	23688
689.875	23617
689.920	23468
689.965	23034
689.992	22813
690.010	22825
690.054	22403
690.099	22297
690.112	22277
690.144	22626
690.189	22762
690.233	23033
690.233	23059
690.278	23078
690.323	22552
690.354	22213
690.367	22309
690.412	22721
690.457	23102
690.474	23413
690.501	23677
690.546	23192
690.590	23007
690.595	23012
690.635	23139
690.680	22384
690.716	22152
690.724	22281
690.769	22951
690.813	23462
690.836	23503
690.857	23341
690.902	23296
690.946	23093
690.957	23115
690.991	23581
691.035	24050
691.077	23940
691.080	23984
691.124	24432
691.168	25354
691.198	25454
691.213	25664
691.257	26713
691.301	27368
691.318	27660
691.346	27176
691.390	25876
691.434	25234
691.439	25101
691.478	25196
691.522	25576
691.559	25400
691.567	25549
691.611	26629
691.655	27008
691.680	27637
691.699	27608
691.743	27055
691.787	26898
691.800	26568
691.831	26515
691.875	27050
691.919	27368
691.921	27344
691.964	28450
692.008	28941
692.041	29690
692.052	29781
692.096	29566
692.139	29518
692.162	29322
692.183	28863
692.227	28111
692.271	27316
692.282	27036
692.315	27198
692.359	27492
692.402	28062
692.403	28111
692.447	27398
692.490	27368
692.523	27106
692.534	27425
692.578	29210
692.622	29691
692.643	30194
692.666	29731
692.709	28672
692.753	27710
692.763	27422
692.797	27275
692.840	26801
692.884	26613
692.884	26665
692.928	26737
692.971	27141
693.004	27623
693.015	27849
693.059	28210
693.102	28565
693.124	28499
693.146	28217
693.189	28088
693.233	27876
693.245	27794
693.276	28878
693.320	30065
693.363	31279
693.365	31262
693.407	30670
693.450	30226
693.485	29658
693.493	29693
693.537	29410
693.580	29363
693.605	29427
693.624	29394
693.667	28686
693.710	28104
693.725	27875
693.753	27950
693.797	28102
693.840	27831
693.845	27809
693.883	28250
693.926	28345
693.966	28413
693.970	28363
694.013	27326
694.056	26199
694.086	25388
694.099	25769
694.142	27097
694.185	27979
694.206	28392
694.229	28868
694.272	29566
694.315	30773
694.326	30966
694.358	31692
694.401	32239
694.444	33148
694.446	33122
694.487	33625
694.530	33642
694.566	34065
694.573	33818
694.616	31387
694.659	29188
694.686	27627
694.702	27480
694.745	27164
694.787	26572
694.806	26284
694.830	26383
694.873	26544
694.916	26826
694.926	26748
694.959	26731
695.002	26959
695.044	26953
695.046	26901
695.087	28099
695.130	29316
695.166	30235
695.172	30266
695.215	29966
695.258	29705
695.286	29368
695.301	29341
695.343	29377
695.386	29066
695.406	28932
695.428	28658
695.471	28024
695.514	27334
695.526	27158
695.556	27925
695.599	28649
695.641	29318
695.646	29348
695.684	29142
695.726	28649
695.766	28149
695.769	28232
695.811	28402
695.854	28905
695.886	28968
695.896	28906
695.938	28582
695.981	28039
696.005	27807
696.023	27911
696.065	27819
696.108	27891
696.125	27864
696.150	28574
696.192	29585
696.235	30473
696.245	30659
696.277	29879
696.319	28598
696.361	27532
696.365	27356
696.404	27465
696.446	27758
696.485	27860
696.488	27945
696.530	28160
696.572	28447
696.604	28643
696.614	28753
696.656	28726
696.698	28980
696.724	28904
696.740	28738
696.783	28271
696.825	27707
696.844	27426
696.867	27815
696.909	28330
696.951	28983
696.964	29065
696.992	28975
697.034	28762
697.076	28613
697.083	28520
697.118	28644
697.160	28702
697.202	28796
697.203	28727
697.244	29011
697.286	29294
697.323	29426
697.327	29490
697.369	29416
697.411	29336
697.442	29249
697.453	29524
697.494	30377
697.536	31177
697.562	31530
697.578	31633
697.620	31836
697.661	31996
697.682	32019
697.703	32269
697.744	32588
697.786	32931
697.801	32946
697.828	34133
697.869	35932
697.911	37682
697.921	38017
697.952	35960
697.994	33173
698.035	30346
698.040	29922
698.077	29857
698.118	29795
698.160	29619
698.160	29541
698.201	29561
698.243	29432
698.279	29334
698.284	29497
698.325	30221
698.367	31008
698.399	31523
698.408	31361
698.449	30270
698.491	29144
698.518	28338
698.532	28570
698.573	29069
698.614	29533
698.638	29729
698.656	30049
698.697	30616
698.738	31196
698.757	31389
698.779	31806
698.820	32441
698.862	33079
698.877	33232
698.903	33556
698.944	33944
698.985	34321
698.996	34340
699.026	34290
699.067	34096
699.116	33779
699.235	31420
699.354	30244
699.474	30395
699.593	34508
699.713	37248
699.832	30956
699.951	34693
700.070	32351
700.190	30403
700.309	30263
700.428	32855
700.547	32358
700.667	30564
700.786	34183
700.905	31862
701.024	30566
701.143	33109
701.262	26356
701.381	26681
701.500	30534
701.619	33303
701.738	30503
701.857	27411
701.976	26714
702.095	25025
702.214	29891
702.333	32709
702.452	29994
702.571	26832
702.690	26360
702.809	26410
702.928	25435
703.047	26735
703.165	26754
703.284	24158
703.403	25337
703.522	28313
703.640	31081
703.759	31483
703.878	51517
703.997	33858
704.115	25332
704.234	24530
704.353	25135
704.471	24092
704.590	22264
704.708	21825
704.827	21393
704.946	22716
705.064	27662
705.183	24488
705.301	28994
705.420	43431
705.538	43510
705.656	34090
705.775	30209
705.893	32268
706.012	36643
706.130	34722
706.249	35376
706.367	34045
706.485	37899
706.604	36474
706.722	36430
706.840	43280
706.958	45156
707.077	34683
707.195	32183
707.313	31357
707.431	31606
707.549	30353
707.668	30854
707.786	32062
707.904	31727
708.022	29988
708.140	28485
708.258	28745
708.376	30409
708.494	29759
708.612	32584
708.730	46174
708.848	52613
708.966	44263
709.084	44132
709.202	38039
709.320	39566
709.438	40448
709.556	40771
709.674	39902
709.791	40662
709.909	37568
710.027	36464
710.145	37735
710.263	37862
710.380	36979
710.498	38157
710.616	37261
710.733	37000
710.851	39837
710.969	41302
711.086	36721
711.204	37334
711.322	35396
711.439	36977
711.557	39422
711.674	36089
711.792	35653
711.909	35246
712.027	32657
712.144	33879
712.262	34781
712.379	38129
712.497	53296
712.614	61819
712.732	49010
712.849	44997
712.966	47328
713.084	61929
713.201	52080
713.318	48422
713.436	44981
713.553	47160
713.670	47000
713.787	50870
713.905	56273
714.022	47561
714.139	44119
714.256	50508
714.373	56523
714.490	78037
714.608	135103
714.725	530245
714.842	1095608
714.959	125873
715.076	51688
715.193	44915
715.310	44558
715.427	40312
715.544	37920
715.661	39634
715.778	38044
715.895	43647
716.011	44145
716.128	40921
716.245	39561
716.362	44366
716.479	52602
716.596	39152
716.713	38058
716.829	36034
716.946	36423
717.063	33823
717.180	35210
717.296	33315
717.413	34186
717.530	33737
717.646	35260
717.763	33540
717.880	30948
717.996	32297
718.113	36048
718.229	31355
718.346	32157
718.462	31802
718.579	38556
718.695	66754
718.812	65975
718.928	48160
719.045	42988
719.161	29762
719.277	29391
719.394	29139
719.510	30316
719.626	30766
719.743	39349
719.859	43125
719.975	58668
720.092	151220
720.208	521654
720.324	145833
720.440	37232
720.557	37488
720.673	52215
720.789	77040
720.905	140103
721.021	94409
721.137	31936
721.253	30890
721.369	31882
721.486	33559
721.602	50949
721.718	35258
721.834	24908
721.950	28552
722.066	26355
722.181	26284
722.297	27457
722.413	26870
722.529	24919
722.645	24886
722.761	24196
722.877	24212
722.993	23485
723.108	27373
723.224	25465
723.340	25811
723.456	23256
723.571	23891
723.687	23009
723.803	22944
723.918	22790
724.034	24678
724.150	23538
724.265	25193
724.381	45024
724.497	91830
724.612	27362
724.728	21491
724.843	20744
724.959	25908
725.074	44208
725.190	80234
725.305	26977
725.421	25090
725.536	19248
725.651	19610
725.767	18862
725.882	18323
725.997	19370
726.113	19959
726.228	19395
726.343	18515
726.459	16326
726.574	19160
726.689	19831
726.804	19376
726.920	18711
727.035	19021
727.150	19530
727.265	18826
727.380	21243
727.495	18283
727.610	17142
727.725	17729
727.841	17160
727.956	17305
728.071	21633
728.186	19786
728.301	16699
728.416	17758
728.531	18091
728.645	16212
728.760	17731
728.875	20648
728.990	18060
729.105	19128
729.220	18295
729.335	20565
729.449	16428
729.564	15065
729.679	14163
729.794	15094
729.908	17121
730.023	17708
730.138	13551
730.253	14865
730.367	14424
730.482	14346
730.596	15021
730.711	16501
730.826	16867
730.940	15884
731.055	16624
731.169	16626
731.284	14026
731.398	14376
731.513	17431
731.627	18888
731.742	18580
731.856	26860
731.970	16389
732.085	20093
732.199	22639
732.313	31101
732.428	63253
732.542	211422
732.656	249108
732.771	40717
732.885	20277
732.999	18678
733.113	20047
733.227	18982
733.342	17138
733.456	16174
733.570	14984
733.684	14528
733.798	15733
733.912	15347
734.026	12744
734.140	14971
734.254	16361
734.368	25960
734.482	49454
734.596	17744
734.710	14210
734.824	13519
734.938	13435
735.052	14006
735.166	17096
735.280	16983
735.393	13862
735.507	13651
735.621	19101
735.735	37020
735.849	26121
735.962	13444
736.076	15601
736.190	16225
736.303	18600
736.417	33618
736.531	14929
736.644	15655
736.758	12163
736.872	12481
736.985	11390
737.099	12532
737.212	10919
737.326	12888
737.439	11834
737.553	12709
737.666	11582
737.780	12275
737.893	11701
738.007	10610
738.120	10573
738.233	11323
738.347	11097
738.460	11068
738.573	12894
738.687	14319
738.800	13047
738.913	18422
739.026	15961
739.140	11664
739.253	10372
739.366	10957
739.479	10666
739.592	10428
739.705	10571
739.818	9933
739.932	10205
740.045	10415
740.158	10973
740.271	11670
740.384	11059
740.497	10605
740.610	11281
740.723	12025
740.836	10782
740.949	12194
741.062	16226
741.174	18819
741.287	11256
741.400	10365
741.513	9843
741.626	12174
741.739	11267
741.851	10871
741.964	9863
742.077	9713
742.189	10135
742.302	13498
742.415	11878
742.527	10227
742.640	9213
742.753	9222
742.865	8155
742.978	9469
743.090	9880
743.203	10585
743.316	8826
743.428	7818
743.541	8470
743.653	8900
743.766	8391
743.878	9064
743.990	12953
744.103	16449
744.215	11925
744.327	10463
744.440	11734
744.552	23343
744.664	16653
744.777	9584
744.889	7680
745.001	8437
745.113	7070
745.226	8207
745.338	7893
745.450	8699
745.562	7957
745.674	7703
745.786	7942
745.898	8079
746.010	7372
746.122	8103
746.234	7498
746.347	7519
746.459	7400
746.570	7447
746.682	8042
746.794	12105
746.906	8942
747.018	7703
747.130	7121
747.242	7571
747.354	6572
747.466	9031
747.577	7299
747.689	7944
747.801	7971
747.913	6458
748.024	6881
748.136	6565
748.248	6746
748.359	6919
748.471	7182
748.583	6826
748.694	6522
748.806	7182
748.918	11338
749.029	11176
749.141	9146
749.252	9620
749.364	9792
749.475	24964
749.587	24101
749.698	9294
749.809	7182
749.921	6549
750.032	6559
750.144	6119
750.255	5795
750.366	6150
750.478	6162
750.589	7053
750.700	7385
750.811	8429
750.923	9692
751.034	24955
751.145	41294
751.256	9709
751.367	5947
751.479	6807
751.590	5553
751.701	5349
751.812	5283
751.923	5291
752.034	6004
752.145	6379
752.256	5695
752.367	6191
752.478	5862
752.589	5804
752.700	5133
752.811	6800
752.922	6870
753.032	7379
753.143	10644
753.254	6196
753.365	6520
753.476	6755
753.586	5208
753.697	5670
753.808	5771
753.919	5744
754.029	5315
754.140	5763
754.251	5847
754.361	5591
754.472	5602
754.582	6537
754.693	5405
754.804	6086
754.914	5646
755.025	5290
755.135	4689
755.246	5989
755.356	4605
755.466	6041
755.577	5033
755.687	5071
755.798	4908
755.908	5596
756.018	5787
756.129	5113
756.239	5027
756.349	5523
756.460	5656
756.570	6951
756.680	5174
756.790	7117
756.900	8380
757.011	6641
757.121	5103
757.231	5289
757.341	4838
757.451	5860
757.561	4696
757.671	4768
757.781	4548
757.891	5747
758.001	6061
758.111	6923
758.221	5610
758.331	8424
758.441	8453
758.551	11478
758.661	14450
758.771	7809
758.880	7456
758.990	7243
759.100	6712
759.210	6432
759.320	6344
759.429	6538
759.539	6651
759.649	6668
759.758	7290
759.868	8196
759.978	7930
760.087	8861
760.197	9017
760.307	8282
760.416	6786
760.526	7104
760.635	7372
760.745	8000
760.854	7373
760.964	9509
761.073	8851
761.182	8843
761.292	7481
761.401	8600
761.511	7530
761.620	6835
761.729	6078
761.839	7631
761.948	6652
762.057	8165
762.166	7737
762.276	6302
762.385	5245
762.494	6036
762.603	6290
762.712	5683
762.822	6448
762.931	6712
763.040	5663
763.149	5561
763.258	6068
763.367	5790
763.476	5530
763.585	6067
763.694	5873
763.803	7000
763.912	7040
764.021	6505
764.130	6017
764.238	5994
764.347	5860
764.456	6708
764.565	6315
764.674	6471
764.783	5879
764.891	5202
765.000	5873
765.109	6575
765.217	6731
765.326	7461
765.435	11101
765.543	8410
765.652	6271
765.761	7792
765.869	7238
765.978	10300
766.086	12902
766.195	22981
766.303	49336
766.412	195207
766.520	309418
766.629	43517
766.737	12850
766.846	10632
766.954	8068
767.062	8650
767.171	8710
767.279	8940
767.387	6961
767.496	7973
767.604	6310
767.712	7795
767.820	7341
767.928	8000
768.037	6513
768.145	8330
768.253	6409
768.361	6978
768.469	7275
768.577	6976
768.685	7227
768.793	6806
768.901	7330
769.009	8280
769.117	6832
769.225	6757
769.333	8640
769.441	9777
769.549	11791
769.657	20915
769.765	61418
769.873	218924
769.981	100043
770.088	12753
770.196	9025
770.304	8483
770.412	8221
770.519	8950
770.627	7824
770.735	7774
770.842	7920
770.950	7978
771.058	8482
771.165	7934
771.273	7379
771.380	8364
771.488	7823
771.595	9024
771.703	7983
771.810	8536
771.918	7947
772.025	8366
772.133	9238
772.240	9530
772.348	9623
772.455	9488
772.562	8390
772.670	7993
772.777	8965
772.884	8748
772.991	8232
773.099	9124
773.206	7741
773.313	9207
773.420	7705
773.528	7947
773.635	7108
773.742	9257
773.849	7234
773.956	8228
774.063	7088
774.170	8534
774.277	8784
774.384	9426
774.491	8161
774.598	9136
774.705	9912
774.812	12937
774.919	10859
775.026	10105
775.133	9574
775.239	8475
775.346	8428
775.453	8322
775.560	7986
775.667	8508
775.773	7810
775.880	8657
775.987	8672
776.093	7369
776.200	7944
776.307	7811
776.413	7494
776.520	9047
776.627	8795
776.733	7273
776.840	7804
776.946	8853
777.053	10635
777.159	18225
777.266	12142
777.372	14608
777.478	14488
777.585	10711
777.691	8412
777.798	8501
777.904	8604
778.010	12731
778.117	15987
778.223	8100
778.329	8273
778.435	7494
778.542	7650
778.648	8132
778.754	6744
778.860	8286
778.966	7277
779.072	7880
779.178	6708
779.284	7227
779.391	6507
779.497	7230
779.603	7430
779.708	6114
779.815	7004
779.920	7190
780.026	7481
780.132	7936
780.238	6504
780.344	6478
780.450	7621
780.556	6235
780.661	5595
780.767	7684
780.873	5781
780.979	6282
781.085	7169
781.190	7015
781.296	5528
781.402	5867
781.507	6465
781.613	5449
781.719	5864
781.824	7003
781.930	6402
782.035	5900
782.141	6653
782.246	5943
782.352	5978
782.457	7327
782.563	7137
782.668	6670
782.773	6186
782.879	6504
782.984	7348
783.090	8616
783.195	13501
783.300	13556
783.405	8160
783.511	7809
783.616	6529
783.721	7779
783.826	6865
783.932	6676
784.037	7008
784.142	7341
784.247	6964
784.352	6433
784.457	6703
784.562	6458
784.667	6457
784.772	5913
784.877	6157
784.982	6001
785.087	5688
785.192	6538
785.297	5691
785.402	6149
785.507	6398
785.611	6789
785.716	5097
785.821	5587
785.926	4866
786.031	5790
786.135	6279
786.240	5862
786.345	5808
786.450	5671
786.554	4509
786.659	5700
786.763	5107
786.868	6283
786.973	6003
787.077	6117
787.182	5342
787.286	4953
787.391	5352
787.495	4218
787.600	4687
787.704	5038
787.809	4959
787.913	4731
788.017	4443
788.122	5672
788.226	4928
788.330	3848
788.435	4587
788.539	5241
788.643	4049
788.747	4269
788.852	3986
788.956	5109
789.060	4053
789.164	5523
789.268	4026
789.372	5061
789.476	4056
789.580	4209
789.684	3390
789.788	4803
789.892	4141
789.996	4739
790.100	4504
790.204	4739
790.308	5228
790.412	6088
790.516	5152
790.620	5120
790.724	5206
790.828	5152
790.931	3948
791.035	5431
791.139	4082
791.242	4911
791.346	4457
791.450	4658
791.554	4728
791.657	4129
791.761	4210
791.864	5914
791.968	4260
792.072	5088
792.175	4285
792.279	5560
792.382	4460
792.486	4457
792.589	5120
792.693	5743
792.796	4328
792.899	4631
793.003	4491
793.106	4671
793.209	4841
793.313	7962
793.416	4453
793.519	5668
793.623	7967
793.726	16715
793.829	9194
793.932	4913
794.035	4305
794.138	5345
794.242	5320
794.345	6859
794.448	7722
794.551	10779
794.654	13031
794.757	6767
794.860	5809
794.963	8328
795.066	3600
795.169	3922
795.272	2847
795.375	4366
795.477	3519
795.580	4640
795.683	2891
795.786	4008
795.889	2834
795.991	4935
796.094	4483
796.197	5655
796.300	4567
796.402	4450
796.505	3304
796.608	3185
796.710	3114
796.813	3792
796.915	3897
797.018	3876
797.120	3077
797.223	3346
797.326	3434
797.428	4138
797.530	3302
797.633	4873
797.735	5852
797.838	9468
797.940	12634
798.042	4628
798.145	2469
798.247	3749
798.349	2198
798.452	3836
798.554	2589
798.656	3850
798.758	4768
798.860	3755
798.962	2969
799.065	3299
799.167	2807
799.269	3749
799.371	4002
799.473	5462
799.575	6323
799.677	8354
799.779	7329
799.881	11258
799.983	8661
800.085	4403
800.187	3916
800.289	3021
800.390	3670
800.492	3420
800.594	3333
800.696	3124
800.798	3017
800.899	2885
801.001	2979
801.103	3829
801.205	2802
801.306	2550
801.408	2851
801.509	2849
801.611	2754
801.713	2868
801.814	2587
801.916	2589
802.017	2334
802.119	2310
802.220	2236
802.322	2571
802.423	6301
802.525	7687
802.626	3188
802.727	2891
802.829	4011
802.930	2091
803.031	3378
803.133	3295
803.234	2142
803.335	3073
803.436	2178
803.538	2802
803.639	1147
803.740	3310
803.841	2767
803.942	3272
804.043	1605
804.144	2736
804.245	2543
804.346	3430
804.447	2776
804.548	6202
804.649	8796
804.750	3784
804.851	2028
804.952	2125
805.053	2057
805.154	1604
805.255	3162
805.355	2369
805.456	2052
805.557	1688
805.658	948
805.758	2725
805.859	1753
805.960	2829
806.061	1504
806.161	1984
806.262	2520
806.362	1930
806.463	1892
806.564	3144
806.664	2941
806.765	3672
806.865	5633
806.966	3631
807.066	2155
807.166	3292
807.267	2632
807.367	2065
807.468	2152
807.568	1835
807.668	2665
807.769	2307
807.869	2188
807.969	2766
808.069	2512
808.170	2168
808.270	1832
808.370	2752
808.470	4980
808.570	6463
808.670	2427
808.770	2331
808.870	1480
808.970	2825
809.070	1878
809.170	3621
809.271	6462
809.370	3804
809.470	2368
809.570	2383
809.670	1849
809.770	2316
809.870	1969
809.970	2430
810.070	2064
810.169	2604
810.269	286
810.369	3315
810.469	1317
810.568	1605
810.668	2115
810.768	1254
810.867	2788
810.967	1314
811.066	1928
811.166	1783
811.265	2204
811.365	1404
811.464	1650
811.564	1631
811.663	2414
811.763	1312
811.862	920
811.962	2351
812.061	1771
812.160	2210
812.260	597
812.359	1502
812.458	2153
812.557	2462
812.657	2046
812.756	2638
812.855	2253
812.954	1478
813.053	1154
813.153	2612
813.252	1283
813.351	2438
813.450	2095
813.549	1057
813.648	1094
813.747	1358
813.846	1117
813.945	1931
814.044	1514
814.143	1784
814.242	1166
814.341	1455
814.439	2143
814.538	2460
814.637	1472
814.736	1620
814.835	1419
814.933	2364
815.032	2362
815.131	1687
815.229	1695
815.328	4758
815.427	3318
815.525	3543
815.624	2762
815.722	2811
815.821	3219
815.919	3426
816.018	3067
816.116	4020
816.215	2487
816.313	3216
816.412	4074
816.510	4136
816.609	4258
816.707	4665
816.805	3856
816.904	3744
817.002	4918
817.100	5153
817.198	4685
817.296	5049
817.395	4484
817.493	6413
817.591	3944
817.689	5901
817.787	5739
817.885	8308
817.983	12445
818.081	23283
818.179	55463
818.277	146894
818.375	201322
818.473	59582
818.571	16757
818.669	11660
818.767	10311
818.865	9760
818.963	9561
819.061	14567
819.158	23432
819.256	50420
819.354	116898
819.452	300672
819.549	302624
819.647	75365
819.745	22176
819.842	14512
819.940	10863
820.038	7691
820.135	6651
820.233	6851
820.330	4694
820.428	4440
820.525	3914
820.623	4372
820.720	4434
820.818	4937
820.915	4638
821.012	4292
821.110	2930
821.207	4287
821.304	2185
821.402	3726
821.499	4270
821.596	6027
821.693	4733
821.791	4914
821.888	6259
821.985	14169
822.082	17861
822.179	6916
822.276	4110
822.373	3647
822.470	2978
822.567	3400
822.664	2756
822.761	3407
822.858	1861
822.955	3682
823.052	2633
823.149	3305
823.246	3184
823.343	2840
823.440	2364
823.536	1855
823.633	3210
823.730	1629
823.827	2522
823.923	2909
824.020	3499
824.117	3157
824.213	3682
824.310	3188
824.407	2244
824.503	3201
824.600	2715
824.696	2569
824.793	2750
824.889	3188
824.986	2534
825.082	2693
825.179	2799
825.275	2845
825.371	2047
825.468	2682
825.564	664
825.660	2792
825.757	3037
825.853	2326
825.949	1782
826.045	1958
826.142	1047
826.238	2442
826.334	1016
826.430	2290
826.526	2006
826.622	1566
826.718	1586
826.814	2850
826.910	2780
827.006	2240
827.102	1102
827.198	2564
827.294	1994
827.390	2814
827.486	2147
827.582	866
827.678	894
827.774	3272
827.869	978
827.965	2519
828.061	847
828.157	2026
828.252	2066
828.348	2053
828.444	2449
828.539	1348
828.635	2317
828.731	2665
828.826	1285
828.922	2715
829.017	2673
829.113	2617
829.208	2345
829.304	1911
829.399	4195
829.495	3245
829.590	1736
829.685	2271
829.781	2491
829.876	1764
829.971	1807
830.066	1692
830.162	2120
830.257	2617
830.352	1892
830.447	2899
830.543	2570
830.638	3373
830.733	3461
830.828	2091
830.923	2826
831.018	2397
831.113	2475
831.208	3719
831.303	2295
831.398	1523
831.493	981
831.588	2755
831.683	2080
831.778	2091
831.873	1595
831.967	2485
832.062	1201
832.157	1148
832.252	2145
832.346	2497
832.441	2941
832.536	6342
832.631	10042
832.725	16766
832.820	3647
832.914	2286
833.009	2270
833.104	3233
833.198	5369
833.293	3608
833.387	2751
833.482	2651
833.576	785
833.670	2367
833.765	1730
833.859	3745
833.954	3593
834.048	2432
834.142	1687
834.237	2036
834.331	1747
834.425	2437
834.519	1190
834.613	2546
834.708	1426
834.802	1756
834.896	1064
834.990	1987
835.084	893
835.178	2251
835.272	1940
835.366	2777
835.460	1465
835.554	1349
835.648	2108
835.742	1337
835.836	966
835.930	1231
836.024	1651
836.117	2797
836.211	3321
836.305	4652
836.399	7670
836.493	3805
836.586	2161
836.680	1314
836.774	1000
836.867	1753
836.961	719
837.055	1874
837.148	1558
837.242	2192
837.335	1948
837.429	2009
837.522	1277
837.616	3840
837.709	6152
837.803	9149
837.896	3728
837.989	3424
838.083	5115
838.176	9378
838.269	14071
838.363	4620
838.456	2246
838.549	4705
838.642	6756
838.735	16787
838.829	12132
838.922	2643
839.015	2006
839.108	1227
839.201	1400
839.294	1994
839.387	2227
839.480	2686
839.573	3332
839.666	7139
839.759	3086
839.852	1943
839.945	1011
840.038	1795
840.131	1163
840.223	1301
840.316	1972
840.409	1228
840.502	1495
840.594	2779
840.687	875
840.780	2160
840.873	768
840.965	2568
841.058	4500
841.150	8318
841.243	9880
841.336	3569
841.428	2075
841.521	1897
841.613	2633
841.706	3415
841.798	2233
841.890	1932
841.983	863
842.075	2078
842.167	943
842.260	2263
842.352	4434
842.444	7424
842.537	9493
842.629	20632
842.721	7552
842.813	2212
842.905	1942
842.997	2920
843.090	3213
843.182	6007
843.274	10357
843.366	23842
843.458	51064
843.550	49936
843.642	11817
843.734	3777
843.826	3955
843.918	5316
844.009	2057
844.101	1952
844.193	1726
844.285	1761
844.377	2179
844.469	3132
844.560	2907
844.652	3071
844.744	1811
844.835	2472
844.927	2379
845.019	3441
845.110	3074
845.202	2474
845.293	1340
845.385	1062
845.476	948
845.568	2356
845.659	1648
845.751	2356
845.842	1250
845.934	1414
846.025	1177
846.116	1228
846.208	1093
846.299	2077
846.390	1092
846.482	2847
846.573	2595
846.664	4905
846.755	5276
846.846	8594
846.937	1171
847.029	1611
847.120	1779
847.211	878
847.302	1682
847.393	1047
847.484	1305
847.575	1611
847.666	1039
847.757	1623
847.847	827
847.938	1513
848.029	1958
848.120	2235
848.211	810
848.302	1663
848.392	1153
848.483	2081
848.574	495
848.664	1566
848.755	1664
848.846	1734
848.936	301
849.027	1870
849.118	1520
849.208	2122
849.299	3536
849.389	7741
849.480	13426
849.570	29560
849.661	51011
849.751	105885
849.841	67979
849.932	9635
850.022	3552
850.112	3159
850.203	1654
850.293	2232
850.383	1681
850.474	1870
850.564	1735
850.654	2554
850.744	1624
850.834	1438
850.924	1662
851.014	2129
851.104	1569
851.194	2236
851.284	2881
851.374	5250
851.464	3901
851.554	3127
851.644	2115
851.734	5114
851.824	4984
851.914	1897
852.004	2206
852.094	1947
852.183	1424
852.273	1653
852.363	905
852.452	1745
852.542	1414
852.632	1406
852.721	1789
852.811	1708
852.901	2311
852.990	2316
853.080	2268
853.169	3167
853.259	3981
853.348	3810
853.438	4476
853.527	6837
853.617	8976
853.706	18486
853.795	32800
853.885	73539
853.974	148967
854.063	242774
854.152	472282
854.242	300392
854.331	56241
854.420	17224
854.509	9946
854.598	9232
854.687	6939
854.777	7367
854.866	4914
854.955	4112
855.044	2675
855.133	3103
855.222	1942
855.311	1331
855.400	1762
855.488	1917
855.577	1817
855.666	2483
855.755	2158
855.844	2622
855.933	1650
856.021	2009
856.110	988
856.199	1454
856.288	1546
856.376	1325
856.465	469
856.554	1748
856.642	1862
856.731	1818
856.819	1791
856.908	1718
856.996	1521
857.085	1808
857.173	593
857.262	2103
857.350	1550
857.438	1510
857.527	2161
857.615	716
857.703	1054
857.792	1508
857.880	708
857.968	1432
858.056	719
858.145	1465
858.233	1200
858.321	1510
858.409	1334
858.497	1299
858.585	1044
858.673	1494
858.761	240
858.849	1463
858.937	904
859.025	1922
859.113	1546
859.201	2003
859.289	2351
859.377	1576
859.465	1431
859.552	1333
859.640	697
859.728	2072
859.816	1725
859.903	2297
859.991	1026
860.079	1752
860.166	921
860.254	1384
860.342	1334
860.429	1540
860.517	1053
860.604	1507
860.692	876
860.779	822
860.867	809
860.954	1847
861.042	1940
861.129	3098
861.216	2046
861.304	1541
861.391	1377
861.478	1813
861.565	1998
861.653	1724
861.740	1419
861.827	1327
861.914	831
862.001	1104
862.089	859
862.176	1257
862.263	741
862.350	1548
862.437	586
862.524	316
862.611	1107
862.698	1776
862.785	1299
862.871	2754
862.958	1225
863.045	1084
863.132	520
863.219	1226
863.306	570
863.392	1052
863.479	804
863.566	696
863.652	1665
863.739	1424
863.826	1060
863.912	740
863.999	923
864.086	1561
864.172	1432
864.259	2164
864.345	1442
864.432	2176
864.518	1292
864.604	1515
864.691	1328
864.777	2366
864.863	1720
864.950	2556
865.036	3023
865.122	4028
865.209	4831
865.295	5045
865.381	6023
865.467	5981
865.553	8022
865.639	11063
865.726	20081
865.812	39656
865.898	78726
865.984	123902
866.070	194773
866.156	317510
866.242	134326
866.328	25001
866.414	8641
866.499	6990
866.585	6681
866.671	4915
866.757	4958
866.843	5061
866.928	3710
867.014	3895
867.100	4004
867.186	4353
867.271	5556
867.357	6735
867.442	8572
867.528	5939
867.614	3617
867.699	3897
867.785	3826
867.870	4174
867.956	4706
868.041	6115
868.127	4483
868.212	6919
868.297	5348
868.383	4603
868.468	4807
868.553	8875
868.639	10315
868.724	15859
868.809	24918
868.894	9210
868.979	2184
869.065	3098
869.150	2962
869.235	3330
869.320	2236
869.405	2512
869.490	1707
869.575	2192
869.660	2246
869.745	2330
869.830	2072
869.915	2596
870.000	1816
870.085	2722
870.169	2634
870.254	2853
870.339	1885
870.424	1570
870.509	2189
870.593	2469
870.678	2414
870.763	2202
870.847	2476
870.932	2141
871.016	3339
871.101	3073
871.186	1643
871.270	3575
871.355	2310
871.439	1511
871.523	1969
871.608	2214
871.692	1017
871.777	2631
871.861	1853
871.945	1691
872.030	1305
872.114	1476
872.198	1356
872.282	1527
872.367	1069
872.451	1959
872.535	1959
872.619	2650
872.703	1764
872.787	1758
872.871	1714
872.955	1866
873.039	1657
873.123	1369
873.207	2180
873.291	2047
873.375	1985
873.459	3235
873.543	1659
873.627	2239
873.711	1634
873.794	2561
873.878	1603
873.962	1640
874.045	1622
874.129	1463
874.137	1443
874.213	1239
874.245	1232
874.296	1224
874.352	894
874.380	730
874.460	1743
874.464	1784
874.547	1165
874.568	1190
874.631	1259
874.676	1466
874.714	1650
874.784	2142
874.798	2234
874.881	2587
874.892	2426
874.965	1348
874.999	1500
875.048	1685
875.107	2537
875.131	2888
875.215	926
875.215	926
875.298	1474
875.323	1387
875.381	1202
875.430	2098
875.465	2731
875.538	1889
875.548	1765
875.631	2462
875.646	2210
875.714	983
875.753	1166
875.798	1440
875.861	1160
875.881	1039
875.964	1787
875.968	1752
876.047	1217
876.076	1658
876.130	2488
876.183	1866
876.213	1578
876.291	3469
876.296	3578
876.379	1991
876.398	2048
876.462	2338
876.506	2059
876.545	1816
876.613	2244
876.628	2325
876.711	1876
876.721	1934
876.794	2387
876.828	1899
876.877	1264
876.935	2145
876.960	2492
877.043	2180
877.043	2185
877.125	3378
877.150	3239
877.208	2819
877.258	2611
877.291	2533
877.365	2814
877.374	2839
877.456	3453
877.472	3306
877.539	2640
877.579	2826
877.622	2999
877.687	2848
877.704	2809
877.787	2869
877.794	2819
877.869	2337
877.901	2454
877.952	2631
878.008	2016
878.034	1719
878.115	2118
878.117	2125
878.199	1639
878.222	1694
878.282	2024
878.329	2050
878.364	1972
878.437	2089
878.447	2127
878.529	601
878.544	840
878.611	1791
878.651	1559
878.694	1432
878.758	1563
878.776	1566
878.858	2081
878.865	2059
878.941	1691
878.972	1743
879.023	1983
879.078	1979
879.105	2020
879.185	2597
879.187	2602
879.269	3028
879.292	2819
879.351	2304
879.399	1996
879.433	1853
879.506	1608
879.516	1574
879.598	1762
879.613	1576
879.680	790
879.720	1286
879.762	1790
879.827	1645
879.844	1593
879.926	1463
879.933	1501
880.007	1959
880.040	2010
880.089	2194
880.147	2735
880.171	3007
880.253	6764
880.254	6783
880.335	9104
880.360	9671
880.417	11599
880.467	14739
880.499	17373
880.574	28946
880.580	29456
880.662	14655
880.680	12116
880.744	4313
880.787	2707
880.825	2026
880.893	2104
880.907	2142
880.989	1897
881.000	1891
881.070	1476
881.106	1274
881.152	1466
881.213	1768
881.233	1727
881.315	1456
881.319	1440
881.396	1392
881.426	1376
881.478	1512
881.532	1911
881.559	1979
881.639	1551
881.641	1542
881.722	1560
881.745	1440
881.803	1679
881.852	2065
881.885	1846
881.958	1360
881.966	1421
882.047	2758
882.064	2840
882.129	3012
882.171	3287
882.210	4069
882.277	6542
882.291	6863
882.372	6328
882.383	6126
882.454	3095
882.489	2273
882.535	2055
882.596	1492
882.616	1472
882.697	1588
882.702	1593
882.778	1192
882.808	1243
882.859	1671
882.914	1607
882.940	1451
883.020	1570
883.021	1573
883.102	1301
883.127	1224
883.183	1349
883.233	1675
883.264	1716
883.339	1141
883.345	1103
883.426	1108
883.445	1092
883.507	1119
883.551	1334
883.587	1655
883.657	1980
883.668	2077
883.749	2740
883.763	2793
883.830	1663
883.869	917
883.910	829
883.975	1198
883.991	1208
884.072	1043
884.081	1018
884.152	1513
884.187	1751
884.233	1870
884.292	2042
884.314	2001
884.394	1760
884.398	1740
884.475	1387
884.504	1232
884.555	1198
884.610	1305
884.636	1222
884.716	827
884.716	834
884.797	1750
884.821	1959
884.877	1948
884.927	1813
884.958	1704
885.033	1300
885.038	1277
885.118	1353
885.139	1247
885.199	1165
885.244	1433
885.279	1686
885.350	1719
885.359	1729
885.439	2052
885.456	2028
885.520	1610
885.561	1492
885.600	1603
885.667	1888
885.680	1884
885.760	1937
885.773	1885
885.840	1498
885.878	1309
885.920	1541
885.984	1757
886.000	1759
886.080	1970
886.089	2001
886.160	1982
886.195	1925
886.240	2267
886.300	2641
886.320	2594
886.400	2434
886.406	2417
886.480	2346
886.511	2448
886.560	3141
886.616	3518
886.640	3230
886.720	2174
886.722	2148
886.800	2258
886.827	2346
886.879	2044
886.932	1647
886.959	1791
887.038	2244
887.039	2246
887.119	1992
887.143	1953
887.198	2193
887.248	2319
887.278	2177
887.354	1889
887.358	1889
887.437	1759
887.459	1745
887.517	2426
887.564	2928
887.596	2670
887.669	2026
887.676	2021
887.755	1921
887.774	1909
887.835	2013
887.880	2011
887.914	1971
887.985	1952
887.994	1970
888.073	2171
888.090	2159
888.153	2368
888.195	2573
888.232	2425
888.300	2199
888.311	2238
888.391	2342
888.405	2380
888.470	2357
888.510	2264
888.549	2137
888.615	1997
888.628	2021
888.708	2075
888.720	2084
888.787	2314
888.825	2430
888.866	2055
888.930	1511
888.945	1570
889.024	1792
889.035	1826
889.103	1941
889.140	1977
889.182	1986
889.245	2008
889.261	2091
889.340	2476
889.349	2516
889.419	2158
889.454	1959
889.498	1580
889.559	1075
889.577	1278
889.656	2156
889.664	2241
889.735	2223
889.768	2203
889.814	2337
889.873	2505
889.978	2248
890.083	1723
890.187	2139
890.292	2436
890.397	1634
890.501	1761
890.606	2436
890.710	2044
890.815	3042
890.919	2866
891.024	2793
891.128	2922
891.233	2720
891.337	2533
891.442	2514
891.546	1657
891.650	1723
891.755	2422
891.859	2635
891.963	2736
892.068	2688
892.172	3410
892.276	2049
892.380	1960
892.484	2938
892.589	2997
892.693	3963
892.797	2333
892.901	2148
893.005	1783
893.109	2753
893.213	3059
893.317	2979
893.421	2047
893.525	2036
893.629	1001
893.733	1594
893.837	1954
893.941	1348
894.045	1637
894.148	1686
894.252	1514
894.356	1960
894.460	3254
894.564	1863
894.667	1899
894.771	680
894.875	2269
894.978	1731
895.082	2158
895.186	2183
895.289	2301
895.393	1842
895.496	2012
895.600	1344
895.703	1337
895.807	1221
895.910	2385
896.014	1535
896.117	1873
896.221	2573
896.324	1766
896.427	1976
896.531	2263
896.634	1515
896.737	1563
896.840	2007
896.944	1488
897.047	1752
897.150	1615
897.253	1610
897.356	1983
897.460	1594
897.563	1377
897.666	1632
897.769	1890
897.872	2317
897.975	1898
898.078	1925
898.181	1278
898.284	1238
898.387	1885
898.490	2152
898.593	2356
898.695	1789
898.798	1471
898.901	3453
899.004	2572
899.107	1900
899.209	1782
899.312	1633
899.415	1917
899.518	1246
899.620	1794
899.723	2191
899.826	2938
899.928	5819
900.031	2871
900.133	1936
900.236	1565
900.338	743
900.441	1570
900.543	1668
900.646	1973
900.748	1256
900.851	1101
900.953	2070
901.055	1990
901.158	1805
901.260	2854
901.362	1437
901.465	762
901.567	1673
901.669	1594
901.771	944
901.873	1426
901.976	1626
902.078	889
902.180	861
902.282	2227
902.384	2600
902.486	2147
902.588	2262
902.690	4423
902.792	3027
902.894	2215
902.996	1874
903.098	962
903.200	607
903.302	807
903.404	1056
903.505	751
903.607	1777
903.709	1414
903.811	1347
903.913	1276
904.014	704
904.116	1238
904.218	1682
904.319	1212
904.421	1627
904.523	1938
904.624	1863
904.726	1515
904.827	925
904.929	2008
905.030	550
905.132	1662
905.233	1919
905.335	780
905.436	788
905.537	974
905.639	1160
905.740	1065
905.841	1482
905.943	1905
906.044	1076
906.145	1538
906.247	878
906.348	1644
906.449	1448
906.550	1387
906.651	1535
906.752	1077
906.854	1191
906.955	1387
907.056	1095
907.157	1268
907.258	1439
907.359	654
907.460	507
907.561	301
907.662	498
907.762	1618
907.863	996
907.964	2012
908.065	1420
908.166	476
908.267	1081
908.367	395
908.468	1717
908.569	1103
908.670	2314
908.770	3144
908.871	3645
908.971	3640
909.072	5668
909.173	2125
909.273	1562
909.374	720
909.474	1516
909.575	748
909.675	1407
909.776	1407
909.876	1044
909.977	660
910.077	1657
910.177	1693
910.278	780
910.378	1267
910.478	215
910.579	1066
910.679	1357
910.779	987
910.879	881
910.980	1756
911.080	572
911.180	669
911.280	776
911.380	1301
911.480	982
911.580	597
911.680	989
911.780	745
911.880	2045
911.980	1634
912.080	658
912.180	702
912.280	1616
912.380	1712
912.480	1046
912.580	625
912.679	212
912.779	367
912.879	1570
912.979	503
913.078	161
913.178	758
913.278	999
913.377	707
913.477	736
913.577	1386
913.676	1653
913.776	906
913.875	722
913.975	958
914.074	622
914.174	1030
914.273	563
914.373	1770
914.472	1402
914.572	759
914.671	598
914.770	476
914.870	658
914.969	856
915.068	687
915.167	756
915.267	722
915.366	1589
915.465	1098
915.564	925
915.663	540
915.763	810
915.862	304
915.961	987
916.060	1048
916.159	810
916.258	578
916.357	907
916.456	1221
916.555	787
916.654	708
916.752	2379
916.851	988
916.950	369
917.049	815
917.148	829
917.247	155
917.345	607
917.444	600
917.543	349
917.642	498
917.740	498
917.839	741
917.937	1621
918.036	879
918.135	734
918.233	1126
918.332	261
918.430	1251
918.529	-134
918.627	581
918.726	1716
918.824	885
918.923	141
919.021	957
919.119	914
919.218	-212
919.316	1112
919.414	316
919.512	-111
919.611	1201
919.709	503
919.807	1213
919.905	1147
920.003	1130
920.102	424
920.200	511
920.298	908
920.396	1357
920.494	1163
920.592	939
920.690	933
920.788	1184
920.886	300
920.984	2025
921.082	455
921.180	1011
921.277	1310
921.375	1691
921.473	1796
921.571	1508
921.669	1296
921.766	1309
921.864	1952
921.962	1656
922.060	1527
922.157	2333
922.255	1554
922.352	2004
922.450	2121
922.548	1499
922.645	1571
922.743	2135
922.840	3373
922.938	4323
923.035	3508
923.133	3102
923.230	3978
923.327	5213
923.425	3686
923.522	4246
923.619	4040
923.717	3106
923.814	3304
923.911	2993
924.008	3609
924.106	2988
924.203	2215
924.300	3737
924.397	3239
924.494	3533
924.591	4715
924.688	3425
924.786	3756
924.883	4306
924.979	3883
925.077	2942
925.173	2602
925.270	3157
925.367	2846
925.464	4155
925.561	4441
925.658	4820
925.755	4340
925.852	6124
925.948	4203
926.045	3527
926.142	4246
926.239	4446
926.335	3883
926.432	3424
926.529	3150
926.625	5546
926.722	3837
926.818	3188
926.915	2854
927.011	3567
927.108	3367
927.204	2630
927.301	3263
927.397	2840
927.494	3443
927.590	3001
927.687	3145
927.783	3056
927.879	3430
927.976	3259
928.072	2058
928.168	2787
928.264	3121
928.361	2357
928.457	3433
928.553	3334
928.649	2877
928.745	2879
928.841	2426
928.937	2832
929.033	2497
929.129	2428
929.225	2568
929.321	2342
929.417	2501
929.513	3159
929.609	2810
929.705	2418
929.801	2120
929.897	2887
929.993	1588
930.089	2830
930.184	2933
930.280	2011
930.376	2933
930.471	2067
930.567	3251
930.663	2219
930.758	2123
930.854	2488
930.950	2615
931.045	2263
931.141	2477
931.236	3412
931.332	2771
931.427	1623
931.523	2252
931.618	2529
931.714	1379
931.809	1739
931.905	2712
932.000	2377
932.095	1225
932.191	2176
932.286	3179
932.381	2339
932.476	2608
932.572	864
932.667	793
932.762	2206
932.857	2419
932.952	2639
933.047	2675
933.142	1542
933.237	2430
933.332	2755
933.427	1791
933.522	2166
933.617	1823
933.712	1718
933.807	3267
933.902	2123
933.997	2820
934.092	2624
934.187	2057
934.282	1936
934.376	2095
934.471	2904
934.566	1437
934.661	2249
934.755	1909
934.850	1752
934.945	2018
935.039	2230
935.134	1670
935.228	1531
935.323	2676
935.417	1980
935.512	1266
935.606	1318
935.701	2275
935.795	1611
935.890	1818
935.984	2426
936.079	1967
936.173	1745
936.267	2345
936.362	1822
936.456	1974
936.550	2339
936.644	1848
936.738	898
936.833	1948
936.927	1263
937.021	1342
937.115	1491
937.209	2069
937.303	2349
937.397	1099
937.491	1434
937.585	1348
937.679	2332
937.773	1548
937.867	1651
937.961	959
938.055	1847
938.149	2565
938.243	1277
938.337	1504
938.430	1677
938.524	2432
938.618	3866
938.712	2907
938.805	1852
938.899	1538
938.993	3155
939.086	2137
939.180	2701
939.274	4695
939.367	3607
939.461	2645
939.554	1193
939.648	2078
939.741	1667
939.835	1185
939.928	2263
940.022	1756
940.115	935
940.208	2051
940.302	1940
940.395	2058
940.488	1618
940.582	1704
940.675	1246
940.768	1433
940.861	1316
940.954	2153
941.048	1748
941.141	704
941.234	2323
941.327	3203
941.420	4626
941.513	2811
941.606	1576
941.699	1082
941.792	1004
941.885	2487
941.978	1293
942.071	1584
942.164	784
942.257	745
942.349	1318
942.442	1272
942.535	459
942.628	653
942.721	898
942.813	746
942.906	1354
942.999	1652
943.091	2105
943.184	1133
943.277	900
943.369	832
943.462	292
943.554	509
943.647	1315
943.739	1505
943.832	2001
943.924	1230
944.017	415
944.109	329
944.201	1189
944.294	1311
944.386	1462
944.478	2159
944.571	284
944.663	872
944.755	1168
944.847	1482
944.940	1611
945.032	1047
945.124	1237
945.216	1288
945.308	966
945.400	1662
945.492	957
945.584	1648
945.676	1691
945.768	1160
945.860	800
945.952	1520
946.044	1576
946.136	455
946.228	513
946.320	1017
946.412	957
946.503	1763
946.595	1781
946.687	1005
946.779	1083
946.870	81
946.962	889
947.054	1252
947.145	1219
947.237	698
947.329	571
947.420	1278
947.512	791
947.603	343
947.695	1003
947.786	290
947.878	804
947.969	1342
948.061	800
948.152	1310
948.243	1683
948.335	438
948.426	1498
948.517	985
948.609	766
948.700	1079
948.791	1164
948.882	963
948.973	952
949.065	534
949.156	712
949.247	610
949.338	1139
949.429	-118
949.520	417
949.611	829
949.702	1375
949.793	248
949.884	957
949.975	580
950.066	600
950.157	1363
950.247	617
950.338	1453
950.429	848
950.520	1449
950.611	3070
950.701	2118
950.792	2137
950.883	3008
950.973	1689
951.064	2131
951.155	2717
951.245	1975
951.336	1579
951.427	169
951.517	1845
951.608	1345
951.698	313
951.788	792
951.879	1108
951.969	1446
952.060	404
952.150	245
952.240	1573
952.331	70
952.421	1885
952.511	801
952.602	279
952.692	771
952.782	746
952.872	-79
952.962	469
953.052	89
953.143	663
953.233	1157
953.323	1052
953.413	367
953.503	622
953.593	745
953.683	216
953.773	378
953.863	351
953.953	78
954.042	894
954.132	748
954.222	843
954.312	1427
954.402	1180
954.492	3577
954.581	7615
954.671	6323
954.761	327
954.850	1561
954.940	244
955.030	1026
955.119	-96
955.209	43
955.298	21
955.388	435
955.477	1181
955.567	-166
955.656	911
955.746	363
955.835	-668
955.925	301
956.014	506
956.103	766
956.193	519
956.282	768
956.371	782
956.461	853
956.550	798
956.639	272
956.728	470
956.817	433
956.906	557
956.995	1922
957.085	407
957.174	652
957.263	553
957.352	-278
957.441	428
957.530	530
957.619	1604
957.708	-297
957.796	396
957.885	249
957.974	-37
958.063	623
958.152	58
958.241	491
958.329	-430
958.418	-335
958.507	-34
958.596	1135
958.684	235
958.773	640
958.861	765
958.950	1277
959.039	382
959.127	756
959.216	1095
959.304	584
959.393	638
959.481	-278
959.570	244
959.658	896
959.746	1456
959.835	3710
959.923	8762
960.011	8086
960.100	1139
960.188	1439
960.276	-119
960.365	-12
960.453	667
960.541	660
960.629	-2
960.717	393
960.805	348
960.893	1041
960.981	76
961.069	462
961.158	672
961.245	909
961.333	640
961.421	-534
961.509	-128
961.597	683
961.685	128
961.773	285
961.861	-18
961.949	863
962.036	-187
962.124	170
962.212	59
962.299	-294
962.387	-368
962.475	-644
962.562	-694
962.650	861
962.738	1630
962.825	-280
962.913	417
963.000	-41
963.088	1185
963.175	280
963.263	278
963.350	909
963.438	2693
963.525	3834
963.612	6804
963.700	18388
963.787	45917
963.874	42756
963.962	6564
964.049	259
964.136	154
964.223	476
964.310	-26
964.398	552
964.485	384
964.572	2558
964.659	6736
964.746	9735
964.833	1942
964.920	-82
965.007	193
965.094	68
965.181	-343
965.268	327
965.355	263
965.441	27
965.528	-101
965.615	446
965.702	-697
965.789	-147
965.875	-580
965.962	501
966.049	-84
966.136	829
966.222	445
966.309	519
966.395	542
966.482	233
966.569	-214
966.655	158
966.742	194
966.828	297
966.915	96
967.001	387
967.087	345
967.174	1211
967.260	2563
967.347	5249
967.433	12980
967.519	33418
967.605	25340
967.692	2805
967.778	364
967.864	-553
967.950	53
968.036	38
968.123	-364
968.209	-132
968.295	-1313
968.381	265
968.467	-179
968.553	-543
968.639	1093
968.725	1166
968.811	5106
968.897	6922
968.983	690
969.069	684
969.154	-16
969.240	-321
969.326	-405
969.412	-484
969.497	-1145
969.583	-1092
969.669	330
969.755	462
969.840	-186
969.926	947
970.012	-137
970.097	1364
970.183	1699
970.268	1788
970.354	3173
970.439	7689
970.525	20124
970.610	16600
970.696	2399
970.781	-172
970.866	-620
970.952	-165
971.037	-1784
971.122	-476
971.208	-3
971.293	-117
971.378	-882
971.463	-290
971.549	-310
971.634	-740
971.719	706
971.804	1392
971.889	3955
971.974	689
972.059	-436
972.144	-458
972.229	-517
972.314	-435
972.399	76
972.484	-262
972.569	868
972.654	2147
972.739	6710
972.824	13705
972.908	6048
972.993	255
973.078	-536
973.163	30
973.247	-930
973.332	-1476
973.417	-55
973.501	-1579
973.586	20
973.671	545
973.755	501
973.840	332
973.924	548
974.009	692
974.093	954
974.178	2654
974.262	6412
974.346	11076
974.431	4145
974.515	522
974.600	254
974.684	744
974.768	-663
974.852	138
974.937	-1105
975.021	509
975.105	-557
975.189	-1367
975.273	-863
975.358	-904
975.442	-828
975.526	-853
975.610	-1118
975.694	-903
975.778	99
975.862	-492
975.946	-1804
976.030	-125
976.114	-836
976.198	-571
976.281	-347
976.365	-213
976.449	-1354
976.533	-626
976.617	-903
976.700	-373
976.784	-65
976.868	1005
976.951	3219
977.035	4613
977.119	816
977.202	-420
977.286	-613
977.369	-195
977.453	34
977.536	-86
977.620	-626
977.703	99
977.787	-1417
977.870	1461
977.953	564
978.037	-120
978.120	1400
978.203	4098
978.287	11165
978.370	9906
978.453	1756
978.536	-544
978.620	2449
978.703	5577
978.786	5852
978.869	-181
978.952	-2161
979.035	570
979.118	-420
979.201	-526
979.284	-428
979.367	-770
979.450	-203
979.533	-1024
979.616	-1387
979.699	-932
979.782	-775
979.865	-836
979.948	-1325
980.030	-743
980.113	-1065
980.196	-1723
980.279	-730
980.361	-580
980.444	-419
980.526	-226
980.609	-964
980.692	-193
980.774	-108
980.857	-967
980.939	-67
981.022	-598
981.104	-656
981.187	-947
981.269	-945
981.352	-1063
981.434	-1219
981.516	-480
981.599	785
981.681	162
981.763	-451
981.846	-375
981.928	-833
982.010	-559
982.092	-1819
982.174	-30
982.256	-330
982.339	-497
982.421	-1798
982.503	-829
982.585	-1400
982.667	-896
982.749	-356
982.831	-131
982.913	-1119
982.995	297
983.077	-1045
983.158	1520
983.240	-604
983.322	148
983.404	-258
983.486	-1070
983.568	-327
983.649	-729
983.731	269
983.813	-603
983.894	-316
983.976	-1046
984.058	-315
984.139	-191
984.221	-1140
984.302	40
984.384	-835
984.465	-913
984.547	-9
984.628	-744
984.710	265
984.791	-1038
984.872	-910
984.954	-1160
985.035	597
985.116	-972
985.198	-1484
985.279	-69
985.360	-1281
985.441	-1490
985.522	-623
985.604	-673
985.685	-965
985.766	656
985.847	38
985.928	-822
986.009	-482
986.090	-16
986.171	-810
986.252	-1072
986.333	-901
986.414	-808
986.495	-1182
986.576	-250
986.656	-880
986.737	-522
986.818	-241
986.899	-759
986.980	-978
987.060	-501
987.141	-2021
987.222	-873
987.302	-606
987.383	-609
987.464	-347
987.544	32
987.625	-39
987.705	-196
987.786	112
987.866	-375
987.947	432
988.027	-293
988.108	-871
988.188	-77
988.268	-296
988.349	-404
988.429	-328
988.509	-459
988.589	-897
988.670	-1128
988.750	276
988.830	-381
988.910	-746
988.990	-78
989.070	-419
989.151	-213
989.231	-354
989.311	435
989.391	-904
989.471	-1132
989.551	-720
989.631	-505
989.711	-172
989.791	-1504
989.870	-1370
989.950	116
990.030	-625
990.110	-440
990.190	-1539
990.269	-660
990.349	-1767
990.429	-745
990.509	-55
990.588	-1103
990.668	-306
990.747	-563
990.827	-1294
990.907	184
990.986	-1208
991.066	-225
991.145	-769
991.225	-847
991.304	-477
991.383	-386
991.463	-612
991.542	-461
991.622	-951
991.701	-921
991.780	-1353
991.859	-1341
991.939	-789
992.018	-224
992.097	-1303
992.176	-349
992.256	-489
992.335	-1249
992.414	397
992.493	-61
992.572	-479
992.651	1109
992.730	423
992.809	-702
992.888	-801
992.967	-212
993.046	-62
993.125	-1434
993.203	-1303
993.282	-751
993.361	-793
993.440	-1410
993.519	-786
993.597	27
993.676	-1510
993.755	-462
993.834	-1036
993.912	-1919
993.991	369
994.069	-1495
994.148	-1006
994.226	-837
994.305	-846
994.384	-1347
994.462	400
994.540	-1264
994.619	-1286
994.697	-942
994.776	-892
994.854	-24
994.932	-853
995.011	-360
995.089	-1315
995.167	-448
995.245	-561
995.324	-1975
995.402	-602
995.480	-807
995.558	-811
995.636	-1488
995.714	-1163
995.792	-54
995.870	-1723
995.948	-1111
996.026	-1329
996.104	-1124
996.182	-79
996.260	-245
996.338	-605
996.416	-1557
996.494	-1084
996.572	-585
996.649	-1987
996.727	-1479
996.805	-1261
996.883	-1578
996.960	-1023
997.038	-515
997.116	-806
997.193	-1033
997.271	-1066
997.348	-773
997.426	-886
997.504	-412
997.581	-309
997.658	-1321
997.736	-1801
997.813	-270
997.891	-626
997.968	-841
998.046	-977
998.123	-793
998.200	-107
998.277	-899
998.355	-1308
998.432	-1952
998.509	-1386
998.586	-1028
998.663	-774
998.741	-1447
998.818	-1178
998.895	-1379
998.972	-747
999.049	-842
999.126	-1891
999.203	-209
999.280	-1450
999.357	-1080
999.434	-871
999.511	-174
999.587	-75
999.664	-273
999.741	157
999.818	496
999.895	62
999.971	-1053
1000.048	-1657
1000.125	372
1000.202	-3
1000.278	-467
1000.355	-462
1000.431	-1132
1000.508	-1870
1000.584	-1014
1000.661	-1450
1000.738	-1185
1000.814	-1204
1000.890	-643
1000.967	-1374
1001.043	-180
1001.120	-1588
1001.196	-1461
1001.272	-1467
1001.349	-59
1001.425	425
1001.501	-104
1001.577	-1271
1001.654	-991
1001.730	-1311
1001.806	-595
1001.882	-1956
1001.958	-1185
1002.034	-1252
1002.110	-1362
1002.186	-1811
1002.262	-2127
1002.338	-688
1002.414	-794
1002.490	-404
1002.566	-1518
1002.642	-1093
1002.718	-585
1002.794	-1245
1002.870	-262
1002.945	-653
1003.021	-1652
1003.097	-1286
1003.173	-312
1003.248	-564
1003.324	-1007
1003.400	-1009
1003.475	-1133
1003.551	-861
1003.626	-1663
1003.702	-1047
1003.777	-379
1003.853	-1798
1003.928	-762
1004.004	-728
1004.079	-1550
1004.155	-1295
1004.230	-1055
1004.305	-321
1004.381	-1388
1004.456	-367
1004.531	-622
1004.607	-694
1004.682	-1076
1004.757	-1218
1004.832	-1182
1004.907	-620
1004.982	-784
1005.057	-905
1005.133	-1438
1005.208	-852
1005.283	-1175
1005.358	-144
1005.433	-1953
1005.508	-917
1005.583	-1592
1005.657	-673
1005.732	-259
1005.807	-971
1005.882	-1264
1005.957	-1253
1006.032	-1346
1006.106	-992
1006.181	-886
1006.256	-800
1006.331	-2022
1006.405	-1656
1006.480	-825
1006.554	-1824
1006.629	-723
1006.704	-603
1006.778	-925
1006.853	-882
1006.927	-1929
1007.002	-1130
1007.076	-912
1007.150	-592
1007.225	-659
1007.299	-1096
1007.373	-2189
1007.448	-1867
1007.522	-984
1007.596	-496
1007.671	-892
1007.745	-658
1007.819	-1738
1007.893	-610
1007.967	-663
1008.041	-2002
1008.115	-1364
1008.190	-1358
1008.264	-390
1008.338	-1616
1008.412	-1810
1008.486	-1197
1008.560	-1383
1008.633	-1375
1008.707	-2051
1008.781	-983
1008.855	-804
1008.929	-1558
1009.003	-840
1009.076	-1538
1009.150	-1591
1009.224	-1329
1009.298	-754
1009.371	-1516
1009.445	-1161
1009.519	-884
1009.592	-1476
1009.666	-1262
1009.739	-1561
1009.813	-1897
1009.886	-611
1009.960	-2520
1010.033	-1105
1010.107	-959
1010.180	-1548
1010.253	-1331
1010.327	-1521
1010.400	-1460
1010.473	-1260
1010.547	-395
1010.620	-1016
1010.693	-1702
1010.766	-1794
1010.840	-1121
1010.913	-1067
1010.986	-1843
1011.059	-725
1011.132	-2050
1011.205	-445
1011.278	-1295
1011.351	-874
1011.424	-1349
1011.497	-1106
1011.570	-1599
1011.643	-1885
1011.716	-2010
1011.789	-1607
1011.862	-1210
1011.934	-1131
1012.007	-2878
1012.080	-1652
1012.153	-1780
1012.225	-749
1012.298	-2562
1012.371	-1926
1012.443	-1307
1012.516	-1818
1012.588	-2297
1012.661	-1735
1012.733	-2245
1012.806	-937
1012.879	-1814
1012.951	-1619
1013.023	-1448
1013.096	-1730
1013.168	-1651
1013.241	-1355
1013.313	-1180
1013.385	-2125
1013.458	-1993
1013.530	-1012
1013.602	-2993
1013.674	-2229
1013.746	-2197
1013.819	-2498
1013.891	-1948
1013.963	-2627
1014.035	-2106
1014.107	-1433
1014.179	-1321
1014.251	-1681
1014.323	-1213
1014.395	-1685
1014.467	-1193
1014.539	-977
1014.611	-1751
1014.683	-1599
1014.754	-1520
1014.826	-2752
1014.898	-2046
1014.970	-2361
1015.042	-1330
1015.113	-1621
1015.185	-1790
1015.257	-2375
1015.328	-2219
1015.400	-2138
1015.471	-2177
1015.543	-2673
1015.615	-1944
1015.686	-2288
1015.757	-1682
1015.829	-1592
1015.901	-1636
1015.972	-2155
1016.043	-1902
1016.115	-1815
1016.186	-1482
1016.257	-2805
1016.328	-1499
1016.400	-844
1016.471	-1793
1016.542	-2038
1016.613	-1908
1016.685	-1956
1016.756	-2077
1016.827	-1954
1016.898	-2572
1016.969	-1877
1017.040	-2360
1017.111	-2129
1017.182	-1460
1017.253	-1844
1017.324	-2511
1017.395	-1969
1017.466	-1926
1017.537	-1952
1017.608	-2174
1017.678	-1940
1017.749	-2399
1017.820	-1812
1017.891	-1942
1017.961	-2153
1018.032	-1604
1018.103	-2190
1018.173	-2096
1018.244	-2126
1018.315	-2047
1018.385	-1415
1018.456	-1904
1018.526	-2241
1018.597	-2204
1018.667	-1726
1018.738	-2643
1018.808	-1943
1018.878	-2046
1018.949	-2386
1019.019	-1498
1019.089	-1958
1019.160	-1897
1019.230	-3201
1019.300	-1665
1019.371	-1601
1019.441	-1644
1019.511	-1105
1019.581	-1654
1019.651	-1985
1019.721	-2057
1019.791	-2357
1019.861	-2503
1019.931	-2224
1020.001	-2468
1020.071	-1953
1020.141	-2609
1020.211	-2177
1020.281	-2064
1020.351	-2578
1020.421	-1948
1020.491	-1492
1020.560	-2179
1020.630	-2311
1020.700	-3053
1020.770	-2204
1020.839	-2337
1020.909	-2043
1020.979	-1969
1021.048	-1915
1021.118	-1921
1021.187	-1940
1021.257	-1868
1021.326	-1426
1021.396	-2294
1021.465	-1678
1021.535	-1685
1021.604	-2327
1021.674	-1913
1021.743	-2198
1021.812	-2247
1021.882	-2184
1021.951	-2437
1022.020	-1735
1022.089	-2655
1022.159	-2076
1022.228	-1465
1022.297	-2006
1022.366	-2202
1022.435	-2041
1022.504	-2015
1022.573	-2535
1022.642	-1560
1022.711	-2552
1022.781	-2053
1022.849	-596
1022.918	-3084
1022.987	-2415
1023.056	-2445
1023.125	-1528
1023.194	-1005
1023.263	-2046
1023.331	-1494
1023.400	-2370
1023.469	-2323
1023.538	-1835
1023.606	-1971
1023.675	-1960
1023.744	-2690
1023.812	-2492
1023.881	-2022
1023.949	-1751
1024.018	-2625
1024.086	-2150
1024.155	-2119
1024.223	-2508
1024.292	-2028
1024.360	-2265
1024.429	-2086
1024.497	-2815
1024.565	-1675
1024.634	-2271
1024.702	-2164
1024.770	-2028
1024.838	-2354
1024.907	-1794
1024.975	-2483
1025.043	-1426
1025.111	-2035
1025.179	-2020
1025.247	-1877
1025.315	-1824
1025.383	-1894
1025.451	-2494
1025.519	-2259
1025.587	-3291
1025.655	-2176
1025.723	-1446
1025.791	-2698
1025.859	-2567
1025.927	-2400
1025.995	-2792
1026.062	-2502
1026.130	-2214
1026.198	-2319
1026.266	-2226
1026.333	-2683
1026.401	-1621
1026.469	-2763
1026.536	-1943
1026.604	-2285
1026.671	-2364
1026.739	-2565
1026.806	-2212
1026.874	-2398
1026.941	-1496
1027.009	-2565
1027.076	-2774
1027.144	-1612
1027.211	-2396
1027.278	-1677
1027.345	-1604
1027.413	-1920
1027.480	-1435
1027.547	-2387
1027.614	-2359
1027.682	-1863
1027.749	-2571
1027.816	-2453
1027.883	-1915
1027.950	-2237
1028.017	-1761
1028.084	-2006
1028.151	-2292
1028.218	-1990
1028.285	-1918
1028.352	-2824
1028.419	-2250
1028.486	-1415
1028.553	-2707
1028.619	-1954
1028.686	-2170
1028.753	-2141
1028.820	-2021
1028.886	-2768
1028.953	-1961
1029.020	-1963
1029.086	-1696
1029.153	-2762
1029.220	-2637
1029.286	-978
1029.353	-2085
1029.419	-1892
1029.486	-1737
1029.552	-1893
1029.619	-2224
1029.685	-2227
1029.751	-1659
1029.818	-982
1029.884	-2411
1029.951	-1683
1030.017	-1842
1030.083	-1628
1030.149	-1490
1030.216	-2310
1030.282	-1680
1030.348	-2330
1030.414	-2067
1030.480	-2774
1030.546	-2733
1030.612	-2579
1030.678	-2311
1030.744	-2472
1030.810	-2684
1030.876	-2727
1030.942	-2296
1031.008	-2594
1031.074	-2157
1031.140	-2388
1031.206	-1739
1031.272	-2524
1031.337	-1885
1031.403	-1976
1031.469	-2225
1031.534	-2299
1031.600	-2106
1031.666	-2662
1031.731	-2219
1031.797	-1790
1031.863	-2000
1031.928	-1684
1031.994	-1926
1032.059	-2128
1032.125	-2084
1032.190	-2315
1032.256	-2904
1032.321	-1952
1032.386	-1749
1032.452	-1876
1032.517	-1893
1032.582	-2792
1032.647	-2444
1032.713	-2319
1032.778	-2262
1032.843	-2615
1032.908	-2372
1032.974	-2472
1033.039	-2257
1033.104	-1529
1033.169	-2121
1033.234	-2490
1033.299	-937
1033.364	-1743
1033.429	-1605
1033.494	-1316
1033.559	-2301
1033.624	-2047
1033.688	-1437
1033.753	-2150
1033.818	-973
1033.883	-1944
1033.948	-1718
1034.013	-1549
1034.077	-1815
1034.142	-1010
1034.207	-1327
1034.271	-699
1034.336	404
1034.400	-398
1034.465	-189
1034.530	-777
1034.594	-1692
1034.658	-1243
1034.723	-1877
1034.787	-1628
1034.852	-1944
1034.916	-1495
1034.981	-2287
1035.045	-2302
1035.109	-1772
1035.173	-2495
1035.238	-2247
1035.302	-2031
1035.366	-1901
1035.430	-2236
1035.495	-2268
1035.559	-1916
1035.623	-803
1035.687	-2070
1035.751	-2823
1035.815	-2571
1035.879	-1977
1035.943	-2309
1036.007	-1337
1036.071	-2334
1036.135	-2199
1036.198	-2114
1036.262	-2286
1036.326	-1718
1036.390	-1616
1036.454	-1904
1036.517	-1472
1036.581	-1100
1036.645	-1488
1036.709	-925
1036.772	-1455
1036.836	-1789
1036.900	-2358
1036.963	-2217
1037.026	-1834
1037.090	-1664
1037.154	-1962
1037.217	-2354
1037.280	-2762
1037.344	-2202
1037.407	-2733
1037.471	-2301
1037.534	-1325
1037.597	-2391
1037.661	-2365
1037.724	-1489
1037.787	-2555
1037.850	-2378
1037.913	-2105
1037.977	-2186
1038.040	-1307
1038.103	-2553
1038.166	-1856
1038.229	-2035
1038.292	-1318
1038.355	-2502
1038.418	-1392
1038.481	-1434
1038.544	-1490
1038.607	-2242
1038.670	-1811
1038.732	-1548
1038.795	-1722
1038.858	-2433
1038.921	-1982
1038.984	-1518
1039.046	-1937
1039.109	-1440
1039.172	-1305
1039.234	-2029
1039.297	-2503
1039.360	-1809
1039.422	-2570
1039.485	-1492
1039.547	-2105
1039.610	-1968
1039.672	-1178
1039.734	-1384
1039.797	-1858
1039.859	-2202
1039.922	-2425
1039.984	-2346
1040.046	-1466
1040.109	-2680
1040.171	-2165
1040.233	-2374
1040.295	-2073
1040.358	-2148
1040.420	-1753
1040.482	-2402
1040.544	-2116
1040.606	-1464
1040.668	-2660
1040.730	-2158
1040.792	-1492
1040.854	-2103
1040.916	-1771
1040.978	-2616
1041.040	-1787
1041.102	-1955
1041.164	-2307
1041.225	-1460
1041.287	-2746
1041.349	-1678
1041.411	-1737
1041.472	-2281
1041.534	-1970
1041.596	-2866
1041.657	-1382
1041.719	-1511
1041.781	-2290
1041.842	-2177
1041.904	-1899
1041.965	-2039
1042.027	-1359
1042.088	-646
1042.150	-1611
1042.211	-2171
1042.272	-2200
1042.334	-3010
1042.395	-1687
1042.456	-1682
1042.518	-1734
1042.579	-2059
1042.640	-1788
1042.701	-1597
1042.763	-1700
1042.824	-1901
1042.885	-2653
1042.946	-3171
1043.007	-1892
1043.068	-1911
1043.129	-1883
1043.190	-3051
1043.251	-1907
1043.312	-1929
1043.373	-1531
1043.434	-2225
1043.495	-1987
1043.556	-1576
1043.616	-2977
1043.677	-2357
1043.738	-1631
1043.799	-1982
1043.859	-1857
1043.920	-1976
1043.981	-2927
1044.041	-1601
1044.102	-2464
1044.162	-2501
1044.223	-1781
1044.284	-2103
1044.344	-2180
1044.405	-2638
1044.465	-1687
1044.525	-1913
1044.586	-2039
1044.646	-2070
1044.707	-1443
1044.767	-1284
1044.827	-1383
1044.887	-1659
1044.948	-1019
1045.008	-1876
1045.068	-2162
1045.128	-1455
1045.188	-1755
1045.249	-1495
1045.309	-1544
1045.369	-1496
1045.429	-1399
1045.489	-1624
1045.549	-2361
1045.609	-1761
1045.669	-1702
1045.729	-1485
1045.789	-1813
1045.848	-1137
1045.908	-2236
1045.968	-1571
1046.028	-1217
1046.088	-1633
1046.147	-1078
1046.207	-1468
1046.267	-890
1046.326	-501
1046.386	-834
1046.446	-944
1046.505	-1674
1046.565	95
1046.624	-762
1046.684	-1209
1046.743	-1087
1046.803	-1052
1046.862	-758
1046.922	0
