'Start Wavelength	183.907
'End Wavelength	1046.922
'Gate Delay	5.000
'Gate Width (ms)	1.050
'Laser Output Level	0.000
'X Position	0.000
'Y Position	0.000
'Z Position	0.000
'Grid Point Number	1.000
'Shot Number	100.000
183.907	765.000
183.977	-21.000
184.047	223
184.116	374
184.186	92
184.256	-372
184.325	-143
184.395	219
184.465	242
184.534	201
184.604	-535
184.674	325
184.743	653
184.813	751
184.883	864
184.952	-9
185.022	465
185.092	-74
185.161	-179
185.231	908
185.301	306
185.370	536
185.440	-478
185.509	280
185.579	-26
185.649	-197
185.718	512
185.788	1513
185.857	152
185.927	-19
185.996	113
186.066	614
186.136	-255
186.205	433
186.275	977
186.344	918
186.414	932
186.483	-114
186.553	1671
186.622	1912
186.692	-59
186.761	381
186.831	379
186.900	1637
186.970	369
187.039	180
187.109	1167
187.178	529
187.248	691
187.317	523
187.387	936
187.456	319
187.526	191
187.595	776
187.664	-123
187.734	598
187.803	272
187.873	857
187.942	686
188.012	411
188.081	410
188.150	1136
188.220	726
188.289	1634
188.358	738
188.428	758
188.497	711
188.567	579
188.636	611
188.705	288
188.775	250
188.844	338
188.913	754
188.983	1466
189.052	209
189.121	340
189.191	181
189.260	-41
189.329	-55
189.399	824
189.468	17
189.537	869
189.606	760
189.676	668
189.745	14
189.814	412
189.883	-11
189.953	832
190.022	178
190.091	1349
190.161	1064
190.230	1229
190.299	-404
190.368	967
190.437	925
190.507	1500
190.576	464
190.645	478
190.714	516
190.783	930
190.853	388
190.922	1167
190.991	687
191.060	596
191.129	855
191.198	411
191.268	402
191.337	640
191.406	1196
191.475	1162
191.544	531
191.613	1118
191.682	903
191.752	1551
191.821	312
191.890	655
191.959	677
192.028	746
192.097	380
192.166	-365
192.235	401
192.304	414
192.373	-83
192.442	719
192.511	92
192.580	762
192.650	349
192.719	428
192.788	273
192.857	875
192.926	1000
192.995	760
193.064	1350
193.133	386
193.202	932
193.271	816
193.340	533
193.409	1722
193.478	575
193.547	800
193.615	838
193.684	540
193.753	1124
193.822	872
193.891	761
193.960	780
194.029	503
194.098	371
194.167	163
194.236	1206
194.305	148
194.374	634
194.443	1137
194.512	1317
194.580	940
194.649	1278
194.718	467
194.787	1024
194.856	1024
194.925	514
194.994	774
195.062	445
195.131	1095
195.200	569
195.269	301
195.338	1268
195.407	838
195.475	456
195.544	828
195.613	938
195.682	48
195.751	625
195.819	-292
195.888	1655
195.957	368
196.026	111
196.094	669
196.163	543
196.232	407
196.301	622
196.369	69
196.438	851
196.507	1189
196.576	685
196.644	236
196.713	239
196.782	417
196.850	377
196.919	854
196.988	963
197.056	57
197.125	1120
197.194	731
197.262	529
197.331	-13
197.400	51
197.468	382
197.537	-123
197.606	-121
197.674	475
197.743	1265
197.812	191
197.880	663
197.949	256
198.017	1064
198.086	626
198.155	386
198.223	292
198.292	1679
198.360	835
198.429	398
198.497	956
198.566	887
198.635	1690
198.703	1085
198.772	1138
198.840	1736
198.909	1604
198.977	440
199.046	1032
199.114	1059
199.183	527
199.251	39
199.320	968
199.388	891
199.457	491
199.525	692
199.594	-181
199.662	1005
199.731	648
199.799	816
199.867	1373
199.936	403
200.004	1043
200.073	899
200.141	432
200.210	556
200.278	871
200.346	1601
200.415	2083
200.483	1859
200.552	1578
200.620	1304
200.688	997
200.757	546
200.825	173
200.893	619
200.962	912
201.030	25
201.098	1246
201.167	379
201.235	1192
201.303	1188
201.372	1890
201.440	1406
201.508	1789
201.577	2193
201.645	1333
201.713	1178
201.781	1450
201.850	2614
201.918	1773
201.986	987
202.055	1495
202.123	1390
202.191	582
202.259	947
202.327	1481
202.396	173
202.464	2232
202.532	3299
202.600	7135
202.669	4394
202.737	1747
202.805	1581
202.873	1131
202.941	1857
203.009	981
203.078	1236
203.146	1717
203.214	880
203.282	1091
203.350	1488
203.418	1213
203.487	764
203.555	1109
203.623	726
203.691	1443
203.759	561
203.827	657
203.895	1342
203.963	555
204.031	1339
204.099	1828
204.168	681
204.236	1176
204.304	1325
204.372	465
204.440	1281
204.508	486
204.576	24
204.644	770
204.712	482
204.780	1009
204.848	1528
204.916	295
204.984	-234
205.052	-311
205.120	1026
205.188	861
205.256	949
205.324	713
205.392	1036
205.460	404
205.528	951
205.596	580
205.664	583
205.732	667
205.799	1582
205.867	2978
205.935	150
206.003	1229
206.071	658
206.139	383
206.207	559
206.275	1209
206.343	377
206.411	1283
206.478	1414
206.546	793
206.614	1246
206.682	1317
206.750	873
206.818	2335
206.885	2166
206.953	281
207.021	767
207.089	1526
207.157	652
207.225	1494
207.292	471
207.360	797
207.428	956
207.496	461
207.563	683
207.631	379
207.699	235
207.767	1151
207.834	259
207.902	796
207.970	882
208.038	800
208.105	816
208.173	937
208.241	853
208.309	2161
208.376	1042
208.444	1808
208.512	883
208.579	870
208.647	2632
208.715	2211
208.782	836
208.850	349
208.918	947
208.985	1148
209.053	597
209.120	1425
209.188	171
209.256	680
209.323	1077
209.391	769
209.459	1276
209.526	1125
209.594	983
209.661	1343
209.729	1216
209.796	1641
209.864	1662
209.932	603
209.999	1357
210.067	504
210.134	895
210.202	934
210.269	1789
210.337	3161
210.404	1335
210.472	1036
210.539	1123
210.607	764
210.674	846
210.742	659
210.809	593
210.877	1672
210.944	1273
211.012	830
211.079	1519
211.146	1967
211.214	2944
211.281	4046
211.349	2292
211.416	1859
211.484	1701
211.551	1672
211.618	1417
211.686	1307
211.753	900
211.821	1506
211.888	1570
211.955	2439
212.023	1771
212.090	1235
212.157	1575
212.225	1324
212.292	2236
212.359	3570
212.427	7735
212.494	2635
212.561	1420
212.629	410
212.696	1011
212.763	1197
212.831	1102
212.898	929
212.965	552
213.032	882
213.100	757
213.167	1028
213.234	649
213.301	2003
213.369	848
213.436	1023
213.503	550
213.570	851
213.638	405
213.705	747
213.772	330
213.839	915
213.906	804
213.973	1115
214.041	1099
214.108	589
214.175	779
214.242	937
214.309	1801
214.376	786
214.444	918
214.511	1210
214.578	1175
214.645	2116
214.712	1900
214.779	1690
214.846	995
214.913	1846
214.980	3248
215.048	4615
215.115	4223
215.182	3529
215.249	2178
215.316	1756
215.383	1686
215.450	1273
215.517	1917
215.584	1863
215.651	1229
215.718	1136
215.785	1011
215.852	153
215.919	1106
215.986	407
216.053	1114
216.120	1026
216.187	953
216.254	1619
216.321	810
216.388	540
216.455	1397
216.522	1076
216.589	1150
216.656	2243
216.722	1054
216.789	1197
216.856	1560
216.923	1039
216.990	1366
217.057	1713
217.124	1103
217.191	1409
217.258	1517
217.324	2390
217.391	1033
217.458	1796
217.525	1550
217.592	1132
217.659	335
217.725	2137
217.792	2355
217.859	2043
217.926	791
217.993	996
218.059	1241
218.126	1612
218.193	515
218.260	495
218.327	1098
218.393	841
218.460	254
218.527	1029
218.594	809
218.660	1353
218.727	1441
218.794	939
218.860	1629
218.927	1283
218.994	599
219.061	357
219.127	1186
219.194	1433
219.261	1090
219.327	1072
219.394	1259
219.461	1059
219.527	1229
219.594	1763
219.661	1748
219.727	1830
219.794	1731
219.860	1948
219.927	3098
219.994	7063
220.060	11017
220.127	8881
220.193	4601
220.260	2692
220.326	2971
220.393	3212
220.460	3091
220.526	2220
220.593	1264
220.659	2666
220.726	2308
220.792	6006
220.859	3435
220.925	4309
220.992	4720
221.058	5516
221.125	6834
221.191	5031
221.258	1883
221.324	1578
221.391	1267
221.457	1098
221.524	1166
221.590	3111
221.657	6855
221.723	2845
221.789	4131
221.856	3921
221.922	1016
221.989	1321
222.055	1987
222.121	1381
222.188	3169
222.254	2790
222.321	2292
222.387	1595
222.453	1247
222.520	691
222.586	752
222.652	845
222.719	808
222.785	1230
222.851	1353
222.918	861
222.984	1111
223.050	574
223.116	-344
223.183	367
223.249	1285
223.315	448
223.382	-818
223.448	1192
223.514	157
223.580	517
223.647	231
223.713	811
223.779	204
223.845	854
223.911	1100
223.978	1427
224.044	792
224.110	-46
224.176	1424
224.242	1346
224.309	287
224.375	1719
224.441	714
224.507	437
224.573	310
224.639	1968
224.705	396
224.772	340
224.838	-134
224.904	1037
224.970	950
225.036	717
225.102	1022
225.168	1206
225.234	1134
225.300	1145
225.366	1280
225.432	1279
225.499	1081
225.565	1646
225.631	1766
225.697	1260
225.763	1458
225.829	811
225.895	731
225.961	1806
226.027	2996
226.093	1828
226.159	3146
226.225	4144
226.291	7579
226.357	9519
226.423	3967
226.489	3321
226.554	2448
226.620	2124
226.686	2220
226.752	4237
226.818	6489
226.884	16339
226.950	9647
227.016	5104
227.082	3332
227.148	3263
227.214	2557
227.279	2847
227.345	2690
227.411	5794
227.477	12528
227.543	20357
227.609	19153
227.674	11280
227.740	5840
227.806	3691
227.872	2224
227.938	2364
228.003	1504
228.069	1805
228.135	1172
228.201	1393
228.267	840
228.332	917
228.398	855
228.464	1113
228.530	826
228.595	1164
228.661	730
228.727	865
228.792	1582
228.858	1217
228.924	-394
228.990	1609
229.055	522
229.121	1746
229.187	678
229.252	1258
229.318	1231
229.384	774
229.449	384
229.515	345
229.581	-367
229.646	2357
229.712	1086
229.777	1935
229.843	1195
229.909	1555
229.974	952
230.040	1043
230.105	440
230.171	533
230.236	1717
230.302	1625
230.368	318
230.433	751
230.499	466
230.564	1658
230.630	928
230.695	926
230.761	1350
230.826	434
230.892	1373
230.957	780
231.023	764
231.088	1337
231.154	862
231.219	782
231.284	759
231.350	1857
231.415	202
231.481	1538
231.546	924
231.612	1731
231.677	275
231.742	653
231.808	1380
231.873	-46
231.939	-278
232.004	1426
232.069	1138
232.135	1072
232.200	689
232.265	950
232.331	638
232.396	630
232.461	875
232.527	336
232.592	513
232.657	2160
232.723	951
232.788	431
232.853	1739
232.918	881
232.984	896
233.049	149
233.114	436
233.179	2783
233.245	2208
233.310	1477
233.375	810
233.440	868
233.506	555
233.571	1018
233.636	124
233.701	1654
233.766	1115
233.832	793
233.897	814
233.962	480
234.027	1478
234.092	1587
234.157	2018
234.222	2670
234.288	2858
234.353	2892
234.418	1844
234.483	1704
234.548	666
234.613	1391
234.678	1318
234.743	1121
234.808	2674
234.873	1120
234.938	1289
235.004	1296
235.069	1305
235.134	479
235.199	1518
235.264	813
235.329	-3
235.394	1423
235.459	1392
235.524	2187
235.589	1815
235.654	1648
235.719	606
235.784	2226
235.849	1843
235.913	2126
235.978	1431
236.043	1269
236.108	1477
236.173	1049
236.238	1548
236.303	1526
236.368	999
236.433	1866
236.498	2146
236.563	2832
236.627	7237
236.692	23574
236.757	13315
236.822	4649
236.887	2552
236.952	2984
237.017	2151
237.081	3246
237.146	3046
237.211	9161
237.276	27422
237.341	33060
237.405	10640
237.470	4594
237.535	2948
237.600	2986
237.664	1832
237.729	1239
237.794	2151
237.859	3952
237.923	1751
237.988	2285
238.053	2004
238.118	2056
238.182	3566
238.247	3972
238.312	1741
238.376	2271
238.441	-31
238.506	1750
238.570	397
238.635	2336
238.700	1369
238.764	1372
238.829	2092
238.893	1638
238.958	2209
239.023	2492
239.087	1715
239.152	2149
239.216	1984
239.281	1846
239.346	2265
239.410	1766
239.475	2223
239.539	4541
239.604	3562
239.668	5244
239.733	8102
239.797	23097
239.862	38408
239.926	23471
239.991	9555
240.055	5887
240.120	3396
240.184	3825
240.249	2699
240.313	2441
240.378	1728
240.442	2580
240.507	2872
240.571	1392
240.635	811
240.700	2319
240.764	2007
240.829	888
240.893	1148
240.957	1442
241.022	2623
241.086	2855
241.151	1180
241.215	1155
241.279	2113
241.344	1127
241.408	843
241.472	1309
241.537	1438
241.601	1388
241.665	1601
241.730	1629
241.794	1260
241.858	2347
241.922	1406
241.987	2264
242.051	1390
242.115	1309
242.179	1902
242.244	737
242.308	1778
242.372	1491
242.436	1130
242.501	951
242.565	1459
242.629	990
242.693	1983
242.757	609
242.822	189
242.886	2232
242.950	2248
243.014	1263
243.078	1595
243.142	1731
243.206	1593
243.271	1744
243.335	782
243.399	3872
243.463	11788
243.527	21041
243.591	4077
243.655	2663
243.719	1206
243.783	2551
243.847	2584
243.911	3551
243.975	2841
244.040	584
244.104	2123
244.168	1630
244.232	1686
244.296	2751
244.360	2444
244.424	1280
244.488	2048
244.552	2161
244.615	831
244.679	2347
244.743	1152
244.807	949
244.871	1619
244.935	1865
244.999	1838
245.063	1857
245.127	2608
245.191	3126
245.255	2626
245.319	1957
245.383	527
245.446	3140
245.510	1197
245.574	1821
245.638	1767
245.702	832
245.766	3727
245.829	3316
245.893	2368
245.957	1233
246.021	2918
246.085	2187
246.149	1628
246.212	4676
246.276	6261
246.340	2589
246.404	2074
246.467	3260
246.531	1080
246.595	3018
246.659	2502
246.722	659
246.786	2412
246.850	2278
246.913	2065
246.977	2228
247.041	1870
247.104	1349
247.168	2793
247.232	4959
247.295	8991
247.359	3336
247.423	1351
247.486	2883
247.550	3416
247.614	1594
247.677	2457
247.741	2421
247.804	2503
247.868	3921
247.932	5166
247.995	8250
248.059	2221
248.122	1373
248.186	3467
248.249	4636
248.313	15429
248.376	11012
248.440	6727
248.503	1636
248.567	3510
248.630	3077
248.694	2941
248.757	7615
248.821	15333
248.884	6698
248.948	7701
249.011	10845
249.075	18679
249.138	11927
249.202	4580
249.265	2586
249.328	4278
249.392	2585
249.455	3357
249.519	3583
249.582	3250
249.645	5061
249.709	4083
249.772	2971
249.835	2300
249.899	3057
249.962	3937
250.025	2158
250.089	7410
250.152	5627
250.215	3611
250.279	2967
250.342	3305
250.405	3172
250.468	2066
250.532	4140
250.595	6812
250.658	33795
250.721	34940
250.785	8501
250.848	6472
250.911	3765
250.974	4020
251.038	6342
251.101	9813
251.164	4493
251.227	5230
251.290	4504
251.354	9879
251.417	43742
251.480	24684
251.543	24928
251.606	73118
251.669	32859
251.732	12811
251.795	14325
251.859	17440
251.922	42777
251.985	15427
252.048	6823
252.111	4299
252.174	4557
252.237	10432
252.300	17657
252.363	25602
252.426	48710
252.489	12661
252.552	7367
252.615	4621
252.678	6677
252.741	16333
252.804	26726
252.867	49391
252.930	19871
252.993	8183
253.056	6045
253.119	3696
253.182	4165
253.245	4854
253.308	4988
253.371	2843
253.434	3767
253.497	3687
253.559	7780
253.622	3756
253.685	4550
253.748	3788
253.811	3660
253.874	3633
253.937	2579
254.000	3310
254.062	6578
254.125	7307
254.188	6315
254.251	4085
254.314	3326
254.376	3000
254.439	3838
254.502	3780
254.565	6442
254.628	8166
254.690	3570
254.753	2527
254.816	2417
254.878	2976
254.941	7473
255.004	5512
255.067	3125
255.129	2327
255.192	2942
255.255	1964
255.317	2905
255.380	2597
255.443	2645
255.505	3457
255.568	2877
255.631	2576
255.693	3951
255.756	3210
255.819	5191
255.881	4031
255.944	2918
256.006	2517
256.069	2512
256.132	1784
256.194	2591
256.257	3009
256.319	2896
256.382	5586
256.444	7469
256.507	5375
256.569	3752
256.632	3300
256.694	3802
256.757	15786
256.819	32461
256.882	8311
256.944	5248
257.007	3994
257.069	3564
257.132	3846
257.194	4507
257.257	3647
257.319	2956
257.381	3945
257.444	11919
257.506	49955
257.569	29636
257.631	10864
257.693	6604
257.756	3896
257.818	2922
257.880	3858
257.943	4462
258.005	2720
258.067	2349
258.130	2253
258.192	3569
258.254	3830
258.317	3066
258.379	4248
258.441	5253
258.503	4995
258.566	4565
258.628	4676
258.690	3652
258.753	4091
258.815	4182
258.877	2644
258.939	3365
259.001	3400
259.064	3589
259.126	3089
259.188	4200
259.250	4093
259.312	3652
259.375	4549
259.437	3359
259.499	3270
259.561	3723
259.623	3286
259.685	2357
259.747	3332
259.809	4511
259.872	5104
259.934	9699
259.996	6698
260.058	4503
260.120	3065
260.182	3448
260.244	3041
260.306	2886
260.368	3591
260.430	3671
260.492	4315
260.554	6280
260.616	4877
260.678	5525
260.740	4744
260.802	4046
260.864	4359
260.926	3264
260.988	3706
261.050	4481
261.112	4230
261.174	6949
261.236	5382
261.298	3655
261.359	4150
261.421	5481
261.483	3535
261.545	4344
261.607	2379
261.669	3397
261.731	3652
261.793	5150
261.854	3292
261.916	3739
261.978	3529
262.040	3294
262.102	4267
262.164	3799
262.225	2869
262.287	4088
262.349	4589
262.411	3960
262.472	4423
262.534	3801
262.596	3860
262.658	4565
262.719	3334
262.781	4671
262.843	4109
262.904	4536
262.966	4663
263.028	4772
263.090	13213
263.151	19125
263.213	7330
263.275	5667
263.336	3774
263.398	4636
263.459	3515
263.521	4282
263.583	5752
263.644	4131
263.706	3947
263.767	3255
263.829	3820
263.891	3598
263.952	3053
264.014	3302
264.075	3684
264.137	4781
264.198	3547
264.260	2894
264.321	4359
264.383	5093
264.444	5914
264.506	4178
264.567	3735
264.629	5628
264.690	4500
264.752	3806
264.813	4289
264.875	3690
264.936	4543
264.998	4180
265.059	5730
265.120	5013
265.182	5182
265.243	18461
265.305	12537
265.366	5304
265.427	4597
265.489	4978
265.550	2680
265.611	4372
265.673	4321
265.734	4746
265.795	4233
265.857	5135
265.918	3787
265.979	8528
266.040	32105
266.102	17143
266.163	7548
266.224	5462
266.286	5020
266.347	4301
266.408	4531
266.469	4982
266.530	5309
266.592	4497
266.653	4961
266.714	5908
266.775	5911
266.836	5567
266.898	5789
266.959	6079
267.020	5692
267.081	7376
267.142	5848
267.203	6480
267.264	5282
267.326	6933
267.387	6313
267.448	5938
267.509	6405
267.570	6297
267.631	5484
267.692	3511
267.753	5958
267.814	4160
267.875	5499
267.936	6078
267.997	5272
268.058	3999
268.119	3575
268.180	4268
268.241	3424
268.302	3768
268.363	3720
268.424	3509
268.485	3348
268.546	3584
268.607	2823
268.668	2557
268.729	2480
268.790	3150
268.851	3229
268.912	3964
268.972	4003
269.033	3220
269.094	2608
269.155	3860
269.216	2535
269.277	3044
269.338	3087
269.398	3516
269.459	2816
269.520	3488
269.581	3880
269.642	4461
269.702	3279
269.763	3481
269.824	3799
269.885	3448
269.945	4631
270.006	3311
270.067	2479
270.128	3591
270.188	3061
270.249	2612
270.310	2668
270.370	3669
270.431	2337
270.492	2879
270.553	3654
270.613	4460
270.674	4460
270.734	3541
270.795	3469
270.856	3579
270.916	3087
270.977	4125
271.038	3930
271.098	3063
271.159	3401
271.219	3619
271.280	3701
271.340	3672
271.401	3444
271.462	4040
271.522	4235
271.583	4091
271.643	4580
271.704	5288
271.764	4728
271.825	6461
271.885	18812
271.946	16823
272.006	8578
272.066	14903
272.127	20066
272.187	20759
272.248	10017
272.308	8204
272.369	13060
272.429	8726
272.489	6619
272.550	7175
272.610	7539
272.671	6167
272.731	6748
272.791	7661
272.852	7104
272.912	7947
272.972	7061
273.033	7131
273.093	6266
273.153	9075
273.214	7997
273.274	9301
273.334	14888
273.394	17653
273.455	12476
273.515	14127
273.575	16517
273.635	14694
273.696	17488
273.756	21263
273.816	14848
273.876	12511
273.936	12534
273.997	11830
274.057	9166
274.117	8188
274.177	9596
274.237	19565
274.297	13205
274.358	9379
274.418	11644
274.478	8056
274.538	6535
274.598	5671
274.658	7424
274.718	6936
274.778	5148
274.838	5803
274.898	5693
274.958	9040
275.018	14900
275.078	8210
275.138	5003
275.198	4583
275.258	5256
275.318	5278
275.378	5226
275.438	6484
275.498	5557
275.558	6407
275.618	9126
275.678	8183
275.738	6902
275.798	6067
275.858	5497
275.918	4701
275.978	4833
276.038	5407
276.098	5350
276.157	5931
276.217	7652
276.277	5484
276.337	5424
276.397	5729
276.457	5810
276.517	6245
276.576	6825
276.636	6295
276.696	6394
276.756	7406
276.815	6706
276.875	7539
276.935	6669
276.995	7006
277.055	8788
277.114	8701
277.174	7055
277.234	8105
277.293	6337
277.353	6146
277.413	6322
277.472	6816
277.532	8130
277.592	14670
277.651	56320
277.711	56455
277.771	30701
277.830	84059
277.890	48555
277.950	74059
278.009	116356
278.069	45295
278.128	70466
278.188	63003
278.248	46708
278.307	92750
278.367	36114
278.426	17242
278.486	12440
278.545	10237
278.605	10781
278.664	9755
278.724	9510
278.783	14141
278.843	17553
278.902	12116
278.962	10465
279.021	13557
279.081	21020
279.140	17323
279.199	17277
279.259	19656
279.318	23634
279.378	30254
279.437	49616
279.496	133821
279.556	281844
279.615	180484
279.675	74210
279.734	46466
279.793	50149
279.853	46933
279.912	26548
279.971	21589
280.031	21236
280.090	31284
280.149	40685
280.208	75398
280.268	219493
280.327	149884
280.386	54265
280.445	31920
280.505	22145
280.564	18412
280.623	14982
280.682	14013
280.742	14619
280.801	11035
280.860	11257
280.919	10104
280.978	11552
281.037	10728
281.097	10024
281.156	12489
281.215	10263
281.274	10328
281.333	13508
281.392	10214
281.451	7749
281.510	8496
281.569	8706
281.628	8313
281.688	8310
281.747	9595
281.806	7518
281.865	8339
281.924	7533
281.983	7334
282.042	7238
282.101	7875
282.160	7835
282.219	7987
282.278	7832
282.337	9087
282.396	8331
282.454	8927
282.513	8490
282.572	10132
282.631	8416
282.690	9089
282.749	7080
282.808	9054
282.867	9139
282.926	8820
282.985	9451
283.043	9655
283.102	10248
283.161	10863
283.220	13171
283.279	13992
283.338	11426
283.396	11434
283.455	12272
283.514	12067
283.573	12094
283.631	12946
283.690	12897
283.749	13485
283.808	14424
283.866	15541
283.925	15198
283.984	16733
284.043	16795
284.101	17744
284.160	19387
284.219	22860
284.277	23644
284.336	26042
284.395	30705
284.453	31256
284.512	34463
284.570	40030
284.629	47562
284.688	56117
284.746	66659
284.805	80151
284.863	99431
284.922	125292
284.981	159223
285.039	209261
285.098	269361
285.156	258724
285.215	141532
285.273	201275
285.332	284399
285.390	251470
285.449	197187
285.507	149953
285.566	117287
285.624	94009
285.683	75802
285.741	62932
285.799	53792
285.858	46223
285.916	41049
285.975	36442
286.033	30898
286.091	29329
286.150	25513
286.208	24977
286.267	22571
286.325	20636
286.383	20522
286.442	17593
286.500	16874
286.558	16348
286.616	15008
286.675	15336
286.733	13987
286.791	12900
286.850	13346
286.908	11808
286.966	12212
287.024	12251
287.083	11312
287.141	9983
287.199	10928
287.257	10980
287.315	10734
287.374	9232
287.432	9826
287.490	9541
287.548	8787
287.606	8785
287.664	8734
287.723	8576
287.781	8671
287.839	9072
287.897	9138
287.955	10274
288.013	12092
288.071	18452
288.129	69371
288.187	117553
288.245	40345
288.303	18505
288.361	13737
288.419	10631
288.477	9022
288.535	9088
288.593	8742
288.651	7180
288.709	6253
288.767	7057
288.825	6308
288.883	7051
288.941	5880
288.999	5771
289.057	6455
289.115	7028
289.173	6573
289.231	6821
289.289	5421
289.346	6068
289.404	6656
289.462	6535
289.520	6938
289.578	5766
289.636	5165
289.694	5960
289.751	5350
289.809	6349
289.867	6226
289.925	6228
289.983	5568
290.040	5951
290.098	5183
290.156	5250
290.214	5696
290.271	5745
290.329	6133
290.387	6182
290.444	5785
290.502	4842
290.560	4994
290.617	4815
290.675	5076
290.733	5136
290.790	5099
290.848	6132
290.906	5147
290.963	5108
291.021	5457
291.078	4896
291.136	6409
291.194	6568
291.251	6902
291.309	5097
291.366	4898
291.424	5120
291.481	6476
291.539	9650
291.596	9020
291.654	6036
291.711	6377
291.769	5491
291.826	5677
291.884	5610
291.941	4417
291.999	4864
292.056	4665
292.114	4810
292.171	5884
292.228	5745
292.286	5978
292.343	5295
292.401	4508
292.458	5593
292.515	5241
292.573	6874
292.630	5559
292.687	6082
292.745	3984
292.802	4886
292.859	8287
292.917	9518
292.974	5576
293.031	6053
293.089	5378
293.146	4513
293.203	5661
293.260	4401
293.318	5840
293.375	6159
293.432	5515
293.489	6114
293.546	5637
293.604	7329
293.661	14790
293.718	19445
293.775	11573
293.832	12616
293.889	16049
293.947	12091
294.004	7767
294.061	7183
294.118	8918
294.175	15028
294.232	21649
294.289	14900
294.346	9937
294.403	7875
294.460	6135
294.517	5609
294.574	5612
294.631	6436
294.688	6495
294.745	8290
294.802	16361
294.859	11500
294.916	6241
294.973	5854
295.030	5197
295.087	4656
295.144	5339
295.201	5002
295.258	5138
295.315	5832
295.372	8868
295.429	10115
295.486	5855
295.542	5070
295.599	8252
295.656	8620
295.713	7704
295.770	8422
295.827	5614
295.883	4893
295.940	4781
295.997	4990
296.054	4324
296.111	4271
296.167	4284
296.224	4611
296.281	3900
296.338	4499
296.394	4282
296.451	4297
296.508	6751
296.564	7669
296.621	7801
296.678	17583
296.734	15396
296.791	8264
296.848	5932
296.904	6103
296.961	7629
297.018	10866
297.074	7571
297.131	5795
297.187	5604
297.244	7112
297.301	17224
297.357	17796
297.414	7325
297.470	6153
297.527	6036
297.583	4771
297.640	4692
297.696	4427
297.753	4119
297.809	4417
297.866	3859
297.922	4200
297.979	4076
298.035	4059
298.092	5652
298.148	8287
298.204	6092
298.261	5824
298.317	11099
298.374	17486
298.430	8627
298.486	6251
298.543	5318
298.599	5244
298.656	5098
298.712	6845
298.768	11645
298.824	7798
298.881	4754
298.937	5031
298.993	4739
299.050	5033
299.106	5651
299.162	4733
299.218	5682
299.275	4892
299.331	7113
299.387	10435
299.443	27866
299.500	45794
299.556	25173
299.612	13592
299.668	17778
299.724	44476
299.780	33393
299.837	15017
299.893	15614
299.949	36823
300.005	35316
300.061	41326
300.117	46748
300.173	19648
300.229	12088
300.285	10055
300.341	8629
300.397	7718
300.453	7204
300.510	8207
300.566	10523
300.622	23673
300.678	67173
300.734	53719
300.790	27159
300.845	24522
300.901	40579
300.957	40417
301.013	16692
301.069	10331
301.125	8275
301.181	7178
301.237	7024
301.293	5664
301.349	5442
301.405	5474
301.461	5199
301.516	4891
301.572	5370
301.628	5472
301.684	5578
301.740	6794
301.796	6546
301.851	6175
301.907	7399
301.963	7632
302.019	19377
302.074	40703
302.130	31573
302.186	14204
302.242	8775
302.297	6616
302.353	6465
302.409	7976
302.464	6120
302.520	6915
302.576	12413
302.631	10484
302.687	6144
302.743	5051
302.798	5065
302.854	4797
302.910	4928
302.965	4970
303.021	4925
303.076	5399
303.132	5746
303.187	5590
303.243	4215
303.299	4880
303.354	4352
303.410	4237
303.465	3641
303.521	3933
303.576	4868
303.632	4567
303.687	6915
303.743	13398
303.798	10102
303.853	5914
303.909	4652
303.964	4888
304.020	5516
304.075	5177
304.130	4282
304.186	6131
304.241	6881
304.297	6291
304.352	4747
304.358	4747
304.407	4743
304.449	4596
304.463	4547
304.518	5021
304.539	4761
304.573	4337
304.629	4932
304.630	4963
304.684	6530
304.720	10843
304.739	12946
304.794	13561
304.811	11769
304.850	7505
304.902	5857
304.905	5761
304.960	5207
304.992	5338
305.015	5431
305.071	4813
305.083	4853
305.126	4917
305.173	4917
305.181	4931
305.236	3744
305.264	4123
305.292	4496
305.347	4595
305.354	4579
305.402	4576
305.445	4967
305.457	5053
305.512	5085
305.535	4849
305.567	4534
305.622	5209
305.626	5307
305.678	7525
305.716	10289
305.733	11153
305.788	9863
305.807	9519
305.843	9646
305.897	14022
305.898	14061
305.953	11491
305.988	8027
306.008	6299
306.063	5840
306.078	5380
306.118	4506
306.168	4819
306.173	4838
306.228	4460
306.259	4406
306.283	4388
306.338	3672
306.349	3778
306.393	4247
306.440	5079
306.448	5217
306.503	4718
306.530	4847
306.558	5256
306.613	5773
306.620	5978
306.668	7328
306.711	8962
306.723	9146
306.778	7206
306.801	6972
306.833	6819
306.888	5137
306.892	5086
306.943	4999
306.982	5133
306.997	5182
307.052	4614
307.072	4972
307.107	5657
307.162	5767
307.163	5762
307.217	5412
307.253	5647
307.272	5861
307.327	5787
307.343	6146
307.381	6999
307.434	6040
307.436	6023
307.491	7702
307.524	8425
307.546	8547
307.600	9119
307.614	8751
307.655	7451
307.704	6656
307.710	6684
307.765	7500
307.795	8064
307.819	8378
307.874	9630
307.885	9681
307.929	10342
307.975	11920
307.984	12607
308.038	16628
308.065	20323
308.093	36591
308.148	80110
308.156	89163
308.202	127815
308.246	134433
308.257	125800
308.312	59699
308.336	36746
308.366	28791
308.421	20413
308.426	19760
308.475	17386
308.517	16677
308.530	16525
308.585	16769
308.607	16681
308.639	17163
308.694	18810
308.697	18872
308.748	20149
308.787	21039
308.803	21421
308.857	23386
308.877	24026
308.912	27466
308.967	34262
308.967	34367
309.021	52547
309.058	66402
309.076	76244
309.130	109716
309.148	120935
309.185	176477
309.238	272434
309.239	273374
309.293	291837
309.328	278092
309.348	247243
309.402	154961
309.418	130945
309.457	109216
309.508	84921
309.511	85510
309.566	103431
309.598	118554
309.620	143874
309.674	215847
309.688	232549
309.729	221239
309.778	188764
309.783	184070
309.837	124110
309.868	92069
309.892	80869
309.946	58233
309.959	53590
310.001	46059
310.049	37969
310.055	36923
310.109	28508
310.139	24014
310.163	21853
310.218	17988
310.229	17204
310.272	15793
310.319	14819
310.326	14658
310.381	13059
310.409	12515
310.435	12139
310.489	11330
310.499	11147
310.543	10594
310.589	10268
310.598	10254
310.652	10100
310.679	9969
310.706	9662
310.760	9007
310.769	8914
310.814	9473
310.859	10000
310.868	9940
310.923	9471
310.948	9288
310.977	9115
311.031	8648
311.038	8570
311.085	8460
311.128	8381
311.139	8460
311.193	8879
311.218	8967
311.247	8588
311.301	7978
311.308	7881
311.356	7759
311.398	7658
311.410	7649
311.464	7588
311.488	7515
311.518	7687
311.572	8042
311.578	8065
311.626	8003
311.668	7893
311.680	8000
311.734	8427
311.758	8587
311.788	8314
311.842	7819
311.847	7753
311.896	8230
311.937	8620
311.950	8515
312.004	7989
312.027	7742
312.058	7852
312.112	8041
312.117	8041
312.165	7767
312.207	7505
312.297	7838
312.386	6973
312.476	7811
312.566	8389
312.656	8367
312.745	8632
312.835	8746
312.925	7815
313.015	9322
313.104	9649
313.194	9845
313.284	9217
313.374	10650
313.463	10858
313.553	11267
313.643	11516
313.732	11575
313.822	12410
313.912	13299
314.001	13676
314.091	14228
314.180	14428
314.270	14199
314.360	13313
314.449	13805
314.539	13617
314.628	14545
314.718	14149
314.808	15908
314.897	15668
314.987	16345
315.076	17503
315.166	17523
315.255	15603
315.345	15438
315.434	15343
315.524	15433
315.613	17650
315.703	21372
315.792	55905
315.881	171854
315.971	50531
316.060	19821
316.150	16157
316.239	15514
316.328	14307
316.418	15892
316.507	16912
316.597	18703
316.686	20234
316.775	18858
316.865	18161
316.954	15373
317.043	14169
317.133	12436
317.222	12386
317.311	11846
317.400	11098
317.490	12235
317.579	12926
317.668	15390
317.757	25276
317.847	94457
317.936	251489
318.025	71901
318.114	67557
318.203	31550
318.293	17482
318.382	26912
318.471	27286
318.560	25191
318.649	27962
318.738	14917
318.828	12894
318.917	9688
319.006	10591
319.095	12532
319.184	25173
319.273	14852
319.362	11648
319.451	9684
319.540	9730
319.629	10489
319.718	12327
319.807	11130
319.896	14589
319.985	29978
320.074	14586
320.163	11352
320.252	11595
320.341	13792
320.430	12556
320.519	15178
320.608	14620
320.697	17796
320.786	18333
320.875	21949
320.964	23276
321.053	24505
321.142	25851
321.230	28944
321.319	31780
321.408	36820
321.497	32552
321.586	29672
321.675	26251
321.764	25289
321.852	25030
321.941	27808
322.030	26860
322.119	29894
322.207	34733
322.296	38193
322.385	40976
322.474	44624
322.562	46786
322.651	35183
322.740	29493
322.829	26206
322.917	23708
323.006	20719
323.095	19406
323.183	18655
323.272	17481
323.361	18258
323.449	24078
323.538	16305
323.626	19131
323.715	15710
323.804	13708
323.892	17194
323.981	13139
324.069	12925
324.158	14351
324.246	13602
324.335	11794
324.424	12194
324.512	11313
324.601	11108
324.689	11617
324.778	12089
324.866	11189
324.954	10175
325.043	9954
325.131	9600
325.220	12178
325.308	12139
325.397	10395
325.485	10755
325.574	8615
325.662	9401
325.750	9027
325.839	9788
325.927	9069
326.015	8832
326.104	9695
326.192	10350
326.280	8881
326.369	9082
326.457	9683
326.545	9829
326.634	9275
326.722	9361
326.810	10065
326.898	11989
326.987	11789
327.075	11048
327.163	10381
327.251	10942
327.340	12053
327.428	16184
327.516	19238
327.604	14949
327.692	12988
327.781	10166
327.869	9970
327.957	8880
328.045	8553
328.133	8658
328.221	7757
328.309	8242
328.397	8135
328.485	10493
328.574	18313
328.662	25081
328.750	16746
328.838	11981
328.926	10184
329.014	9308
329.102	8860
329.190	11164
329.278	9189
329.366	7694
329.454	7916
329.542	8409
329.630	7196
329.718	8211
329.806	8447
329.893	8977
329.981	7407
330.069	8021
330.157	8905
330.245	13350
330.333	10287
330.421	8365
330.509	8455
330.597	10911
330.684	9591
330.772	7999
330.860	8703
330.948	9681
331.036	7775
331.123	8085
331.211	9403
331.299	8857
331.387	10342
331.475	10615
331.562	9474
331.650	9320
331.738	7868
331.825	9016
331.913	8354
332.001	9007
332.089	8568
332.176	9308
332.264	10572
332.352	10431
332.439	9193
332.527	9753
332.614	9806
332.702	9825
332.790	10442
332.877	14789
332.965	36966
333.052	32315
333.140	39232
333.228	98457
333.315	29929
333.403	14795
333.490	17381
333.578	41857
333.665	144675
333.753	60443
333.840	19722
333.928	19860
334.015	21392
334.103	29165
334.190	46691
334.278	44174
334.365	54131
334.452	51642
334.540	39777
334.627	40261
334.715	50293
334.802	68758
334.889	109887
334.977	126458
335.064	78501
335.151	45886
335.239	33512
335.326	29372
335.413	38268
335.501	39737
335.588	32872
335.675	35949
335.762	44335
335.850	59776
335.937	83053
336.024	128570
336.111	184745
336.199	146573
336.286	76502
336.373	47608
336.460	33257
336.547	27375
336.635	23395
336.722	20196
336.809	17900
336.896	17362
336.983	19223
337.070	27352
337.157	35298
337.245	22940
337.332	19014
337.419	15302
337.506	14508
337.593	13970
337.680	16378
337.767	23069
337.854	13418
337.941	13394
338.028	12857
338.115	12277
338.202	13346
338.289	14108
338.376	17756
338.463	12660
338.550	17111
338.637	16200
338.724	10977
338.811	11266
338.898	9793
338.984	9885
339.071	9986
339.158	10510
339.245	10820
339.332	10775
339.419	10026
339.506	11035
339.593	9212
339.679	10090
339.766	9286
339.853	9459
339.940	10574
340.027	10416
340.113	8772
340.200	8600
340.287	9119
340.374	9765
340.460	9269
340.547	8271
340.634	8725
340.720	12098
340.807	9747
340.894	8841
340.980	9288
341.067	9166
341.154	9831
341.240	9442
341.327	10244
341.414	9254
341.500	8819
341.587	9023
341.674	8899
341.760	10168
341.847	8954
341.933	8383
342.020	8367
342.106	8717
342.193	8979
342.279	9230
342.366	8877
342.452	9207
342.539	8588
342.625	9300
342.712	11420
342.798	9121
342.885	8826
342.971	8178
343.058	8816
343.144	8593
343.230	8848
343.317	8208
343.403	9213
343.490	8292
343.576	8335
343.662	8910
343.749	8367
343.835	8519
343.921	10435
344.008	34456
344.094	59780
344.180	15916
344.267	9174
344.353	15127
344.439	13626
344.525	10002
344.612	10813
344.698	11090
344.784	9782
344.870	8901
344.957	8023
345.043	9036
345.129	8698
345.215	9133
345.301	7854
345.387	7985
345.474	8209
345.560	8418
345.646	7605
345.732	8443
345.818	8169
345.904	8476
345.990	7411
346.076	8028
346.162	8590
346.249	9014
346.335	8062
346.421	8761
346.507	11380
346.593	21019
346.679	10288
346.765	12035
346.851	18541
346.937	15525
347.023	10955
347.108	9157
347.194	8328
347.280	9520
347.366	13994
347.452	37689
347.538	55848
347.624	28067
347.710	16975
347.796	11082
347.882	9812
347.967	10120
348.053	9676
348.139	9388
348.225	8172
348.311	9074
348.397	9632
348.482	10450
348.568	11645
348.654	17824
348.740	50816
348.825	57892
348.911	24696
348.997	22051
349.083	25631
349.168	12290
349.254	9575
349.340	9990
349.425	9476
349.511	10130
349.597	9464
349.682	10627
349.768	15515
349.854	11024
349.939	8406
350.025	8925
350.110	10264
350.196	8851
350.282	9172
350.367	9583
350.453	9775
350.538	8357
350.624	8966
350.709	9718
350.795	8534
350.880	9012
350.966	9705
351.051	9131
351.137	8844
351.222	9196
351.308	10556
351.393	12840
351.479	9842
351.564	8594
351.649	8899
351.735	8841
351.820	8069
351.906	8021
351.991	8688
352.076	11378
352.162	12671
352.247	9168
352.332	7692
352.418	8772
352.503	9627
352.588	13954
352.673	12387
352.759	9679
352.844	8417
352.929	9224
353.014	9378
353.100	9838
353.185	9091
353.270	9597
353.355	9198
353.441	9281
353.526	7641
353.611	9550
353.696	8897
353.781	9439
353.866	7741
353.952	9376
354.037	9354
354.122	10077
354.207	10870
354.292	9316
354.377	8983
354.462	9415
354.547	8443
354.632	9197
354.717	9971
354.802	9448
354.887	9067
354.972	9318
355.057	8285
355.142	8620
355.227	9242
355.312	9875
355.397	9884
355.482	12077
355.567	10446
355.652	10811
355.737	10247
355.822	16638
355.907	14015
355.991	9603
356.076	8818
356.161	9513
356.246	9486
356.331	10510
356.416	12861
356.501	29161
356.585	27690
356.670	11162
356.755	10920
356.840	11348
356.924	24693
357.009	61348
357.094	25316
357.179	11157
357.263	9764
357.348	10914
357.433	10691
357.517	10932
357.602	10636
357.687	9855
357.771	11952
357.856	15303
357.941	14006
358.025	26831
358.110	79159
358.195	39809
358.279	11934
358.364	12098
358.448	15558
358.533	23100
358.617	19003
358.702	19045
358.787	12369
358.871	12177
358.956	11668
359.040	11501
359.125	10114
359.209	10381
359.294	14236
359.378	22811
359.462	18582
359.547	11729
359.631	10016
359.716	9818
359.800	10813
359.885	11184
359.969	10376
360.053	10286
360.138	10895
360.222	10358
360.306	10737
360.391	11827
360.475	12441
360.559	15436
360.644	13717
360.728	14151
360.812	21323
360.896	39785
360.981	19619
361.065	13752
361.149	12743
361.233	12528
361.318	12563
361.402	13436
361.486	13571
361.570	14383
361.654	15652
361.739	18497
361.823	34956
361.907	48618
361.991	25175
362.075	27919
362.159	40135
362.243	70605
362.327	152263
362.411	191750
362.495	83544
362.580	46061
362.664	42261
362.748	52491
362.832	81828
362.916	165910
363.000	368350
363.084	445686
363.168	207533
363.252	74340
363.336	44483
363.420	36747
363.503	42266
363.587	43059
363.671	28189
363.755	29517
363.839	34248
363.923	36656
364.007	47189
364.091	64487
364.175	103788
364.258	218468
364.342	444489
364.426	635303
364.510	355867
364.594	126776
364.677	66707
364.761	62736
364.845	47215
364.929	27909
365.013	22751
365.096	20773
365.180	18663
365.264	23033
365.347	40412
365.431	24617
365.515	15146
365.598	14548
365.682	14747
365.766	14560
365.849	16058
365.933	14318
366.017	15184
366.100	14496
366.184	14346
366.267	14840
366.351	13671
366.435	14754
366.518	13260
366.602	13948
366.685	12883
366.769	14273
366.852	13787
366.936	15815
367.019	14434
367.103	14359
367.186	15741
367.270	14913
367.353	13733
367.436	17235
367.520	16408
367.603	16713
367.687	15116
367.770	16506
367.853	15718
367.937	18909
368.020	21964
368.104	14827
368.187	14363
368.270	15193
368.353	12628
368.437	13846
368.520	14827
368.603	13868
368.687	16405
368.770	19701
368.853	12783
368.936	13093
369.020	12306
369.103	11340
369.186	11968
369.269	11803
369.352	11877
369.436	12633
369.519	11169
369.602	10549
369.685	12221
369.768	10800
369.851	11698
369.934	11398
370.018	11518
370.101	12498
370.184	13183
370.267	13628
370.350	13912
370.433	16915
370.516	41983
370.599	95641
370.682	50409
370.765	21893
370.848	21579
370.931	27178
371.014	19041
371.097	15224
371.180	14623
371.263	15238
371.346	14914
371.429	16373
371.511	16006
371.594	16692
371.677	18621
371.760	21046
371.843	22626
371.926	50335
372.009	85187
372.091	46657
372.174	31026
372.257	39761
372.340	30723
372.423	27846
372.505	26396
372.588	21639
372.671	21922
372.754	28464
372.836	24122
372.919	24294
373.002	29663
373.085	23788
373.167	23150
373.250	24711
373.332	32480
373.415	51429
373.498	90256
373.580	61355
373.663	142770
373.746	155809
373.828	37563
373.911	20770
373.993	19515
374.076	27337
374.159	25726
374.241	19039
374.324	25329
374.406	23667
374.489	35114
374.571	63669
374.654	33731
374.736	25621
374.819	43601
374.901	62785
374.983	64630
375.066	25647
375.148	20292
375.231	27778
375.313	37375
375.395	25128
375.478	20299
375.560	19372
375.643	19154
375.725	26307
375.807	50302
375.890	41041
375.972	19392
376.054	18659
376.136	18020
376.219	16662
376.301	23363
376.383	37741
376.465	22700
376.548	15350
376.630	19340
376.712	29781
376.794	20111
376.877	12983
376.959	11261
377.041	12445
377.123	12842
377.205	14715
377.287	12995
377.369	14004
377.452	13802
377.534	13239
377.616	12966
377.698	12692
377.780	12605
377.862	13762
377.944	13553
378.026	12557
378.108	12676
378.190	12674
378.272	13088
378.354	13142
378.436	12013
378.518	12022
378.600	14127
378.682	14830
378.764	17954
378.846	16807
378.928	13361
379.010	13267
379.091	12630
379.173	13295
379.255	12117
379.337	13649
379.419	15114
379.501	20997
379.583	15430
379.664	12459
379.746	14349
379.828	19583
379.910	22002
379.991	21398
380.073	13633
380.155	14327
380.237	12907
380.318	13923
380.400	14657
380.482	15334
380.564	16004
380.645	17279
380.727	17111
380.809	16326
380.890	14939
380.972	15987
381.053	17092
381.135	18310
381.217	19615
381.298	23135
381.380	20545
381.461	21678
381.543	35564
381.624	42676
381.706	24869
381.787	23630
381.869	25600
381.951	37934
382.032	74167
382.113	57463
382.195	31388
382.276	35554
382.358	41497
382.439	57419
382.521	72997
382.602	97459
382.684	95450
382.765	166487
382.846	411498
382.928	746596
383.009	519594
383.090	460818
383.172	910091
383.253	1033236
383.334	483897
383.416	229464
383.497	179651
383.578	218663
383.659	406962
383.741	868148
383.822	1227719
383.903	803872
383.984	322420
384.066	170806
384.147	108122
384.228	76748
384.309	64713
384.390	56545
384.471	51449
384.553	46483
384.634	44159
384.715	41663
384.796	40067
384.877	42551
384.958	47291
385.039	43985
385.120	35575
385.201	32206
385.282	33597
385.363	41437
385.444	50916
385.525	50416
385.606	53824
385.687	48305
385.768	36242
385.849	35742
385.930	54436
386.011	74675
386.092	41015
386.173	31860
386.254	28425
386.335	26807
386.416	26430
386.496	29365
386.577	31116
386.658	27145
386.739	26530
386.820	27305
386.901	27896
386.981	30424
387.062	31538
387.143	37565
387.224	39682
387.304	41854
387.385	38485
387.466	37374
387.547	41292
387.627	40709
387.708	44175
387.789	50168
387.869	50561
387.950	38791
388.031	33600
388.111	29595
388.192	33900
388.273	36109
388.353	31677
388.434	24340
388.514	24633
388.595	39310
388.676	41087
388.756	26095
388.837	22725
388.917	20970
388.998	18500
389.078	19153
389.159	19848
389.239	18701
389.320	19904
389.400	17909
389.480	21209
389.561	25655
389.641	22856
389.722	18733
389.802	18134
389.883	21363
389.963	25795
390.043	23222
390.124	18504
390.204	19005
390.284	22516
390.365	21208
390.445	25851
390.525	43119
390.605	42237
390.686	22636
390.766	20647
390.846	19589
390.927	18944
391.007	18238
391.087	20975
391.167	20488
391.247	20532
391.328	22372
391.408	23147
391.488	24071
391.568	23461
391.648	24108
391.728	25644
391.808	27653
391.888	27953
391.969	31275
392.049	35334
392.129	35111
392.209	38826
392.289	47532
392.369	46073
392.449	46880
392.529	50724
392.609	57993
392.689	66348
392.769	82430
392.849	99436
392.929	123813
393.009	171682
393.089	250340
393.169	441957
393.248	852696
393.328	1286137
393.408	1229274
393.488	802009
393.568	417767
393.648	232711
393.728	152228
393.807	106877
393.887	84959
393.967	69107
394.047	59895
394.127	49406
394.206	53625
394.286	97132
394.366	273663
394.446	297884
394.525	86857
394.605	39457
394.685	35190
394.764	40910
394.844	66229
394.924	81208
395.003	45193
395.083	29415
395.163	27722
395.242	25853
395.322	27217
395.402	27017
395.481	29458
395.561	40986
395.640	97645
395.720	174259
395.799	111563
395.879	55735
395.958	51079
396.038	117197
396.117	347242
396.197	389977
396.276	133742
396.356	76266
396.435	85057
396.515	110161
396.594	168725
396.673	337370
396.753	746336
396.832	1159688
396.912	941171
396.991	450832
397.070	206553
397.150	120959
397.229	101554
397.308	159593
397.388	258563
397.467	151645
397.546	56686
397.625	38102
397.705	35425
397.784	29604
397.863	26464
397.942	25646
398.022	23524
398.101	24616
398.180	31577
398.259	24241
398.338	19540
398.417	18335
398.497	17148
398.576	16743
398.655	16474
398.734	16076
398.813	15624
398.892	18188
398.971	26609
399.050	20586
399.129	13481
399.208	12697
399.287	14242
399.366	12789
399.445	12649
399.524	11930
399.603	11527
399.682	12225
399.761	15943
399.840	25256
399.919	24582
399.998	12273
400.077	10265
400.156	9302
400.235	12610
400.313	10497
400.392	9788
400.471	12530
400.550	14716
400.629	10820
400.708	10542
400.786	9600
400.865	9522
400.944	10058
401.023	10837
401.102	8976
401.180	9209
401.259	9164
401.338	8687
401.416	9510
401.495	8038
401.574	9869
401.652	7836
401.731	8972
401.810	8400
401.888	8200
401.967	7376
402.046	8136
402.124	8439
402.203	7390
402.281	8708
402.360	8102
402.438	10059
402.517	8834
402.596	8637
402.674	8352
402.753	7684
402.831	8748
402.910	9292
402.988	12195
403.066	21372
403.145	18991
403.223	14017
403.302	20238
403.380	19499
403.459	17458
403.537	13316
403.615	11834
403.694	10335
403.772	10676
403.850	10298
403.929	9322
404.007	9183
404.085	12135
404.164	10820
404.242	9778
404.320	17960
404.398	37541
404.477	38191
404.555	37847
404.633	37043
404.711	28331
404.789	21629
404.868	10193
404.946	9335
405.024	7988
405.102	7783
405.180	7827
405.258	6583
405.336	7131
405.415	7900
405.493	8634
405.571	9557
405.649	8029
405.727	7948
405.805	10899
405.883	11135
405.961	11479
406.039	9402
406.117	7937
406.195	9154
406.273	10975
406.351	22551
406.429	17868
406.507	8803
406.585	6678
406.663	8009
406.740	7695
406.818	6885
406.896	6782
406.974	7810
407.052	7010
407.130	15734
407.208	18871
407.285	11157
407.363	7527
407.441	8339
407.519	7790
407.596	8247
407.674	11843
407.752	26970
407.830	24564
407.907	11174
407.985	6873
408.063	7965
408.141	6814
408.218	8333
408.296	7767
408.373	8682
408.451	10262
408.529	10052
408.606	9231
408.684	11198
408.762	11601
408.839	11751
408.917	11599
408.994	14446
409.072	15905
409.149	20247
409.227	30983
409.304	45449
409.382	53102
409.459	60253
409.537	72393
409.614	71618
409.692	60079
409.769	59040
409.846	75408
409.924	87449
410.001	72468
410.079	55493
410.156	42241
410.233	32664
410.311	25779
410.388	23317
410.465	20423
410.543	19205
410.620	18009
410.697	16948
410.775	17246
410.852	15925
410.929	17865
411.006	17981
411.083	16647
411.161	15671
411.238	15268
411.315	14121
411.392	13502
411.469	12416
411.547	12152
411.624	10795
411.701	10154
411.778	10824
411.855	9798
411.932	9045
412.009	8860
412.086	9247
412.163	9243
412.240	8957
412.317	10004
412.394	8600
412.471	8681
412.548	8101
412.625	7941
412.702	7554
412.779	8376
412.856	8107
412.933	6833
413.010	7557
413.087	7787
413.164	8777
413.241	10295
413.318	7010
413.395	7448
413.471	6353
413.548	6779
413.625	7688
413.702	5698
413.779	6742
413.855	6426
413.932	6452
414.009	5057
414.086	6842
414.162	6350
414.239	7272
414.316	8677
414.393	11670
414.469	8023
414.546	5927
414.623	6379
414.699	6406
414.776	6022
414.853	4541
414.929	6004
415.006	5868
415.082	5999
415.159	6713
415.236	5791
415.312	6987
415.389	5597
415.465	6494
415.542	5136
415.618	5411
415.695	6473
415.771	5455
415.848	5792
415.924	5624
416.000	5351
416.077	6465
416.153	5545
416.230	6261
416.306	6045
416.383	5760
416.459	6575
416.535	5603
416.612	6648
416.688	7205
416.764	8254
416.841	7684
416.917	7855
416.993	7447
417.069	7574
417.146	6526
417.222	6731
417.298	6895
417.374	5821
417.451	6608
417.527	5359
417.603	6342
417.679	7058
417.755	6432
417.831	5609
417.908	7005
417.984	6504
418.060	6016
418.136	6650
418.212	7261
418.288	7316
418.364	6465
418.440	6735
418.516	7001
418.592	6588
418.668	7594
418.744	7374
418.820	8698
418.896	7174
418.972	6724
419.048	6867
419.124	8328
419.200	6726
419.276	7744
419.352	7178
419.428	7922
419.504	7609
419.579	9334
419.655	8454
419.731	9608
419.807	10027
419.883	10176
419.959	10268
420.034	10560
420.110	10746
420.186	13378
420.262	14239
420.337	12548
420.413	12471
420.489	13881
420.565	15200
420.640	14337
420.716	15431
420.792	16091
420.867	17682
420.943	17566
421.019	19234
421.094	20299
421.170	22367
421.245	21895
421.321	24698
421.397	27254
421.472	32971
421.548	42257
421.623	42390
421.699	41130
421.774	46484
421.850	52541
421.925	62947
422.001	73531
422.076	90207
422.152	110833
422.227	145814
422.302	200887
422.378	287558
422.453	449076
422.529	646819
422.604	686156
422.679	514483
422.755	638430
422.830	649665
422.905	461696
422.981	318115
423.056	225386
423.131	168418
423.207	128412
423.282	101570
423.357	83496
423.432	70143
423.508	61240
423.583	53409
423.658	46576
423.733	41876
423.808	39003
423.883	38567
423.959	40199
424.034	45065
424.109	43103
424.184	32220
424.259	28001
424.334	23959
424.409	20878
424.484	18867
424.559	18344
424.634	16683
424.709	16462
424.784	15526
424.859	14390
424.934	13558
425.009	15277
425.084	15645
425.159	13173
425.234	11709
425.309	10836
425.384	11612
425.459	11719
425.534	11481
425.609	10018
425.683	9688
425.758	10003
425.833	9587
425.908	10249
425.983	9356
426.058	12855
426.132	9578
426.207	9368
426.282	9645
426.357	8192
426.431	8926
426.506	8888
426.581	7356
426.655	7936
426.730	8523
426.805	7072
426.879	8316
426.954	7082
427.029	7577
427.103	11467
427.178	17941
427.253	12921
427.327	8133
427.402	7881
427.476	8557
427.551	7800
427.625	7837
427.700	7587
427.774	7597
427.849	8549
427.923	7930
427.998	9763
428.072	12978
428.147	29250
428.221	114174
428.296	283859
428.370	184553
428.444	35127
428.519	15392
428.593	12666
428.667	13515
428.742	18166
428.816	51059
428.890	182301
428.965	271574
429.039	87859
429.113	19614
429.188	11610
429.262	9652
429.336	9455
429.410	9781
429.485	10101
429.559	10711
429.633	12087
429.707	15635
429.781	46351
429.855	173091
429.930	245788
430.004	85247
430.078	54804
430.152	146045
430.226	375876
430.300	382238
430.374	113415
430.448	34443
430.522	24259
430.596	32862
430.670	76043
430.744	221315
430.818	248589
430.892	60455
430.966	14406
431.040	9771
431.114	8024
431.188	7144
431.262	6687
431.336	5734
431.410	8475
431.484	8210
431.557	10066
431.631	10206
431.705	22610
431.779	93757
431.853	266886
431.927	203240
432.000	38897
432.074	10821
432.148	7374
432.222	5253
432.295	5331
432.369	4008
432.443	4860
432.516	8116
432.590	15956
432.664	8578
432.737	3630
432.811	3094
432.885	3285
432.958	4170
433.032	3158
433.106	2905
433.179	4157
433.253	3653
433.326	2959
433.400	3203
433.473	4187
433.547	2956
433.620	3185
433.694	3355
433.767	4349
433.841	4562
433.914	4811
433.988	4024
434.061	5244
434.134	4473
434.208	4545
434.281	3344
434.355	3755
434.428	4586
434.501	4076
434.575	3696
434.648	4205
434.721	3504
434.795	4590
434.868	4547
434.941	4685
435.014	4930
435.088	7871
435.161	10733
435.234	14469
435.307	15828
435.381	17660
435.454	24343
435.527	32805
435.600	36709
435.673	33709
435.746	26738
435.819	21788
435.892	16210
435.966	13445
436.039	10205
436.112	9781
436.185	7451
436.258	6884
436.331	5416
436.404	5537
436.477	4834
436.550	4984
436.623	4396
436.696	4539
436.769	3992
436.842	4790
436.915	3179
436.987	3782
437.060	3858
437.133	3190
437.206	2863
437.279	2909
437.352	2485
437.425	3396
437.498	3595
437.570	3110
437.643	3121
437.716	3184
437.789	1756
437.861	2444
437.934	3079
438.007	2955
438.080	2380
438.152	2669
438.225	3403
438.298	10914
438.370	26018
438.443	12577
438.516	3376
438.588	3181
438.661	1914
438.734	2896
438.806	2019
438.879	3056
438.951	3177
439.024	2762
439.096	2368
439.169	2316
439.241	2141
439.314	2178
439.386	3090
439.459	3730
439.531	2793
439.604	2584
439.676	2846
439.749	2579
439.821	2070
439.893	2819
439.966	1633
440.038	2129
440.110	2550
440.183	2540
440.255	1949
440.327	3927
440.400	5204
440.472	11657
440.544	10091
440.617	3812
440.689	3176
440.761	3476
440.833	3443
440.905	3863
440.978	2932
441.050	3620
441.122	3659
441.194	3071
441.266	3390
441.338	2725
441.411	4402
441.483	6840
441.555	6654
441.627	5500
441.699	5127
441.771	5006
441.843	4306
441.915	5662
441.987	5484
442.059	6187
442.131	7996
442.203	10323
442.275	13151
442.347	24756
442.419	65425
442.491	235216
442.563	432150
442.635	204426
442.706	49342
442.778	21632
442.850	14910
442.922	13503
442.994	13899
443.066	15359
443.137	19063
443.209	24817
443.281	43045
443.353	94473
443.425	278576
443.496	630214
443.568	652824
443.640	311114
443.711	85774
443.783	35394
443.855	21570
443.926	16395
443.998	12328
444.070	11018
444.141	9682
444.213	9338
444.285	8404
444.356	7719
444.428	7768
444.499	7994
444.571	7779
444.642	9164
444.714	8820
444.785	10637
444.857	12582
444.928	14779
445.000	16213
445.071	20350
445.143	26897
445.214	40837
445.285	71394
445.357	175817
445.428	459262
445.500	712016
445.571	615642
445.642	426273
445.714	163533
445.785	55935
445.856	28816
445.928	19190
445.999	14172
446.070	11525
446.141	9546
446.213	8687
446.284	6302
446.355	6769
446.426	5068
446.497	4692
446.569	4896
446.640	3989
446.711	4496
446.782	4139
446.853	3272
446.924	3087
446.995	2795
447.066	2665
447.138	1749
447.209	2200
447.280	1963
447.351	1822
447.422	1499
447.493	2642
447.564	1833
447.635	2090
447.706	1880
447.777	1838
447.847	1437
447.918	1360
447.989	2267
448.060	2455
448.131	2147
448.202	1966
448.273	1562
448.344	1932
448.414	1687
448.485	1596
448.556	1848
448.627	1726
448.698	1776
448.768	1624
448.839	684
448.910	2190
448.981	1733
449.051	830
449.122	953
449.193	1812
449.263	326
449.334	1128
449.405	1409
449.475	2081
449.546	2623
449.616	3389
449.687	2715
449.758	2132
449.828	1543
449.899	1370
449.969	1047
450.040	1119
450.110	1912
450.181	1488
450.251	338
450.322	1369
450.392	1322
450.463	907
450.533	687
450.604	1673
450.674	957
450.744	3676
450.815	3222
450.885	3760
450.955	3577
451.026	3918
451.096	3191
451.166	3783
451.237	4362
451.307	7488
451.377	5188
451.447	3622
451.518	1563
451.588	2011
451.658	1776
451.728	1914
451.799	2825
451.869	3468
451.939	1308
452.009	1970
452.079	1488
452.149	2532
452.219	2346
452.289	4182
452.360	4797
452.430	4168
452.500	5313
452.570	11445
452.640	26837
452.710	63139
452.780	73046
452.850	41928
452.920	19515
452.990	11091
453.060	7267
453.129	4944
453.199	3906
453.269	5852
453.339	7877
453.409	9925
453.479	9140
453.549	12868
453.619	11012
453.688	5515
453.758	1186
453.828	2063
453.898	681
453.968	723
454.037	1297
454.087	1801
454.107	1992
454.168	1082
454.177	929
454.247	1112
454.249	1131
454.316	1012
454.330	979
454.386	732
454.411	1174
454.456	1858
454.492	2406
454.525	2881
454.574	2045
454.595	1646
454.655	1274
454.665	1185
454.734	750
454.736	829
454.804	2934
454.817	2898
454.873	2551
454.898	2844
454.943	3356
454.979	2490
455.013	1721
455.060	1711
455.082	1669
455.141	1982
455.152	2039
455.221	2823
455.222	2896
455.291	5082
455.303	5419
455.360	6345
455.384	8822
455.430	12939
455.465	9800
455.499	7034
455.546	4503
455.569	3294
455.627	2616
455.638	2483
455.707	2367
455.708	2387
455.777	1688
455.789	1677
455.846	1689
455.869	1807
455.916	1866
455.950	2017
455.985	2122
456.031	2056
456.054	1976
456.112	2272
456.124	2367
456.193	2613
456.193	2589
456.262	2595
456.274	2711
456.332	3389
456.355	3020
456.401	2016
456.436	1948
456.470	1952
456.516	2234
456.540	2279
456.597	2389
456.609	2418
456.678	2984
456.678	2959
456.747	3246
456.759	3154
456.817	2574
456.840	2880
456.886	3423
456.920	3706
456.955	4030
457.001	4146
457.024	4237
457.082	5074
457.093	5101
457.162	6202
457.163	6227
457.232	5012
457.243	4913
457.301	4936
457.324	5346
457.370	5970
457.405	6345
457.439	6911
457.485	7659
457.508	8419
457.566	11454
457.577	12988
457.646	22941
457.647	23165
457.715	46404
457.727	51959
457.784	79390
457.808	101694
457.853	122664
457.889	138478
457.922	150267
457.969	115724
457.991	112083
458.050	125101
458.060	126730
458.129	198984
458.130	201212
458.198	197552
458.211	175539
458.267	109617
458.292	82630
458.336	60183
458.372	62398
458.405	79613
458.453	114970
458.474	132787
458.533	207561
458.543	208869
458.611	282828
458.614	282924
458.680	197064
458.694	160542
458.749	75790
458.775	55806
458.818	31944
458.855	24549
458.887	19797
458.936	16032
458.955	14750
459.016	11604
459.024	11280
459.093	10031
459.097	9992
459.162	9051
459.177	8886
459.230	8142
459.257	7870
459.299	7616
459.338	7684
459.368	7591
459.418	6824
459.437	6593
459.499	6681
459.505	6663
459.574	6193
459.579	6197
459.643	6474
459.659	6503
459.711	6354
459.740	6325
459.780	6241
459.820	6374
459.849	6482
459.900	6321
459.917	6203
459.981	6686
459.986	6719
460.054	5775
460.061	5762
460.123	5650
460.141	5639
460.191	5835
460.222	6023
460.260	6060
460.302	6241
460.328	6266
460.382	5705
460.397	5850
460.462	7448
460.465	7682
460.534	12732
460.543	13457
460.602	21498
460.623	24640
460.671	33610
460.703	43254
460.739	36089
460.783	21940
460.808	20468
460.864	9284
460.876	7627
460.944	6100
460.945	6075
461.013	5757
461.024	5696
461.081	5639
461.104	5764
461.150	6030
461.184	6091
461.218	6066
461.264	6129
461.286	6098
461.345	6236
461.355	6302
461.423	6080
461.425	6075
461.491	5552
461.505	5644
461.559	6431
461.585	6517
461.628	6756
461.665	7341
461.696	7346
461.745	7341
461.764	7318
461.825	6594
461.832	6579
461.901	6401
461.905	6409
461.969	5831
461.985	5738
462.037	6127
462.065	6225
462.105	6303
462.145	6482
462.173	6684
462.225	7038
462.241	7073
462.305	7349
462.310	7339
462.378	7174
462.385	7095
462.446	7141
462.465	7313
462.514	7145
462.545	7014
462.582	6893
462.625	6614
462.650	6597
462.705	6559
462.718	6514
462.785	6263
462.786	6274
462.854	6946
462.865	7053
462.922	7291
462.945	7321
462.990	7171
463.025	7001
463.058	6908
463.104	6837
463.126	6693
463.184	6508
463.194	6607
463.262	6768
463.264	6789
463.330	6907
463.344	6833
463.398	7288
463.424	7479
463.466	6848
463.504	6511
463.533	6936
463.583	7263
463.601	7099
463.663	6781
463.669	6806
463.737	7008
463.743	7009
463.805	7667
463.823	7937
463.873	8760
463.903	9087
463.940	8696
463.982	8301
464.008	7911
464.062	7046
464.076	7067
464.142	6809
464.144	6817
464.211	7193
464.221	7242
464.279	6918
464.301	6669
464.347	6633
464.381	6765
464.414	6872
464.461	7061
464.482	7319
464.540	7691
464.550	7672
464.617	7540
464.620	7530
464.685	8421
464.699	8551
464.753	7967
464.779	7806
464.820	8284
464.859	8460
464.888	8194
464.938	7920
464.956	8110
465.018	8550
465.023	8518
465.091	8058
465.098	8000
465.158	8149
465.177	8191
465.226	7880
465.257	7543
465.293	7887
465.336	8513
465.361	8896
465.416	9385
465.428	9392
465.495	9510
465.496	9526
465.563	9434
465.575	9423
465.631	9724
465.654	9825
465.698	8781
465.734	7878
465.765	8085
465.813	8262
465.833	8320
465.893	8619
465.900	8673
465.968	8848
465.972	8847
466.035	8182
466.052	7993
466.102	8723
466.131	9143
466.170	8789
466.210	8298
466.237	8427
466.290	8672
466.304	8607
466.369	8177
466.372	8207
466.439	8666
466.449	8705
466.506	8580
466.528	8536
466.573	9563
466.607	10282
466.641	10843
466.687	11548
466.708	11443
466.766	11135
466.775	10963
466.842	9505
466.845	9418
466.909	9941
466.925	10036
466.977	10467
467.004	10690
467.044	10613
467.083	10477
467.111	10833
467.163	11445
467.178	11557
467.242	11923
467.245	11936
467.312	11709
467.321	11658
467.379	11883
467.400	11929
467.446	11747
467.480	11574
467.559	13245
467.638	12269
467.717	12002
467.796	13433
467.875	15151
467.955	15960
468.034	20330
468.113	23639
468.192	28913
468.271	33410
468.350	46718
468.429	56488
468.508	51722
468.588	32649
468.667	22386
468.746	17326
468.825	16535
468.904	14336
468.983	15060
469.062	13743
469.141	13800
469.220	12633
469.299	12526
469.378	13080
469.456	13091
469.535	12029
469.614	12399
469.693	12807
469.772	13728
469.851	15057
469.930	15290
470.009	17039
470.088	22724
470.166	35252
470.245	54409
470.324	64586
470.403	44765
470.482	27059
470.560	19861
470.639	16223
470.718	14953
470.797	13923
470.875	13717
470.954	12930
471.033	12880
471.111	11771
471.190	11429
471.269	10760
471.347	10532
471.426	10811
471.505	11526
471.583	11563
471.662	11622
471.740	11836
471.819	11132
471.898	11237
471.976	11367
472.055	10681
472.133	11064
472.212	11783
472.290	10608
472.369	10723
472.447	11595
472.526	9843
472.604	11407
472.683	11120
472.761	11458
472.839	10947
472.918	12000
472.996	12133
473.075	12252
473.153	11753
473.231	11543
473.310	11526
473.388	11644
473.466	11681
473.545	12416
473.623	12312
473.701	12866
473.780	12128
473.858	11380
473.936	12811
474.014	12346
474.093	12230
474.171	13503
474.249	12674
474.327	12465
474.405	11726
474.484	11926
474.562	11293
474.640	11661
474.718	11652
474.796	11098
474.874	11158
474.952	11411
475.030	10715
475.108	11534
475.187	11195
475.265	11377
475.343	11033
475.421	11972
475.499	10547
475.577	12015
475.655	12160
475.733	11919
475.811	12801
475.889	12695
475.966	11635
476.044	11142
476.122	10580
476.200	10847
476.278	11389
476.356	10170
476.434	10563
476.512	10956
476.590	11800
476.667	10432
476.745	10198
476.823	10319
476.901	10463
476.979	10751
477.056	10986
477.134	10972
477.212	11063
477.290	11017
477.367	9859
477.445	10767
477.523	9647
477.601	8892
477.678	10281
477.756	11252
477.834	10026
477.911	10373
477.989	9972
478.066	10775
478.144	10693
478.222	10898
478.299	10853
478.377	11572
478.454	10507
478.532	10858
478.609	9364
478.687	11386
478.764	9958
478.842	10968
478.919	9939
478.997	10300
479.074	9522
479.152	10031
479.229	10563
479.307	9908
479.384	10519
479.461	11190
479.539	10269
479.616	10231
479.694	10115
479.771	10430
479.848	10001
479.926	10905
480.003	11707
480.080	11218
480.157	10742
480.235	10890
480.312	11213
480.389	11690
480.467	12455
480.544	13871
480.621	14278
480.698	13673
480.775	13077
480.853	12633
480.930	11542
481.007	11579
481.084	12571
481.161	13854
481.238	12164
481.315	11569
481.392	13022
481.470	12834
481.547	12623
481.624	12551
481.701	12500
481.778	14366
481.855	13876
481.932	15992
482.009	18310
482.086	19575
482.163	20562
482.240	23325
482.317	22217
482.393	19627
482.470	18061
482.547	18334
482.624	16852
482.701	17077
482.778	16161
482.855	16889
482.932	17572
483.009	18775
483.085	21243
483.162	23181
483.239	25151
483.316	24396
483.393	23891
483.469	20788
483.546	18344
483.623	17771
483.699	15933
483.776	14850
483.853	14609
483.930	15356
484.006	17187
484.083	21748
484.160	20391
484.236	25450
484.313	21834
484.389	22581
484.466	26368
484.543	31338
484.619	37004
484.696	34601
484.772	23425
484.849	20992
484.925	18995
485.002	17612
485.078	17483
485.155	15552
485.231	15207
485.308	15397
485.384	15208
485.461	15669
485.537	16755
485.614	16862
485.690	14608
485.766	14978
485.843	14300
485.919	15112
485.995	15061
486.072	14093
486.148	14685
486.224	15229
486.301	13774
486.377	14704
486.453	15138
486.530	16187
486.606	17863
486.682	18112
486.758	19048
486.835	20282
486.911	19402
486.987	23599
487.063	23685
487.139	26933
487.215	30245
487.292	31555
487.368	37250
487.444	48392
487.520	71867
487.596	143287
487.672	381124
487.748	850234
487.824	1015382
487.900	345663
487.976	119900
488.052	65398
488.128	43924
488.204	34446
488.280	27350
488.356	26293
488.432	24978
488.508	24668
488.584	18593
488.660	17532
488.736	16672
488.812	16358
488.888	16923
488.964	16901
489.039	17592
489.115	19608
489.191	16729
489.267	15566
489.343	14611
489.418	14386
489.494	14702
489.570	14038
489.646	15145
489.722	14171
489.797	14408
489.873	17247
489.949	18843
490.024	16556
490.100	15271
490.176	15339
490.251	15013
490.327	16091
490.403	14329
490.478	14796
490.554	14366
490.629	14690
490.705	13995
490.781	15138
490.856	13451
490.932	15301
491.007	13310
491.083	13814
491.158	14519
491.234	14900
491.309	15766
491.385	14696
491.460	13273
491.536	13451
491.611	12119
491.686	13265
491.762	13125
491.837	13725
491.913	17220
491.988	18393
492.063	18667
492.139	14746
492.214	12584
492.289	13288
492.365	13316
492.440	12691
492.515	12178
492.590	12203
492.666	11685
492.741	13202
492.816	13153
492.891	12491
492.967	12103
493.042	12744
493.117	12384
493.192	14304
493.267	20340
493.342	34297
493.418	34683
493.493	14065
493.568	12248
493.643	12945
493.718	12477
493.793	12601
493.868	13012
493.943	12330
494.018	12115
494.093	12696
494.168	12381
494.243	11922
494.318	12337
494.393	13063
494.468	11681
494.543	12925
494.618	12846
494.693	13398
494.768	13462
494.842	13496
494.917	12663
494.992	12154
495.067	12488
495.142	12952
495.217	12164
495.292	13299
495.366	13081
495.441	12834
495.516	13916
495.591	15562
495.665	20597
495.740	26215
495.815	16784
495.890	13898
495.964	13186
496.039	15729
496.114	16164
496.188	17473
496.263	15520
496.338	14148
496.412	12946
496.487	13191
496.561	13922
496.636	13213
496.710	12667
496.785	13970
496.860	13889
496.934	13874
497.009	13656
497.083	14485
497.158	14378
497.232	15974
497.307	16536
497.381	18320
497.455	17719
497.530	14144
497.604	11958
497.679	14364
497.753	14393
497.827	13760
497.902	14472
497.976	18071
498.050	31174
498.125	62864
498.199	44293
498.273	17306
498.348	16779
498.422	18939
498.496	20239
498.570	21126
498.645	12419
498.719	11473
498.793	12901
498.867	14393
498.941	17986
499.016	35925
499.090	56818
499.164	20067
499.238	14053
499.312	15684
499.386	16370
499.460	19371
499.534	20843
499.609	24239
499.683	17195
499.757	12539
499.831	21769
499.905	41193
499.979	28788
500.053	14357
500.127	13888
500.201	13210
500.275	15229
500.349	16117
500.422	16902
500.496	20835
500.570	29114
500.644	44453
500.718	45476
500.792	12980
500.866	10841
500.940	12603
501.013	11166
501.087	11521
501.161	12270
501.235	13168
501.309	21955
501.382	34089
501.456	24331
501.530	14477
501.603	14816
501.677	10469
501.751	9744
501.825	12617
501.898	14451
501.972	17976
502.046	12297
502.119	11065
502.193	14874
502.266	17280
502.340	11914
502.413	14321
502.487	16131
502.561	12430
502.634	11975
502.708	11613
502.781	10998
502.855	11905
502.928	9775
503.002	11736
503.075	10812
503.149	11503
503.222	12718
503.295	12963
503.369	14528
503.442	17490
503.516	24485
503.589	33403
503.662	30135
503.736	31165
503.809	44299
503.882	59492
503.956	107802
504.029	237176
504.102	517346
504.175	570043
504.249	231033
504.322	99191
504.395	55261
504.468	38153
504.542	27457
504.615	20461
504.688	19090
504.761	15517
504.834	15605
504.907	14512
504.980	13368
505.053	11243
505.127	9789
505.200	11944
505.273	9776
505.346	9209
505.419	9385
505.492	10930
505.565	9676
505.638	9484
505.711	8179
505.784	7622
505.857	8444
505.930	10010
506.003	7379
506.076	9175
506.149	8411
506.221	8111
506.294	9474
506.367	11309
506.440	18723
506.513	10617
506.586	7300
506.659	7729
506.731	7494
506.804	6991
506.877	6852
506.950	8253
507.022	7600
507.095	7769
507.168	8080
507.241	8006
507.313	6542
507.386	6823
507.459	7593
507.531	6602
507.604	6890
507.677	7026
507.749	6834
507.822	8749
507.894	9286
507.967	9747
508.040	7577
508.112	9212
508.185	8870
508.257	7603
508.330	8396
508.402	7638
508.475	8422
508.547	8788
508.620	8192
508.692	8200
508.765	8150
508.837	7729
508.909	8020
508.982	7912
509.054	8040
509.127	7213
509.199	7712
509.271	7474
509.344	7007
509.416	7662
509.488	7587
509.560	9004
509.633	7509
509.705	8903
509.777	7654
509.849	9333
509.922	6473
509.994	7925
510.066	8574
510.138	7959
510.210	11155
510.283	9329
510.355	8535
510.427	8184
510.499	8877
510.571	8641
510.643	8104
510.715	9602
510.787	6733
510.859	9159
510.931	8893
511.003	9093
511.076	8916
511.148	7464
511.219	8240
511.291	9965
511.363	9779
511.435	8545
511.507	7937
511.579	8524
511.651	8876
511.723	8719
511.795	7829
511.867	8092
511.939	8367
512.010	9044
512.082	8141
512.154	7073
512.226	9529
512.298	10494
512.369	10601
512.441	10594
512.513	9028
512.585	8529
512.656	9602
512.728	8800
512.800	8992
512.871	9214
512.943	8748
513.015	7814
513.086	8471
513.158	8704
513.230	8262
513.301	9489
513.373	9310
513.444	8749
513.516	8781
513.588	9096
513.659	8846
513.731	9061
513.802	8238
513.874	11784
513.945	11045
514.016	8702
514.088	8517
514.159	9109
514.231	10083
514.302	11551
514.374	10640
514.445	10247
514.516	12551
514.588	10055
514.659	10450
514.730	10137
514.802	11017
514.873	8303
514.944	10945
515.016	10654
515.087	9635
515.158	11599
515.229	12436
515.301	10129
515.372	11651
515.443	10689
515.514	10855
515.585	11271
515.656	11790
515.728	12753
515.799	13292
515.870	14699
515.941	14430
516.012	16591
516.083	19477
516.154	20390
516.225	24412
516.296	28285
516.367	32897
516.438	41594
516.509	62685
516.580	152798
516.651	539773
516.722	1090549
516.793	300027
516.864	73981
516.935	67863
517.006	87052
517.077	161021
517.148	482847
517.219	1480866
517.289	1343397
517.360	240790
517.431	79778
517.502	51434
517.573	43202
517.643	39017
517.714	39537
517.785	42436
517.856	47571
517.926	57812
517.997	72489
518.068	97035
518.138	162030
518.209	387540
518.280	1229355
518.350	2029754
518.421	759241
518.492	203971
518.562	140712
518.633	155623
518.703	245545
518.774	511775
518.845	936227
518.915	632158
518.986	217765
519.056	106216
519.127	71049
519.197	55670
519.268	50744
519.338	34357
519.408	26251
519.479	22730
519.549	19556
519.620	20335
519.690	17233
519.760	15860
519.831	15387
519.901	14081
519.971	14356
520.042	13597
520.112	13067
520.182	13535
520.253	13037
520.323	11816
520.393	12223
520.463	13228
520.534	10845
520.604	15500
520.674	11246
520.744	11040
520.814	13599
520.885	13715
520.955	15568
521.025	23929
521.095	12534
521.165	11957
521.235	10510
521.305	9719
521.375	10491
521.445	10711
521.515	11095
521.585	11471
521.655	8935
521.725	10508
521.795	10739
521.865	8460
521.935	12419
522.005	9240
522.075	10038
522.145	10752
522.215	10489
522.285	10980
522.355	11620
522.424	13184
522.494	12263
522.564	11057
522.634	13654
522.704	17600
522.774	10266
522.843	10830
522.913	11239
522.983	11370
523.053	10335
523.122	10675
523.192	11375
523.262	13422
523.331	12969
523.401	11116
523.471	10476
523.540	11060
523.610	10309
523.680	11746
523.749	12056
523.819	13031
523.888	13157
523.958	11504
524.027	12416
524.097	12184
524.166	12361
524.236	11974
524.305	12966
524.375	10507
524.444	11920
524.514	13151
524.583	12764
524.653	12883
524.722	13440
524.791	12258
524.861	15161
524.930	12724
524.999	14027
525.069	16128
525.138	15452
525.207	16001
525.277	19291
525.346	19295
525.415	22898
525.484	24603
525.554	28524
525.623	34016
525.692	40772
525.761	48777
525.830	62847
525.900	90541
525.969	174195
526.038	347732
526.107	843950
526.176	1601984
526.245	919490
526.314	428395
526.383	985109
526.452	1063423
526.522	1549308
526.591	890912
526.660	193071
526.729	128597
526.797	156560
526.867	306720
526.935	924410
527.004	1949356
527.073	843898
527.142	171075
527.211	78840
527.280	52468
527.349	39116
527.418	28730
527.487	25415
527.555	21170
527.624	20802
527.693	17932
527.762	17811
527.831	15936
527.899	15404
527.968	14578
528.037	13720
528.106	14116
528.174	14483
528.243	13844
528.312	13735
528.380	12674
528.449	12372
528.518	13434
528.586	11239
528.655	12390
528.723	11828
528.792	11327
528.861	11698
528.929	9045
528.998	12050
529.066	11393
529.135	11245
529.203	11000
529.272	11872
529.340	13131
529.409	13419
529.477	11406
529.545	10589
529.614	13345
529.682	13150
529.751	12507
529.819	15420
529.887	14372
529.956	13333
530.024	13314
530.092	11860
530.161	14141
530.229	13089
530.297	13045
530.365	14657
530.434	13484
530.502	13510
530.570	13042
530.638	12031
530.707	12917
530.775	13390
530.843	12983
530.911	14336
530.979	13869
531.047	14651
531.115	14785
531.183	13939
531.252	13827
531.320	13254
531.388	12327
531.456	14131
531.524	12869
531.592	15233
531.660	16323
531.728	14138
531.796	14182
531.864	14989
531.932	15004
532.000	13944
532.067	15018
532.135	16226
532.203	18234
532.271	18123
532.339	20379
532.407	22778
532.475	18692
532.542	17453
532.610	18084
532.678	17715
532.746	28489
532.814	32254
532.881	18605
532.949	18345
533.017	15786
533.084	16157
533.152	15815
533.220	16822
533.287	16224
533.355	16903
533.423	18139
533.490	17083
533.558	17272
533.625	18585
533.693	16409
533.761	18066
533.828	18682
533.896	17751
533.963	22674
534.031	24185
534.098	28781
534.166	28708
534.233	28409
534.300	32689
534.368	31417
534.435	31647
534.503	33379
534.570	37791
534.637	44259
534.705	54875
534.772	90992
534.840	256511
534.907	891366
534.974	587758
535.041	77832
535.109	40309
535.176	30493
535.243	30303
535.310	28120
535.378	26027
535.445	26881
535.512	28376
535.579	26187
535.646	26271
535.714	28093
535.781	29087
535.848	29846
535.915	27921
535.982	28539
536.049	27515
536.116	27307
536.183	25679
536.250	24694
536.317	25849
536.384	28152
536.451	28847
536.518	28894
536.585	26562
536.652	29052
536.719	27534
536.786	25656
536.853	26697
536.920	29075
536.987	27705
537.053	27429
537.120	36435
537.187	32904
537.254	29637
537.321	29512
537.388	31513
537.454	28733
537.521	29082
537.588	29193
537.654	30993
537.721	31886
537.788	30979
537.855	30042
537.921	29438
537.988	27132
538.055	27309
538.121	25566
538.188	25141
538.254	24869
538.321	26806
538.388	29502
538.454	32668
538.521	32543
538.587	31891
538.654	30118
538.720	29637
538.787	29458
538.853	30088
538.920	26941
538.986	27193
539.053	25989
539.119	28457
539.185	27525
539.252	30641
539.318	31700
539.385	34983
539.451	30932
539.517	30392
539.583	30707
539.650	32212
539.716	32317
539.782	29031
539.849	29322
539.915	28704
539.981	27994
540.047	28758
540.114	28833
540.180	31487
540.246	32478
540.312	32409
540.378	31749
540.444	33058
540.510	34884
540.576	35881
540.643	29311
540.709	28013
540.775	29704
540.841	28565
540.907	28700
540.973	30979
541.039	29497
541.105	31079
541.171	32540
541.237	32223
541.303	31619
541.369	33920
541.435	32278
541.500	30629
541.566	27682
541.632	28308
541.698	29173
541.764	31839
541.830	30057
541.896	29703
541.961	28576
542.027	29853
542.093	34050
542.159	32672
542.224	29752
542.290	32451
542.356	30474
542.421	29882
542.487	27043
542.553	28976
542.618	29290
542.684	29749
542.750	29605
542.815	31477
542.881	31764
542.947	37281
543.012	33565
543.078	27931
543.143	27733
543.209	29800
543.274	28756
543.340	29555
543.405	32730
543.471	32517
543.536	31464
543.602	32179
543.667	29660
543.732	32194
543.798	30963
543.863	33293
543.928	31371
543.994	31467
544.059	32189
544.124	33417
544.190	32892
544.255	33794
544.320	34546
544.386	33719
544.451	36303
544.516	34056
544.581	35261
544.646	38690
544.712	38816
544.777	36721
544.842	35627
544.907	35458
544.972	35870
545.037	37558
545.102	37914
545.168	38729
545.233	40237
545.298	39852
545.363	40690
545.428	42881
545.493	43753
545.558	44023
545.623	42650
545.688	41672
545.753	44062
545.818	45856
545.883	49120
545.947	49329
546.012	51675
546.077	52270
546.142	57345
546.207	58333
546.272	60644
546.337	62351
546.401	66286
546.466	66996
546.531	70337
546.596	75642
546.661	78226
546.725	83161
546.790	87926
546.855	95341
546.919	106006
546.984	116310
547.049	127038
547.113	146936
547.178	161878
547.243	186425
547.307	214659
547.372	229658
547.436	229382
547.501	249325
547.565	252809
547.630	231527
547.695	226735
547.759	228297
547.823	229352
547.888	236385
547.952	243411
548.017	253581
548.081	253877
548.146	250979
548.210	266099
548.274	285270
548.339	265528
548.403	245681
548.468	232634
548.532	235169
548.596	236659
548.660	244548
548.725	268786
548.789	285239
548.853	268866
548.917	260999
548.982	244662
549.046	220290
549.110	205369
549.174	224257
549.238	262748
549.303	278929
549.367	278373
549.431	259480
549.495	248065
549.559	256873
549.623	305599
549.687	308450
549.751	327092
549.815	378641
549.879	365601
549.943	362502
550.007	379701
550.071	361017
550.135	323484
550.199	317237
550.263	303851
550.327	294292
550.391	309150
550.455	344931
550.519	359217
550.582	391244
550.646	435011
550.710	430769
550.774	427799
550.838	439963
550.901	458245
550.965	491171
551.029	524648
551.093	580512
551.156	656546
551.220	748081
551.284	709990
551.347	546285
551.411	475511
551.475	456643
551.538	457225
551.602	414075
551.666	392981
551.729	369033
551.793	361852
551.856	354475
551.920	350388
551.983	349507
552.047	345533
552.110	351163
552.174	354184
552.237	352473
552.301	325907
552.364	314171
552.428	310176
552.491	326242
552.554	326620
552.618	331512
552.681	343121
552.745	351166
552.808	435287
552.871	472834
552.934	388105
552.998	337869
553.061	317593
553.124	301921
553.187	306344
553.251	311165
553.314	310896
553.377	319992
553.440	344313
553.503	369250
553.567	356800
553.630	333563
553.693	327015
553.756	325980
553.819	313464
553.882	300688
553.945	306346
554.008	304057
554.071	311790
554.134	305481
554.197	283888
554.260	279298
554.323	286230
554.386	296097
554.449	307696
554.512	303389
554.575	291688
554.638	289243
554.701	287136
554.764	281033
554.827	271995
554.889	258483
554.952	241885
555.015	243955
555.078	249718
555.141	251283
555.203	243678
555.266	246696
555.329	240173
555.391	230906
555.454	228493
555.517	225370
555.580	216706
555.642	208603
555.705	205614
555.768	203490
555.830	193995
555.893	186558
555.955	179116
556.018	181272
556.080	186270
556.143	190848
556.206	184063
556.268	179984
556.330	174673
556.393	171285
556.455	168014
556.518	163153
556.580	156474
556.643	150385
556.705	151825
556.767	147917
556.830	148228
556.892	143370
556.955	141303
557.017	137129
557.079	138397
557.142	135797
557.204	136497
557.266	138491
557.328	123085
557.391	117794
557.453	114615
557.515	118029
557.577	118544
557.639	119657
557.701	120832
557.764	119955
557.826	122163
557.888	130783
557.950	140752
558.012	168740
558.074	271687
558.136	720116
558.198	986956
558.260	264270
558.322	144535
558.384	141524
558.446	147560
558.508	162657
558.570	185293
558.632	233103
558.694	343807
558.756	697182
558.818	1792841
558.880	2096096
558.942	1106541
559.003	1137193
559.065	386270
559.127	203278
559.189	198611
559.251	244456
559.312	425968
559.374	1120072
559.436	1843377
559.498	672465
559.559	238417
559.621	204598
559.683	265476
559.744	538035
559.806	1444791
559.868	1150363
559.929	299644
559.991	267814
560.052	579857
560.114	1115774
560.176	548787
560.237	851131
560.299	759960
560.360	149813
560.422	80700
560.483	67358
560.545	63697
560.606	60609
560.667	56965
560.729	54186
560.790	51154
560.852	49694
560.913	48372
560.974	46326
561.036	46532
561.097	46009
561.158	44726
561.220	44150
561.281	41550
561.342	41690
561.403	42207
561.465	41885
561.526	42374
561.587	41859
561.648	37311
561.709	38371
561.771	36200
561.832	37097
561.893	36681
561.954	35962
562.015	34794
562.076	34950
562.137	33638
562.198	33858
562.259	34455
562.320	34791
562.381	35491
562.442	34804
562.503	32313
562.564	31987
562.625	31382
562.686	32119
562.747	30974
562.808	32360
562.869	30281
562.930	32409
562.991	28413
563.051	29056
563.112	28660
563.173	29913
563.234	28835
563.294	28547
563.355	27806
563.416	28786
563.477	28621
563.537	27759
563.598	27966
563.659	28358
563.720	28000
563.780	28338
563.841	28663
563.901	27555
563.962	26815
564.023	26257
564.083	26676
564.144	26805
564.204	26479
564.265	26680
564.325	26370
564.386	27588
564.446	25514
564.507	24765
564.567	24028
564.628	24230
564.688	23952
564.749	24032
564.809	25001
564.869	25916
564.930	24165
564.990	24072
565.050	23636
565.111	24959
565.171	23966
565.231	24298
565.292	23930
565.352	23961
565.412	24182
565.472	24161
565.532	22375
565.593	22827
565.653	22516
565.713	24226
565.773	23855
565.833	25550
565.893	25255
565.953	22177
566.013	22282
566.074	22253
566.134	21640
566.194	23017
566.254	22696
566.314	22640
566.374	21775
566.434	21139
566.494	22657
566.554	22649
566.614	22214
566.673	23538
566.733	23585
566.793	24340
566.853	22953
566.913	23616
566.973	22970
567.033	24002
567.092	23483
567.152	23681
567.212	22480
567.272	24633
567.331	24417
567.391	25317
567.451	26390
567.511	26004
567.570	24954
567.630	25087
567.690	23535
567.749	23416
567.809	22666
567.868	23823
567.928	23882
567.988	24096
568.047	25105
568.107	24453
568.166	23438
568.226	24986
568.285	25683
568.345	25354
568.404	24908
568.464	24182
568.523	23495
568.582	24899
568.642	24113
568.701	24232
568.761	24054
568.820	24268
568.879	24704
568.939	24602
568.998	24778
569.057	23859
569.116	23266
569.176	24451
569.235	24211
569.294	23253
569.353	22039
569.413	22616
569.472	21625
569.531	21198
569.590	21437
569.649	22823
569.708	21659
569.767	22760
569.827	22442
569.886	21448
569.945	21148
570.004	22712
570.063	22462
570.122	23834
570.181	23195
570.240	24585
570.299	24007
570.358	24138
570.417	23931
570.475	23352
570.534	23951
570.593	24496
570.652	24829
570.711	24866
570.770	23349
570.829	24040
570.887	24378
570.946	23895
571.005	25776
571.064	30412
571.122	31410
571.181	27988
571.240	25187
571.299	22965
571.357	23449
571.416	23519
571.475	23562
571.533	25468
571.592	25620
571.650	25616
571.709	28573
571.768	31992
571.826	32928
571.885	29310
571.943	24728
572.002	24342
572.060	23962
572.119	22398
572.177	21995
572.236	23731
572.294	23707
572.352	26701
572.411	25718
572.469	23961
572.528	22972
572.586	22728
572.644	22230
572.703	22437
572.761	21612
572.819	20882
572.877	20462
572.936	19337
572.994	19228
573.052	21095
573.110	21093
573.169	23648
573.227	22659
573.285	22299
573.343	21929
573.401	22697
573.459	22342
573.517	23720
573.576	25024
573.634	23971
573.692	24446
573.750	24787
573.808	21956
573.866	22251
573.924	21568
573.982	21818
574.040	21049
574.098	22633
574.155	22124
574.213	20768
574.271	23727
574.329	26272
574.387	22969
574.445	21229
574.503	20037
574.560	20251
574.618	21156
574.676	21743
574.734	20584
574.792	19632
574.849	18496
574.907	17790
574.965	16869
575.022	15444
575.080	15744
575.138	16268
575.195	15346
575.253	15367
575.311	16309
575.368	16548
575.426	16645
575.483	16738
575.541	17301
575.598	16925
575.656	18514
575.713	18913
575.771	19714
575.828	18577
575.886	16116
575.943	16095
576.001	15288
576.058	15343
576.115	15744
576.173	16617
576.230	17246
576.287	16505
576.345	15877
576.402	18828
576.459	17955
576.517	17728
576.574	16378
576.631	15705
576.688	15157
576.746	14158
576.803	13984
576.860	15569
576.917	14525
576.974	16157
577.031	16212
577.089	14560
577.146	13380
577.203	14202
577.260	14260
577.317	14494
577.374	14548
577.431	13970
577.488	13522
577.545	13656
577.602	14121
577.659	14675
577.716	14401
577.773	15278
577.830	14539
577.886	14785
577.943	13928
578.000	14387
578.057	14492
578.114	15549
578.171	15208
578.227	17274
578.284	14818
578.341	15718
578.398	14876
578.454	14999
578.511	13555
578.568	14907
578.625	14791
578.681	14463
578.738	13571
578.794	14385
578.851	14162
578.908	14628
578.964	14258
579.021	14614
579.077	13897
579.134	14851
579.190	14187
579.247	15113
579.303	14060
579.360	13312
579.416	14480
579.473	14027
579.529	13952
579.586	14429
579.642	14707
579.698	14368
579.755	14432
579.811	14848
579.867	14831
579.924	15399
579.980	15001
580.036	16395
580.093	17112
580.149	21002
580.205	19204
580.261	18301
580.317	18048
580.374	17544
580.430	17654
580.486	16647
580.542	16048
580.598	16070
580.619	16205
580.654	16453
580.692	16597
580.710	16693
580.765	15462
580.767	15435
580.823	17571
580.838	17532
580.879	17483
580.911	16890
580.935	16469
580.984	16674
580.991	16720
581.047	17705
581.057	17608
581.103	17227
581.130	16905
581.159	16584
581.203	17270
581.215	17456
581.270	16202
581.276	16096
581.326	15259
581.349	15542
581.382	15950
581.422	15913
581.438	15907
581.494	14961
581.494	14950
581.550	14281
581.567	14886
581.606	16208
581.640	15487
581.661	15055
581.713	16923
581.717	17079
581.773	15794
581.786	15885
581.829	16199
581.859	15865
581.885	15615
581.932	16385
581.940	16523
581.996	16375
582.004	16420
582.052	16576
582.077	16070
582.107	15580
582.150	15408
582.163	15323
582.219	15149
582.223	15123
582.274	14948
582.296	15346
582.330	15959
582.368	16131
582.386	16274
582.441	15910
582.441	15911
582.497	16343
582.514	16190
582.552	15907
582.587	16976
582.608	17634
582.659	16324
582.663	16224
582.719	16204
582.732	16350
582.774	16751
582.805	16766
582.830	16862
582.877	16981
582.885	16971
582.941	16923
582.950	16992
582.996	17442
583.023	17400
583.052	17500
583.095	18278
583.107	18488
583.162	19723
583.168	19744
583.218	19408
583.240	18534
583.273	17275
583.313	17262
583.328	17359
583.384	17457
583.385	17433
583.439	16460
583.458	16653
583.494	17163
583.531	16975
583.549	16927
583.603	17361
583.605	17365
583.660	16658
583.676	16941
583.715	17682
583.748	17004
583.770	16652
583.820	17640
583.825	17724
583.881	17087
583.893	17223
583.936	17718
583.965	17580
583.991	17374
584.038	16931
584.046	16880
584.101	17458
584.110	17540
584.156	18170
584.183	18295
584.211	18273
584.255	18630
584.266	18770
584.321	18824
584.328	18865
584.376	19102
584.400	19406
584.431	19826
584.472	20241
584.486	20458
584.541	21441
584.545	21511
584.596	22358
584.617	22261
584.651	22292
584.689	22988
584.706	23198
584.761	24224
584.762	24226
584.816	25036
584.834	25492
584.871	26518
584.906	27472
584.926	27972
584.978	29852
584.980	29940
585.035	32419
585.051	33125
585.090	35303
585.123	37667
585.145	39603
585.195	44480
585.200	45034
585.254	52428
585.267	54875
585.309	63344
585.340	69999
585.364	76062
585.412	90899
585.419	93454
585.473	123940
585.484	133504
585.528	179341
585.556	231350
585.583	305959
585.628	501164
585.637	566620
585.692	1142486
585.700	1186553
585.747	1374580
585.772	1249307
585.801	822329
585.845	381424
585.856	320103
585.910	144873
585.917	126805
585.965	89749
585.989	75769
586.019	66618
586.061	56532
586.074	54432
586.128	48822
586.133	48352
586.183	45353
586.205	44297
586.237	43319
586.277	42039
586.292	41747
586.346	40143
586.349	40084
586.401	39278
586.421	39268
586.455	39469
586.493	39445
586.509	39717
586.564	40385
586.565	40426
586.618	45040
586.637	46626
586.672	51088
586.709	57879
586.727	61847
586.781	68255
586.781	68280
586.835	54692
586.853	51610
586.889	46105
586.925	41298
586.944	40314
586.996	39611
586.998	39639
587.052	38402
587.068	38161
587.106	38537
587.140	38779
587.161	38795
587.212	39600
587.215	39686
587.269	39506
587.284	39642
587.323	40725
587.356	41411
587.377	41821
587.427	43222
587.431	43369
587.485	43806
587.499	43971
587.539	44972
587.571	45728
587.593	46453
587.643	48372
587.648	48638
587.702	50169
587.715	50584
587.755	50922
587.786	50941
587.810	51133
587.858	50960
587.864	51022
587.917	51273
587.930	51397
587.971	52811
588.001	53226
588.025	53156
588.073	52985
588.079	53081
588.133	53520
588.145	53622
588.187	54507
588.217	54491
588.241	55249
588.288	57472
588.295	57798
588.348	59309
588.360	59593
588.402	61064
588.431	61962
588.456	63271
588.503	66079
588.510	66695
588.564	70622
588.575	71607
588.617	76374
588.646	80011
588.671	83653
588.718	91314
588.725	93433
588.778	114356
588.789	120636
588.832	172352
588.861	216814
588.886	314782
588.932	539726
588.939	576656
588.993	761553
589.004	780112
589.047	437377
589.075	248397
589.100	191544
589.147	97318
589.154	95983
589.207	85655
589.218	83585
589.261	83959
589.290	84676
589.314	87826
589.361	96626
589.368	99503
589.421	127775
589.433	135642
589.475	225709
589.504	304922
589.528	431766
589.576	647927
589.582	632042
589.635	391228
589.647	350714
589.689	193600
589.718	87591
589.742	81146
589.790	68295
589.795	68080
589.849	65342
589.861	64702
589.902	63863
589.932	62462
589.955	61842
590.004	60798
590.009	60891
590.062	60823
590.075	60621
590.115	60009
590.146	59309
590.168	59384
590.218	59155
590.222	59319
590.275	60322
590.289	60415
590.328	61697
590.360	62449
590.381	62887
590.431	63602
590.435	63744
590.488	63903
590.503	63844
590.541	65173
590.574	65957
590.594	66645
590.645	68441
590.647	68664
590.700	70397
590.716	70872
590.753	73043
590.787	74682
590.806	75582
590.859	77715
590.859	77897
590.912	78649
590.930	78854
590.965	79850
591.001	80248
591.018	80504
591.071	80949
591.072	80768
591.124	78373
591.143	77429
591.177	78858
591.214	80019
591.230	80460
591.283	81116
591.285	80958
591.336	80847
591.356	80594
591.389	80849
591.427	80655
591.442	80560
591.495	79571
591.498	79314
591.547	80079
591.569	80256
591.600	81721
591.640	83070
591.653	83579
591.706	84969
591.711	84932
591.759	86824
591.782	87494
591.811	90120
591.853	93281
591.864	93390
591.917	92915
591.924	92602
591.969	92376
591.995	91975
592.022	92800
592.066	93658
592.075	94363
592.127	97224
592.137	97543
592.180	100406
592.208	101846
592.233	102369
592.279	102731
592.285	103322
592.338	106209
592.350	106600
592.390	106716
592.421	106366
592.443	107224
592.491	108284
592.495	108791
592.548	112091
592.562	112711
592.600	111954
592.633	110806
592.653	111412
592.704	111646
592.705	112325
592.775	114192
592.846	117017
592.916	120423
592.987	119201
593.058	119921
593.128	122847
593.199	123191
593.270	124694
593.341	126351
593.411	132222
593.482	136206
593.553	140120
593.623	142515
593.694	145180
593.764	148723
593.835	146941
593.906	147479
593.976	150304
594.047	154390
594.117	162032
594.188	165024
594.258	165916
594.329	164426
594.399	169215
594.470	174773
594.540	181256
594.611	185843
594.681	184359
594.751	184133
594.822	191792
594.892	198717
594.963	205236
595.033	209763
595.103	217632
595.174	218566
595.244	225127
595.314	230932
595.384	236771
595.455	241202
595.525	251648
595.595	260860
595.665	265072
595.736	254661
595.806	258267
595.876	264927
595.946	264478
596.016	274658
596.087	286735
596.157	286387
596.227	287337
596.297	301394
596.367	319090
596.437	341741
596.507	342842
596.577	339306
596.647	350758
596.717	364107
596.787	377541
596.857	375359
596.927	377508
596.997	377134
597.067	380761
597.137	389056
597.207	391371
597.277	397738
597.347	382356
597.417	368864
597.487	364458
597.557	372774
597.626	384309
597.696	391436
597.766	386696
597.836	366940
597.906	345888
597.975	337227
598.045	341859
598.115	356641
598.185	379786
598.254	421752
598.324	466640
598.394	479066
598.464	462230
598.533	455432
598.603	431851
598.672	410985
598.742	419646
598.812	419698
598.881	432825
598.951	430734
599.020	436933
599.090	447777
599.159	461792
599.229	442437
599.299	427579
599.368	443758
599.437	441449
599.507	407182
599.576	386704
599.646	382840
599.715	375332
599.785	374134
599.854	363008
599.924	356825
599.993	352697
600.062	359781
600.132	370450
600.201	387250
600.270	446173
600.340	484682
600.409	474797
600.478	469797
600.547	474688
600.617	452855
600.686	351315
600.755	313935
600.824	291397
600.894	283925
600.963	283963
601.032	282858
601.101	270965
601.170	257982
601.239	249479
601.308	245751
601.378	247791
601.447	247942
601.516	251456
601.585	252404
601.654	256094
601.723	256876
601.792	262331
601.861	271429
601.930	282874
601.999	286633
602.068	283217
602.137	287515
602.206	291259
602.275	299904
602.343	300629
602.412	302263
602.481	306015
602.550	308340
602.619	318115
602.688	321556
602.756	325346
602.825	328813
602.894	336480
602.963	345038
603.032	349252
603.100	349778
603.169	349857
603.238	353797
603.307	356724
603.375	358420
603.444	363427
603.513	374391
603.581	378057
603.650	386696
603.719	379987
603.787	388454
603.856	400381
603.924	410021
603.993	424372
604.061	439456
604.130	460607
604.198	470108
604.267	479679
604.335	489201
604.404	493855
604.472	503799
604.541	511360
604.609	513207
604.678	516142
604.746	519092
604.815	533099
604.883	543026
604.951	541189
605.020	551018
605.088	565248
605.156	573910
605.225	584271
605.293	585480
605.361	584686
605.429	592063
605.498	602235
605.566	618192
605.634	644255
605.702	669647
605.771	690940
605.839	695199
605.907	682474
605.975	659899
606.043	645314
606.111	644761
606.180	641206
606.248	638585
606.316	627771
606.384	624447
606.452	628502
606.520	643268
606.588	665359
606.656	677208
606.724	670612
606.792	631575
606.860	578169
606.928	521435
606.996	499102
607.064	483747
607.132	494005
607.200	521323
607.267	551389
607.335	554093
607.403	569434
607.471	558944
607.539	529790
607.607	543458
607.674	481506
607.742	468192
607.810	468089
607.878	468234
607.946	479674
608.013	499836
608.081	510795
608.149	515685
608.216	528935
608.284	549799
608.352	549132
608.419	553032
608.487	535664
608.555	524399
608.622	541857
608.690	567410
608.757	624667
608.825	651667
608.893	633490
608.960	601622
609.028	567706
609.095	566519
609.163	568121
609.230	523357
609.298	461230
609.365	485669
609.432	523605
609.500	560738
609.567	639282
609.635	730554
609.702	779278
609.769	758923
609.837	620982
609.904	507182
609.971	519130
610.039	560834
610.106	652838
610.173	982053
610.241	1896845
610.308	1659111
610.375	697329
610.442	565330
610.509	529294
610.577	523464
610.644	528884
610.711	543308
610.778	558804
610.845	582285
610.912	616379
610.980	641407
611.047	645164
611.114	639938
611.181	617421
611.248	609444
611.315	639099
611.382	662067
611.449	680246
611.516	696195
611.583	686967
611.650	689890
611.717	694132
611.784	709730
611.851	738549
611.918	769940
611.984	853304
612.051	1034564
612.118	1502769
612.185	2599648
612.252	2532216
612.319	1196166
612.386	925250
612.452	843150
612.519	792884
612.586	765986
612.653	775817
612.719	802387
612.786	783948
612.853	731151
612.919	701095
612.986	716845
613.053	680669
613.120	644779
613.186	612752
613.253	615460
613.319	616566
613.386	620609
613.453	631097
613.519	633500
613.586	619932
613.652	627810
613.719	619908
613.785	627298
613.852	641402
613.918	638242
613.985	634941
614.051	665149
614.118	666984
614.184	648604
614.250	629329
614.317	651377
614.383	639271
614.449	651312
614.516	645021
614.582	647585
614.648	643128
614.715	632810
614.781	620776
614.847	615542
614.914	616256
614.980	600359
615.046	597158
615.112	614352
615.179	620407
615.245	625429
615.311	620349
615.377	625879
615.443	638852
615.509	635738
615.575	659573
615.642	660820
615.708	665123
615.774	695476
615.840	737290
615.906	773040
615.972	862703
616.038	1096059
616.104	1723343
616.170	2749110
616.236	2930108
616.302	1597925
616.368	1160285
616.434	916128
616.500	796627
616.565	825109
616.631	1012229
616.697	937644
616.763	880062
616.829	1104353
616.895	1795728
616.961	2014184
617.026	1129735
617.092	743029
617.158	670258
617.224	654766
617.289	604307
617.355	571528
617.421	559458
617.487	561358
617.552	530450
617.618	524986
617.684	528074
617.749	528965
617.815	509220
617.880	496567
617.946	492841
618.012	499079
618.077	513702
618.143	496152
618.208	487910
618.274	524535
618.339	541011
618.405	457801
618.470	432897
618.536	440866
618.601	430069
618.667	408724
618.732	378395
618.798	371313
618.863	370131
618.928	365236
618.994	371007
619.059	367729
619.124	373493
619.190	368828
619.255	367017
619.320	364418
619.386	365579
619.451	365966
619.516	354684
619.581	354412
619.647	366926
619.712	374210
619.777	350290
619.842	347824
619.907	356669
619.972	363896
620.038	367359
620.103	354634
620.168	354458
620.233	358141
620.298	359796
620.363	363702
620.428	375369
620.493	384557
620.558	390388
620.623	394292
620.688	397503
620.753	390712
620.818	397124
620.883	399292
620.948	399659
621.013	393520
621.078	388517
621.143	391143
621.207	396529
621.272	387981
621.337	376752
621.402	368575
621.467	368388
621.532	361438
621.596	368995
621.661	360075
621.726	352409
621.791	355763
621.855	360049
621.920	352140
621.985	357671
622.049	368560
622.114	367877
622.179	373867
622.243	379553
622.308	393530
622.373	409252
622.437	404095
622.502	380262
622.566	374353
622.631	374968
622.695	380185
622.760	379618
622.824	377379
622.889	380850
622.953	381421
623.018	396957
623.082	411980
623.147	402970
623.211	395859
623.276	390199
623.340	384788
623.404	367397
623.469	366746
623.533	368774
623.597	367097
623.662	359764
623.726	342230
623.790	313380
623.854	301033
623.919	306307
623.983	309706
624.047	318716
624.111	321384
624.176	329128
624.240	328122
624.304	341226
624.368	331468
624.432	327999
624.496	333863
624.560	351226
624.625	363297
624.689	353700
624.753	371973
624.817	363245
624.881	349634
624.945	322013
625.009	300525
625.073	307435
625.137	317099
625.201	329842
625.265	338486
625.329	322238
625.393	322201
625.456	327956
625.520	338314
625.584	344473
625.648	351695
625.712	361345
625.776	362119
625.839	348558
625.903	297960
625.967	267523
626.031	277333
626.095	327974
626.158	337382
626.222	257659
626.286	230253
626.349	221131
626.413	207391
626.477	200760
626.540	207821
626.604	207538
626.668	200616
626.731	200002
626.795	199932
626.858	200571
626.922	198627
626.986	195903
627.049	196660
627.113	206074
627.176	201219
627.240	193084
627.303	194228
627.366	193525
627.430	195746
627.493	195861
627.557	190224
627.620	192679
627.684	202138
627.747	206882
627.810	193493
627.874	170764
627.937	161321
628.000	165252
628.064	164723
628.127	148994
628.190	143513
628.253	137420
628.317	134664
628.380	127312
628.443	124430
628.506	122882
628.569	120583
628.632	111691
628.696	111819
628.759	111483
628.822	106949
628.885	106250
628.948	102960
629.011	101610
629.074	98880
629.137	96287
629.200	94145
629.263	92483
629.326	90984
629.389	92414
629.452	91634
629.515	89736
629.578	88406
629.641	88224
629.704	91089
629.767	90636
629.830	86817
629.892	84507
629.955	84944
630.018	86336
630.081	85358
630.144	86357
630.207	84205
630.269	84642
630.332	81710
630.395	80752
630.458	80683
630.520	77584
630.583	77684
630.646	79134
630.708	80566
630.771	82064
630.834	86306
630.896	85975
630.959	84843
631.021	83161
631.084	82504
631.146	83441
631.209	83408
631.272	83575
631.334	85351
631.397	87382
631.459	87250
631.522	91506
631.584	94784
631.646	97427
631.709	101664
631.771	103454
631.834	99336
631.896	96331
631.958	89475
632.021	87576
632.083	84279
632.145	82213
632.208	80445
632.270	80344
632.332	79726
632.395	79108
632.457	80200
632.519	77109
632.581	78266
632.643	78034
632.706	79157
632.768	76391
632.830	77420
632.892	80076
632.954	80843
633.016	82884
633.078	80935
633.141	80637
633.203	79206
633.265	78764
633.327	78122
633.389	79817
633.451	80081
633.513	79503
633.575	82304
633.637	82488
633.698	84192
633.760	86786
633.822	90453
633.884	92580
633.946	94283
634.008	96871
634.070	98677
634.132	102688
634.193	112077
634.255	119616
634.317	124209
634.379	121855
634.441	113302
634.502	101603
634.564	93661
634.626	87132
634.687	81974
634.749	79848
634.811	79242
634.873	77632
634.934	77384
634.996	77312
635.057	76748
635.119	78739
635.181	80292
635.242	81475
635.304	78526
635.365	82589
635.427	79692
635.488	80098
635.550	79203
635.611	79904
635.673	80062
635.734	85751
635.796	89699
635.857	97169
635.918	102699
635.980	110899
636.041	120492
636.102	127042
636.164	131193
636.225	126193
636.286	111619
636.348	98785
636.409	89245
636.470	84082
636.531	80985
636.593	77640
636.654	73900
636.715	71198
636.776	71638
636.838	70025
636.899	68497
636.960	66547
637.021	65757
637.082	64333
637.143	62858
637.204	62734
637.265	61343
637.326	62497
637.387	64674
637.448	64786
637.509	64103
637.570	63938
637.631	62148
637.692	61511
637.753	58039
637.814	59144
637.875	57803
637.936	57686
637.997	59031
638.058	57640
638.119	57963
638.179	58160
638.240	57454
638.301	57940
638.362	57243
638.423	54579
638.483	55012
638.544	53750
638.605	53919
638.666	53770
638.726	53227
638.787	51832
638.848	52281
638.908	53907
638.969	50913
639.030	48787
639.090	50516
639.151	50563
639.211	51335
639.272	51806
639.332	52962
639.393	54104
639.453	56126
639.514	59512
639.574	53805
639.635	49014
639.695	47822
639.756	47688
639.816	46465
639.877	46482
639.937	47085
639.997	46883
640.058	47444
640.118	46578
640.178	46992
640.239	46921
640.299	47234
640.359	48179
640.420	49994
640.480	54961
640.540	62025
640.600	67379
640.661	60872
640.721	54634
640.781	55851
640.841	49483
640.901	47882
640.961	47625
641.021	49567
641.082	52834
641.142	51644
641.202	46923
641.262	43714
641.322	45691
641.382	43489
641.442	44292
641.502	43008
641.562	43514
641.622	44987
641.682	48260
641.742	55508
641.802	54450
641.861	47611
641.921	44228
641.981	41844
642.041	40186
642.101	40355
642.161	40700
642.221	40237
642.280	40411
642.340	40169
642.400	41677
642.460	42394
642.519	41853
642.579	42307
642.639	43166
642.698	41787
642.758	45959
642.818	44066
642.877	42894
642.937	43886
642.997	43289
643.056	43351
643.116	43654
643.175	45334
643.235	46225
643.294	48405
643.354	50628
643.414	54718
643.473	63735
643.532	76930
643.592	99227
643.651	140692
643.711	214895
643.770	369284
643.830	738077
643.889	1611377
643.948	888019
644.008	195495
644.067	101517
644.126	74547
644.186	62472
644.245	53208
644.304	48510
644.363	48780
644.423	45587
644.482	46918
644.541	48723
644.600	53014
644.659	64121
644.719	77658
644.778	106673
644.837	163019
644.896	294640
644.955	716224
645.014	460714
645.073	94966
645.132	61870
645.191	54617
645.250	52204
645.309	53599
645.368	58017
645.427	72077
645.486	108428
645.545	228342
645.604	112424
645.663	49983
645.722	47582
645.781	52577
645.840	56700
645.898	69176
645.957	89708
646.016	129042
646.075	203116
646.134	352329
646.192	750753
646.251	1429940
646.310	517906
646.369	130785
646.427	87839
646.486	72534
646.545	54289
646.603	47342
646.662	44559
646.721	42810
646.779	43410
646.838	46438
646.896	55622
646.955	71012
647.014	102601
647.072	177338
647.131	460292
647.189	431009
647.248	73848
647.306	42967
647.365	38511
647.423	32926
647.481	35410
647.540	31425
647.598	32944
647.657	32043
647.715	32060
647.773	30927
647.832	31455
647.890	27698
647.948	28502
648.007	28136
648.065	25573
648.123	25592
648.181	27907
648.240	25305
648.298	27052
648.356	26065
648.414	26163
648.472	25837
648.531	24749
648.589	24974
648.647	25071
648.705	25593
648.763	25682
648.821	27855
648.879	28319
648.937	32412
648.995	39162
649.053	48904
649.111	68913
649.169	102513
649.227	167592
649.285	305014
649.343	813884
649.401	761723
649.459	130200
649.516	57797
649.574	43505
649.632	45121
649.690	51513
649.748	57956
649.806	77893
649.863	130624
649.921	319627
649.979	402131
650.037	71085
650.094	31361
650.152	26583
650.210	23117
650.268	23882
650.325	21572
650.383	20146
650.440	18276
650.498	19399
650.556	18824
650.613	18958
650.671	19028
650.728	20741
650.786	20532
650.843	27089
650.901	27554
650.958	17583
651.016	17020
651.073	16787
651.131	15668
651.188	15922
651.246	15839
651.303	14630
651.360	16093
651.418	15835
651.475	15551
651.532	15578
651.590	16778
651.647	14576
651.704	15179
651.762	14884
651.819	13883
651.876	13351
651.933	14044
651.990	14454
652.048	13731
652.105	13640
652.162	14240
652.219	14074
652.276	13724
652.333	14514
652.390	12226
652.448	13281
652.505	13699
652.562	13287
652.619	13010
652.676	13977
652.733	14726
652.790	13710
652.847	12158
652.904	13064
652.961	11760
653.017	11441
653.074	13606
653.131	12291
653.188	11929
653.245	12168
653.302	11929
653.359	12169
653.415	13029
653.472	11660
653.529	12373
653.586	11589
653.642	12037
653.699	12974
653.756	12184
653.813	12218
653.869	12796
653.926	12949
653.983	12180
654.039	12035
654.096	12410
654.152	12807
654.209	11025
654.266	12214
654.322	10175
654.379	11706
654.435	11819
654.492	11305
654.548	11699
654.605	10673
654.661	12318
654.717	11582
654.774	11563
654.830	11688
654.887	11854
654.943	11362
655.000	12638
655.056	12014
655.112	11499
655.168	11034
655.225	12557
655.281	12708
655.337	11294
655.394	11800
655.450	11399
655.506	10727
655.562	10913
655.618	11728
655.675	10736
655.731	11505
655.787	10470
655.843	11461
655.899	10354
655.955	12832
656.011	12079
656.067	11446
656.123	12011
656.179	11826
656.235	12876
656.291	11369
656.347	12904
656.403	12039
656.459	11672
656.515	11808
656.571	10863
656.627	11284
656.683	10286
656.739	11434
656.795	10674
656.850	10348
656.906	10898
656.962	12689
657.018	12539
657.074	15486
657.129	19588
657.185	28979
657.241	61009
657.297	64203
657.352	16418
657.408	9836
657.464	11361
657.519	9911
657.575	9441
657.630	9198
657.686	9354
657.742	9613
657.797	8831
657.853	9729
657.908	10809
657.964	8888
658.019	9151
658.075	9991
658.130	9667
658.186	8374
658.241	8678
658.297	8971
658.352	8780
658.407	9307
658.463	8524
658.518	9074
658.573	9152
658.629	8330
658.684	8963
658.739	8984
658.795	7534
658.850	8946
658.905	8566
658.960	10095
659.016	7726
659.071	8090
659.126	8587
659.181	7410
659.236	8119
659.291	8885
659.346	7444
659.401	8380
659.457	9176
659.512	9031
659.567	9745
659.622	8076
659.677	7598
659.732	7707
659.787	7816
659.842	7819
659.897	7300
659.952	9059
660.007	8319
660.061	7444
660.116	6435
660.171	7354
660.226	7409
660.281	9013
660.336	7625
660.391	7999
660.445	6972
660.500	8247
660.555	7167
660.610	7346
660.664	8426
660.719	7260
660.774	7024
660.828	8055
660.883	7536
660.938	8387
660.992	7703
661.047	8136
661.101	7786
661.156	7414
661.211	6453
661.265	7137
661.320	6959
661.374	7266
661.429	6998
661.483	7401
661.538	6520
661.592	6485
661.647	7564
661.701	8303
661.755	6721
661.810	7601
661.864	7108
661.919	7338
661.973	7757
662.027	7264
662.081	7075
662.136	7460
662.190	7423
662.244	7555
662.299	6828
662.353	8346
662.407	7324
662.461	6604
662.515	7718
662.569	6572
662.624	6782
662.678	6871
662.732	7329
662.786	7172
662.840	7214
662.894	8394
662.948	6999
663.002	6900
663.056	7520
663.110	6588
663.164	7323
663.218	7565
663.272	7486
663.326	7028
663.380	7016
663.434	7605
663.488	7705
663.542	7616
663.595	8008
663.649	6911
663.703	7913
663.757	7669
663.811	6599
663.864	7252
663.918	7250
663.972	6667
664.026	7656
664.079	6602
664.133	7448
664.187	8177
664.240	7921
664.294	7704
664.348	7342
664.401	6662
664.455	7535
664.508	7030
664.562	7494
664.615	7394
664.669	7212
664.722	7357
664.776	7198
664.829	7531
664.883	7192
664.936	6866
664.990	7223
665.043	7754
665.097	7166
665.150	7739
665.203	6887
665.257	7355
665.310	8202
665.363	7570
665.417	7324
665.470	9019
665.523	8322
665.576	8296
665.630	7926
665.683	7967
665.736	8607
665.789	8638
665.842	7619
665.895	7536
665.949	8095
666.002	7934
666.055	7926
666.108	7753
666.161	8745
666.214	8597
666.267	8909
666.320	7663
666.373	9350
666.426	8626
666.479	8056
666.532	9196
666.585	8366
666.638	9818
666.691	8181
666.744	8791
666.796	7836
666.849	8342
666.902	9014
666.955	8129
667.008	7547
667.060	7266
667.113	8994
667.166	9290
667.219	9437
667.271	9903
667.324	9738
667.377	9492
667.430	9209
667.482	8305
667.535	8146
667.587	8746
667.640	8994
667.693	7709
667.745	8677
667.798	8787
667.850	8288
667.903	8558
667.955	7829
668.008	8374
668.060	9450
668.113	7564
668.165	8534
668.218	8437
668.270	8460
668.322	8378
668.375	8370
668.427	8846
668.479	8291
668.532	8662
668.584	7961
668.636	7260
668.689	8589
668.741	7156
668.793	7788
668.845	8414
668.898	8628
668.950	7564
669.002	8688
669.054	7992
669.106	7539
669.158	9649
669.211	7737
669.263	7556
669.315	8615
669.367	8318
669.419	7709
669.471	9091
669.523	6852
669.575	7911
669.627	7992
669.679	7571
669.731	8322
669.783	8340
669.835	8100
669.886	7884
669.938	7141
669.990	7724
670.042	7763
670.094	7991
670.146	7231
670.197	8493
670.249	7634
670.301	7724
670.353	9206
670.404	9124
670.456	8895
670.508	11046
670.560	14320
670.611	19855
670.663	28133
670.715	48189
670.766	101858
670.818	55618
670.869	13614
670.921	10051
670.972	10608
671.024	9315
671.075	9304
671.127	8961
671.178	9510
671.230	11129
671.281	11384
671.333	13725
671.384	15942
671.436	20534
671.487	29128
671.538	40591
671.590	57776
671.641	89833
671.692	144541
671.744	286863
671.795	316954
671.846	139990
671.897	57592
671.949	33938
672.000	24498
672.051	17580
672.102	15369
672.153	12310
672.204	11184
672.256	10938
672.307	9614
672.358	8812
672.409	8368
672.460	8656
672.511	7460
672.562	7053
672.613	6858
672.664	7110
672.715	7223
672.766	7378
672.817	6201
672.868	6984
672.919	5668
672.970	5934
673.021	6482
673.071	5875
673.122	6547
673.173	6081
673.224	6234
673.275	6271
673.326	5657
673.376	5918
673.427	4699
673.478	5939
673.528	6421
673.579	6427
673.630	6445
673.680	6662
673.731	5299
673.782	5827
673.832	6717
673.883	5707
673.934	5854
673.984	6692
674.035	6055
674.085	6204
674.136	5953
674.186	5362
674.237	6922
674.287	6606
674.338	6914
674.388	6713
674.438	6919
674.489	8209
674.539	7721
674.589	7403
674.640	7438
674.690	7235
674.740	7077
674.791	6302
674.841	6959
674.891	6499
674.942	5504
674.992	5011
675.042	5368
675.092	5296
675.142	4621
675.193	4577
675.243	5492
675.293	5714
675.343	5193
675.393	6136
675.443	5589
675.493	5556
675.543	5264
675.593	6122
675.643	5297
675.693	5625
675.743	5734
675.793	5543
675.843	4201
675.893	4737
675.943	5189
675.993	4821
676.043	4775
676.093	4681
676.142	5132
676.192	5109
676.242	4837
676.292	4582
676.341	4687
676.391	4662
676.441	4149
676.491	5217
676.540	3646
676.590	4900
676.640	3751
676.689	4662
676.739	3490
676.789	3728
676.838	3717
676.888	4165
676.937	4047
676.987	3900
677.037	4703
677.086	3947
677.136	3721
677.185	3831
677.235	3730
677.284	3827
677.333	3423
677.383	4779
677.432	3057
677.482	3774
677.531	4510
677.580	3783
677.630	3579
677.679	3690
677.728	3301
677.778	3999
677.827	3155
677.876	4788
677.925	3784
677.975	4616
678.024	4542
678.073	5232
678.122	3965
678.171	4303
678.220	5168
678.269	6645
678.319	5950
678.368	7067
678.417	7057
678.466	5822
678.515	4915
678.564	3924
678.613	3084
678.662	3447
678.711	2928
678.760	3809
678.809	3649
678.857	3641
678.906	4300
678.955	4120
679.004	3540
679.053	3550
679.102	3691
679.151	2865
679.199	3390
679.248	3708
679.297	3905
679.346	3075
679.394	3070
679.443	3036
679.492	3997
679.540	3073
679.589	3443
679.638	3466
679.686	4103
679.735	4389
679.784	4947
679.832	7060
679.881	5293
679.929	4384
679.978	2832
680.026	3628
680.075	3368
680.123	3547
680.172	3078
680.220	3106
680.268	3383
680.317	2834
680.365	1777
680.414	2292
680.462	3377
680.510	3598
680.559	3821
680.607	3212
680.655	3572
680.703	3704
680.752	3441
680.800	3427
680.848	3190
680.896	2650
680.945	2773
680.993	3006
681.041	2709
681.089	2498
681.137	2755
681.185	2356
681.233	3029
681.258	2972
681.281	2905
681.329	2586
681.377	2701
681.380	2734
681.425	3058
681.473	2900
681.502	3182
681.521	3351
681.569	3222
681.617	3721
681.624	3739
681.665	3732
681.713	2944
681.745	3187
681.761	3277
681.809	2626
681.857	3261
681.867	3306
681.904	3428
681.952	4503
681.989	4194
682.000	4073
682.048	3286
682.096	3024
682.111	3351
682.143	4014
682.191	3258
682.233	4111
682.239	4226
682.286	3580
682.334	3598
682.354	3497
682.382	3316
682.430	4458
682.476	3779
682.477	3751
682.525	3880
682.572	3521
682.598	3648
682.620	3708
682.667	3592
682.715	3539
682.720	3580
682.763	3842
682.810	3683
682.841	4079
682.857	4284
682.905	3648
682.952	3558
682.963	3703
683.000	4117
683.047	4240
683.085	4536
683.095	4607
683.142	3517
683.190	4162
683.206	3790
683.237	3059
683.284	3578
683.328	4207
683.332	4251
683.379	3688
683.426	3494
683.449	3711
683.473	3925
683.521	3963
683.568	4228
683.571	4205
683.615	3678
683.662	4268
683.693	4282
683.709	4269
683.757	4030
683.804	3904
683.814	3914
683.851	3965
683.898	4073
683.936	4017
683.945	3972
683.992	3759
684.039	4327
684.057	4361
684.086	4436
684.133	4755
684.179	3641
684.180	3593
684.227	4127
684.274	4125
684.300	3924
684.321	3786
684.368	4017
684.415	4049
684.422	4132
684.462	4549
684.509	4258
684.543	4153
684.556	4121
684.603	4142
684.649	4562
684.665	4708
684.696	4934
684.743	4429
684.786	4935
684.790	4969
684.837	4568
684.883	4111
684.908	4107
684.930	4079
684.977	4662
685.023	4937
685.029	4971
685.070	5185
685.117	4812
685.150	4555
685.164	4462
685.210	4510
685.257	5038
685.272	5107
685.303	5172
685.350	4995
685.393	4814
685.396	4790
685.443	4846
685.490	4099
685.514	4441
685.536	4778
685.583	4781
685.629	4429
685.636	4417
685.675	4318
685.722	4884
685.757	4901
685.768	4885
685.815	4933
685.861	4555
685.878	4796
685.908	5233
685.954	4813
686.000	4608
686.000	4603
686.047	4877
686.093	5638
686.121	5651
686.139	5639
686.185	5351
686.232	5864
686.242	5853
686.278	5739
686.324	4979
686.363	5829
686.370	5980
686.416	5171
686.463	5920
686.484	5689
686.509	5438
686.555	4938
686.601	5553
686.606	5531
686.647	5186
686.693	4816
686.727	5074
686.739	5231
686.785	5345
686.831	5295
686.848	5381
686.877	5431
686.923	5143
686.969	5888
686.969	5893
687.015	5736
687.061	6728
687.090	6542
687.107	6377
687.153	6853
687.199	6127
687.211	6094
687.245	5893
687.291	5779
687.332	5289
687.336	5264
687.382	5931
687.428	6073
687.453	5933
687.474	5782
687.520	6597
687.565	6265
687.574	6312
687.611	6467
687.657	6194
687.695	6691
687.702	6807
687.748	6149
687.794	7096
687.816	6989
687.839	6836
687.885	6799
687.931	6539
687.937	6554
687.976	6519
688.022	6496
688.058	6570
688.067	6616
688.113	6425
688.158	6722
688.179	6569
688.204	6405
688.249	6106
688.295	6306
688.300	6366
688.340	6804
688.386	6806
688.421	6680
688.431	6618
688.477	6686
688.522	6702
688.542	6545
688.567	6594
688.613	6628
688.658	7576
688.663	7609
688.703	7750
688.749	7662
688.784	7177
688.794	7004
688.839	7279
688.884	7456
688.905	7404
688.930	7409
688.975	7669
689.020	6959
689.026	7004
689.065	7106
689.110	6656
689.146	6413
689.155	6467
689.201	7069
689.246	7099
689.267	7213
689.291	7202
689.336	7296
689.381	7579
689.388	7515
689.426	7326
689.471	7725
689.509	7292
689.516	7186
689.561	7366
689.606	7628
689.630	7356
689.651	7101
689.696	6910
689.741	7194
689.750	7097
689.785	7176
689.830	7559
689.871	7950
689.875	7961
689.920	7892
689.965	7651
689.992	7539
690.010	7436
690.054	7326
690.099	7075
690.112	7077
690.144	7258
690.189	7096
690.233	7200
690.233	7210
690.278	7283
690.323	7655
690.354	7626
690.367	7621
690.412	8185
690.457	8217
690.474	8032
690.501	7520
690.546	7598
690.590	7247
690.595	7174
690.635	6921
690.680	6555
690.716	6958
690.724	7114
690.769	7536
690.813	8083
690.836	7962
690.857	8091
690.902	9072
690.946	10235
690.957	10481
690.991	12372
691.035	14801
691.077	18101
691.080	18222
691.124	18369
691.168	17730
691.198	17536
691.213	16311
691.257	13656
691.301	10372
691.318	9212
691.346	9085
691.390	8720
691.434	8566
691.439	8549
691.478	8505
691.522	8147
691.559	7816
691.567	7865
691.611	8493
691.655	8546
691.680	8707
691.699	8645
691.743	8586
691.787	8320
691.800	8197
691.831	8045
691.875	8490
691.919	8177
691.921	8160
691.964	7882
692.008	7773
692.041	7625
692.052	7733
692.096	8098
692.139	8369
692.162	8637
692.183	8541
692.227	8369
692.271	7670
692.282	7589
692.315	7701
692.359	7503
692.402	7910
692.403	7926
692.447	7733
692.490	7826
692.523	7439
692.534	7371
692.578	7554
692.622	7932
692.643	8174
692.666	8286
692.709	7907
692.753	7838
692.763	7778
692.797	7817
692.840	7901
692.884	7973
692.884	7991
692.928	8618
692.971	8535
693.004	8785
693.015	8790
693.059	8569
693.102	8947
693.124	8682
693.146	8457
693.189	8361
693.233	8129
693.245	8095
693.276	8303
693.320	8644
693.363	8771
693.365	8768
693.407	9122
693.450	9515
693.485	9355
693.493	9440
693.537	10281
693.580	10986
693.605	11472
693.624	11959
693.667	13076
693.710	14154
693.725	14585
693.753	18251
693.797	24052
693.840	30550
693.845	31150
693.883	31685
693.926	31064
693.966	31147
693.970	30540
694.013	23498
694.056	17210
694.086	12512
694.099	12124
694.142	11343
694.185	10338
694.206	9832
694.229	9902
694.272	9900
694.315	10007
694.326	10013
694.358	9820
694.401	9442
694.444	9163
694.446	9133
694.487	9400
694.530	9527
694.566	9588
694.573	9560
694.616	9303
694.659	9324
694.686	9017
694.702	8989
694.745	9135
694.787	9188
694.806	9203
694.830	9213
694.873	9191
694.916	9146
694.926	9116
694.959	9119
695.002	9172
695.044	9174
695.046	9164
695.087	10035
695.130	10534
695.166	11102
695.172	11088
695.215	10538
695.258	10482
695.286	10205
695.301	10308
695.343	10713
695.386	10957
695.406	11083
695.428	11491
695.471	12134
695.514	13024
695.526	13271
695.556	14557
695.599	16300
695.641	17878
695.646	17989
695.684	17270
695.726	16600
695.766	16012
695.769	15975
695.811	14959
695.854	13738
695.886	12996
695.896	13083
695.938	13060
695.981	13328
696.005	13290
696.023	13617
696.065	14613
696.108	15512
696.125	15785
696.150	16272
696.192	17286
696.235	18148
696.245	18299
696.277	18260
696.319	18277
696.361	18361
696.365	18316
696.404	18051
696.446	17814
696.485	17584
696.488	17627
696.530	17483
696.572	17593
696.604	17583
696.614	17556
696.656	17171
696.698	17000
696.724	16727
696.740	16710
696.783	16610
696.825	16736
696.844	16673
696.867	17081
696.909	17676
696.951	18387
696.964	18595
696.992	18382
697.034	17851
697.076	17292
697.083	17171
697.118	17925
697.160	19003
697.202	19779
697.203	19758
697.244	19519
697.286	19234
697.323	18884
697.327	18939
697.369	19203
697.411	19296
697.442	19353
697.453	19418
697.494	19514
697.536	19641
697.562	19659
697.578	19620
697.620	19381
697.661	19104
697.682	18976
697.703	19576
697.744	20586
697.786	21753
697.801	22066
697.828	21899
697.869	21569
697.911	21261
697.921	21146
697.952	21092
697.994	20984
698.035	20747
698.040	20679
698.077	20677
698.118	20637
698.160	20601
698.160	20554
698.201	21244
698.243	21865
698.279	22465
698.284	22595
698.325	23236
698.367	23952
698.399	24403
698.408	24514
698.449	24802
698.491	25110
698.518	25225
698.532	25152
698.573	24775
698.614	24390
698.638	24107
698.656	24354
698.697	24822
698.738	25282
698.757	25434
698.779	25400
698.820	25233
698.862	25064
698.877	24941
698.903	24887
698.944	24713
698.985	24537
698.996	24433
699.026	24662
699.067	24901
699.116	25130
699.235	24107
699.354	25194
699.474	23226
699.593	22068
699.713	22806
699.832	22889
699.951	24052
700.070	23846
700.190	21837
700.309	21958
700.428	19912
700.547	21335
700.667	19519
700.786	20831
700.905	19756
701.024	20063
701.143	20137
701.262	19656
701.381	22449
701.500	22496
701.619	21548
701.738	21217
701.857	21390
701.976	19922
702.095	18839
702.214	21255
702.333	20371
702.452	22127
702.571	20407
702.690	21864
702.809	21439
702.928	19946
703.047	18315
703.165	19182
703.284	19474
703.403	18465
703.522	19268
703.640	17728
703.759	18843
703.878	17864
703.997	18367
704.115	18263
704.234	17893
704.353	19212
704.471	16913
704.590	17326
704.708	17457
704.827	16157
704.946	15166
705.064	15890
705.183	16121
705.301	15929
705.420	16423
705.538	15437
705.656	15410
705.775	14583
705.893	16127
706.012	19370
706.130	15715
706.249	16080
706.367	15109
706.485	14362
706.604	14074
706.722	14748
706.840	14802
706.958	15871
707.077	14187
707.195	13621
707.313	14490
707.431	12768
707.549	13463
707.668	12521
707.786	14151
707.904	13653
708.022	13578
708.140	13482
708.258	12340
708.376	14540
708.494	12705
708.612	14252
708.730	14423
708.848	13601
708.966	13982
709.084	14177
709.202	14411
709.320	13673
709.438	12067
709.556	13541
709.674	10604
709.791	11157
709.909	10778
710.027	11303
710.145	11379
710.263	10903
710.380	11500
710.498	11572
710.616	11198
710.733	10835
710.851	10936
710.969	11604
711.086	10430
711.204	10952
711.322	10818
711.439	11416
711.557	10033
711.674	10594
711.792	10147
711.909	9745
712.027	9997
712.144	9656
712.262	9232
712.379	10072
712.497	10388
712.614	10483
712.732	10507
712.849	10123
712.966	9802
713.084	11021
713.201	9370
713.318	9947
713.436	11465
713.553	12140
713.670	12428
713.787	13242
713.905	11709
714.022	12832
714.139	13038
714.256	17152
714.373	25122
714.490	51072
714.608	126396
714.725	538227
714.842	933208
714.959	113047
715.076	27587
715.193	19493
715.310	16700
715.427	11455
715.544	12012
715.661	11550
715.778	10004
715.895	10107
716.011	9981
716.128	10426
716.245	9958
716.362	9745
716.479	8088
716.596	8868
716.713	8793
716.829	8457
716.946	7607
717.063	7944
717.180	7739
717.296	7585
717.413	8147
717.530	7889
717.646	6613
717.763	8073
717.880	7426
717.996	6052
718.113	6378
718.229	7338
718.346	6316
718.462	7083
718.579	7524
718.695	7994
718.812	6672
718.928	7182
719.045	7407
719.161	7292
719.277	7421
719.394	8351
719.510	7706
719.626	9467
719.743	12297
719.859	23136
719.975	48402
720.092	184972
720.208	608281
720.324	145942
720.440	16444
720.557	11505
720.673	9574
720.789	9288
720.905	8797
721.021	8515
721.137	6703
721.253	6226
721.369	6290
721.486	7180
721.602	6914
721.718	5810
721.834	6200
721.950	5814
722.066	5089
722.181	5912
722.297	5169
722.413	5652
722.529	6104
722.645	6217
722.761	5302
722.877	6354
722.993	6519
723.108	10382
723.224	8987
723.340	6294
723.456	6123
723.571	5791
723.687	4640
723.803	5101
723.918	5320
724.034	5373
724.150	5059
724.265	5218
724.381	5425
724.497	5984
724.612	5028
724.728	5480
724.843	4868
724.959	5473
725.074	4839
725.190	5714
725.305	4919
725.421	5348
725.536	5605
725.651	6066
725.767	4702
725.882	5447
725.997	4328
726.113	5808
726.228	3345
726.343	4564
726.459	4884
726.574	4557
726.689	4101
726.804	4948
726.920	4803
727.035	4359
727.150	4387
727.265	4185
727.380	4333
727.495	5371
727.610	4098
727.725	4856
727.841	4679
727.956	6305
728.071	5516
728.186	4307
728.301	3793
728.416	5076
728.531	4163
728.645	4962
728.760	3927
728.875	4720
728.990	4801
729.105	4592
729.220	3762
729.335	4530
729.449	4441
729.564	4192
729.679	3966
729.794	5474
729.908	4439
730.023	4830
730.138	4374
730.253	5581
730.367	4303
730.482	4475
730.596	4771
730.711	5776
730.826	8179
730.940	8450
731.055	6995
731.169	7041
731.284	6924
731.398	7219
731.513	7326
731.627	8919
731.742	11503
731.856	15581
731.970	15470
732.085	20104
732.199	29197
732.313	53239
732.428	132898
732.542	436042
732.656	424031
732.771	68130
732.885	29508
732.999	22733
733.113	22433
733.227	21689
733.342	20429
733.456	20207
733.570	17386
733.684	17740
733.798	16467
733.912	16980
734.026	15904
734.140	16437
734.254	16219
734.368	16109
734.482	16302
734.596	16427
734.710	15079
734.824	15367
734.938	13899
735.052	15037
735.166	13841
735.280	14738
735.393	13515
735.507	13954
735.621	14482
735.735	13647
735.849	13915
735.962	12900
736.076	13604
736.190	13551
736.303	12861
736.417	14390
736.531	12323
736.644	12884
736.758	12044
736.872	14401
736.985	11604
737.099	14020
737.212	11137
737.326	11711
737.439	11705
737.553	12522
737.666	11771
737.780	11197
737.893	11209
738.007	10999
738.120	12073
738.233	10864
738.347	11202
738.460	10020
738.573	11730
738.687	11050
738.800	11428
738.913	12194
739.026	11705
739.140	9909
739.253	11425
739.366	10516
739.479	9933
739.592	11062
739.705	8887
739.818	11315
739.932	10608
740.045	9815
740.158	10311
740.271	10560
740.384	11300
740.497	9344
740.610	10479
740.723	9605
740.836	10328
740.949	9971
741.062	11051
741.174	10450
741.287	8139
741.400	10444
741.513	8366
741.626	10373
741.739	9940
741.851	8041
741.964	9083
742.077	9219
742.189	8388
742.302	10464
742.415	10749
742.527	8946
742.640	9031
742.753	7638
742.865	7908
742.978	9103
743.090	7634
743.203	8987
743.316	8377
743.428	8054
743.541	8557
743.653	7484
743.766	7769
743.878	7937
743.990	6837
744.103	9304
744.215	10903
744.327	8443
744.440	8915
744.552	8639
744.664	7318
744.777	7307
744.889	7685
745.001	7396
745.113	7778
745.226	8365
745.338	6971
745.450	7926
745.562	7151
745.674	6199
745.786	7675
745.898	8304
746.010	6811
746.122	6591
746.234	7012
746.347	7996
746.459	7176
746.570	7325
746.682	8185
746.794	14288
746.906	8328
747.018	6820
747.130	7534
747.242	7224
747.354	5727
747.466	7582
747.577	5808
747.689	6218
747.801	7336
747.913	5990
748.024	5223
748.136	6130
748.248	5660
748.359	6329
748.471	6497
748.583	5502
748.694	5239
748.806	6369
748.918	5048
749.029	5775
749.141	5854
749.252	6444
749.364	4576
749.475	5647
749.587	4453
749.698	4742
749.809	5290
749.921	5622
750.032	5229
750.144	4883
750.255	5309
750.366	4734
750.478	4398
750.589	4994
750.700	5297
750.811	5656
750.923	4628
751.034	4314
751.145	5201
751.256	5172
751.367	4739
751.479	5340
751.590	5328
751.701	4442
751.812	4306
751.923	5357
752.034	5878
752.145	5718
752.256	4794
752.367	4615
752.478	4460
752.589	4913
752.700	5284
752.811	4505
752.922	4880
753.032	5107
753.143	5366
753.254	4946
753.365	5897
753.476	6583
753.586	4988
753.697	4940
753.808	4462
753.919	4845
754.029	4449
754.140	4405
754.251	5099
754.361	4671
754.472	5077
754.582	4772
754.693	4298
754.804	5271
754.914	4237
755.025	3995
755.135	3602
755.246	5271
755.356	4340
755.466	4101
755.577	3550
755.687	4220
755.798	4615
755.908	3699
756.018	4865
756.129	4325
756.239	4826
756.349	5031
756.460	5178
756.570	5997
756.680	4213
756.790	4334
756.900	4481
757.011	4055
757.121	4012
757.231	4834
757.341	3614
757.451	4269
757.561	3760
757.671	3922
757.781	4470
757.891	4561
758.001	3382
758.111	4146
758.221	4267
758.331	5455
758.441	4848
758.551	4680
758.661	6044
758.771	5114
758.880	5720
758.990	4711
759.100	4729
759.210	4522
759.320	4387
759.429	4944
759.539	6435
759.649	5401
759.758	7910
759.868	8359
759.978	8647
760.087	9402
760.197	9922
760.307	8941
760.416	7921
760.526	7374
760.635	7075
760.745	8305
760.854	9037
760.964	11865
761.073	11410
761.182	10332
761.292	8533
761.401	7303
761.511	5902
761.620	5494
761.729	5569
761.839	4651
761.948	4838
762.057	5280
762.166	5119
762.276	5072
762.385	4995
762.494	5942
762.603	4172
762.712	5130
762.822	4830
762.931	4278
763.040	4385
763.149	4440
763.258	4996
763.367	4776
763.476	5550
763.585	4831
763.694	4529
763.803	5485
763.912	5507
764.021	6525
764.130	5495
764.238	6819
764.347	6535
764.456	7971
764.565	7413
764.674	7230
764.783	7698
764.891	8205
765.000	9565
765.109	9995
765.217	10549
765.326	13130
765.435	15450
765.543	18598
765.652	21165
765.761	27007
765.869	39955
765.978	58387
766.086	98146
766.195	176337
766.303	360855
766.412	623270
766.520	583699
766.629	428538
766.737	191401
766.846	103078
766.954	63909
767.062	46583
767.171	33506
767.279	26592
767.387	20352
767.496	18521
767.604	15569
767.712	13603
767.820	11630
767.928	11935
768.037	9184
768.145	10335
768.253	9588
768.361	8782
768.469	8270
768.577	8980
768.685	9569
768.793	10356
768.901	10735
769.009	12727
769.117	14036
769.225	18665
769.333	25102
769.441	39578
769.549	68295
769.657	141239
769.765	335662
769.873	545503
769.981	410340
770.088	161823
770.196	70280
770.304	43226
770.412	31052
770.519	22709
770.627	17788
770.735	15072
770.842	13210
770.950	11586
771.058	10954
771.165	10626
771.273	12076
771.380	11100
771.488	13077
771.595	15358
771.703	12782
771.810	12698
771.918	11987
772.025	13135
772.133	16609
772.240	15382
772.348	17234
772.455	17475
772.562	13928
772.670	14602
772.777	14522
772.884	13669
772.991	12993
773.099	14032
773.206	12240
773.313	14020
773.420	13689
773.528	13010
773.635	13131
773.742	13430
773.849	12802
773.956	12628
774.063	11363
774.170	12739
774.277	11268
774.384	11561
774.491	11188
774.598	12773
774.705	11678
774.812	11648
774.919	11151
775.026	11408
775.133	10642
775.239	11441
775.346	10352
775.453	10600
775.560	11106
775.667	10657
775.773	10386
775.880	10300
775.987	11074
776.093	9801
776.200	11771
776.307	9455
776.413	8542
776.520	11291
776.627	11069
776.733	8626
776.840	8608
776.946	12593
777.053	12822
777.159	17096
777.266	13777
777.372	15938
777.478	15221
777.585	13364
777.691	8317
777.798	9176
777.904	9060
778.010	8657
778.117	9049
778.223	7842
778.329	9408
778.435	6757
778.542	9528
778.648	9605
778.754	7558
778.860	8072
778.966	8311
779.072	7324
779.178	7282
779.284	6842
779.391	7783
779.497	8632
779.603	8511
779.708	6942
779.815	8010
779.920	13513
780.026	24158
780.132	11527
780.238	7723
780.344	6850
780.450	8186
780.556	7636
780.661	5658
780.767	9054
780.873	5617
780.979	6009
781.085	7346
781.190	7530
781.296	5683
781.402	6358
781.507	6921
781.613	5383
781.719	5240
781.824	8724
781.930	6058
782.035	5429
782.141	8211
782.246	5614
782.352	4643
782.457	6301
782.563	6999
782.668	6520
782.773	5490
782.879	5589
782.984	5575
783.090	6560
783.195	5662
783.300	8395
783.405	5633
783.511	4565
783.616	4521
783.721	5890
783.826	5842
783.932	4028
784.037	5301
784.142	5983
784.247	4874
784.352	6267
784.457	3728
784.562	4054
784.667	5041
784.772	4964
784.877	3190
784.982	5555
785.087	6290
785.192	4332
785.297	3852
785.402	5908
785.507	5202
785.611	5434
785.716	4426
785.821	5287
785.926	5281
786.031	4745
786.135	4954
786.240	4785
786.345	3838
786.450	3341
786.554	3651
786.659	3782
786.763	4198
786.868	4912
786.973	4659
787.077	4708
787.182	3235
787.286	3952
787.391	5159
787.495	4562
787.600	2566
787.704	3704
787.809	4421
787.913	3832
788.017	3887
788.122	4283
788.226	4156
788.330	2193
788.435	3162
788.539	4194
788.643	4288
788.747	2301
788.852	3279
788.956	3942
789.060	3802
789.164	3787
789.268	2576
789.372	4402
789.476	2664
789.580	2893
789.684	2544
789.788	4989
789.892	4075
789.996	3091
790.100	1674
790.204	3048
790.308	4162
790.412	3468
790.516	2149
790.620	2426
790.724	3966
790.828	3782
790.931	2092
791.035	3987
791.139	2516
791.242	3728
791.346	2810
791.450	3312
791.554	3659
791.657	1928
791.761	2160
791.864	3679
791.968	3527
792.072	3859
792.175	2087
792.279	2293
792.382	1784
792.486	2047
792.589	1546
792.693	3650
792.796	2098
792.899	3110
793.003	2209
793.106	2647
793.209	2521
793.313	2895
793.416	1501
793.519	2218
793.623	3054
793.726	4038
793.829	1222
793.932	1846
794.035	1489
794.138	2924
794.242	3510
794.345	3061
794.448	1645
794.551	2092
794.654	5392
794.757	11368
794.860	4086
794.963	3644
795.066	1866
795.169	2510
795.272	2290
795.375	3513
795.477	2232
795.580	1340
795.683	307
795.786	2799
795.889	1942
795.991	1885
796.094	1477
796.197	2576
796.300	2326
796.402	2650
796.505	1111
796.608	1238
796.710	1768
796.813	2620
796.915	3162
797.018	2747
797.120	2611
797.223	1436
797.326	3351
797.428	2290
797.530	1953
797.633	1631
797.735	2629
797.838	2560
797.940	2589
798.042	2957
798.145	1279
798.247	1630
798.349	809
798.452	1456
798.554	2748
798.656	2567
798.758	3728
798.860	2716
798.962	1871
799.065	1751
799.167	519
799.269	2201
799.371	2664
799.473	5502
799.575	2869
799.677	1475
799.779	1896
799.881	1498
799.983	2704
800.085	1899
800.187	1111
800.289	1340
800.390	1584
800.492	2875
800.594	2259
800.696	901
800.798	783
800.899	2264
801.001	1881
801.103	2262
801.205	1053
801.306	1871
801.408	1102
801.509	2092
801.611	1618
801.713	1877
801.814	1413
801.916	1185
802.017	135
802.119	563
802.220	1464
802.322	33
802.423	1860
802.525	628
802.626	1154
802.727	2596
802.829	2534
802.930	-15
803.031	1483
803.133	1359
803.234	1753
803.335	2075
803.436	1590
803.538	2066
803.639	355
803.740	2031
803.841	1350
803.942	1891
804.043	1880
804.144	573
804.245	1569
804.346	1328
804.447	858
804.548	1276
804.649	1874
804.750	652
804.851	820
804.952	896
805.053	1275
805.154	381
805.255	1448
805.355	1543
805.456	649
805.557	810
805.658	1110
805.758	1299
805.859	1055
805.960	747
806.061	391
806.161	1094
806.262	1720
806.362	223
806.463	493
806.564	1372
806.664	1756
806.765	1381
806.865	701
806.966	504
807.066	291
807.166	1604
807.267	1356
807.367	585
807.468	1245
807.568	-64
807.668	1437
807.769	1000
807.869	1154
807.969	1580
808.069	970
808.170	469
808.270	661
808.370	1405
808.470	524
808.570	1172
808.670	214
808.770	1158
808.870	376
808.970	1130
809.070	340
809.170	-234
809.271	1385
809.370	1551
809.470	711
809.570	636
809.670	270
809.770	366
809.870	1273
809.970	1379
810.070	725
810.169	1289
810.269	501
810.369	1463
810.469	376
810.568	999
810.668	244
810.768	625
810.867	990
810.967	218
811.066	783
811.166	762
811.265	895
811.365	782
811.464	504
811.564	1527
811.663	660
811.763	39
811.862	1140
811.962	1139
812.061	-120
812.160	813
812.260	-216
812.359	1132
812.458	141
812.557	1002
812.657	594
812.756	622
812.855	472
812.954	569
813.053	698
813.153	680
813.252	719
813.351	618
813.450	68
813.549	645
813.648	857
813.747	622
813.846	831
813.945	1291
814.044	1206
814.143	1183
814.242	1076
814.341	891
814.439	1720
814.538	1672
814.637	2043
814.736	1764
814.835	1037
814.933	1741
815.032	2763
815.131	3197
815.229	5989
815.328	11390
815.427	8905
815.525	7298
815.624	6797
815.722	6876
815.821	7156
815.919	7072
816.018	7015
816.116	7378
816.215	6749
816.313	7888
816.412	8572
816.510	9911
816.609	10148
816.707	12066
816.805	10423
816.904	9100
817.002	11048
817.100	10172
817.198	10250
817.296	9602
817.395	8787
817.493	9633
817.591	8071
817.689	8997
817.787	8350
817.885	9219
817.983	7659
818.081	9105
818.179	9060
818.277	14520
818.375	13610
818.473	10411
818.571	8567
818.669	7804
818.767	10301
818.865	8652
818.963	6883
819.061	8406
819.158	7605
819.256	10751
819.354	10083
819.452	16232
819.549	15040
819.647	10105
819.745	7508
819.842	6974
819.940	7284
820.038	7570
820.135	6033
820.233	6873
820.330	7066
820.428	6819
820.525	7218
820.623	6631
820.720	6592
820.818	6746
820.915	7499
821.012	7155
821.110	5288
821.207	7311
821.304	6116
821.402	7678
821.499	8418
821.596	8789
821.693	6374
821.791	6846
821.888	5641
821.985	7068
822.082	6250
822.179	7038
822.276	8348
822.373	6811
822.470	4379
822.567	6512
822.664	5878
822.761	5113
822.858	5966
822.955	5540
823.052	5707
823.149	6157
823.246	6283
823.343	5054
823.440	4632
823.536	5916
823.633	6646
823.730	3431
823.827	5627
823.923	5756
824.020	4721
824.117	6242
824.213	6495
824.310	6051
824.407	3749
824.503	5279
824.600	5530
824.696	3856
824.793	6444
824.889	5678
824.986	6097
825.082	4120
825.179	3799
825.275	4143
825.371	6206
825.468	5905
825.564	2752
825.660	4467
825.757	6975
825.853	5639
825.949	3664
826.045	3496
826.142	3811
826.238	5829
826.334	5032
826.430	4794
826.526	3124
826.622	2640
826.718	4868
826.814	6209
826.910	5322
827.006	2420
827.102	2308
827.198	4182
827.294	4392
827.390	5298
827.486	4369
827.582	2948
827.678	2106
827.774	4563
827.869	3829
827.965	4155
828.061	2256
828.157	4457
828.252	5279
828.348	3963
828.444	3635
828.539	3413
828.635	4384
828.731	3822
828.826	2909
828.922	4557
829.017	3487
829.113	4624
829.208	3552
829.304	3814
829.399	6131
829.495	5244
829.590	3398
829.685	3798
829.781	4877
829.876	5304
829.971	2620
830.066	1633
830.162	3050
830.257	5494
830.352	4475
830.447	3609
830.543	1999
830.638	3334
830.733	4736
830.828	3299
830.923	4083
831.018	3917
831.113	4296
831.208	3359
831.303	2150
831.398	2481
831.493	2592
831.588	5814
831.683	2983
831.778	2473
831.873	1780
831.967	3902
832.062	4299
832.157	3520
832.252	3481
832.346	1796
832.441	3913
832.536	3361
832.631	3918
832.725	2701
832.820	2062
832.914	2818
833.009	2174
833.104	1303
833.198	1454
833.293	2416
833.387	3630
833.482	3895
833.576	2008
833.670	2966
833.765	2971
833.859	3701
833.954	3601
834.048	3359
834.142	1731
834.237	1078
834.331	1706
834.425	2869
834.519	2480
834.613	2036
834.708	2713
834.802	1596
834.896	1856
834.990	2642
835.084	1868
835.178	1751
835.272	2039
835.366	3084
835.460	3096
835.554	2659
835.648	1541
835.742	826
835.836	1877
835.930	2279
836.024	2506
836.117	2230
836.211	1707
836.305	2193
836.399	1472
836.493	1332
836.586	2677
836.680	2594
836.774	2245
836.867	2114
836.961	1451
837.055	1585
837.148	1473
837.242	1557
837.335	1834
837.429	2624
837.522	1618
837.616	1266
837.709	2212
837.803	2448
837.896	2651
837.989	2444
838.083	891
838.176	1177
838.269	-115
838.363	2101
838.456	903
838.549	1899
838.642	1727
838.735	1948
838.829	728
838.922	2373
839.015	1692
839.108	1968
839.201	1584
839.294	1710
839.387	2592
839.480	905
839.573	1498
839.666	822
839.759	645
839.852	1166
839.945	1612
840.038	1576
840.131	1230
840.223	394
840.316	1306
840.409	1808
840.502	2053
840.594	3734
840.687	567
840.780	819
840.873	398
840.965	394
841.058	821
841.150	2120
841.243	1042
841.336	980
841.428	1293
841.521	819
841.613	1039
841.706	1218
841.798	713
841.890	2264
841.983	591
842.075	1241
842.167	651
842.260	1602
842.352	833
842.444	1680
842.537	1110
842.629	1694
842.721	614
842.813	1154
842.905	1159
842.997	1421
843.090	475
843.182	660
843.274	383
843.366	905
843.458	1248
843.550	2769
843.642	272
843.734	1745
843.826	855
843.918	905
844.009	810
844.101	1386
844.193	680
844.285	1747
844.377	2089
844.469	1619
844.560	871
844.652	1309
844.744	819
844.835	792
844.927	1450
845.019	1517
845.110	748
845.202	675
845.293	577
845.385	100
845.476	881
845.568	1572
845.659	716
845.751	875
845.842	863
845.934	661
846.025	590
846.116	611
846.208	1078
846.299	1137
846.390	-366
846.482	689
846.573	1241
846.664	888
846.755	425
846.846	833
846.937	-112
847.029	1684
847.120	-45
847.211	647
847.302	1559
847.393	528
847.484	1307
847.575	607
847.666	-23
847.757	438
847.847	430
847.938	1307
848.029	1532
848.120	1510
848.211	638
848.302	103
848.392	194
848.483	1987
848.574	177
848.664	1290
848.755	1191
848.846	786
848.936	447
849.027	1285
849.118	1889
849.208	1743
849.299	3012
849.389	6099
849.480	11009
849.570	21906
849.661	39040
849.751	77095
849.841	47796
849.932	8652
850.022	3063
850.112	1736
850.203	2596
850.293	1223
850.383	593
850.474	539
850.564	965
850.654	1052
850.744	455
850.834	1015
850.924	402
851.014	1736
851.104	1390
851.194	834
851.284	1170
851.374	1000
851.464	-155
851.554	650
851.644	832
851.734	1576
851.824	1283
851.914	524
852.004	1027
852.094	1488
852.183	523
852.273	868
852.363	372
852.452	1495
852.542	725
852.632	1283
852.721	317
852.811	34
852.901	1943
852.990	1255
853.080	1992
853.169	2124
853.259	1917
853.348	2652
853.438	2900
853.527	5332
853.617	7593
853.706	13203
853.795	23844
853.885	48126
853.974	90576
854.063	143507
854.152	243290
854.242	155859
854.331	41307
854.420	15108
854.509	8484
854.598	6275
854.687	4469
854.777	3353
854.866	2401
854.955	2514
855.044	1511
855.133	1461
855.222	1527
855.311	1536
855.400	1249
855.488	1545
855.577	702
855.666	1101
855.755	581
855.844	1089
855.933	522
856.021	1189
856.110	405
856.199	931
856.288	119
856.376	690
856.465	638
856.554	1410
856.642	1154
856.731	1995
856.819	1115
856.908	689
856.996	631
857.085	-244
857.173	-280
857.262	359
857.350	395
857.438	198
857.527	1249
857.615	452
857.703	887
857.792	287
857.880	248
857.968	16
858.056	587
858.145	247
858.233	691
858.321	553
858.409	1304
858.497	401
858.585	331
858.673	733
858.761	350
858.849	339
858.937	-109
859.025	1339
859.113	-104
859.201	654
859.289	1412
859.377	1256
859.465	653
859.552	755
859.640	-56
859.728	260
859.816	-131
859.903	1029
859.991	-349
860.079	339
860.166	618
860.254	40
860.342	496
860.429	142
860.517	347
860.604	669
860.692	-30
860.779	-264
860.867	-139
860.954	653
861.042	874
861.129	823
861.216	958
861.304	178
861.391	134
861.478	769
861.565	831
861.653	1307
861.740	-85
861.827	473
861.914	680
862.001	1140
862.089	594
862.176	695
862.263	-158
862.350	1016
862.437	814
862.524	771
862.611	627
862.698	1943
862.785	495
862.871	1765
862.958	1557
863.045	1820
863.132	1136
863.219	1278
863.306	152
863.392	633
863.479	742
863.566	241
863.652	1401
863.739	1008
863.826	1020
863.912	1437
863.999	762
864.086	1183
864.172	1051
864.259	2104
864.345	1712
864.432	2733
864.518	1212
864.604	2177
864.691	1967
864.777	2458
864.863	3047
864.950	4647
865.036	5570
865.122	10335
865.209	13771
865.295	12287
865.381	10669
865.467	11261
865.553	11973
865.639	15248
865.726	20238
865.812	33022
865.898	54295
865.984	80745
866.070	121557
866.156	172482
866.242	84118
866.328	26264
866.414	14921
866.499	12749
866.585	10905
866.671	10546
866.757	9989
866.843	9458
866.928	8395
867.014	9156
867.100	8813
867.186	8367
867.271	8085
867.357	8996
867.442	8021
867.528	8811
867.614	8526
867.699	8333
867.785	8722
867.870	9257
867.956	9038
868.041	9817
868.127	8104
868.212	8351
868.297	7964
868.383	8099
868.468	7280
868.553	8283
868.639	7789
868.724	7547
868.809	8194
868.894	7287
868.979	6232
869.065	7284
869.150	6368
869.235	6791
869.320	7257
869.405	6758
869.490	5741
869.575	7362
869.660	5558
869.745	6279
869.830	8166
869.915	6727
870.000	6372
870.085	5479
870.169	6402
870.254	9021
870.339	5888
870.424	4575
870.509	5379
870.593	7361
870.678	7510
870.763	5872
870.847	4590
870.932	6718
871.016	7940
871.101	5943
871.186	4868
871.270	8012
871.355	5335
871.439	4585
871.523	6449
871.608	5936
871.692	4071
871.777	6497
871.861	5962
871.945	4793
872.030	5266
872.114	5169
872.198	4212
872.282	4577
872.367	5061
872.451	4529
872.535	4996
872.619	6063
872.703	4452
872.787	5028
872.871	5899
872.955	5725
873.039	3625
873.123	4140
873.207	6071
873.291	3373
873.375	3140
873.459	6433
873.543	4665
873.627	4646
873.711	4443
873.794	4898
873.878	4428
873.962	3695
874.045	4162
874.129	4195
874.137	4128
874.213	3453
874.245	3854
874.296	4506
874.352	3651
874.380	3233
874.460	4873
874.464	4939
874.547	3553
874.568	3724
874.631	4238
874.676	4345
874.714	4425
874.784	5267
874.798	5437
874.881	5125
874.892	4761
874.965	2276
874.999	2947
875.048	3873
875.107	4746
875.131	5066
875.215	3844
875.215	3843
875.298	2672
875.323	2883
875.381	3386
875.430	4827
875.465	5811
875.538	5588
875.548	5549
875.631	3254
875.646	3224
875.714	3112
875.753	3406
875.798	3812
875.861	4706
875.881	4945
875.964	4911
875.968	4801
876.047	2914
876.076	3349
876.130	4241
876.183	4258
876.213	4240
876.291	4914
876.296	4950
876.379	4031
876.398	3975
876.462	3832
876.506	3518
876.545	3263
876.613	3157
876.628	3161
876.711	4042
876.721	4030
876.794	3939
876.828	4315
876.877	4692
876.935	4262
876.960	4085
877.043	3465
877.043	3466
877.125	3907
877.150	3942
877.208	4040
877.258	4482
877.291	4671
877.365	2940
877.374	2756
877.456	3405
877.472	3371
877.539	3241
877.579	3370
877.622	3542
877.687	4377
877.704	4593
877.787	3956
877.794	3925
877.869	3635
877.901	4017
877.952	4425
878.008	3704
878.034	3325
878.115	2341
878.117	2334
878.199	2701
878.222	2883
878.282	3517
878.329	4066
878.364	4243
878.437	4759
878.447	4842
878.529	3344
878.544	3361
878.611	3092
878.651	2941
878.694	3233
878.758	3892
878.776	4027
878.858	4216
878.865	4237
878.941	4090
878.972	3521
879.023	2556
879.078	2253
879.105	2424
879.185	4129
879.187	4156
879.269	4572
879.292	4502
879.351	4340
879.399	4190
879.433	3884
879.506	3064
879.516	3032
879.598	3425
879.613	3412
879.680	3072
879.720	3330
879.762	3875
879.827	4071
879.844	3954
879.926	3442
879.933	3508
880.007	4931
880.040	4922
880.089	4654
880.147	5292
880.171	5809
880.253	9147
880.254	9155
880.335	10014
880.360	10757
880.417	14603
880.467	18425
880.499	22159
880.574	34244
880.580	34233
880.662	19967
880.680	17142
880.744	8716
880.787	5340
880.825	4409
880.893	4372
880.907	4408
880.989	3609
881.000	3565
881.070	3722
881.106	3836
881.152	3820
881.213	3543
881.233	3394
881.315	2841
881.319	2869
881.396	4218
881.426	3961
881.478	2985
881.532	3524
881.559	4041
881.639	4258
881.641	4254
881.722	3893
881.745	3781
881.803	3670
881.852	3953
881.885	4061
881.958	3223
881.966	3131
882.047	3117
882.064	3055
882.129	3236
882.171	3280
882.210	2853
882.277	2489
882.291	2637
882.372	3548
882.383	3665
882.454	4626
882.489	4805
882.535	4657
882.596	4631
882.616	4663
882.697	5145
882.702	5086
882.778	3135
882.808	2783
882.859	2709
882.914	2759
882.940	2849
883.020	2565
883.021	2573
883.102	3293
883.127	3641
883.183	5150
883.233	6093
883.264	5547
883.339	3787
883.345	3698
883.426	2238
883.445	2172
883.507	2471
883.551	2434
883.587	3070
883.657	4518
883.668	4687
883.749	5526
883.763	5574
883.830	4341
883.869	3741
883.910	3254
883.975	2675
883.991	2748
884.072	3481
884.081	3504
884.152	4262
884.187	4735
884.233	5271
884.292	5646
884.314	5344
884.394	3360
884.398	3294
884.475	2324
884.504	2156
884.555	2614
884.610	2676
884.636	2781
884.716	3073
884.716	3090
884.797	5205
884.821	5700
884.877	5411
884.927	4872
884.958	4363
885.033	3262
885.038	3233
885.118	2530
885.139	2415
885.199	2292
885.244	2368
885.279	2832
885.350	3561
885.359	3794
885.439	5954
885.456	6308
885.520	5540
885.561	4849
885.600	3808
885.667	2421
885.680	2619
885.760	4192
885.773	4275
885.840	3207
885.878	2918
885.920	3007
885.984	3027
886.000	3147
886.080	3858
886.089	3910
886.160	4658
886.195	5004
886.240	4652
886.300	4037
886.320	3984
886.400	4170
886.406	4137
886.480	3379
886.511	3167
886.560	3275
886.616	3427
886.640	3439
886.720	3381
886.722	3371
886.800	3479
886.827	3537
886.879	3781
886.932	4016
886.959	4327
887.038	5279
887.039	5283
887.119	4505
887.143	4343
887.198	4211
887.248	4038
887.278	3779
887.354	3168
887.358	3211
887.437	3865
887.459	4079
887.517	4235
887.564	4199
887.596	3950
887.669	3436
887.676	3342
887.755	2164
887.774	1862
887.835	2218
887.880	2520
887.914	2818
887.985	3403
887.994	3585
888.073	5109
888.090	5428
888.153	6433
888.195	6975
888.232	5966
888.300	4162
888.311	4041
888.391	3079
888.405	2922
888.470	2968
888.510	2879
888.549	3062
888.615	3541
888.628	3704
888.708	4549
888.720	4666
888.787	5051
888.825	5227
888.866	4440
888.930	3255
888.945	3273
889.024	3338
889.035	3335
889.103	4132
889.140	4529
889.182	4117
889.245	3524
889.261	3617
889.340	4024
889.349	4062
889.419	3886
889.454	3778
889.498	3439
889.559	2973
889.577	3156
889.656	3927
889.664	3998
889.735	4651
889.768	4941
889.814	4429
889.873	3724
889.978	3529
890.083	3410
890.187	3851
890.292	5237
890.397	3693
890.501	4087
890.606	2482
890.710	3701
890.815	5409
890.919	4319
891.024	4596
891.128	3195
891.233	2852
891.337	4098
891.442	5576
891.546	3474
891.650	3970
891.755	3323
891.859	3486
891.963	5899
892.068	4626
892.172	4488
892.276	1955
892.380	3026
892.484	3918
892.589	5965
892.693	4196
892.797	2969
892.901	1972
893.005	2995
893.109	4331
893.213	4922
893.317	3418
893.421	2003
893.525	1816
893.629	2275
893.733	3558
893.837	3781
893.941	3159
894.045	2736
894.148	2497
894.252	3062
894.356	3440
894.460	6209
894.564	3513
894.667	2703
894.771	1869
894.875	1319
894.978	2847
895.082	3490
895.186	4566
895.289	3450
895.393	2263
895.496	4203
895.600	3230
895.703	1541
895.807	3061
895.910	3384
896.014	3760
896.117	2678
896.221	3167
896.324	4271
896.427	2731
896.531	3016
896.634	2551
896.737	3161
896.840	2662
896.944	4652
897.047	4001
897.150	3785
897.253	2211
897.356	2198
897.460	1866
897.563	1632
897.666	3544
897.769	4354
897.872	2695
897.975	2107
898.078	2149
898.181	1919
898.284	2768
898.387	3136
898.490	4468
898.593	3470
898.695	1652
898.798	1812
898.901	2667
899.004	2813
899.107	2933
899.209	2248
899.312	3995
899.415	3300
899.518	1290
899.620	1622
899.723	2250
899.826	2274
899.928	2219
900.031	1627
900.133	3494
900.236	2444
900.338	612
900.441	1265
900.543	2594
900.646	2966
900.748	3288
900.851	3619
900.953	2395
901.055	1293
901.158	2944
901.260	2234
901.362	1654
901.465	818
901.567	2569
901.669	3452
901.771	2371
901.873	2024
901.976	1705
902.078	2751
902.180	2570
902.282	1416
902.384	2209
902.486	4146
902.588	3708
902.690	2572
902.792	1209
902.894	1985
902.996	2910
903.098	2956
903.200	1952
903.302	1316
903.404	1780
903.505	1644
903.607	1668
903.709	3889
903.811	4394
903.913	2859
904.014	1630
904.116	968
904.218	204
904.319	2149
904.421	3923
904.523	4770
904.624	2113
904.726	2509
904.827	2151
904.929	2040
905.030	1886
905.132	3488
905.233	3011
905.335	1496
905.436	1464
905.537	1275
905.639	551
905.740	1841
905.841	4081
905.943	3066
906.044	2133
906.145	1558
906.247	1670
906.348	1651
906.449	1678
906.550	2126
906.651	1970
906.752	1679
906.854	1949
906.955	2277
907.056	1280
907.157	3498
907.258	2814
907.359	1282
907.460	1224
907.561	1291
907.662	1583
907.762	1715
907.863	2178
907.964	2702
908.065	2381
908.166	2040
908.267	991
908.367	478
908.468	1133
908.569	1727
908.670	3037
908.770	2215
908.871	2114
908.971	2728
909.072	2122
909.173	1896
909.273	1552
909.374	1924
909.474	2600
909.575	1555
909.675	2213
909.776	2638
909.876	2128
909.977	1628
910.077	2514
910.177	2938
910.278	2179
910.378	1505
910.478	1280
910.579	2856
910.679	2452
910.779	3031
910.879	2912
910.980	1735
911.080	2668
911.180	1506
911.280	1336
911.380	1041
911.480	1875
911.580	813
911.680	2387
911.780	1592
911.880	2172
911.980	1403
912.080	1348
912.180	1842
912.280	2155
912.380	1417
912.480	1356
912.580	1158
912.679	1161
912.779	2870
912.879	2198
912.979	1542
913.078	2167
913.178	1422
913.278	1638
913.377	521
913.477	1480
913.577	1074
913.676	1974
913.776	3050
913.875	1981
913.975	1436
914.074	2120
914.174	2497
914.273	1725
914.373	1951
914.472	1675
914.572	1348
914.671	1129
914.770	2320
914.870	1873
914.969	1559
915.068	2295
915.167	3014
915.267	1282
915.366	1651
915.465	2159
915.564	2337
915.663	2379
915.763	2479
915.862	2994
915.961	2981
916.060	1466
916.159	1243
916.258	1389
916.357	1663
916.456	2600
916.555	1888
916.654	1987
916.752	2854
916.851	3111
916.950	1260
917.049	1700
917.148	1531
917.247	1564
917.345	1890
917.444	830
917.543	2089
917.642	1192
917.740	1518
917.839	3345
917.937	4435
918.036	3618
918.135	2707
918.233	1988
918.332	2070
918.430	1667
918.529	1912
918.627	2254
918.726	2766
918.824	2691
918.923	1415
919.021	2100
919.119	2086
919.218	1079
919.316	2107
919.414	2511
919.512	2679
919.611	3036
919.709	1988
919.807	3283
919.905	3723
920.003	4023
920.102	2982
920.200	3109
920.298	3957
920.396	4262
920.494	3539
920.592	2623
920.690	4307
920.788	3895
920.886	3014
920.984	3300
921.082	3696
921.180	4667
921.277	4408
921.375	5657
921.473	7332
921.571	7464
921.669	6813
921.766	4668
921.864	6048
921.962	5897
922.060	6078
922.157	6018
922.255	6334
922.352	6801
922.450	6925
922.548	7195
922.645	8711
922.743	10999
922.840	15342
922.938	20543
923.035	17742
923.133	17210
923.230	19120
923.327	23436
923.425	22933
923.522	21716
923.619	21060
923.717	17387
923.814	18055
923.911	17659
924.008	18243
924.106	17341
924.203	16567
924.300	18591
924.397	18522
924.494	16886
924.591	16840
924.688	15550
924.786	17613
924.883	16815
924.979	16358
925.077	16915
925.173	16374
925.270	17041
925.367	16948
925.464	17807
925.561	17604
925.658	19281
925.755	15977
925.852	18493
925.948	17648
926.045	15960
926.142	16443
926.239	18895
926.335	15013
926.432	15243
926.529	16832
926.625	18520
926.722	15248
926.818	14305
926.915	16256
927.011	15338
927.108	14653
927.204	15337
927.301	13554
927.397	14808
927.494	17920
927.590	13598
927.687	11494
927.783	17256
927.879	16589
927.976	14816
928.072	12258
928.168	14364
928.264	15959
928.361	13140
928.457	16576
928.553	13601
928.649	12198
928.745	14666
928.841	12216
928.937	13480
929.033	13569
929.129	12713
929.225	15957
929.321	13940
929.417	11959
929.513	14350
929.609	13336
929.705	11597
929.801	14323
929.897	12225
929.993	11376
930.089	13133
930.184	11699
930.280	12100
930.376	16156
930.471	12933
930.567	10243
930.663	11875
930.758	10711
930.854	10923
930.950	11716
931.045	11011
931.141	10408
931.236	13838
931.332	13510
931.427	9538
931.523	12985
931.618	13304
931.714	9825
931.809	9433
931.905	13030
932.000	9838
932.095	7762
932.191	12047
932.286	13517
932.381	12919
932.476	9496
932.572	11119
932.667	9798
932.762	9400
932.857	10105
932.952	12985
933.047	12026
933.142	9083
933.237	10180
933.332	11767
933.427	12206
933.522	10377
933.617	9208
933.712	8649
933.807	11712
933.902	13547
933.997	12497
934.092	10860
934.187	8776
934.282	10894
934.376	10140
934.471	12080
934.566	8872
934.661	8803
934.755	10320
934.850	10863
934.945	9657
935.039	8596
935.134	8003
935.228	7921
935.323	14362
935.417	9514
935.512	6342
935.606	6796
935.701	9592
935.795	11294
935.890	10772
935.984	8102
936.079	6709
936.173	8071
936.267	8300
936.362	6588
936.456	7993
936.550	12041
936.644	11227
936.738	7392
936.833	6431
936.927	5118
937.021	7081
937.115	9359
937.209	10545
937.303	8847
937.397	6205
937.491	7106
937.585	9074
937.679	8173
937.773	6945
937.867	6125
937.961	5635
938.055	9275
938.149	10316
938.243	5778
938.337	5101
938.430	6108
938.524	9801
938.618	9316
938.712	6904
938.805	6258
938.899	7789
938.993	10724
939.086	7534
939.180	4397
939.274	7342
939.367	8057
939.461	9323
939.554	6946
939.648	6334
939.741	5671
939.835	7320
939.928	9970
940.022	9521
940.115	7935
940.208	8080
940.302	9620
940.395	10735
940.488	7721
940.582	6052
940.675	5910
940.768	5393
940.861	7632
940.954	8466
941.048	5417
941.141	3969
941.234	5537
941.327	6521
941.420	6870
941.513	7161
941.606	6103
941.699	4736
941.792	8383
941.885	7555
941.978	6505
942.071	7937
942.164	6144
942.257	4425
942.349	5642
942.442	6801
942.535	5172
942.628	4997
942.721	5906
942.813	6593
942.906	6729
942.999	6003
943.091	4147
943.184	4968
943.277	6498
943.369	4333
943.462	3962
943.554	4955
943.647	5823
943.739	6991
943.832	8375
943.924	4459
944.017	3832
944.109	4041
944.201	4704
944.294	5399
944.386	5426
944.478	5804
944.571	3884
944.663	4618
944.755	5144
944.847	6666
944.940	5709
945.032	4010
945.124	3547
945.216	4988
945.308	5842
945.400	5137
945.492	4079
945.584	5204
945.676	6767
945.768	6156
945.860	6445
945.952	7565
946.044	6526
946.136	4683
946.228	3814
946.320	4676
946.412	5570
946.503	5583
946.595	6824
946.687	4567
946.779	3309
946.870	3131
946.962	4270
947.054	3919
947.145	5026
947.237	4574
947.329	3933
947.420	5055
947.512	4260
947.603	3615
947.695	3365
947.786	3892
947.878	4210
947.969	4585
948.061	5229
948.152	4657
948.243	2530
948.335	2543
948.426	2920
948.517	4146
948.609	5285
948.700	4252
948.791	4089
948.882	2834
948.973	2146
949.065	4301
949.156	4010
949.247	3017
949.338	3687
949.429	2598
949.520	2311
949.611	3627
949.702	5455
949.793	3657
949.884	3786
949.975	3925
950.066	2282
950.157	3142
950.247	3016
950.338	2409
950.429	3054
950.520	4277
950.611	2077
950.701	4271
950.792	5180
950.883	4460
950.973	3737
951.064	3865
951.155	4313
951.245	3888
951.336	4235
951.427	4939
951.517	5433
951.608	4575
951.698	3320
951.788	2753
951.879	1916
951.969	2157
952.060	2644
952.150	3283
952.240	4786
952.331	4518
952.421	4281
952.511	2706
952.602	1691
952.692	1822
952.782	3114
952.872	3166
952.962	3787
953.052	3560
953.143	2932
953.233	2698
953.323	3421
953.413	3671
953.503	4748
953.593	3723
953.683	3214
953.773	2759
953.863	1722
953.953	2230
954.042	3214
954.132	3916
954.222	3734
954.312	2929
954.402	2501
954.492	2729
954.581	2918
954.671	3226
954.761	3375
954.850	3506
954.940	1822
955.030	1491
955.119	2091
955.209	2222
955.298	2602
955.388	3258
955.477	3615
955.567	2121
955.656	2008
955.746	2402
955.835	2198
955.925	2003
956.014	2350
956.103	3997
956.193	4109
956.282	4252
956.371	2464
956.461	2316
956.550	2932
956.639	3018
956.728	1879
956.817	2383
956.906	2797
956.995	4197
957.085	3006
957.174	2817
957.263	1516
957.352	2524
957.441	2224
957.530	2832
957.619	1657
957.708	2850
957.796	1712
957.885	2048
957.974	2331
958.063	2928
958.152	2691
958.241	1135
958.329	1876
958.418	2000
958.507	2189
958.596	4013
958.684	2522
958.773	3156
958.861	2654
958.950	1309
959.039	2190
959.127	2601
959.216	2580
959.304	1943
959.393	2670
959.481	2963
959.570	1566
959.658	1625
959.746	1907
959.835	1028
959.923	1672
960.011	2057
960.100	2808
960.188	3055
960.276	2913
960.365	1614
960.453	1075
960.541	1104
960.629	1263
960.717	736
960.805	624
960.893	1620
960.981	1595
961.069	4200
961.158	3506
961.245	4972
961.333	3926
961.421	3194
961.509	2532
961.597	2122
961.685	2389
961.773	1979
961.861	2696
961.949	2811
962.036	2829
962.124	1714
962.212	1567
962.299	1769
962.387	1395
962.475	1584
962.562	1160
962.650	2618
962.738	1399
962.825	1598
962.913	1000
963.000	1735
963.088	1861
963.175	1876
963.263	2199
963.350	2057
963.438	2301
963.525	1513
963.612	1468
963.700	1904
963.787	1495
963.874	2307
963.962	1929
964.049	941
964.136	991
964.223	1901
964.310	1820
964.398	1510
964.485	1510
964.572	1780
964.659	1998
964.746	1029
964.833	1399
964.920	507
965.007	1352
965.094	1557
965.181	1573
965.268	2641
965.355	2528
965.441	2127
965.528	2022
965.615	2932
965.702	1769
965.789	2036
965.875	1918
965.962	2175
966.049	1621
966.136	2967
966.222	3062
966.309	3332
966.395	2870
966.482	2781
966.569	2279
966.655	1844
966.742	2184
966.828	1280
966.915	1168
967.001	945
967.087	1213
967.174	1380
967.260	1448
967.347	2023
967.433	1466
967.519	2371
967.605	2353
967.692	857
967.778	1321
967.864	1945
967.950	1620
968.036	1920
968.123	1708
968.209	1116
968.295	866
968.381	1942
968.467	1474
968.553	1099
968.639	1334
968.725	2280
968.811	3249
968.897	2988
968.983	2400
969.069	815
969.154	252
969.240	1525
969.326	1081
969.412	1640
969.497	793
969.583	1088
969.669	2243
969.755	2377
969.840	1600
969.926	3438
970.012	5150
970.097	6693
970.183	5097
970.268	3533
970.354	2079
970.439	1022
970.525	1375
970.610	407
970.696	2809
970.781	1769
970.866	561
970.952	1737
971.037	1131
971.122	1538
971.208	1125
971.293	2321
971.378	1299
971.463	1954
971.549	1150
971.634	1331
971.719	1717
971.804	958
971.889	1174
971.974	1640
972.059	1634
972.144	1370
972.229	1221
972.314	926
972.399	1039
972.484	1005
972.569	1058
972.654	489
972.739	2105
972.824	1345
972.908	2027
972.993	1398
973.078	349
973.163	1503
973.247	1632
973.332	896
973.417	1502
973.501	1583
973.586	2070
973.671	2317
973.755	1686
973.840	1720
973.924	2445
974.009	2501
974.093	2980
974.178	3515
974.262	2030
974.346	1361
974.431	2373
974.515	2759
974.600	1789
974.684	2112
974.768	2205
974.852	2106
974.937	1631
975.021	1797
975.105	2095
975.189	1692
975.273	2206
975.358	1702
975.442	1265
975.526	1200
975.610	2212
975.694	1673
975.778	1259
975.862	792
975.946	635
976.030	2815
976.114	854
976.198	1526
976.281	523
976.365	1922
976.449	1267
976.533	1536
976.617	1343
976.700	680
976.784	1624
976.868	1191
976.951	1534
977.035	1460
977.119	334
977.202	1612
977.286	2398
977.369	2959
977.453	4227
977.536	4771
977.620	2972
977.703	3629
977.787	2703
977.870	3087
977.953	2751
978.037	1640
978.120	2175
978.203	1683
978.287	2492
978.370	2440
978.453	1536
978.536	1422
978.620	1951
978.703	2465
978.786	1773
978.869	533
978.952	1360
979.035	2453
979.118	2377
979.201	1752
979.284	1364
979.367	1968
979.450	1746
979.533	575
979.616	1621
979.699	1186
979.782	2103
979.865	1748
979.948	2329
980.030	1373
980.113	1577
980.196	776
980.279	1780
980.361	1195
980.444	1036
980.526	3268
980.609	3760
980.692	5257
980.774	5034
980.857	3069
980.939	3523
981.022	2713
981.104	2006
981.187	2228
981.269	2079
981.352	2702
981.434	2082
981.516	1971
981.599	2797
981.681	1940
981.763	1358
981.846	1783
981.928	1718
982.010	1508
982.092	1108
982.174	2377
982.256	2549
982.339	1073
982.421	1448
982.503	2044
982.585	2085
982.667	1612
982.749	2477
982.831	2170
982.913	1974
982.995	2376
983.077	445
983.158	2271
983.240	2711
983.322	2549
983.404	3768
983.486	4459
983.568	4510
983.649	2897
983.731	3129
983.813	3271
983.894	3254
983.976	2442
984.058	3770
984.139	3148
984.221	2706
984.302	3366
984.384	2283
984.465	2159
984.547	3236
984.628	2638
984.710	2813
984.791	2434
984.872	2298
984.954	2212
985.035	2574
985.116	2143
985.198	3324
985.279	2993
985.360	3036
985.441	2258
985.522	3127
985.604	2660
985.685	2242
985.766	2882
985.847	3332
985.928	2735
986.009	2523
986.090	2455
986.171	2432
986.252	2854
986.333	2729
986.414	2622
986.495	3257
986.576	3659
986.656	2907
986.737	3160
986.818	3193
986.899	2804
986.980	2921
987.060	4320
987.141	3632
987.222	3371
987.302	3651
987.383	5343
987.464	4641
987.544	4748
987.625	3893
987.705	5458
987.786	5382
987.866	4534
987.947	5084
988.027	4258
988.108	4161
988.188	4241
988.268	3792
988.349	4183
988.429	4460
988.509	3368
988.589	3397
988.670	2614
988.750	4506
988.830	4214
988.910	3931
988.990	3127
989.070	3746
989.151	3418
989.231	3649
989.311	3478
989.391	2867
989.471	3018
989.551	3201
989.631	3406
989.711	3481
989.791	3201
989.870	2490
989.950	3554
990.030	1671
990.110	2859
990.190	2066
990.269	2433
990.349	2419
990.429	3269
990.509	3467
990.588	1750
990.668	3014
990.747	3242
990.827	2519
990.907	1994
990.986	3567
991.066	3051
991.145	2298
991.225	2998
991.304	2582
991.383	3248
991.463	2548
991.542	2473
991.622	1919
991.701	1566
991.780	1743
991.859	1596
991.939	2121
992.018	2335
992.097	2915
992.176	2046
992.256	1917
992.335	2552
992.414	2592
992.493	1758
992.572	1574
992.651	3453
992.730	1576
992.809	1589
992.888	1711
992.967	2020
993.046	2524
993.125	1669
993.203	2661
993.282	2318
993.361	2120
993.440	1381
993.519	1829
993.597	1868
993.676	1506
993.755	2591
993.834	2414
993.912	1388
993.991	1709
994.069	1342
994.148	1601
994.226	750
994.305	955
994.384	1382
994.462	3169
994.540	1672
994.619	1159
994.697	1499
994.776	1426
994.854	2971
994.932	1306
995.011	485
995.089	612
995.167	845
995.245	1494
995.324	949
995.402	958
995.480	1267
995.558	1229
995.636	823
995.714	815
995.792	1805
995.870	568
995.948	194
996.026	830
996.104	220
996.182	1448
996.260	400
996.338	224
996.416	851
996.494	1157
996.572	1603
996.649	-374
996.727	516
996.805	1028
996.883	1570
996.960	1006
997.038	1300
997.116	1070
997.193	174
997.271	347
997.348	-2
997.426	817
997.504	1297
997.581	1988
997.658	862
997.736	-312
997.813	507
997.891	513
997.968	319
998.046	1325
998.123	384
998.200	780
998.277	348
998.355	1578
998.432	-1026
998.509	788
998.586	781
998.663	907
998.741	-77
998.818	245
998.895	239
998.972	1132
999.049	591
999.126	-226
999.203	431
999.280	301
999.357	-158
999.434	186
999.511	382
999.587	884
999.664	-414
999.741	569
999.818	812
999.895	-34
999.971	60
1000.048	-307
1000.125	663
1000.202	-769
1000.278	372
1000.355	344
1000.431	348
1000.508	-311
1000.584	221
1000.661	-344
1000.738	315
1000.814	426
1000.890	476
1000.967	299
1001.043	387
1001.120	-1142
1001.196	230
1001.272	-1137
1001.349	39
1001.425	184
1001.501	639
1001.577	-453
1001.654	854
1001.730	-42
1001.806	142
1001.882	-784
1001.958	442
1002.034	828
1002.110	-540
1002.186	-334
1002.262	-178
1002.338	-329
1002.414	839
1002.490	450
1002.566	-661
1002.642	-637
1002.718	586
1002.794	-489
1002.870	-138
1002.945	-475
1003.021	58
1003.097	337
1003.173	25
1003.248	-577
1003.324	103
1003.400	-516
1003.475	-412
1003.551	173
1003.626	-145
1003.702	-499
1003.777	-945
1003.853	-1147
1003.928	-787
1004.004	-988
1004.079	-72
1004.155	31
1004.230	-933
1004.305	-273
1004.381	-625
1004.456	165
1004.531	-468
1004.607	-882
1004.682	-378
1004.757	-614
1004.832	-351
1004.907	-992
1004.982	-279
1005.057	-598
1005.133	-330
1005.208	-521
1005.283	-672
1005.358	160
1005.433	-723
1005.508	-237
1005.583	-1025
1005.657	-1080
1005.732	-304
1005.807	-313
1005.882	-988
1005.957	-1000
1006.032	-223
1006.106	-757
1006.181	54
1006.256	-104
1006.331	-490
1006.405	-719
1006.480	-1400
1006.554	-1159
1006.629	-664
1006.704	-4
1006.778	-549
1006.853	501
1006.927	-643
1007.002	-991
1007.076	-905
1007.150	-348
1007.225	-1260
1007.299	-1266
1007.373	-844
1007.448	-885
1007.522	-41
1007.596	-675
1007.671	-1231
1007.745	-976
1007.819	-1083
1007.893	-180
1007.967	-854
1008.041	-1248
1008.115	-241
1008.190	-520
1008.264	6
1008.338	-1595
1008.412	-827
1008.486	-88
1008.560	-596
1008.633	-895
1008.707	-281
1008.781	52
1008.855	-814
1008.929	-712
1009.003	-1161
1009.076	-744
1009.150	-916
1009.224	-190
1009.298	-1211
1009.371	-958
1009.445	-887
1009.519	-870
1009.592	-1385
1009.666	-1320
1009.739	-988
1009.813	-1511
1009.886	393
1009.960	-735
1010.033	-892
1010.107	63
1010.180	-1136
1010.253	-1321
1010.327	-1008
1010.400	-73
1010.473	-964
1010.547	-358
1010.620	-1226
1010.693	-763
1010.766	-659
1010.840	-882
1010.913	-1274
1010.986	-993
1011.059	-872
1011.132	-1308
1011.205	-522
1011.278	-1324
1011.351	-847
1011.424	-937
1011.497	-612
1011.570	-1204
1011.643	-1294
1011.716	-1497
1011.789	-1244
1011.862	-1134
1011.934	-1202
1012.007	-1442
1012.080	-1308
1012.153	-1429
1012.225	-1244
1012.298	-1298
1012.371	-1522
1012.443	-381
1012.516	-1696
1012.588	-557
1012.661	-273
1012.733	-1551
1012.806	-842
1012.879	-1903
1012.951	-878
1013.023	-788
1013.096	-1725
1013.168	-1104
1013.241	-998
1013.313	-522
1013.385	-1501
1013.458	-1191
1013.530	-528
1013.602	-1283
1013.674	-1199
1013.746	-1506
1013.819	-1347
1013.891	-489
1013.963	-710
1014.035	-880
1014.107	-817
1014.179	-752
1014.251	-2163
1014.323	-764
1014.395	-846
1014.467	-1147
1014.539	-676
1014.611	-1123
1014.683	-559
1014.754	-1235
1014.826	-939
1014.898	-618
1014.970	-2134
1015.042	-68
1015.113	-1269
1015.185	-249
1015.257	-937
1015.328	-1275
1015.400	-1069
1015.471	-861
1015.543	-1315
1015.615	-1380
1015.686	-1337
1015.757	-1199
1015.829	-1156
1015.901	-1080
1015.972	-1999
1016.043	-1029
1016.115	-1535
1016.186	-1158
1016.257	-2075
1016.328	-1290
1016.400	-1059
1016.471	-1138
1016.542	-1634
1016.613	-1508
1016.685	-1112
1016.756	-616
1016.827	-896
1016.898	-1545
1016.969	-441
1017.040	-1487
1017.111	-1327
1017.182	-2156
1017.253	-865
1017.324	-1567
1017.395	-1479
1017.466	-1604
1017.537	-1385
1017.608	-1802
1017.678	-1706
1017.749	-1210
1017.820	-1545
1017.891	-1576
1017.961	-1490
1018.032	-1448
1018.103	-1461
1018.173	-1428
1018.244	-1523
1018.315	-1113
1018.385	-1527
1018.456	-866
1018.526	-1672
1018.597	-1034
1018.667	-2075
1018.738	-394
1018.808	-1363
1018.878	-1865
1018.949	-1624
1019.019	-1796
1019.089	-1059
1019.160	-1298
1019.230	-1981
1019.300	-1020
1019.371	-2066
1019.441	-1239
1019.511	-1149
1019.581	-1706
1019.651	-946
1019.721	-1233
1019.791	-1478
1019.861	-1625
1019.931	-2044
1020.001	-672
1020.071	-1334
1020.141	-640
1020.211	-2452
1020.281	-1557
1020.351	-1746
1020.421	-1317
1020.491	-527
1020.560	-1946
1020.630	-2077
1020.700	-1717
1020.770	-1724
1020.839	-1486
1020.909	-1049
1020.979	-1395
1021.048	-1346
1021.118	-1325
1021.187	-1452
1021.257	-1703
1021.326	-1243
1021.396	-1196
1021.465	-918
1021.535	-1325
1021.604	-1372
1021.674	-1059
1021.743	-1459
1021.812	-1028
1021.882	-1509
1021.951	-1658
1022.020	-1195
1022.089	-817
1022.159	-1213
1022.228	-1167
1022.297	-881
1022.366	-1074
1022.435	-1947
1022.504	-1840
1022.573	-1891
1022.642	-575
1022.711	-1016
1022.781	-1044
1022.849	-1131
1022.918	-1409
1022.987	-1310
1023.056	-1491
1023.125	-989
1023.194	-1920
1023.263	-2381
1023.331	-737
1023.400	-1737
1023.469	-1878
1023.538	-1022
1023.606	-1471
1023.675	-1486
1023.744	-2311
1023.812	-2171
1023.881	-1298
1023.949	-1713
1024.018	-1702
1024.086	-1946
1024.155	-1511
1024.223	-1269
1024.292	-962
1024.360	-1441
1024.429	-1166
1024.497	-2165
1024.565	-1951
1024.634	-1421
1024.702	-2111
1024.770	-1583
1024.838	-1647
1024.907	-1628
1024.975	-2094
1025.043	-1018
1025.111	-1843
1025.179	-1133
1025.247	-1386
1025.315	-1397
1025.383	-1463
1025.451	-1495
1025.519	-1292
1025.587	-2191
1025.655	-1749
1025.723	-1624
1025.791	-1061
1025.859	-1351
1025.927	-1790
1025.995	-2146
1026.062	-1575
1026.130	-928
1026.198	-1887
1026.266	-1497
1026.333	-1257
1026.401	-1210
1026.469	-2332
1026.536	-1034
1026.604	-1326
1026.671	-1496
1026.739	-1699
1026.806	-1519
1026.874	-2549
1026.941	-2054
1027.009	-770
1027.076	-2267
1027.144	-1227
1027.211	-1455
1027.278	-2233
1027.345	-1337
1027.413	-2185
1027.480	-1592
1027.547	-1525
1027.614	-1537
1027.682	-1576
1027.749	-1865
1027.816	-1270
1027.883	-1108
1027.950	-1696
1028.017	-2464
1028.084	-1149
1028.151	-1835
1028.218	-2354
1028.285	-1846
1028.352	-1606
1028.419	-1886
1028.486	-2120
1028.553	-1681
1028.619	-1856
1028.686	-2338
1028.753	-2081
1028.820	-1679
1028.886	-1795
1028.953	-1688
1029.020	-2029
1029.086	-2063
1029.153	-1515
1029.220	-1191
1029.286	-1406
1029.353	-1171
1029.419	-2354
1029.486	-1647
1029.552	-1180
1029.619	-2414
1029.685	-1771
1029.751	-1786
1029.818	-1492
1029.884	-2051
1029.951	-697
1030.017	-2706
1030.083	-1275
1030.149	-2083
1030.216	-1733
1030.282	-1838
1030.348	-1694
1030.414	-1498
1030.480	-2381
1030.546	-1829
1030.612	-1474
1030.678	-1809
1030.744	-1842
1030.810	-1541
1030.876	-2276
1030.942	-1592
1031.008	-2344
1031.074	-2001
1031.140	-1329
1031.206	-1151
1031.272	-2017
1031.337	-1521
1031.403	-1498
1031.469	-2805
1031.534	-2221
1031.600	-1865
1031.666	-1510
1031.731	-2546
1031.797	-1494
1031.863	-1456
1031.928	-1544
1031.994	-2112
1032.059	-1091
1032.125	-2275
1032.190	-1474
1032.256	-1982
1032.321	-1690
1032.386	-1807
1032.452	-1696
1032.517	-1138
1032.582	-1382
1032.647	-1292
1032.713	-2289
1032.778	-1977
1032.843	-2098
1032.908	-1701
1032.974	-1667
1033.039	-1578
1033.104	-1334
1033.169	-1984
1033.234	-1830
1033.299	-1181
1033.364	-1487
1033.429	-1377
1033.494	-1706
1033.559	-1440
1033.624	-1071
1033.688	-1270
1033.753	-2198
1033.818	-1786
1033.883	-937
1033.948	-845
1034.013	-936
1034.077	-741
1034.142	776
1034.207	896
1034.271	2125
1034.336	3851
1034.400	4371
1034.465	1643
1034.530	-96
1034.594	-484
1034.658	-941
1034.723	-1910
1034.787	-2080
1034.852	-1884
1034.916	-2630
1034.981	-2216
1035.045	-1521
1035.109	-2171
1035.173	-1181
1035.238	-2110
1035.302	-1616
1035.366	-1820
1035.430	-1707
1035.495	-1717
1035.559	-1480
1035.623	-1251
1035.687	-3389
1035.751	-2028
1035.815	-2088
1035.879	-2395
1035.943	-1556
1036.007	-1752
1036.071	-1109
1036.135	-1559
1036.198	-2227
1036.262	-828
1036.326	-1503
1036.390	-1579
1036.454	-1596
1036.517	-1496
1036.581	-1380
1036.645	-948
1036.709	-352
1036.772	-1262
1036.836	-1550
1036.900	-1702
1036.963	-1699
1037.026	-1597
1037.090	-1895
1037.154	-1785
1037.217	-2464
1037.280	-1765
1037.344	-1709
1037.407	-2153
1037.471	-1381
1037.534	-982
1037.597	-1628
1037.661	-1334
1037.724	-775
1037.787	-2931
1037.850	-1859
1037.913	-2278
1037.977	-1552
1038.040	-1963
1038.103	-1849
1038.166	-2243
1038.229	-2251
1038.292	-1933
1038.355	-1952
1038.418	-2196
1038.481	-1148
1038.544	-2935
1038.607	-1758
1038.670	-1649
1038.732	-1531
1038.795	-1838
1038.858	-2187
1038.921	-2406
1038.984	-1600
1039.046	-2016
1039.109	-2122
1039.172	-1942
1039.234	-2258
1039.297	-2260
1039.360	-1312
1039.422	-1977
1039.485	-2288
1039.547	-2268
1039.610	-1891
1039.672	-1947
1039.734	-952
1039.797	-1848
1039.859	-1380
1039.922	-2124
1039.984	-2119
1040.046	-2174
1040.109	-1287
1040.171	-2455
1040.233	-1971
1040.295	-1836
1040.358	-2115
1040.420	-1732
1040.482	-1333
1040.544	-2311
1040.606	-1859
1040.668	-2229
1040.730	-2103
1040.792	-2010
1040.854	-2983
1040.916	-1529
1040.978	-1947
1041.040	-1808
1041.102	-2811
1041.164	-1820
1041.225	-2440
1041.287	-1815
1041.349	-2100
1041.411	-1723
1041.472	-1810
1041.534	-1653
1041.596	-2308
1041.657	-1000
1041.719	-1313
1041.781	-2776
1041.842	-2130
1041.904	-2521
1041.965	-1736
1042.027	-2499
1042.088	-2167
1042.150	-2038
1042.211	-1545
1042.272	-1341
1042.334	-2116
1042.395	-1952
1042.456	-3241
1042.518	-1928
1042.579	-2131
1042.640	-2061
1042.701	-2101
1042.763	-1644
1042.824	-2398
1042.885	-1872
1042.946	-2228
1043.007	-2691
1043.068	-1997
1043.129	-2013
1043.190	-2099
1043.251	-2383
1043.312	-2233
1043.373	-1560
1043.434	-1921
1043.495	-1893
1043.556	-2333
1043.616	-1567
1043.677	-1999
1043.738	-2016
1043.799	-2001
1043.859	-1173
1043.920	-1692
1043.981	-2175
1044.041	-2270
1044.102	-1614
1044.162	-2216
1044.223	-2300
1044.284	-2747
1044.344	-2094
1044.405	-2148
1044.465	-2244
1044.525	-2383
1044.586	-1495
1044.646	-2311
1044.707	-2086
1044.767	-2081
1044.827	-2509
1044.887	-2240
1044.948	-2077
1045.008	-2249
1045.068	-1580
1045.128	-1347
1045.188	-1897
1045.249	-1847
1045.309	-1485
1045.369	-1590
1045.429	-2065
1045.489	-1808
1045.549	-1727
1045.609	-1954
1045.669	-2317
1045.729	-2269
1045.789	-1834
1045.848	-2054
1045.908	-1652
1045.968	-952
1046.028	-1920
1046.088	-1355
1046.147	-1925
1046.207	-1705
1046.267	-1461
1046.326	-1805
1046.386	-1717
1046.446	-1595
1046.505	-1521
1046.565	-1408
1046.624	-1487
1046.684	-1028
1046.743	-945
1046.803	-1114
1046.862	-1142
1046.922	0
