'Start Wavelength	183.907
'End Wavelength	1046.922
'Gate Delay	5.000
'Gate Width (ms)	1.050
'Laser Output Level	0.000
'X Position	0.000
'Y Position	0.000
'Z Position	0.000
'Grid Point Number	1.000
'Shot Number	100.000
183.907	449.000
183.977	145.000
184.047	523
184.116	24
184.186	553
184.256	70
184.325	-87
184.395	-352
184.465	1017
184.534	-104
184.604	-429
184.674	-9
184.743	-995
184.813	-380
184.883	265
184.952	222
185.022	22
185.092	-225
185.161	712
185.231	-780
185.301	5
185.370	-325
185.440	464
185.509	-72
185.579	500
185.649	887
185.718	463
185.788	633
185.857	256
185.927	-219
185.996	-422
186.066	77
186.136	328
186.205	-446
186.275	200
186.344	141
186.414	-177
186.483	-215
186.553	931
186.622	1068
186.692	353
186.761	170
186.831	-221
186.900	79
186.970	739
187.039	357
187.109	804
187.178	-97
187.248	-4
187.317	643
187.387	178
187.456	612
187.526	212
187.595	-13
187.664	-396
187.734	-294
187.803	-266
187.873	627
187.942	734
188.012	195
188.081	701
188.150	277
188.220	1217
188.289	-247
188.358	726
188.428	82
188.497	-152
188.567	1072
188.636	478
188.705	-288
188.775	-446
188.844	477
188.913	294
188.983	-334
189.052	-494
189.121	163
189.191	677
189.260	366
189.329	80
189.399	-99
189.468	941
189.537	229
189.606	651
189.676	709
189.745	799
189.814	480
189.883	912
189.953	-533
190.022	-316
190.091	554
190.161	513
190.230	508
190.299	17
190.368	-207
190.437	-265
190.507	-604
190.576	-130
190.645	-321
190.714	48
190.783	520
190.853	-208
190.922	624
190.991	-6
191.060	583
191.129	163
191.198	-10
191.268	-29
191.337	-561
191.406	406
191.475	368
191.544	225
191.613	68
191.682	133
191.752	254
191.821	234
191.890	-550
191.959	366
192.028	-83
192.097	-46
192.166	-50
192.235	185
192.304	498
192.373	894
192.442	668
192.511	801
192.580	27
192.650	216
192.719	-246
192.788	-237
192.857	-88
192.926	277
192.995	623
193.064	1421
193.133	188
193.202	900
193.271	-139
193.340	243
193.409	255
193.478	249
193.547	623
193.615	727
193.684	520
193.753	449
193.822	228
193.891	677
193.960	249
194.029	296
194.098	803
194.167	81
194.236	89
194.305	1007
194.374	162
194.443	766
194.512	64
194.580	394
194.649	529
194.718	400
194.787	-58
194.856	-542
194.925	43
194.994	49
195.062	340
195.131	13
195.200	31
195.269	585
195.338	-829
195.407	-58
195.475	156
195.544	909
195.613	-262
195.682	-271
195.751	-19
195.819	1075
195.888	-283
195.957	1060
196.026	519
196.094	499
196.163	157
196.232	485
196.301	-138
196.369	544
196.438	683
196.507	1350
196.576	-36
196.644	29
196.713	636
196.782	196
196.850	540
196.919	1086
196.988	-227
197.056	-733
197.125	-130
197.194	414
197.262	-652
197.331	898
197.400	-196
197.468	508
197.537	-10
197.606	215
197.674	717
197.743	655
197.812	7
197.880	620
197.949	336
198.017	685
198.086	272
198.155	441
198.223	14
198.292	297
198.360	-173
198.429	335
198.497	109
198.566	1086
198.635	934
198.703	708
198.772	-315
198.840	417
198.909	-626
198.977	-177
199.046	98
199.114	388
199.183	367
199.251	662
199.320	-618
199.388	698
199.457	145
199.525	687
199.594	-702
199.662	740
199.731	243
199.799	1032
199.867	852
199.936	298
200.004	-756
200.073	918
200.141	117
200.210	196
200.278	37
200.346	632
200.415	506
200.483	481
200.552	1137
200.620	1067
200.688	566
200.757	521
200.825	-334
200.893	368
200.962	-287
201.030	1016
201.098	-206
201.167	214
201.235	-404
201.303	253
201.372	-52
201.440	306
201.508	794
201.577	643
201.645	251
201.713	325
201.781	189
201.850	602
201.918	-214
201.986	-191
202.055	181
202.123	48
202.191	129
202.259	343
202.327	43
202.396	689
202.464	78
202.532	1237
202.600	1974
202.669	842
202.737	316
202.805	-256
202.873	200
202.941	505
203.009	457
203.078	224
203.146	269
203.214	328
203.282	386
203.350	-226
203.418	297
203.487	545
203.555	113
203.623	601
203.691	100
203.759	331
203.827	43
203.895	935
203.963	47
204.031	1179
204.099	881
204.168	281
204.236	623
204.304	169
204.372	492
204.440	528
204.508	-745
204.576	-37
204.644	308
204.712	-538
204.780	180
204.848	252
204.916	-365
204.984	-64
205.052	687
205.120	111
205.188	13
205.256	101
205.324	304
205.392	352
205.460	140
205.528	-151
205.596	152
205.664	-247
205.732	-532
205.799	721
205.867	309
205.935	-96
206.003	-190
206.071	-618
206.139	-472
206.207	132
206.275	-443
206.343	-103
206.411	-659
206.478	67
206.546	145
206.614	481
206.682	451
206.750	113
206.818	627
206.885	696
206.953	-475
207.021	700
207.089	1032
207.157	696
207.225	-163
207.292	-340
207.360	286
207.428	39
207.496	259
207.563	262
207.631	538
207.699	-373
207.767	-119
207.834	-288
207.902	581
207.970	-247
208.038	52
208.105	195
208.173	244
208.241	271
208.309	488
208.376	132
208.444	-50
208.512	336
208.579	-806
208.647	1206
208.715	667
208.782	289
208.850	162
208.918	833
208.985	177
209.053	197
209.120	241
209.188	553
209.256	59
209.323	-289
209.391	784
209.459	497
209.526	-138
209.594	-127
209.661	273
209.729	532
209.796	-337
209.864	319
209.932	-877
209.999	833
210.067	-40
210.134	657
210.202	-209
210.269	1320
210.337	838
210.404	505
210.472	78
210.539	536
210.607	200
210.674	-77
210.742	1224
210.809	33
210.877	405
210.944	635
211.012	83
211.079	1202
211.146	-324
211.214	673
211.281	1746
211.349	561
211.416	709
211.484	599
211.551	-319
211.618	109
211.686	426
211.753	485
211.821	255
211.888	755
211.955	418
212.023	61
212.090	-395
212.157	-74
212.225	104
212.292	866
212.359	684
212.427	3548
212.494	638
212.561	252
212.629	-89
212.696	335
212.763	8
212.831	62
212.898	270
212.965	86
213.032	-360
213.100	337
213.167	-101
213.234	477
213.301	-136
213.369	410
213.436	-475
213.503	297
213.570	290
213.638	-495
213.705	-321
213.772	-498
213.839	502
213.906	-245
213.973	294
214.041	205
214.108	-183
214.175	126
214.242	150
214.309	478
214.376	359
214.444	-87
214.511	472
214.578	26
214.645	1305
214.712	482
214.779	49
214.846	-46
214.913	514
214.980	1122
215.048	1828
215.115	1881
215.182	1162
215.249	599
215.316	777
215.383	727
215.450	194
215.517	264
215.584	-550
215.651	-541
215.718	397
215.785	732
215.852	-457
215.919	-440
215.986	-56
216.053	536
216.120	-1082
216.187	35
216.254	235
216.321	658
216.388	-754
216.455	-546
216.522	182
216.589	320
216.656	206
216.722	194
216.789	-198
216.856	-142
216.923	-727
216.990	352
217.057	707
217.124	710
217.191	543
217.258	959
217.324	96
217.391	744
217.458	-26
217.525	-132
217.592	38
217.659	-42
217.725	131
217.792	-203
217.859	-379
217.926	456
217.993	184
218.059	295
218.126	-302
218.193	27
218.260	-180
218.327	-1105
218.393	-709
218.460	113
218.527	-137
218.594	-142
218.660	59
218.727	161
218.794	-174
218.860	-106
218.927	-1459
218.994	145
219.061	-704
219.127	817
219.194	281
219.261	20
219.327	-623
219.394	1252
219.461	-423
219.527	-275
219.594	-92
219.661	-578
219.727	37
219.794	820
219.860	476
219.927	1450
219.994	3120
220.060	4816
220.127	3988
220.193	1857
220.260	788
220.326	982
220.393	1454
220.460	1100
220.526	1178
220.593	477
220.659	1122
220.726	137
220.792	2120
220.859	1338
220.925	2781
220.992	3045
221.058	3140
221.125	2058
221.191	1576
221.258	561
221.324	60
221.391	232
221.457	-70
221.524	149
221.590	1016
221.657	2524
221.723	818
221.789	1073
221.856	441
221.922	145
221.989	552
222.055	-404
222.121	-136
222.188	1050
222.254	467
222.321	707
222.387	114
222.453	-220
222.520	-838
222.586	288
222.652	-631
222.719	-224
222.785	198
222.851	-207
222.918	-199
222.984	-112
223.050	-604
223.116	-1265
223.183	-7
223.249	-234
223.315	-993
223.382	-1378
223.448	-855
223.514	-14
223.580	-345
223.647	-199
223.713	-249
223.779	-160
223.845	-188
223.911	-200
223.978	-717
224.044	301
224.110	-1179
224.176	641
224.242	-392
224.309	3
224.375	247
224.441	225
224.507	-1119
224.573	353
224.639	-403
224.705	-343
224.772	144
224.838	-512
224.904	-315
224.970	306
225.036	429
225.102	-245
225.168	13
225.234	48
225.300	-29
225.366	216
225.432	-35
225.499	640
225.565	95
225.631	735
225.697	-1087
225.763	367
225.829	-360
225.895	374
225.961	-610
226.027	-33
226.093	432
226.159	849
226.225	2733
226.291	4642
226.357	4980
226.423	2415
226.489	1619
226.554	401
226.620	-193
226.686	306
226.752	2290
226.818	4292
226.884	10155
226.950	5522
227.016	2029
227.082	1651
227.148	1011
227.214	293
227.279	633
227.345	1582
227.411	2341
227.477	6220
227.543	9234
227.609	9886
227.674	3662
227.740	1867
227.806	1363
227.872	803
227.938	213
228.003	286
228.069	448
228.135	326
228.201	-817
228.267	380
228.332	-391
228.398	-547
228.464	-231
228.530	-33
228.595	-771
228.661	-275
228.727	-456
228.792	594
228.858	-642
228.924	-942
228.990	280
229.055	188
229.121	-442
229.187	-180
229.252	261
229.318	-162
229.384	24
229.449	202
229.515	99
229.581	-800
229.646	731
229.712	595
229.777	555
229.843	515
229.909	225
229.974	723
230.040	-268
230.105	-227
230.171	-347
230.236	-430
230.302	-125
230.368	39
230.433	-10
230.499	409
230.564	262
230.630	-471
230.695	-169
230.761	363
230.826	-616
230.892	448
230.957	-811
231.023	273
231.088	-15
231.154	53
231.219	231
231.284	-55
231.350	356
231.415	495
231.481	-1025
231.546	-577
231.612	-478
231.677	-145
231.742	-1286
231.808	265
231.873	-458
231.939	-875
232.004	653
232.069	494
232.135	-36
232.200	6
232.265	-95
232.331	-92
232.396	-436
232.461	-530
232.527	-571
232.592	-29
232.657	854
232.723	99
232.788	-745
232.853	107
232.918	98
232.984	-40
233.049	175
233.114	89
233.179	1015
233.245	766
233.310	-755
233.375	-354
233.440	36
233.506	51
233.571	-225
233.636	94
233.701	-329
233.766	79
233.832	-466
233.897	688
233.962	-847
234.027	500
234.092	914
234.157	513
234.222	1052
234.288	1062
234.353	599
234.418	878
234.483	348
234.548	104
234.613	-671
234.678	-304
234.743	-570
234.808	1480
234.873	-66
234.938	281
235.004	-99
235.069	675
235.134	-420
235.199	-55
235.264	334
235.329	-500
235.394	206
235.459	-103
235.524	-318
235.589	463
235.654	-182
235.719	-735
235.784	380
235.849	405
235.913	344
235.978	394
236.043	-31
236.108	381
236.173	76
236.238	704
236.303	180
236.368	264
236.433	505
236.498	804
236.563	399
236.627	4091
236.692	14265
236.757	7027
236.822	2399
236.887	1296
236.952	1144
237.017	1028
237.081	1207
237.146	1426
237.211	4491
237.276	17152
237.341	18627
237.405	4765
237.470	2094
237.535	1638
237.600	1244
237.664	1410
237.729	-17
237.794	1047
237.859	1993
237.923	631
237.988	315
238.053	1315
238.118	435
238.182	1975
238.247	1656
238.312	-682
238.376	981
238.441	-558
238.506	615
238.570	-69
238.635	943
238.700	866
238.764	-199
238.829	1369
238.893	268
238.958	278
239.023	419
239.087	747
239.152	623
239.216	550
239.281	883
239.346	633
239.410	436
239.475	703
239.539	2512
239.604	1905
239.668	2375
239.733	4190
239.797	12430
239.862	20639
239.926	11951
239.991	5401
240.055	2049
240.120	2140
240.184	798
240.249	1059
240.313	96
240.378	650
240.442	1286
240.507	1830
240.571	863
240.635	1176
240.700	722
240.764	1011
240.829	756
240.893	-185
240.957	825
241.022	1562
241.086	1936
241.151	-71
241.215	207
241.279	989
241.344	189
241.408	878
241.472	-296
241.537	556
241.601	977
241.665	-247
241.730	-10
241.794	1113
241.858	-343
241.922	-655
241.987	507
242.051	-161
242.115	354
242.179	553
242.244	-1004
242.308	1230
242.372	362
242.436	13
242.501	319
242.565	347
242.629	-683
242.693	706
242.757	-780
242.822	366
242.886	355
242.950	364
243.014	-543
243.078	494
243.142	98
243.206	277
243.271	500
243.335	-2
243.399	1002
243.463	5669
243.527	8971
243.591	1023
243.655	293
243.719	3
243.783	789
243.847	850
243.911	1067
243.975	584
244.040	-438
244.104	1048
244.168	791
244.232	1476
244.296	-135
244.360	741
244.424	-583
244.488	168
244.552	442
244.615	373
244.679	-184
244.743	1099
244.807	-525
244.871	-226
244.935	449
244.999	-754
245.063	94
245.127	1219
245.191	86
245.255	858
245.319	518
245.383	-10
245.446	892
245.510	606
245.574	-95
245.638	1069
245.702	69
245.766	1547
245.829	707
245.893	580
245.957	187
246.021	807
246.085	240
246.149	696
246.212	2776
246.276	3307
246.340	744
246.404	428
246.467	760
246.531	-341
246.595	1044
246.659	1189
246.722	197
246.786	833
246.850	546
246.913	507
246.977	375
247.041	416
247.104	43
247.168	515
247.232	2990
247.295	5296
247.359	1274
247.423	1033
247.486	1938
247.550	902
247.614	101
247.677	592
247.741	614
247.804	1079
247.868	2687
247.932	2698
247.995	4464
248.059	1142
248.122	-26
248.186	1528
248.249	2789
248.313	11109
248.376	6644
248.440	4229
248.503	338
248.567	2559
248.630	1238
248.694	1582
248.757	4449
248.821	9658
248.884	3444
248.948	4559
249.011	6756
249.075	12203
249.138	5796
249.202	1971
249.265	655
249.328	1581
249.392	515
249.455	800
249.519	1118
249.582	1301
249.645	2717
249.709	1750
249.772	1202
249.835	1335
249.899	689
249.962	2000
250.025	299
250.089	4459
250.152	3126
250.215	1419
250.279	174
250.342	1057
250.405	1352
250.468	336
250.532	1513
250.595	3448
250.658	17730
250.721	16162
250.785	3614
250.848	3398
250.911	1573
250.974	2667
251.038	3509
251.101	5113
251.164	1593
251.227	2473
251.290	1943
251.354	5823
251.417	22564
251.480	10989
251.543	12816
251.606	38383
251.669	15359
251.732	5340
251.795	7755
251.859	9263
251.922	21036
251.985	7105
252.048	3824
252.111	2248
252.174	2980
252.237	6783
252.300	9709
252.363	15854
252.426	25329
252.489	5939
252.552	2598
252.615	1979
252.678	3774
252.741	9225
252.804	15991
252.867	25933
252.930	10177
252.993	5182
253.056	3532
253.119	2021
253.182	1198
253.245	2317
253.308	2206
253.371	1169
253.434	375
253.497	2779
253.559	4909
253.622	2368
253.685	2535
253.748	1541
253.811	718
253.874	2577
253.937	598
254.000	1745
254.062	3889
254.125	3920
254.188	4186
254.251	1762
254.314	628
254.376	1930
254.439	2167
254.502	2721
254.565	4392
254.628	4750
254.690	1307
254.753	564
254.816	1048
254.878	1938
254.941	4992
255.004	2802
255.067	1518
255.129	1573
255.192	968
255.255	281
255.317	661
255.380	898
255.443	1014
255.505	1497
255.568	355
255.631	1406
255.693	1960
255.756	639
255.819	1965
255.881	1424
255.944	590
256.006	1608
256.069	692
256.132	1139
256.194	492
256.257	1780
256.319	942
256.382	3615
256.444	3500
256.507	2180
256.569	1762
256.632	1210
256.694	1594
256.757	11259
256.819	17851
256.882	4173
256.944	2055
257.007	2041
257.069	803
257.132	487
257.194	1341
257.257	1129
257.319	965
257.381	468
257.444	7928
257.506	31802
257.569	16466
257.631	4813
257.693	2729
257.756	1704
257.818	1380
257.880	949
257.943	1495
258.005	541
258.067	798
258.130	986
258.192	861
258.254	716
258.317	648
258.379	1159
258.441	3168
258.503	2343
258.566	1932
258.628	2153
258.690	14
258.753	1916
258.815	319
258.877	960
258.939	1086
259.001	1630
259.064	547
259.126	143
259.188	851
259.250	1443
259.312	999
259.375	1068
259.437	781
259.499	1096
259.561	870
259.623	1291
259.685	-242
259.747	1055
259.809	2506
259.872	3244
259.934	6989
259.996	5174
260.058	1225
260.120	651
260.182	908
260.244	1353
260.306	734
260.368	882
260.430	1007
260.492	2806
260.554	2649
260.616	1105
260.678	3564
260.740	2422
260.802	416
260.864	1836
260.926	592
260.988	1947
261.050	1690
261.112	4178
261.174	5389
261.236	2105
261.298	484
261.359	1585
261.421	2625
261.483	1145
261.545	2042
261.607	799
261.669	1403
261.731	1689
261.793	2688
261.854	619
261.916	1411
261.978	2055
262.040	956
262.102	1158
262.164	429
262.225	1037
262.287	1188
262.349	1544
262.411	1228
262.472	1915
262.534	1306
262.596	2152
262.658	794
262.719	863
262.781	1632
262.843	1666
262.904	1303
262.966	1715
263.028	670
263.090	6892
263.151	9467
263.213	2721
263.275	1552
263.336	842
263.398	1743
263.459	1372
263.521	528
263.583	2442
263.644	1138
263.706	1278
263.767	435
263.829	1252
263.891	532
263.952	1233
264.014	727
264.075	2794
264.137	2874
264.198	1977
264.260	278
264.321	936
264.383	2944
264.444	5300
264.506	1092
264.567	1498
264.629	4282
264.690	3628
264.752	1940
264.813	1335
264.875	332
264.936	2026
264.998	1596
265.059	1843
265.120	1941
265.182	3729
265.243	12002
265.305	5975
265.366	1729
265.427	1533
265.489	2811
265.550	-97
265.611	1002
265.673	1655
265.734	867
265.795	1357
265.857	1322
265.918	205
265.979	4948
266.040	21127
266.102	7822
266.163	3798
266.224	1902
266.286	1289
266.347	335
266.408	888
266.469	1603
266.530	1310
266.592	1217
266.653	2127
266.714	1564
266.775	1600
266.836	558
266.898	353
266.959	1061
267.020	1157
267.081	1726
267.142	872
267.203	1711
267.264	-143
267.326	1755
267.387	1296
267.448	659
267.509	1179
267.570	1135
267.631	1192
267.692	927
267.753	1877
267.814	420
267.875	2298
267.936	2361
267.997	1679
268.058	452
268.119	358
268.180	1021
268.241	114
268.302	871
268.363	1048
268.424	633
268.485	1154
268.546	104
268.607	1160
268.668	575
268.729	978
268.790	-88
268.851	1255
268.912	1255
268.972	1568
269.033	638
269.094	179
269.155	538
269.216	56
269.277	406
269.338	2004
269.398	1294
269.459	630
269.520	1382
269.581	605
269.642	857
269.702	542
269.763	609
269.824	1076
269.885	894
269.945	1000
270.006	721
270.067	-41
270.128	268
270.188	439
270.249	83
270.310	681
270.370	1445
270.431	1595
270.492	206
270.553	1003
270.613	1249
270.674	2177
270.734	850
270.795	1133
270.856	1586
270.916	-100
270.977	793
271.038	1495
271.098	722
271.159	1256
271.219	848
271.280	710
271.340	657
271.401	780
271.462	612
271.522	1403
271.583	776
271.643	734
271.704	770
271.764	1139
271.825	2277
271.885	11427
271.946	7110
272.006	3816
272.066	8649
272.127	11889
272.187	9431
272.248	4055
272.308	3038
272.369	7540
272.429	2418
272.489	2232
272.550	2071
272.610	2451
272.671	1309
272.731	1745
272.791	1392
272.852	1215
272.912	1692
272.972	1953
273.033	1885
273.093	1076
273.153	1941
273.214	1560
273.274	1993
273.334	7502
273.394	6628
273.455	2426
273.515	4359
273.575	4983
273.635	3031
273.696	6842
273.756	6943
273.816	3181
273.876	2493
273.936	3826
273.997	3111
274.057	1953
274.117	2447
274.177	3847
274.237	11471
274.297	5116
274.358	3970
274.418	6063
274.478	3204
274.538	1526
274.598	783
274.658	3970
274.718	2292
274.778	2040
274.838	1853
274.898	2738
274.958	5353
275.018	9612
275.078	3370
275.138	2571
275.198	1483
275.258	2150
275.318	1936
275.378	1007
275.438	1663
275.498	1687
275.558	3364
275.618	6338
275.678	3089
275.738	3833
275.798	2904
275.858	1609
275.918	1424
275.978	2541
276.038	1746
276.098	2012
276.157	1959
276.217	4495
276.277	1895
276.337	1654
276.397	1464
276.457	2469
276.517	1235
276.576	1893
276.636	925
276.696	2171
276.756	3639
276.815	2084
276.875	2153
276.935	2238
276.995	1616
277.055	2772
277.114	2970
277.174	2577
277.234	2677
277.293	1894
277.353	1115
277.413	1607
277.472	1228
277.532	1936
277.592	3667
277.651	18692
277.711	14633
277.771	9015
277.830	24287
277.890	11608
277.950	20622
278.009	32801
278.069	10780
278.128	22370
278.188	14692
278.248	12206
278.307	25068
278.367	8832
278.426	4286
278.486	3226
278.545	2389
278.605	3067
278.664	2364
278.724	2431
278.783	6424
278.843	8920
278.902	3502
278.962	3095
279.021	3499
279.081	5485
279.140	4357
279.199	3668
279.259	3967
279.318	5319
279.378	6360
279.437	11285
279.496	33665
279.556	92037
279.615	42190
279.675	14513
279.734	10614
279.793	12403
279.853	10875
279.912	6778
279.971	5298
280.031	4991
280.090	8371
280.149	10241
280.208	17593
280.268	70966
280.327	37709
280.386	11042
280.445	7510
280.505	4846
280.564	4562
280.623	3919
280.682	4716
280.742	4799
280.801	2466
280.860	2710
280.919	2291
280.978	2689
281.037	2443
281.097	1226
281.156	3114
281.215	2895
281.274	3339
281.333	6973
281.392	3259
281.451	1898
281.510	2032
281.569	2282
281.628	1668
281.688	1986
281.747	1878
281.806	1954
281.865	1814
281.924	2132
281.983	1598
282.042	998
282.101	1661
282.160	2573
282.219	1908
282.278	1814
282.337	3369
282.396	2250
282.454	1685
282.513	2867
282.572	3839
282.631	2152
282.690	2000
282.749	1664
282.808	1413
282.867	2034
282.926	1934
282.985	1549
283.043	1666
283.102	2047
283.161	2162
283.220	3639
283.279	4512
283.338	2287
283.396	879
283.455	2464
283.514	1756
283.573	2720
283.631	2624
283.690	2455
283.749	1659
283.808	3169
283.866	2827
283.925	2340
283.984	2159
284.043	2628
284.101	2857
284.160	2539
284.219	3634
284.277	3329
284.336	3856
284.395	7174
284.453	4649
284.512	4830
284.570	4743
284.629	4856
284.688	6602
284.746	7235
284.805	8549
284.863	11890
284.922	13828
284.981	18666
285.039	28515
285.098	51672
285.156	94594
285.215	102190
285.273	105560
285.332	71930
285.390	42041
285.449	26833
285.507	18968
285.566	14335
285.624	10967
285.683	9277
285.741	7128
285.799	7195
285.858	4881
285.916	4924
285.975	4538
286.033	4149
286.091	3645
286.150	3927
286.208	3351
286.267	4582
286.325	2983
286.383	3663
286.442	2408
286.500	2520
286.558	1948
286.616	2751
286.675	2797
286.733	1880
286.791	2460
286.850	2915
286.908	2320
286.966	3304
287.024	1711
287.083	2267
287.141	1686
287.199	2325
287.257	2299
287.315	2065
287.374	2895
287.432	2712
287.490	1910
287.548	2674
287.606	1328
287.664	2319
287.723	1712
287.781	3282
287.839	1585
287.897	2786
287.955	2711
288.013	4199
288.071	7235
288.129	37997
288.187	56138
288.245	16905
288.303	7502
288.361	4946
288.419	3948
288.477	3013
288.535	2796
288.593	2728
288.651	1644
288.709	2414
288.767	2121
288.825	1416
288.883	1694
288.941	2256
288.999	1050
289.057	1555
289.115	1748
289.173	2177
289.231	1789
289.289	1317
289.346	1857
289.404	3553
289.462	2381
289.520	2167
289.578	2609
289.636	1411
289.694	1559
289.751	3008
289.809	1694
289.867	1885
289.925	1879
289.983	1471
290.040	1887
290.098	2669
290.156	1400
290.214	2408
290.271	1878
290.329	2814
290.387	1426
290.444	2268
290.502	2212
290.560	2056
290.617	1356
290.675	1775
290.733	1350
290.790	2127
290.848	1898
290.906	2901
290.963	1120
291.021	2536
291.078	1347
291.136	2307
291.194	4211
291.251	4480
291.309	1782
291.366	2153
291.424	1781
291.481	1796
291.539	2035
291.596	2703
291.654	2042
291.711	1883
291.769	2722
291.826	2161
291.884	1894
291.941	1278
291.999	1858
292.056	1754
292.114	1325
292.171	2620
292.228	2949
292.286	2375
292.343	1892
292.401	2506
292.458	1741
292.515	1624
292.573	2749
292.630	1563
292.687	2067
292.745	2125
292.802	2328
292.859	4557
292.917	4682
292.974	2643
293.031	1739
293.089	1770
293.146	1401
293.203	2209
293.260	1647
293.318	1221
293.375	3109
293.432	3035
293.489	2623
293.546	2681
293.604	3290
293.661	6790
293.718	9212
293.775	5113
293.832	5113
293.889	4251
293.947	3413
294.004	1967
294.061	2387
294.118	4145
294.175	6847
294.232	7456
294.289	3888
294.346	3449
294.403	2976
294.460	2157
294.517	2325
294.574	2211
294.631	2336
294.688	3221
294.745	5936
294.802	13447
294.859	7983
294.916	4046
294.973	2575
295.030	1606
295.087	1935
295.144	2168
295.201	2956
295.258	2449
295.315	2068
295.372	6267
295.429	6348
295.486	3166
295.542	3399
295.599	8429
295.656	7370
295.713	6650
295.770	5006
295.827	2964
295.883	2255
295.940	2581
295.997	2279
296.054	3274
296.111	1096
296.167	2411
296.224	1520
296.281	1982
296.338	1451
296.394	3114
296.451	1144
296.508	4713
296.564	4234
296.621	4030
296.678	11665
296.734	9593
296.791	3418
296.848	2958
296.904	2456
296.961	5108
297.018	7361
297.074	5613
297.131	2901
297.187	3084
297.244	3863
297.301	13056
297.357	12679
297.414	4477
297.470	3766
297.527	2701
297.583	2788
297.640	2397
297.696	2080
297.753	1509
297.809	1672
297.866	1931
297.922	2128
297.979	2336
298.035	1562
298.092	2978
298.148	4463
298.204	3611
298.261	3187
298.317	7280
298.374	9967
298.430	4518
298.486	2478
298.543	2680
298.599	2129
298.656	2517
298.712	4278
298.768	5007
298.824	2837
298.881	2622
298.937	2201
298.993	2098
299.050	1513
299.106	3002
299.162	1801
299.218	2017
299.275	2335
299.331	3375
299.387	5835
299.443	18312
299.500	24361
299.556	12252
299.612	6652
299.668	9726
299.724	23816
299.780	16362
299.837	7903
299.893	8942
299.949	21826
300.005	19827
300.061	23868
300.117	24859
300.173	9512
300.229	5788
300.285	4547
300.341	4020
300.397	3465
300.453	4161
300.510	3579
300.566	5101
300.622	13642
300.678	37472
300.734	27242
300.790	15638
300.845	14924
300.901	23256
300.957	21078
301.013	8533
301.069	5171
301.125	4273
301.181	3354
301.237	3713
301.293	2054
301.349	3022
301.405	2807
301.461	2631
301.516	2534
301.572	2521
301.628	2719
301.684	2411
301.740	4023
301.796	3561
301.851	3711
301.907	4586
301.963	5439
302.019	15133
302.074	26420
302.130	17435
302.186	8254
302.242	4194
302.297	3305
302.353	3764
302.409	5589
302.464	3435
302.520	4127
302.576	9133
302.631	7460
302.687	3322
302.743	2446
302.798	2871
302.854	1988
302.910	2038
302.965	2334
303.021	2699
303.076	2968
303.132	3360
303.187	2842
303.243	2295
303.299	1594
303.354	2121
303.410	1823
303.465	2043
303.521	1100
303.576	2311
303.632	2125
303.687	4121
303.743	8881
303.798	5331
303.853	3739
303.909	3430
303.964	2017
304.020	2760
304.075	2064
304.130	2425
304.186	2659
304.241	4412
304.297	2684
304.352	2467
304.358	2378
304.407	1653
304.449	2378
304.463	2625
304.518	1446
304.539	1848
304.573	2490
304.629	2433
304.630	2465
304.684	3923
304.720	6964
304.739	8488
304.794	8366
304.811	7068
304.850	4000
304.902	2674
304.905	2594
304.960	2339
304.992	2614
305.015	2780
305.071	2192
305.083	2281
305.126	2627
305.173	1449
305.181	1255
305.236	1930
305.264	2110
305.292	2264
305.347	2280
305.354	2213
305.402	1868
305.445	2434
305.457	2581
305.512	2776
305.535	2550
305.567	2249
305.622	2317
305.626	2418
305.678	4257
305.716	6571
305.733	7456
305.788	6100
305.807	5801
305.843	5383
305.897	8912
305.898	8955
305.953	5960
305.988	4422
306.008	3653
306.063	2791
306.078	2703
306.118	2613
306.168	1911
306.173	1836
306.228	2039
306.259	2003
306.283	2012
306.338	1546
306.349	1552
306.393	1497
306.440	2267
306.448	2415
306.503	2106
306.530	2256
306.558	2552
306.613	3158
306.620	3335
306.668	4551
306.711	5121
306.723	5129
306.778	4382
306.801	3797
306.833	2984
306.888	2603
306.892	2536
306.943	2045
306.982	1866
306.997	1845
307.052	1741
307.072	2142
307.107	2732
307.162	2745
307.163	2744
307.217	2944
307.253	3386
307.272	3508
307.327	3201
307.343	3050
307.381	2786
307.434	2897
307.436	2932
307.491	4323
307.524	5066
307.546	5164
307.600	4635
307.614	4177
307.655	2853
307.704	2578
307.710	2623
307.765	3199
307.795	3907
307.819	4342
307.874	4898
307.885	4897
307.929	4942
307.975	5309
307.984	5511
308.038	6564
308.065	8589
308.093	14563
308.148	33203
308.156	37141
308.202	53442
308.246	50488
308.257	47247
308.312	23099
308.336	15559
308.366	11527
308.421	7131
308.426	6885
308.475	5547
308.517	4909
308.530	4781
308.585	4174
308.607	3938
308.639	3900
308.694	4784
308.697	4836
308.748	5620
308.787	6133
308.803	6061
308.857	5082
308.877	4726
308.912	4715
308.967	5410
308.967	5431
309.021	8275
309.058	10615
309.076	12747
309.130	20384
309.148	24216
309.185	42570
309.238	78503
309.239	78655
309.293	76778
309.328	62493
309.348	52005
309.402	26141
309.418	20427
309.457	15396
309.508	10592
309.511	10494
309.566	10888
309.598	12043
309.620	13992
309.674	20139
309.688	21486
309.729	20064
309.778	15725
309.783	15320
309.837	10465
309.868	8517
309.892	8338
309.946	8620
309.959	8729
310.001	8830
310.049	8685
310.055	8434
310.109	5893
310.139	4622
310.163	4187
310.218	3324
310.229	3207
310.272	3207
310.319	3145
310.326	3121
310.381	2997
310.409	3066
310.435	3088
310.489	2585
310.499	2577
310.543	2830
310.589	2999
310.598	2987
310.652	2901
310.679	2802
310.706	2786
310.760	2734
310.769	2751
310.814	3071
310.859	3228
310.868	3222
310.923	3300
310.948	3265
310.977	3283
311.031	3402
311.038	3412
311.085	3153
311.128	2820
311.139	2847
311.193	3018
311.218	3118
311.247	3292
311.301	3484
311.308	3508
311.356	3378
311.398	3234
311.410	3240
311.464	3334
311.488	3295
311.518	3227
311.572	3183
311.578	3169
311.626	3179
311.668	3233
311.680	3269
311.734	3290
311.758	3328
311.788	3252
311.842	3121
311.847	3098
311.896	4226
311.937	5258
311.950	4965
312.004	3585
312.027	2983
312.058	2906
312.112	2781
312.117	2767
312.165	3446
312.207	4027
312.297	3808
312.386	3463
312.476	3471
312.566	3678
312.656	4183
312.745	4041
312.835	3181
312.925	3449
313.015	4172
313.104	3590
313.194	4479
313.284	4620
313.374	4515
313.463	4191
313.553	5074
313.643	4623
313.732	4798
313.822	5118
313.912	6052
314.001	5476
314.091	6226
314.180	6405
314.270	6907
314.360	6316
314.449	5340
314.539	5485
314.628	6232
314.718	5715
314.808	6557
314.897	6579
314.987	7123
315.076	7578
315.166	7192
315.255	7473
315.345	7099
315.434	6573
315.524	6352
315.613	7529
315.703	8787
315.792	19625
315.881	38925
315.971	13861
316.060	8970
316.150	8048
316.239	7871
316.328	7129
316.418	7685
316.507	6611
316.597	7574
316.686	7886
316.775	7876
316.865	8046
316.954	6514
317.043	7182
317.133	5785
317.222	5711
317.311	5379
317.400	4956
317.490	5593
317.579	6323
317.668	6178
317.757	9472
317.847	29312
317.936	58965
318.025	19765
318.114	18594
318.203	9956
318.293	8674
318.382	11783
318.471	12133
318.560	13097
318.649	17286
318.738	7471
318.828	6139
318.917	5078
319.006	6233
319.095	8011
319.184	17742
319.273	9359
319.362	6398
319.451	4322
319.540	5081
319.629	5926
319.718	6492
319.807	5913
319.896	9388
319.985	20619
320.074	8273
320.163	5433
320.252	5698
320.341	5813
320.430	5712
320.519	6891
320.608	6400
320.697	6856
320.786	6639
320.875	8548
320.964	9353
321.053	9360
321.142	9975
321.230	12070
321.319	12512
321.408	15608
321.497	13471
321.586	11822
321.675	10841
321.764	9540
321.852	10097
321.941	10247
322.030	10331
322.119	10755
322.207	13084
322.296	15038
322.385	16064
322.474	17829
322.562	19356
322.651	14864
322.740	11341
322.829	10798
322.917	9630
323.006	8247
323.095	7934
323.183	7465
323.272	8901
323.361	9567
323.449	13506
323.538	7578
323.626	10312
323.715	7551
323.804	6846
323.892	9560
323.981	6720
324.069	6558
324.158	7952
324.246	7681
324.335	5964
324.424	6555
324.512	5825
324.601	5854
324.689	6193
324.778	7558
324.866	5695
324.954	4730
325.043	4911
325.131	5411
325.220	6383
325.308	6195
325.397	5116
325.485	5327
325.574	4746
325.662	5361
325.750	4771
325.839	4798
325.927	4542
326.015	5224
326.104	4719
326.192	5699
326.280	5081
326.369	4589
326.457	4881
326.545	4988
326.634	4489
326.722	5211
326.810	4984
326.898	6055
326.987	5730
327.075	5852
327.163	5792
327.251	5608
327.340	6278
327.428	7102
327.516	7818
327.604	6335
327.692	5487
327.781	5818
327.869	5392
327.957	5285
328.045	4930
328.133	5025
328.221	4914
328.309	4228
328.397	4635
328.485	5893
328.574	8621
328.662	11604
328.750	7947
328.838	6448
328.926	4510
329.014	5752
329.102	4904
329.190	7034
329.278	5241
329.366	5488
329.454	4481
329.542	4621
329.630	4654
329.718	5108
329.806	4724
329.893	5288
329.981	5011
330.069	5247
330.157	7734
330.245	13090
330.333	8367
330.421	5289
330.509	4976
330.597	6605
330.684	5561
330.772	5485
330.860	6641
330.948	6121
331.036	4823
331.123	5710
331.211	5058
331.299	5076
331.387	6156
331.475	7352
331.562	5189
331.650	5495
331.738	5020
331.825	5660
331.913	4986
332.001	4843
332.089	4509
332.176	6367
332.264	7227
332.352	6217
332.439	5569
332.527	6032
332.614	5159
332.702	5307
332.790	5109
332.877	5314
332.965	7779
333.052	6547
333.140	7002
333.228	9937
333.315	5629
333.403	5892
333.490	7434
333.578	7467
333.665	13541
333.753	8367
333.840	6084
333.928	6621
334.015	9042
334.103	13733
334.190	25291
334.278	15578
334.365	20501
334.452	20195
334.540	13443
334.627	12494
334.715	16246
334.802	22725
334.889	43649
334.977	52224
335.064	30889
335.151	15790
335.239	12073
335.326	11506
335.413	20652
335.501	20124
335.588	11020
335.675	11843
335.762	14218
335.850	18724
335.937	24912
336.024	42903
336.111	72371
336.199	59462
336.286	27219
336.373	15834
336.460	11816
336.547	10605
336.635	8762
336.722	7672
336.809	7052
336.896	7322
336.983	9645
337.070	18423
337.157	23344
337.245	13745
337.332	9917
337.419	6553
337.506	6669
337.593	6485
337.680	9923
337.767	16204
337.854	7466
337.941	8245
338.028	7190
338.115	5786
338.202	7005
338.289	7861
338.376	10685
338.463	6934
338.550	12029
338.637	11456
338.724	6292
338.811	7080
338.898	5824
338.984	5715
339.071	5539
339.158	5538
339.245	7365
339.332	6141
339.419	6429
339.506	7142
339.593	5167
339.679	5331
339.766	5366
339.853	4852
339.940	5337
340.027	6230
340.113	5155
340.200	4913
340.287	4936
340.374	4809
340.460	5595
340.547	4835
340.634	5597
340.720	6631
340.807	5423
340.894	4873
340.980	5486
341.067	5558
341.154	5137
341.240	5892
341.327	6654
341.414	5155
341.500	5881
341.587	5016
341.674	5491
341.760	6465
341.847	5373
341.933	5510
342.020	4752
342.106	5684
342.193	5251
342.279	5742
342.366	5095
342.452	5347
342.539	5455
342.625	5602
342.712	6663
342.798	5892
342.885	5158
342.971	4071
343.058	5243
343.144	4942
343.230	5193
343.317	5354
343.403	5262
343.490	4822
343.576	4331
343.662	5476
343.749	4812
343.835	5193
343.921	6138
344.008	16503
344.094	24810
344.180	8746
344.267	4666
344.353	10068
344.439	9434
344.525	5151
344.612	6535
344.698	6289
344.784	5441
344.870	5984
344.957	4988
345.043	6386
345.129	5015
345.215	5409
345.301	5161
345.387	4931
345.474	4496
345.560	4814
345.646	4833
345.732	4380
345.818	5071
345.904	5059
345.990	5516
346.076	4698
346.162	5320
346.249	5364
346.335	4893
346.421	5119
346.507	6936
346.593	11889
346.679	6299
346.765	6483
346.851	8648
346.937	6311
347.023	5412
347.108	5229
347.194	5120
347.280	5744
347.366	7458
347.452	16581
347.538	22555
347.624	13230
347.710	10086
347.796	5274
347.882	5601
347.967	6039
348.053	5524
348.139	5750
348.225	5638
348.311	5327
348.397	6055
348.482	5624
348.568	6409
348.654	8687
348.740	20296
348.825	20798
348.911	10326
348.997	11159
349.083	13892
349.168	6860
349.254	5308
349.340	5763
349.425	5538
349.511	6576
349.597	6000
349.682	6973
349.768	10370
349.854	8147
349.939	5533
350.025	6019
350.110	6004
350.196	6003
350.282	5430
350.367	6060
350.453	5541
350.538	5842
350.624	4595
350.709	6603
350.795	4900
350.880	5093
350.966	5861
351.051	5558
351.137	5230
351.222	5201
351.308	6463
351.393	7764
351.479	5518
351.564	5769
351.649	4879
351.735	5565
351.820	5519
351.906	5883
351.991	5322
352.076	7454
352.162	7726
352.247	5160
352.332	5135
352.418	5122
352.503	5496
352.588	8832
352.673	7165
352.759	5418
352.844	4555
352.929	5096
353.014	4596
353.100	5182
353.185	4732
353.270	5940
353.355	5082
353.441	5314
353.526	5460
353.611	5367
353.696	5065
353.781	5118
353.866	4704
353.952	5183
354.037	5158
354.122	6290
354.207	5794
354.292	4608
354.377	4815
354.462	5465
354.547	5108
354.632	5594
354.717	5182
354.802	5171
354.887	4601
354.972	4977
355.057	4835
355.142	4396
355.227	4981
355.312	5858
355.397	5101
355.482	7407
355.567	6384
355.652	6254
355.737	6512
355.822	9418
355.907	8801
355.991	5872
356.076	5610
356.161	5532
356.246	5726
356.331	6029
356.416	7743
356.501	15939
356.585	14312
356.670	7267
356.755	7276
356.840	6973
356.924	12835
357.009	27337
357.094	13501
357.179	7245
357.263	6582
357.348	7192
357.433	6865
357.517	7225
357.602	6366
357.687	6334
357.771	8138
357.856	11976
357.941	9575
358.025	13259
358.110	31463
358.195	16611
358.279	7170
358.364	6333
358.448	8868
358.533	13532
358.617	10992
358.702	11775
358.787	8115
358.871	7207
358.956	6629
359.040	7160
359.125	5648
359.209	7201
359.294	9301
359.378	13939
359.462	8463
359.547	6837
359.631	5524
359.716	5504
359.800	5990
359.885	6593
359.969	5520
360.053	6128
360.138	5638
360.222	6052
360.306	5704
360.391	6502
360.475	8046
360.559	11151
360.644	7352
360.728	7067
360.812	12257
360.896	20501
360.981	10744
361.065	8638
361.149	6576
361.233	6963
361.318	6463
361.402	6566
361.486	7020
361.570	7363
361.654	7008
361.739	8449
361.823	15725
361.907	23104
361.991	10830
362.075	11048
362.159	13527
362.243	23046
362.327	50259
362.411	70433
362.495	31077
362.580	15967
362.664	14165
362.748	16795
362.832	23366
362.916	47293
363.000	117526
363.084	158519
363.168	73986
363.252	24920
363.336	14452
363.420	14586
363.503	23145
363.587	24021
363.671	11947
363.755	11206
363.839	11862
363.923	12697
364.007	14626
364.091	19756
364.175	32872
364.258	73082
364.342	140232
364.426	212180
364.510	120251
364.594	40850
364.677	22902
364.761	26906
364.845	19120
364.929	11225
365.013	9364
365.096	8798
365.180	8772
365.264	13602
365.347	27236
365.431	14671
365.515	7248
365.598	7203
365.682	7616
365.766	8082
365.849	8729
365.933	7150
366.017	9134
366.100	7800
366.184	6861
366.267	8078
366.351	7180
366.435	6484
366.518	7013
366.602	6851
366.685	7623
366.769	7149
366.852	8111
366.936	8876
367.019	7006
367.103	7476
367.186	9353
367.270	8255
367.353	7123
367.436	8521
367.520	7882
367.603	7330
367.687	7347
367.770	8188
367.853	8037
367.937	11043
368.020	12930
368.104	7770
368.187	6995
368.270	8181
368.353	7396
368.437	7413
368.520	8990
368.603	7748
368.687	8831
368.770	11773
368.853	7354
368.936	7375
369.020	8360
369.103	6615
369.186	6452
369.269	6330
369.352	7328
369.436	6089
369.519	6909
369.602	5156
369.685	7440
369.768	6636
369.851	6845
369.934	6127
370.018	6179
370.101	6751
370.184	7687
370.267	7566
370.350	7478
370.433	9190
370.516	18287
370.599	29339
370.682	13947
370.765	11460
370.848	12116
370.931	14995
371.014	11188
371.097	6542
371.180	7174
371.263	7351
371.346	6204
371.429	6994
371.511	6952
371.594	7411
371.677	8280
371.760	9949
371.843	10794
371.926	20120
372.009	30259
372.091	16673
372.174	11878
372.257	18691
372.340	11690
372.423	11419
372.505	11688
372.588	8537
372.671	9750
372.754	14896
372.836	11503
372.919	12724
373.002	16996
373.085	10535
373.167	9065
373.250	11134
373.332	16940
373.415	23543
373.498	36687
373.580	23639
373.663	42086
373.746	43912
373.828	13207
373.911	9909
373.993	10779
374.076	17822
374.159	15956
374.241	9671
374.324	13350
374.406	13219
374.489	16850
374.571	30450
374.654	16067
374.736	12656
374.819	22217
374.901	29800
374.983	28264
375.066	12126
375.148	10810
375.231	17536
375.313	25092
375.395	13993
375.478	9972
375.560	10227
375.643	9205
375.725	13553
375.807	24860
375.890	19721
375.972	9406
376.054	9310
376.136	10473
376.219	8587
376.301	12486
376.383	19540
376.465	12147
376.548	7412
376.630	9448
376.712	16565
376.794	11091
376.877	7073
376.959	6125
377.041	6450
377.123	6869
377.205	8109
377.287	6661
377.369	6907
377.452	7509
377.534	6947
377.616	7094
377.698	7632
377.780	6754
377.862	7942
377.944	6557
378.026	7377
378.108	7235
378.190	7111
378.272	6375
378.354	7310
378.436	6029
378.518	6438
378.600	9012
378.682	9245
378.764	9669
378.846	10495
378.928	7021
379.010	7422
379.091	7260
379.173	6542
379.255	6095
379.337	7024
379.419	8052
379.501	12475
379.583	8592
379.664	7572
379.746	6866
379.828	10711
379.910	11296
379.991	11544
380.073	6803
380.155	6941
380.237	6051
380.318	5983
380.400	7233
380.482	7514
380.564	6640
380.645	7109
380.727	6905
380.809	6579
380.890	6466
380.972	6081
381.053	6602
381.135	6966
381.217	7781
381.298	9782
381.380	7593
381.461	8696
381.543	16232
381.624	19311
381.706	8813
381.787	8240
381.869	8361
381.951	13207
382.032	27498
382.113	20834
382.195	7967
382.276	9269
382.358	10572
382.439	17292
382.521	22356
382.602	28637
382.684	18292
382.765	24618
382.846	42950
382.928	75390
383.009	48531
383.090	40928
383.172	110798
383.253	143363
383.334	53985
383.416	30384
383.497	21196
383.578	19088
383.659	34211
383.741	106412
383.822	199433
383.903	108131
383.984	32493
384.066	30127
384.147	20983
384.228	13223
384.309	12026
384.390	11703
384.471	12079
384.553	10236
384.634	10160
384.715	9392
384.796	9464
384.877	9342
384.958	11237
385.039	12632
385.120	8970
385.201	9690
385.282	9450
385.363	10549
385.444	11268
385.525	12256
385.606	17770
385.687	17682
385.768	11456
385.849	12086
385.930	21281
386.011	28594
386.092	15122
386.173	11570
386.254	9719
386.335	10202
386.416	10748
386.496	11865
386.577	13257
386.658	10886
386.739	10178
386.820	10702
386.901	10841
386.981	12065
387.062	12481
387.143	14945
387.224	17451
387.304	18640
387.385	17074
387.466	15120
387.547	16361
387.627	17494
387.708	17868
387.789	23036
387.869	23729
387.950	16887
388.031	11914
388.111	10644
388.192	13553
388.273	13946
388.353	11992
388.434	9280
388.514	10950
388.595	20069
388.676	20434
388.756	13461
388.837	11048
388.917	9798
388.998	7439
389.078	8699
389.159	8726
389.239	8769
389.320	9206
389.400	7760
389.480	10231
389.561	13293
389.641	11122
389.722	8799
389.802	8713
389.883	10835
389.963	14973
390.043	11892
390.124	8647
390.204	8443
390.284	11633
390.365	9695
390.445	13261
390.525	16317
390.605	13622
390.686	9700
390.766	8905
390.846	9663
390.927	7829
391.007	8142
391.087	9122
391.167	9110
391.247	7373
391.328	10239
391.408	10145
391.488	10246
391.568	8587
391.648	10133
391.728	10767
391.808	11323
391.888	11197
391.969	12344
392.049	14602
392.129	13778
392.209	14991
392.289	19266
392.369	17714
392.449	17523
392.529	17761
392.609	18395
392.689	20148
392.769	27037
392.849	30470
392.929	35063
393.009	48844
393.089	66287
393.169	116504
393.248	264435
393.328	481931
393.408	462676
393.488	238982
393.568	103690
393.648	58209
393.728	37777
393.807	27040
393.887	24079
393.967	19556
394.047	18202
394.127	14525
394.206	17202
394.286	37622
394.366	101841
394.446	104696
394.525	31406
394.605	14068
394.685	13963
394.764	17812
394.844	29545
394.924	32656
395.003	16359
395.083	10453
395.163	10772
395.242	9192
395.322	9449
395.402	8918
395.481	11641
395.561	16647
395.640	41246
395.720	63660
395.799	44206
395.879	24447
395.958	19328
396.038	47057
396.117	130308
396.197	136907
396.276	46540
396.356	24914
396.435	24687
396.515	29341
396.594	43969
396.673	93630
396.753	241763
396.832	425573
396.912	322980
396.991	122708
397.070	52580
397.150	32147
397.229	32261
397.308	53545
397.388	86928
397.467	49374
397.546	20033
397.625	12602
397.705	14594
397.784	12454
397.863	12061
397.942	11216
398.022	10957
398.101	13725
398.180	20668
398.259	14256
398.338	10129
398.417	8078
398.497	8276
398.576	8313
398.655	7720
398.734	7630
398.813	7345
398.892	12272
398.971	19541
399.050	13460
399.129	6581
399.208	7394
399.287	7378
399.366	6499
399.445	6616
399.524	7664
399.603	6215
399.682	7197
399.761	10427
399.840	20909
399.919	19004
399.998	7622
400.077	5678
400.156	5395
400.235	7678
400.313	6017
400.392	5656
400.471	8917
400.550	8600
400.629	5857
400.708	6555
400.786	5770
400.865	6489
400.944	7052
401.023	7510
401.102	4449
401.180	5082
401.259	5579
401.338	5692
401.416	5608
401.495	4405
401.574	6171
401.652	5039
401.731	4936
401.810	5319
401.888	4990
401.967	4216
402.046	4940
402.124	5371
402.203	5508
402.281	5515
402.360	5410
402.438	7924
402.517	6383
402.596	5390
402.674	4780
402.753	5644
402.831	5413
402.910	5572
402.988	5552
403.066	8447
403.145	8095
403.223	7236
403.302	7506
403.380	8319
403.459	7688
403.537	6152
403.615	5610
403.694	4544
403.772	5874
403.850	5829
403.929	5303
404.007	4321
404.085	6346
404.164	4986
404.242	4743
404.320	10162
404.398	19537
404.477	21379
404.555	21226
404.633	20576
404.711	16583
404.789	12644
404.868	5534
404.946	4794
405.024	5274
405.102	4212
405.180	4445
405.258	3272
405.336	4670
405.415	4516
405.493	5615
405.571	5083
405.649	3392
405.727	4853
405.805	5980
405.883	6015
405.961	5665
406.039	5364
406.117	3798
406.195	5370
406.273	5983
406.351	13267
406.429	10837
406.507	5276
406.585	3913
406.663	4823
406.740	4411
406.818	3958
406.896	3690
406.974	5344
407.052	5013
407.130	9355
407.208	11860
407.285	6119
407.363	4137
407.441	4498
407.519	4172
407.596	5005
407.674	9893
407.752	24868
407.830	21548
407.907	7371
407.985	3268
408.063	4133
408.141	3496
408.218	4791
408.296	4493
408.373	5368
408.451	5556
408.529	5705
408.606	5764
408.684	6347
408.762	5636
408.839	5865
408.917	6935
408.994	7380
409.072	6767
409.149	9072
409.227	13914
409.304	18388
409.382	20744
409.459	24348
409.537	28176
409.614	26380
409.692	19847
409.769	20967
409.846	29490
409.924	34679
410.001	25385
410.079	19190
410.156	14942
410.233	11666
410.311	8847
410.388	8723
410.465	8116
410.543	8073
410.620	8635
410.697	8140
410.775	8789
410.852	8369
410.929	10003
411.006	9877
411.083	8307
411.161	8356
411.238	9151
411.315	8148
411.392	7466
411.469	7147
411.547	6837
411.624	5234
411.701	5545
411.778	6792
411.855	5646
411.932	5831
412.009	5580
412.086	5789
412.163	5465
412.240	5134
412.317	5621
412.394	5322
412.471	6139
412.548	5408
412.625	4692
412.702	5874
412.779	4713
412.856	6341
412.933	4021
413.010	5149
413.087	5503
413.164	6572
413.241	6738
413.318	4776
413.395	5935
413.471	4603
413.548	4939
413.625	4732
413.702	3637
413.779	5107
413.855	4483
413.932	3850
414.009	3327
414.086	5141
414.162	4774
414.239	5203
414.316	6213
414.393	7755
414.469	4462
414.546	4361
414.623	4080
414.699	4044
414.776	3855
414.853	3453
414.929	4476
415.006	3979
415.082	3720
415.159	3753
415.236	4898
415.312	4617
415.389	4251
415.465	4460
415.542	4282
415.618	3665
415.695	4239
415.771	3192
415.848	3303
415.924	4286
416.000	3307
416.077	4999
416.153	3268
416.230	3200
416.306	3498
416.383	4068
416.459	4085
416.535	3627
416.612	3367
416.688	3168
416.764	3650
416.841	2877
416.917	3574
416.993	4323
417.069	4205
417.146	3214
417.222	4404
417.298	4606
417.374	3244
417.451	4824
417.527	3737
417.603	3551
417.679	4048
417.755	3720
417.831	3345
417.908	4727
417.984	4230
418.060	2582
418.136	3740
418.212	4287
418.288	4262
418.364	4363
418.440	3138
418.516	4580
418.592	3811
418.668	4751
418.744	5429
418.820	5324
418.896	4790
418.972	3929
419.048	4327
419.124	4354
419.200	4130
419.276	4477
419.352	3975
419.428	5569
419.504	5097
419.579	5487
419.655	4791
419.731	5257
419.807	5716
419.883	6747
419.959	5383
420.034	5991
420.110	6852
420.186	8452
420.262	8531
420.337	6895
420.413	6626
420.489	8001
420.565	9246
420.640	8094
420.716	9170
420.792	8136
420.867	9910
420.943	9188
421.019	11338
421.094	10853
421.170	11821
421.245	13296
421.321	13951
421.397	15158
421.472	20308
421.548	28330
421.623	25679
421.699	22781
421.774	24622
421.850	27049
421.925	31801
422.001	38597
422.076	44737
422.152	55702
422.227	70740
422.302	94112
422.378	127386
422.453	180568
422.529	234203
422.604	239572
422.679	190653
422.755	210553
422.830	215482
422.905	180252
422.981	137541
423.056	105095
423.131	80977
423.207	63281
423.282	51128
423.357	42787
423.432	36231
423.508	32042
423.583	27249
423.658	25251
423.733	21759
423.808	20093
423.883	19290
423.959	20197
424.034	20949
424.109	20642
424.184	14910
424.259	13934
424.334	12822
424.409	11246
424.484	10685
424.559	10299
424.634	7913
424.709	9839
424.784	9074
424.859	8896
424.934	7838
425.009	8970
425.084	9981
425.159	8388
425.234	8185
425.309	6992
425.384	8766
425.459	9390
425.534	8418
425.609	5816
425.683	6951
425.758	5966
425.833	6848
425.908	7049
425.983	5715
426.058	8582
426.132	6560
426.207	5733
426.282	7090
426.357	5172
426.431	5140
426.506	5545
426.581	5960
426.655	4644
426.730	4700
426.805	5662
426.879	5238
426.954	5565
427.029	4801
427.103	7129
427.178	12503
427.253	9284
427.327	5774
427.402	4876
427.476	7287
427.551	6114
427.625	5020
427.700	4928
427.774	4914
427.849	4684
427.923	4451
427.998	4816
428.072	5928
428.147	11891
428.221	40461
428.296	97612
428.370	63726
428.444	14262
428.519	7277
428.593	7437
428.667	7618
428.742	8351
428.816	19865
428.890	65771
428.965	96016
429.039	32779
429.113	9560
429.188	6400
429.262	4777
429.336	4953
429.410	6145
429.485	6296
429.559	6018
429.633	6922
429.707	6525
429.781	18104
429.855	61218
429.930	86188
430.004	32666
430.078	25835
430.152	55230
430.226	130011
430.300	130561
430.374	40148
430.448	12959
430.522	11609
430.596	17648
430.670	30854
430.744	77610
430.818	87026
430.892	21769
430.966	6291
431.040	4830
431.114	3213
431.188	2862
431.262	3565
431.336	3282
431.410	4472
431.484	4727
431.557	5359
431.631	3875
431.705	8835
431.779	32973
431.853	92775
431.927	69431
432.000	15278
432.074	5273
432.148	3226
432.222	3083
432.295	3083
432.369	2410
432.443	2070
432.516	6268
432.590	10463
432.664	5725
432.737	2438
432.811	2172
432.885	2297
432.958	3106
433.032	2446
433.106	1133
433.179	1863
433.253	2264
433.326	2122
433.400	1825
433.473	2236
433.547	1291
433.620	2661
433.694	2345
433.767	2619
433.841	2094
433.914	2334
433.988	2721
434.061	3077
434.134	1648
434.208	1993
434.281	2128
434.355	1928
434.428	2042
434.501	1900
434.575	1671
434.648	1966
434.721	1601
434.795	2211
434.868	1825
434.941	1271
435.014	2989
435.088	2410
435.161	3080
435.234	3800
435.307	4886
435.381	5844
435.454	8286
435.527	14197
435.600	15993
435.673	12813
435.746	8211
435.819	6860
435.892	5724
435.966	4392
436.039	3100
436.112	3834
436.185	2568
436.258	2626
436.331	2774
436.404	3058
436.477	2640
436.550	2046
436.623	2981
436.696	1951
436.769	2436
436.842	3121
436.915	1867
436.987	2638
437.060	1527
437.133	2607
437.206	1650
437.279	3197
437.352	2027
437.425	909
437.498	1686
437.570	3025
437.643	2121
437.716	2036
437.789	1957
437.861	2694
437.934	2469
438.007	2488
438.080	2041
438.152	2354
438.225	3318
438.298	7529
438.370	16003
438.443	8846
438.516	2185
438.588	2034
438.661	1523
438.734	2494
438.806	2305
438.879	3202
438.951	1871
439.024	2509
439.096	2192
439.169	2158
439.241	1737
439.314	1984
439.386	1575
439.459	3279
439.531	2296
439.604	2637
439.676	1820
439.749	2003
439.821	1757
439.893	2034
439.966	1706
440.038	1702
440.110	2303
440.183	1853
440.255	1634
440.327	2499
440.400	3444
440.472	8907
440.544	7242
440.617	2800
440.689	3461
440.761	2631
440.833	2889
440.905	3180
440.978	2404
441.050	2384
441.122	2643
441.194	2810
441.266	2048
441.338	2589
441.411	2789
441.483	4286
441.555	4614
441.627	3069
441.699	3248
441.771	2425
441.843	2737
441.915	3020
441.987	2632
442.059	3087
442.131	4010
442.203	4964
442.275	5889
442.347	8469
442.419	20194
442.491	76961
442.563	145296
442.635	69557
442.706	17352
442.778	8452
442.850	6025
442.922	5328
442.994	5134
443.066	5728
443.137	6878
443.209	8364
443.281	14143
443.353	29665
443.425	90021
443.496	215244
443.568	222546
443.640	105768
443.711	27241
443.783	11738
443.855	7857
443.926	6113
443.998	4831
444.070	3534
444.141	4430
444.213	4029
444.285	3348
444.356	3162
444.428	4165
444.499	4146
444.571	3383
444.642	4147
444.714	3649
444.785	4068
444.857	5176
444.928	6227
445.000	6042
445.071	7813
445.143	8232
445.214	12817
445.285	21828
445.357	54978
445.428	153742
445.500	250922
445.571	211844
445.642	143039
445.714	55366
445.785	20254
445.856	10413
445.928	6860
445.999	5951
446.070	4656
446.141	3998
446.213	3398
446.284	2836
446.355	2971
446.426	2492
446.497	2820
446.569	1973
446.640	2233
446.711	2214
446.782	1783
446.853	1634
446.924	2498
446.995	1326
447.066	1758
447.138	2161
447.209	1953
447.280	599
447.351	1290
447.422	663
447.493	506
447.564	1160
447.635	1383
447.706	1173
447.777	1243
447.847	973
447.918	1075
447.989	1155
448.060	1590
448.131	1819
448.202	1721
448.273	499
448.344	1090
448.414	1332
448.485	734
448.556	1256
448.627	818
448.698	1454
448.768	899
448.839	494
448.910	757
448.981	1049
449.051	1131
449.122	841
449.193	490
449.263	574
449.334	573
449.405	1361
449.475	1360
449.546	741
449.616	1559
449.687	1869
449.758	1060
449.828	434
449.899	1193
449.969	890
450.040	673
450.110	795
450.181	452
450.251	821
450.322	1125
450.392	1299
450.463	257
450.533	721
450.604	-3
450.674	351
450.744	1705
450.815	1202
450.885	1914
450.955	2214
451.026	1794
451.096	783
451.166	1800
451.237	2300
451.307	3827
451.377	2316
451.447	1396
451.518	1425
451.588	1173
451.658	1127
451.728	1266
451.799	2413
451.869	3004
451.939	588
452.009	1382
452.079	757
452.149	1202
452.219	859
452.289	2578
452.360	2302
452.430	1525
452.500	1760
452.570	3786
452.640	9566
452.710	24526
452.780	26753
452.850	12528
452.920	4915
452.990	3218
453.060	2129
453.129	1669
453.199	2156
453.269	4491
453.339	6846
453.409	9235
453.479	8617
453.549	12289
453.619	11944
453.688	4112
453.758	1150
453.828	753
453.898	1235
453.968	966
454.037	1083
454.087	951
454.107	883
454.168	1086
454.177	1093
454.247	696
454.249	707
454.316	525
454.330	491
454.386	170
454.411	372
454.456	659
454.492	1558
454.525	2328
454.574	1758
454.595	1503
454.655	917
454.665	800
454.734	1196
454.736	1240
454.804	1741
454.817	1992
454.873	2765
454.898	2886
454.943	3063
454.979	2294
455.013	1642
455.060	1531
455.082	1461
455.141	1436
455.152	1429
455.221	2774
455.222	2844
455.291	4560
455.303	4457
455.360	3690
455.384	4991
455.430	6978
455.465	5347
455.499	3837
455.546	2832
455.569	2359
455.627	2416
455.638	2434
455.707	1206
455.708	1225
455.777	1116
455.789	1195
455.846	1367
455.869	1419
455.916	1558
455.950	1820
455.985	1971
456.031	1910
456.054	1924
456.112	1564
456.124	1452
456.193	2827
456.193	2814
456.262	1803
456.274	1919
456.332	2356
456.355	2059
456.401	1442
456.436	1701
456.470	1884
456.516	2117
456.540	2176
456.597	2302
456.609	2348
456.678	2057
456.678	2036
456.747	2827
456.759	2749
456.817	2376
456.840	2536
456.886	2855
456.920	2800
456.955	2541
457.001	2183
457.024	2058
457.082	2669
457.093	2752
457.162	3433
457.163	3454
457.232	3248
457.243	3282
457.301	3306
457.324	3387
457.370	3637
457.405	3941
457.439	4342
457.485	4673
457.508	5059
457.566	7492
457.577	8599
457.646	14429
457.647	14584
457.715	29675
457.727	32879
457.784	47951
457.808	58874
457.853	67397
457.889	72852
457.922	73982
457.969	58151
457.991	59073
458.050	72040
458.060	74086
458.129	110457
458.130	111674
458.198	92506
458.211	80887
458.267	47353
458.292	35096
458.336	30683
458.372	34313
458.405	48092
458.453	70958
458.474	81298
458.533	120856
458.543	121322
458.611	150201
458.614	150404
458.680	86799
458.694	67541
458.749	31568
458.775	22915
458.818	15094
458.855	11971
458.887	10018
458.936	7859
458.955	7389
459.016	7012
459.024	6928
459.093	5818
459.097	5786
459.162	5595
459.177	5623
459.230	5297
459.257	5280
459.299	5430
459.338	5342
459.368	5176
459.418	5063
459.437	5063
459.499	4952
459.505	4903
459.574	4649
459.579	4665
459.643	4778
459.659	4707
459.711	4517
459.740	4693
459.780	4931
459.820	4718
459.849	4486
459.900	4442
459.917	4586
459.981	5472
459.986	5453
460.054	4968
460.061	4917
460.123	5087
460.141	5128
460.191	5035
460.222	5028
460.260	5207
460.302	5380
460.328	5281
460.382	5224
460.397	5536
460.462	6636
460.465	6944
460.534	15112
460.543	16142
460.602	26749
460.623	30966
460.671	43028
460.703	54432
460.739	43770
460.783	25887
460.808	23278
460.864	8781
460.876	7092
460.944	5427
460.945	5392
461.013	4656
461.024	4457
461.081	4485
461.104	4906
461.150	5145
461.184	4711
461.218	4864
461.264	5542
461.286	5464
461.345	5124
461.355	5143
461.423	5344
461.425	5333
461.491	4770
461.505	4813
461.559	5911
461.585	6478
461.628	7190
461.665	7816
461.696	7718
461.745	7872
461.764	7556
461.825	5493
461.832	5482
461.901	5470
461.905	5495
461.969	4985
461.985	4888
462.037	5463
462.065	5707
462.105	5628
462.145	5729
462.173	5965
462.225	6087
462.241	6202
462.305	7034
462.310	7010
462.378	6635
462.385	6527
462.446	6032
462.465	6024
462.514	5970
462.545	5758
462.582	5316
462.625	4986
462.650	5015
462.705	4933
462.718	5068
462.785	5941
462.786	5937
462.854	5348
462.865	5256
462.922	6145
462.945	6557
462.990	6165
463.025	5624
463.058	5391
463.104	5200
463.126	5186
463.184	5380
463.194	5461
463.262	5618
463.264	5628
463.330	5866
463.344	5895
463.398	6161
463.424	6259
463.466	5729
463.504	5300
463.533	5542
463.583	5875
463.601	5784
463.663	5307
463.669	5333
463.737	5748
463.743	5784
463.805	7004
463.823	7358
463.873	8530
463.903	9234
463.940	8983
463.982	8681
464.008	7907
464.062	6198
464.076	6201
464.142	5960
464.144	5943
464.211	5058
464.221	4961
464.279	5724
464.301	6050
464.347	6017
464.381	5910
464.414	6099
464.461	6342
464.482	6208
464.540	5725
464.550	5765
464.617	5981
464.620	5977
464.685	6207
464.699	6316
464.753	7132
464.779	7512
464.820	7345
464.859	7134
464.888	7121
464.938	6900
464.956	6993
465.018	7420
465.023	7373
465.091	6635
465.098	6544
465.158	7223
465.177	7448
465.226	7423
465.257	7281
465.293	7134
465.336	7079
465.361	7327
465.416	7799
465.428	7991
465.495	8918
465.496	8938
465.563	9654
465.575	9761
465.631	10160
465.654	10329
465.698	8700
465.734	7160
465.765	7015
465.813	6856
465.833	6798
465.893	6728
465.900	6721
465.968	6382
465.972	6358
466.035	6923
466.052	7022
466.102	6397
466.131	6049
466.170	6737
466.210	7410
466.237	7482
466.290	7615
466.304	7481
466.369	6721
466.372	6741
466.439	7008
466.449	7020
466.506	7443
466.528	7593
466.573	9376
466.607	10668
466.641	11536
466.687	12718
466.708	12754
466.766	12772
466.775	12275
466.842	8352
466.845	8148
466.909	7833
466.925	7749
466.977	8253
467.004	8492
467.044	8896
467.083	9284
467.111	9261
467.163	9134
467.178	9233
467.242	9586
467.245	9633
467.312	10215
467.321	10274
467.379	10028
467.400	9908
467.446	10390
467.480	10704
467.559	10263
467.638	10091
467.717	9524
467.796	11241
467.875	11555
467.955	13611
468.034	16994
468.113	21362
468.192	26719
468.271	25499
468.350	33816
468.429	41407
468.508	38435
468.588	24658
468.667	17556
468.746	14760
468.825	12564
468.904	11564
468.983	11194
469.062	11782
469.141	11425
469.220	9562
469.299	9827
469.378	9123
469.456	9767
469.535	10166
469.614	8947
469.693	9705
469.772	10458
469.851	12223
469.930	9987
470.009	10011
470.088	10261
470.166	13048
470.245	16299
470.324	16924
470.403	13496
470.482	11199
470.560	9853
470.639	9884
470.718	9865
470.797	10032
470.875	10606
470.954	10668
471.033	9780
471.111	9580
471.190	8722
471.269	8875
471.347	8437
471.426	9332
471.505	8545
471.583	9492
471.662	9481
471.740	8895
471.819	9051
471.898	8855
471.976	9213
472.055	9859
472.133	10197
472.212	11872
472.290	9628
472.369	8864
472.447	8351
472.526	9071
472.604	9749
472.683	8659
472.761	8637
472.839	9620
472.918	8753
472.996	9773
473.075	9992
473.153	9642
473.231	9359
473.310	10489
473.388	9980
473.466	10278
473.545	10244
473.623	10162
473.701	10519
473.780	11068
473.858	9323
473.936	10975
474.014	10420
474.093	10985
474.171	12330
474.249	12507
474.327	10172
474.405	9890
474.484	9647
474.562	9587
474.640	9335
474.718	9396
474.796	9459
474.874	10219
474.952	9381
475.030	8941
475.108	9259
475.187	9433
475.265	8952
475.343	10084
475.421	10558
475.499	9426
475.577	10118
475.655	11718
475.733	12313
475.811	14924
475.889	14024
475.966	10469
476.044	9984
476.122	9278
476.200	8753
476.278	9185
476.356	8022
476.434	10019
476.512	8893
476.590	10038
476.667	9700
476.745	9470
476.823	9141
476.901	9804
476.979	9562
477.056	9949
477.134	9382
477.212	9200
477.290	8855
477.367	9060
477.445	8800
477.523	8834
477.601	9095
477.678	8364
477.756	10025
477.834	9458
477.911	7951
477.989	8549
478.066	9341
478.144	10000
478.222	9733
478.299	9104
478.377	9886
478.454	9713
478.532	9302
478.609	8602
478.687	9585
478.764	9136
478.842	9177
478.919	9066
478.997	8179
479.074	9432
479.152	8959
479.229	10585
479.307	9004
479.384	9668
479.461	9194
479.539	9777
479.616	9514
479.694	9558
479.771	9588
479.848	10365
479.926	9385
480.003	10275
480.080	9859
480.157	10442
480.235	9235
480.312	10560
480.389	10675
480.467	11974
480.544	12398
480.621	12167
480.698	11454
480.775	12967
480.853	10486
480.930	10536
481.007	10973
481.084	12917
481.161	14992
481.238	12103
481.315	9943
481.392	10796
481.470	11304
481.547	11021
481.624	10822
481.701	11257
481.778	11691
481.855	12335
481.932	13771
482.009	16419
482.086	15406
482.163	17537
482.240	18451
482.317	17796
482.393	15655
482.470	16063
482.547	15534
482.624	14044
482.701	13715
482.778	13179
482.855	13339
482.932	14352
483.009	16403
483.085	18392
483.162	21622
483.239	21204
483.316	19543
483.393	18865
483.469	16885
483.546	15993
483.623	14597
483.699	12542
483.776	13010
483.853	12332
483.930	14271
484.006	17936
484.083	22365
484.160	17420
484.236	19715
484.313	18439
484.389	18555
484.466	21253
484.543	24638
484.619	27885
484.696	26905
484.772	20951
484.849	16953
484.925	16657
485.002	15062
485.078	14281
485.155	13864
485.231	13772
485.308	12793
485.384	14245
485.461	14888
485.537	16195
485.614	16068
485.690	12316
485.766	12352
485.843	12677
485.919	13516
485.995	13348
486.072	12538
486.148	11822
486.224	11964
486.301	12782
486.377	12533
486.453	12383
486.530	13949
486.606	15198
486.682	16650
486.758	17336
486.835	19212
486.911	17812
486.987	21829
487.063	20557
487.139	22909
487.215	25368
487.292	24688
487.368	27018
487.444	35772
487.520	54141
487.596	101385
487.672	259378
487.748	565314
487.824	720216
487.900	246241
487.976	82842
488.052	45220
488.128	32241
488.204	25230
488.280	21755
488.356	20240
488.432	23321
488.508	23813
488.584	15102
488.660	14760
488.736	14507
488.812	13774
488.888	14017
488.964	15824
489.039	17961
489.115	18623
489.191	16565
489.267	13256
489.343	12160
489.418	12042
489.494	12399
489.570	11920
489.646	12636
489.722	11759
489.797	13256
489.873	15795
489.949	19809
490.024	16066
490.100	12437
490.176	12887
490.251	12920
490.327	13260
490.403	12342
490.478	11963
490.554	12331
490.629	12022
490.705	12489
490.781	12243
490.856	11489
490.932	11488
491.007	11299
491.083	11446
491.158	11597
491.234	12605
491.309	16604
491.385	13471
491.460	10646
491.536	11024
491.611	10454
491.686	10171
491.762	11296
491.837	13837
491.913	16580
491.988	17262
492.063	18133
492.139	12072
492.214	11895
492.289	9743
492.365	10618
492.440	10723
492.515	9163
492.590	10552
492.666	9848
492.741	10922
492.816	12205
492.891	9685
492.967	9994
493.042	11259
493.117	10495
493.192	11459
493.267	16893
493.342	26834
493.418	27164
493.493	10498
493.568	9429
493.643	9133
493.718	9950
493.793	10523
493.868	9973
493.943	9661
494.018	9668
494.093	9551
494.168	9434
494.243	8475
494.318	8809
494.393	9278
494.468	9557
494.543	9980
494.618	9260
494.693	9109
494.768	10180
494.842	8928
494.917	8414
494.992	9486
495.067	9183
495.142	8596
495.217	9343
495.292	8996
495.366	9316
495.441	9567
495.516	10222
495.591	11236
495.665	18579
495.740	25975
495.815	12167
495.890	10324
495.964	8970
496.039	10625
496.114	12846
496.188	15886
496.263	12076
496.338	10173
496.412	10550
496.487	9193
496.561	10489
496.636	9925
496.710	10813
496.785	10345
496.860	11125
496.934	8544
497.009	9376
497.083	9685
497.158	10766
497.232	10805
497.307	11692
497.381	10070
497.455	11431
497.530	11036
497.604	11011
497.679	9989
497.753	12478
497.827	12949
497.902	11625
497.976	16616
498.050	42588
498.125	94874
498.199	65758
498.273	12918
498.348	12522
498.422	11585
498.496	11884
498.570	11604
498.645	10673
498.719	9923
498.793	12008
498.867	13578
498.941	21827
499.016	49857
499.090	91000
499.164	21827
499.238	10667
499.312	11055
499.386	11690
499.460	11707
499.534	12558
499.609	13159
499.683	13457
499.757	15096
499.831	30702
499.905	65363
499.979	44370
500.053	13284
500.127	13362
500.201	10721
500.275	11806
500.349	11186
500.422	11638
500.496	13718
500.570	22336
500.644	42886
500.718	57870
500.792	14229
500.866	11520
500.940	11108
501.013	12151
501.087	10991
501.161	13201
501.235	15390
501.309	31750
501.382	55471
501.456	35655
501.530	16473
501.603	20266
501.677	11461
501.751	9127
501.825	12518
501.898	16954
501.972	24407
502.046	14625
502.119	10729
502.193	16600
502.266	25367
502.340	14570
502.413	17722
502.487	21668
502.561	14889
502.634	10734
502.708	10650
502.781	10269
502.855	10868
502.928	10211
503.002	9783
503.075	9991
503.149	11160
503.222	11459
503.295	11571
503.369	12696
503.442	16441
503.516	29969
503.589	44561
503.662	31293
503.736	27218
503.809	42721
503.882	49321
503.956	87951
504.029	172457
504.102	365301
504.175	427380
504.249	172000
504.322	72519
504.395	40354
504.468	27377
504.542	20875
504.615	16585
504.688	15001
504.761	12718
504.834	12866
504.907	11441
504.980	11912
505.053	9899
505.127	9010
505.200	10574
505.273	10688
505.346	8750
505.419	9678
505.492	8593
505.565	8783
505.638	9515
505.711	7840
505.784	8026
505.857	7917
505.930	8753
506.003	7514
506.076	9338
506.149	9234
506.221	7654
506.294	10430
506.367	15674
506.440	29985
506.513	13863
506.586	9350
506.659	7456
506.731	9167
506.804	7445
506.877	8199
506.950	7855
507.022	7856
507.095	7740
507.168	8027
507.241	7182
507.313	7447
507.386	6264
507.459	7544
507.531	6876
507.604	7054
507.677	8202
507.749	6227
507.822	8115
507.894	9510
507.967	10119
508.040	8057
508.112	7720
508.185	8326
508.257	7348
508.330	8944
508.402	7010
508.475	8391
508.547	8067
508.620	9215
508.692	8608
508.765	7848
508.837	7623
508.909	7653
508.982	6962
509.054	8082
509.127	7662
509.199	7640
509.271	7203
509.344	7727
509.416	7254
509.488	7920
509.560	7617
509.633	7370
509.705	6693
509.777	7351
509.849	7934
509.922	7012
509.994	7569
510.066	7593
510.138	7724
510.210	10835
510.283	9092
510.355	8363
510.427	8297
510.499	8767
510.571	7737
510.643	7565
510.715	8456
510.787	7484
510.859	8624
510.931	9121
511.003	8219
511.076	8163
511.148	7501
511.219	8172
511.291	10272
511.363	9618
511.435	7997
511.507	8073
511.579	8035
511.651	8039
511.723	7063
511.795	8388
511.867	7930
511.939	9409
512.010	10097
512.082	8801
512.154	7639
512.226	8792
512.298	8624
512.369	10697
512.441	8526
512.513	9327
512.585	8226
512.656	9057
512.728	8169
512.800	7809
512.871	7874
512.943	8745
513.015	7896
513.086	8289
513.158	8136
513.230	8034
513.301	8005
513.373	9829
513.444	8142
513.516	8088
513.588	7922
513.659	9121
513.731	7573
513.802	8139
513.874	9964
513.945	11174
514.016	7767
514.088	8105
514.159	7998
514.231	8843
514.302	9955
514.374	9371
514.445	7764
514.516	12870
514.588	9542
514.659	9571
514.730	10112
514.802	9052
514.873	7939
514.944	9453
515.016	9285
515.087	9997
515.158	9954
515.229	11013
515.301	8672
515.372	9053
515.443	7722
515.514	8531
515.585	8545
515.656	9595
515.728	9347
515.799	9670
515.870	9797
515.941	10627
516.012	10094
516.083	11425
516.154	10054
516.225	13501
516.296	11999
516.367	13840
516.438	14565
516.509	19033
516.580	35952
516.651	115120
516.722	248784
516.793	69072
516.864	20182
516.935	22133
517.006	26024
517.077	41887
517.148	119377
517.219	397235
517.289	396221
517.360	65931
517.431	22957
517.502	16110
517.573	15629
517.643	16440
517.714	16254
517.785	17841
517.856	18951
517.926	22798
517.997	26517
518.068	32964
518.138	47125
518.209	100159
518.280	335326
518.350	701376
518.421	203941
518.492	62527
518.562	64739
518.633	90291
518.703	158169
518.774	350543
518.845	659905
518.915	475890
518.986	157449
519.056	72639
519.127	49379
519.197	43271
519.268	50395
519.338	30644
519.408	20162
519.479	18492
519.549	15207
519.620	15773
519.690	13068
519.760	12698
519.831	12951
519.901	11735
519.971	12293
520.042	12009
520.112	11294
520.182	11812
520.253	12481
520.323	10792
520.393	12601
520.463	13669
520.534	11161
520.604	16438
520.674	11576
520.744	12978
520.814	17635
520.885	15647
520.955	21720
521.025	39523
521.095	14716
521.165	11037
521.235	9717
521.305	9737
521.375	9363
521.445	11059
521.515	9952
521.585	11856
521.655	10304
521.725	10809
521.795	10117
521.865	9692
521.935	12014
522.005	10936
522.075	9052
522.145	11541
522.215	10038
522.285	12061
522.355	13498
522.424	17503
522.494	15153
522.564	12050
522.634	13448
522.704	20011
522.774	10503
522.843	10591
522.913	11091
522.983	10468
523.053	10344
523.122	11209
523.192	10794
523.262	14693
523.331	12688
523.401	10712
523.471	10446
523.540	10785
523.610	9709
523.680	11629
523.749	12433
523.819	14265
523.888	13204
523.958	11919
524.027	10473
524.097	11538
524.166	11508
524.236	10310
524.305	12196
524.375	11765
524.444	11353
524.514	13147
524.583	11888
524.653	12956
524.722	13017
524.791	11507
524.861	13718
524.930	12404
524.999	12934
525.069	14855
525.138	14130
525.207	14779
525.277	15825
525.346	16674
525.415	18000
525.484	20526
525.554	22573
525.623	26702
525.692	31560
525.761	35197
525.830	43611
525.900	64069
525.969	120076
526.038	241639
526.107	544804
526.176	1081211
526.245	656031
526.314	287253
526.383	644465
526.452	720283
526.522	980360
526.591	617425
526.660	138271
526.729	90681
526.797	108823
526.867	207352
526.935	593024
527.004	1247801
527.073	589774
527.142	122942
527.211	56595
527.280	39318
527.349	29306
527.418	23775
527.487	22162
527.555	17528
527.624	17144
527.693	16509
527.762	15013
527.831	14451
527.899	14643
527.968	14808
528.037	11868
528.106	13726
528.174	13779
528.243	13129
528.312	13579
528.380	13027
528.449	11804
528.518	13444
528.586	10689
528.655	11398
528.723	12373
528.792	11616
528.861	11287
528.929	11150
528.998	12479
529.066	18112
529.135	20940
529.203	21777
529.272	27124
529.340	30075
529.409	27643
529.477	25911
529.545	25544
529.614	27971
529.682	33528
529.751	34349
529.819	37852
529.887	41262
529.956	36232
530.024	35499
530.092	32067
530.161	34026
530.229	35090
530.297	36387
530.365	36370
530.434	39483
530.502	38378
530.570	34863
530.638	29709
530.707	29294
530.775	30007
530.843	31527
530.911	33351
530.979	34067
531.047	39558
531.115	36302
531.183	32130
531.252	31585
531.320	30398
531.388	30890
531.456	36408
531.524	36753
531.592	39042
531.660	41626
531.728	37666
531.796	35480
531.864	35129
531.932	36247
532.000	35904
532.067	40873
532.135	41061
532.203	44136
532.271	45249
532.339	44192
532.407	45056
532.475	42718
532.542	40126
532.610	40669
532.678	44888
532.746	57771
532.814	63825
532.881	47050
532.949	43498
533.017	40287
533.084	39253
533.152	37894
533.220	37342
533.287	39704
533.355	41276
533.423	42053
533.490	42189
533.558	40380
533.625	38569
533.693	37954
533.761	37429
533.828	37871
533.896	36959
533.963	41211
534.031	42585
534.098	47531
534.166	45107
534.233	43299
534.300	44907
534.368	43180
534.435	42214
534.503	44988
534.570	49444
534.637	52418
534.705	61756
534.772	84461
534.840	185937
534.907	590367
534.974	436816
535.041	74806
535.109	46035
535.176	40743
535.243	39952
535.310	40322
535.378	37332
535.445	37164
535.512	35843
535.579	34192
535.646	33083
535.714	34292
535.781	36203
535.848	37775
535.915	35066
535.982	36565
536.049	34363
536.116	35036
536.183	31785
536.250	30601
536.317	32112
536.384	33549
536.451	34052
536.518	33991
536.585	32517
536.652	35607
536.719	33645
536.786	30955
536.853	30730
536.920	33130
536.987	31546
537.053	32780
537.120	43092
537.187	38247
537.254	33402
537.321	34010
537.388	33315
537.454	30898
537.521	31017
537.588	31046
537.654	32431
537.721	33094
537.788	31631
537.855	32186
537.921	32050
537.988	31087
538.055	28739
538.121	29209
538.188	26337
538.254	26966
538.321	27342
538.388	29653
538.454	32098
538.521	32870
538.587	32163
538.654	31349
538.720	30477
538.787	31274
538.853	30257
538.920	28706
538.986	27464
539.053	26781
539.119	28390
539.185	28197
539.252	30558
539.318	31963
539.385	33761
539.451	29288
539.517	29470
539.583	30399
539.650	31397
539.716	34819
539.782	27482
539.849	26960
539.915	28237
539.981	27956
540.047	27845
540.114	26693
540.180	28320
540.246	30509
540.312	31337
540.378	30883
540.444	31995
540.510	34848
540.576	35609
540.643	28637
540.709	27000
540.775	28621
540.841	26635
540.907	28948
540.973	30420
541.039	28628
541.105	29214
541.171	30311
541.237	29540
541.303	29251
541.369	30853
541.435	29710
541.500	29522
541.566	25926
541.632	26505
541.698	28166
541.764	28455
541.830	28405
541.896	27655
541.961	28009
542.027	28439
542.093	30110
542.159	30489
542.224	27834
542.290	29503
542.356	29450
542.421	29182
542.487	26175
542.553	26405
542.618	26881
542.684	26867
542.750	27705
542.815	28669
542.881	30302
542.947	38334
543.012	31875
543.078	25512
543.143	26018
543.209	25948
543.274	26490
543.340	27662
543.405	30594
543.471	30605
543.536	29193
543.602	29273
543.667	27917
543.732	29324
543.798	27907
543.863	28641
543.928	29286
543.994	27852
544.059	29445
544.124	29661
544.190	30612
544.255	29697
544.320	31167
544.386	29860
544.451	32072
544.516	30779
544.581	32304
544.646	37472
544.712	36832
544.777	32743
544.842	31834
544.907	32358
544.972	32547
545.037	33618
545.102	33986
545.168	34656
545.233	35356
545.298	35413
545.363	35976
545.428	37330
545.493	39722
545.558	40994
545.623	37788
545.688	37339
545.753	39072
545.818	39397
545.883	41817
545.947	43047
546.012	44766
546.077	45405
546.142	48291
546.207	49434
546.272	52780
546.337	52553
546.401	55606
546.466	57337
546.531	58692
546.596	62702
546.661	64602
546.725	69268
546.790	72354
546.855	78479
546.919	86773
546.984	94651
547.049	101722
547.113	117526
547.178	129640
547.243	146928
547.307	170196
547.372	183138
547.436	181855
547.501	194505
547.565	201600
547.630	181777
547.695	179095
547.759	181689
547.823	185064
547.888	187032
547.952	191595
548.017	200937
548.081	203465
548.146	201243
548.210	210540
548.274	222578
548.339	211319
548.403	195258
548.468	184861
548.532	186114
548.596	188735
548.660	192591
548.725	211540
548.789	224165
548.853	212247
548.917	206068
548.982	194636
549.046	175363
549.110	163414
549.174	176824
549.238	206017
549.303	220746
549.367	220860
549.431	204196
549.495	198173
549.559	201521
549.623	239357
549.687	243564
549.751	253630
549.815	294557
549.879	284757
549.943	279254
550.007	294209
550.071	280987
550.135	254264
550.199	248595
550.263	241142
550.327	230115
550.391	242511
550.455	269351
550.519	280920
550.582	302049
550.646	336894
550.710	331397
550.774	329934
550.838	336532
550.901	349439
550.965	374164
551.029	396037
551.093	435378
551.156	491537
551.220	560659
551.284	544139
551.347	424529
551.411	369010
551.475	353291
551.538	351320
551.602	320317
551.666	308353
551.729	290048
551.793	284824
551.856	276952
551.920	275053
551.983	273569
552.047	270441
552.110	276382
552.174	280023
552.237	278831
552.301	257494
552.364	248369
552.428	243887
552.491	256084
552.554	257409
552.618	256455
552.681	258961
552.745	251985
552.808	272673
552.871	283739
552.934	266079
552.998	256766
553.061	248468
553.124	236965
553.187	242325
553.251	249192
553.314	247365
553.377	251622
553.440	271105
553.503	289208
553.567	282292
553.630	266207
553.693	262422
553.756	261741
553.819	251100
553.882	243065
553.945	246778
554.008	246895
554.071	251961
554.134	248649
554.197	232350
554.260	227983
554.323	234732
554.386	237516
554.449	252743
554.512	246989
554.575	237811
554.638	235087
554.701	232732
554.764	228830
554.827	223065
554.889	212018
554.952	201616
555.015	200565
555.078	206410
555.141	205300
555.203	201315
555.266	203884
555.329	201261
555.391	191164
555.454	189354
555.517	186540
555.580	181039
555.642	173259
555.705	171121
555.768	170483
555.830	165340
555.893	157408
555.955	152211
556.018	152981
556.080	155031
556.143	159272
556.206	153612
556.268	151363
556.330	148478
556.393	144649
556.455	141920
556.518	139403
556.580	133014
556.643	130007
556.705	128573
556.767	127002
556.830	126032
556.892	122510
556.955	122209
557.017	118044
557.079	119905
557.142	114349
557.204	115641
557.266	118338
557.328	106892
557.391	99772
557.453	99217
557.515	98278
557.577	101497
557.639	100459
557.701	100060
557.764	100300
557.826	101619
557.888	107692
557.950	114521
558.012	131164
558.074	195900
558.136	480177
558.198	701817
558.260	204524
558.322	115137
558.384	111115
558.446	116775
558.508	125809
558.570	141599
558.632	173176
558.694	246033
558.756	470468
558.818	1160281
558.880	1437645
558.942	770885
559.003	801085
559.065	292230
559.127	152622
559.189	149414
559.251	176637
559.312	289759
559.374	718092
559.436	1233854
559.498	495787
559.559	178149
559.621	149515
559.683	188434
559.744	356715
559.806	930061
559.868	807381
559.929	223364
559.991	191372
560.052	385872
560.114	766790
560.176	393893
560.237	569059
560.299	556473
560.360	116513
560.422	65769
560.483	57060
560.545	53373
560.606	51552
560.667	50507
560.729	47415
560.790	45047
560.852	43143
560.913	43147
560.974	40486
561.036	41213
561.097	41631
561.158	40134
561.220	39920
561.281	37561
561.342	36832
561.403	38461
561.465	37801
561.526	39985
561.587	39328
561.648	34401
561.709	35059
561.771	35304
561.832	33460
561.893	33156
561.954	33026
562.015	31935
562.076	31511
562.137	31985
562.198	31925
562.259	32366
562.320	31446
562.381	32798
562.442	31793
562.503	30752
562.564	30560
562.625	29230
562.686	29341
562.747	28743
562.808	29279
562.869	28871
562.930	29290
562.991	28680
563.051	27359
563.112	27956
563.173	28250
563.234	26599
563.294	26679
563.355	26281
563.416	27634
563.477	27231
563.537	25791
563.598	26405
563.659	26570
563.720	25591
563.780	25572
563.841	26492
563.901	26451
563.962	25323
564.023	24602
564.083	25159
564.144	24364
564.204	24318
564.265	24402
564.325	24691
564.386	27263
564.446	24710
564.507	23037
564.567	23444
564.628	24074
564.688	23491
564.749	24036
564.809	23832
564.869	24015
564.930	22923
564.990	23580
565.050	23524
565.111	23382
565.171	23148
565.231	22799
565.292	23215
565.352	22417
565.412	22926
565.472	23110
565.532	23094
565.593	22268
565.653	21731
565.713	22326
565.773	22804
565.833	23011
565.893	23711
565.953	20829
566.013	21168
566.074	21895
566.134	21814
566.194	22689
566.254	23543
566.314	21915
566.374	20751
566.434	21242
566.494	21520
566.554	20950
566.614	22781
566.673	22316
566.733	23067
566.793	22542
566.853	23011
566.913	22203
566.973	22911
567.033	23369
567.092	22648
567.152	22609
567.212	22793
567.272	22490
567.331	23763
567.391	24219
567.451	24821
567.511	25356
567.570	25520
567.630	23356
567.690	22942
567.749	22286
567.809	22715
567.868	21588
567.928	22555
567.988	23351
568.047	23459
568.107	23634
568.166	23253
568.226	24889
568.285	25825
568.345	24427
568.404	25923
568.464	23153
568.523	23248
568.582	24285
568.642	24168
568.701	23199
568.761	24617
568.820	26568
568.879	26913
568.939	26050
568.998	24928
569.057	24119
569.116	23037
569.176	22035
569.235	22945
569.294	22651
569.353	22705
569.413	21168
569.472	21812
569.531	21309
569.590	20399
569.649	20965
569.708	21422
569.767	21917
569.827	21875
569.886	20599
569.945	20503
570.004	21314
570.063	21314
570.122	21551
570.181	22468
570.240	22218
570.299	21924
570.358	22859
570.417	21775
570.475	21772
570.534	22476
570.593	22501
570.652	23214
570.711	22534
570.770	22819
570.829	21571
570.887	21895
570.946	22840
571.005	23261
571.064	22147
571.122	24194
571.181	23062
571.240	21174
571.299	21566
571.357	20991
571.416	20637
571.475	21970
571.533	23425
571.592	24443
571.650	24146
571.709	26157
571.768	28159
571.826	27647
571.885	25809
571.943	23046
572.002	21567
572.060	21098
572.119	21196
572.177	21903
572.236	21448
572.294	22494
572.352	22963
572.411	22444
572.469	21538
572.528	21195
572.586	20433
572.644	20329
572.703	20864
572.761	19720
572.819	18821
572.877	19352
572.936	18705
572.994	18838
573.052	19363
573.110	21539
573.169	21179
573.227	20693
573.285	19651
573.343	20825
573.401	20737
573.459	20282
573.517	21849
573.576	22878
573.634	21889
573.692	22258
573.750	23139
573.808	21170
573.866	20436
573.924	19747
573.982	20038
574.040	19757
574.098	19893
574.155	19912
574.213	19310
574.271	21249
574.329	22782
574.387	21502
574.445	18512
574.503	19274
574.560	18811
574.618	18526
574.676	19345
574.734	19457
574.792	17817
574.849	17735
574.907	15106
574.965	15475
575.022	15384
575.080	15351
575.138	15313
575.195	14924
575.253	14939
575.311	15637
575.368	15399
575.426	14954
575.483	15964
575.541	16064
575.598	16579
575.656	16920
575.713	17330
575.771	18196
575.828	16372
575.886	15650
575.943	15802
576.001	14812
576.058	14330
576.115	16064
576.173	15798
576.230	16636
576.287	16088
576.345	15613
576.402	16781
576.459	16798
576.517	15073
576.574	14712
576.631	14598
576.688	15357
576.746	13722
576.803	14687
576.860	13728
576.917	14708
576.974	13985
577.031	14275
577.089	12917
577.146	13592
577.203	14659
577.260	14192
577.317	14101
577.374	13318
577.431	14169
577.488	13576
577.545	12585
577.602	13755
577.659	13472
577.716	14080
577.773	13495
577.830	13793
577.886	13407
577.943	12572
578.000	13407
578.057	13379
578.114	13906
578.171	14792
578.227	15279
578.284	13939
578.341	14550
578.398	14343
578.454	13607
578.511	14241
578.568	13592
578.625	13217
578.681	13684
578.738	14241
578.794	13562
578.851	13530
578.908	13783
578.964	14155
579.021	13539
579.077	13897
579.134	14618
579.190	14277
579.247	13589
579.303	14120
579.360	14035
579.416	13695
579.473	13783
579.529	13691
579.586	14207
579.642	13398
579.698	13973
579.755	14821
579.811	13522
579.867	15482
579.924	13898
579.980	15407
580.036	16330
580.093	16550
580.149	18255
580.205	17205
580.261	16652
580.317	16450
580.374	16348
580.430	16864
580.486	16469
580.542	15798
580.598	17167
580.619	16899
580.654	16442
580.692	16459
580.710	16477
580.765	17160
580.767	17188
580.823	17177
580.838	17324
580.879	17718
580.911	17177
580.935	16796
580.984	17306
580.991	17381
581.047	17347
581.057	17472
581.103	18061
581.130	17967
581.159	17875
581.203	17960
581.215	17969
581.270	17313
581.276	17252
581.326	16712
581.349	17085
581.382	17660
581.422	17450
581.438	17352
581.494	17976
581.494	17975
581.550	17700
581.567	17844
581.606	18156
581.640	17921
581.661	17788
581.713	19368
581.717	19491
581.773	18817
581.786	18705
581.829	18311
581.859	18860
581.885	19320
581.932	18707
581.940	18607
581.996	19667
582.004	19622
582.052	19164
582.077	19402
582.107	19722
582.150	19846
582.163	19861
582.219	19496
582.223	19515
582.274	19832
582.296	19932
582.330	20081
582.368	21027
582.386	21475
582.441	21760
582.441	21755
582.497	21548
582.514	21771
582.552	22316
582.587	22299
582.608	22260
582.659	22974
582.663	23030
582.719	23219
582.732	23476
582.774	24320
582.805	24295
582.830	24340
582.877	25757
582.885	26015
582.941	27827
582.950	28311
582.996	31150
583.023	32286
583.052	33348
583.095	33579
583.107	33500
583.162	32009
583.168	31982
583.218	31019
583.240	29974
583.273	28658
583.313	28255
583.328	28127
583.384	27164
583.385	27150
583.439	26752
583.458	26671
583.494	26549
583.531	25721
583.549	25424
583.603	25743
583.605	25749
583.660	25791
583.676	25799
583.715	25975
583.748	26126
583.770	26169
583.820	27388
583.825	27538
583.881	26162
583.893	26068
583.936	25720
583.965	26720
583.991	27595
584.038	27868
584.046	27940
584.101	28083
584.110	28092
584.156	28046
584.183	28346
584.211	28816
584.255	29145
584.266	29304
584.321	30947
584.328	30907
584.376	30543
584.400	31305
584.431	32084
584.472	31882
584.486	32079
584.541	34032
584.545	34078
584.596	34790
584.617	35036
584.651	35459
584.689	36168
584.706	36655
584.761	38037
584.762	38018
584.816	38449
584.834	38988
584.871	40488
584.906	40733
584.926	40796
584.978	42485
584.980	42611
585.035	44241
585.051	44965
585.090	46876
585.123	48236
585.145	49477
585.195	53501
585.200	54013
585.254	58839
585.267	60439
585.309	66874
585.340	72094
585.364	77075
585.412	90254
585.419	92502
585.473	114132
585.484	121108
585.528	156926
585.556	193039
585.583	246667
585.628	384125
585.637	432508
585.692	842040
585.700	879958
585.747	1071858
585.772	1010644
585.801	701924
585.845	363441
585.856	312156
585.910	152779
585.917	135774
585.965	103575
585.989	90045
586.019	82152
586.061	73156
586.074	71602
586.128	65395
586.133	64893
586.183	62102
586.205	60683
586.237	59188
586.277	57348
586.292	57135
586.346	55849
586.349	55752
586.401	54743
586.421	53821
586.455	53226
586.493	53096
586.509	53487
586.564	54652
586.565	54636
586.618	60294
586.637	61630
586.672	64180
586.709	68488
586.727	71624
586.781	77865
586.781	77966
586.835	66141
586.853	63437
586.889	58074
586.925	53607
586.944	52847
586.996	51048
586.998	51137
587.052	50896
587.068	50706
587.106	50799
587.140	50805
587.161	51083
587.212	51480
587.215	51628
587.269	52481
587.284	52638
587.323	53776
587.356	54608
587.377	55135
587.427	55421
587.431	55597
587.485	57198
587.499	57313
587.539	58079
587.571	58703
587.593	60103
587.643	63156
587.648	63416
587.702	64021
587.715	64083
587.755	64936
587.786	65071
587.810	65763
587.858	66816
587.864	67129
587.917	68899
587.930	69078
587.971	69123
588.001	69106
588.025	69532
588.073	69235
588.079	69422
588.133	70432
588.145	70292
588.187	71451
588.217	72304
588.241	73990
588.288	77077
588.295	77634
588.348	80123
588.360	80561
588.402	83836
588.431	85804
588.456	88053
588.503	91951
588.510	93179
588.564	101612
588.575	103221
588.617	111685
588.646	117924
588.671	125045
588.718	138962
588.725	143253
588.778	179421
588.789	188321
588.832	264037
588.861	322337
588.886	428874
588.932	644446
588.939	670737
588.993	803959
589.004	818203
589.047	589350
589.075	450061
589.100	356768
589.147	194277
589.154	189420
589.207	151407
589.218	143396
589.261	138372
589.290	135391
589.314	139598
589.361	148133
589.368	152552
589.421	191703
589.433	201342
589.475	305245
589.504	386551
589.528	501263
589.576	699624
589.582	688978
589.635	522151
589.647	489797
589.689	300725
589.718	172495
589.742	152736
589.790	113049
589.795	112197
589.849	101505
589.861	98786
589.902	96166
589.932	93390
589.955	91436
590.004	86532
590.009	86586
590.062	84931
590.075	84112
590.115	83308
590.146	82341
590.168	82430
590.218	81770
590.222	82078
590.275	82888
590.289	82772
590.328	84006
590.360	84590
590.381	85200
590.431	85429
590.435	85743
590.488	86495
590.503	86397
590.541	87548
590.574	87994
590.594	88896
590.645	90271
590.647	90675
590.700	93363
590.716	93830
590.753	96000
590.787	97474
590.806	98843
590.859	101187
590.859	101543
590.912	102253
590.930	102139
590.965	103738
591.001	104478
591.018	104592
591.071	103851
591.072	103481
591.124	102805
591.143	102105
591.177	103415
591.214	104128
591.230	104788
591.283	105760
591.285	105424
591.336	105597
591.356	105110
591.389	104597
591.427	103268
591.442	103772
591.495	104231
591.498	103900
591.547	104531
591.569	104262
591.600	106231
591.640	107973
591.653	108830
591.706	110855
591.711	110666
591.759	112309
591.782	112640
591.811	116627
591.853	121206
591.864	121565
591.917	121224
591.924	120730
591.969	120992
591.995	120416
592.022	121190
592.066	121365
592.075	122363
592.127	125752
592.137	125929
592.180	129298
592.208	130677
592.233	131810
592.279	132613
592.285	133581
592.338	137568
592.350	137970
592.390	138335
592.421	137700
592.443	139709
592.491	142484
592.495	143116
592.548	144464
592.562	144298
592.600	145517
592.633	145536
592.653	145824
592.704	144311
592.705	145198
592.775	147811
592.846	152232
592.916	154815
592.987	154674
593.058	155964
593.128	159160
593.199	158533
593.270	159443
593.341	163530
593.411	166677
593.482	172458
593.553	176848
593.623	178158
593.694	183335
593.764	187497
593.835	186918
593.906	187553
593.976	193850
594.047	195030
594.117	203042
594.188	211257
594.258	211348
594.329	210198
594.399	213416
594.470	220855
594.540	225786
594.611	232045
594.681	233094
594.751	233936
594.822	240310
594.892	250195
594.963	254809
595.033	261846
595.103	269643
595.174	271902
595.244	279854
595.314	289364
595.384	294477
595.455	300601
595.525	308914
595.595	319101
595.665	324862
595.736	314556
595.806	319221
595.876	326985
595.946	325610
596.016	339196
596.087	350683
596.157	354212
596.227	352722
596.297	366187
596.367	388316
596.437	412490
596.507	415282
596.577	414361
596.647	420479
596.717	440050
596.787	453457
596.857	450726
596.927	456408
596.997	456824
597.067	461979
597.137	465309
597.207	469068
597.277	474981
597.347	461105
597.417	448238
597.487	442943
597.557	451944
597.626	466935
597.696	470641
597.766	468133
597.836	454561
597.906	433955
597.975	423233
598.045	425926
598.115	444828
598.185	469128
598.254	512023
598.324	553489
598.394	571176
598.464	560273
598.533	550580
598.603	531840
598.672	504390
598.742	515671
598.812	518135
598.881	533099
598.951	532783
599.020	534585
599.090	549536
599.159	566698
599.229	551681
599.299	538974
599.368	546963
599.437	553585
599.507	520941
599.576	499330
599.646	499300
599.715	491058
599.785	492752
599.854	481164
599.924	478617
599.993	475835
600.062	485836
600.132	500231
600.201	520014
600.270	577704
600.340	616356
600.409	610378
600.478	608909
600.547	611839
600.617	597924
600.686	502548
600.755	465893
600.824	447947
600.894	441526
600.963	446163
601.032	446540
601.101	440388
601.170	429002
601.239	425744
601.308	425507
601.378	428763
601.447	434264
601.516	442358
601.585	449311
601.654	457487
601.723	463606
601.792	474623
601.861	490144
601.930	505969
601.999	520502
602.068	519172
602.137	522513
602.206	527560
602.275	537525
602.343	539270
602.412	543535
602.481	549365
602.550	554292
602.619	565013
602.688	566342
602.756	573919
602.825	574864
602.894	582632
602.963	594885
603.032	594220
603.100	606559
603.169	588688
603.238	604289
603.307	600063
603.375	594076
603.444	618848
603.513	605830
603.581	609837
603.650	635439
603.719	591325
603.787	576256
603.856	588480
603.924	599204
603.993	615199
604.061	632189
604.130	655733
604.198	671910
604.267	677366
604.335	693304
604.404	693971
604.472	709433
604.541	710415
604.609	722420
604.678	740126
604.746	738756
604.815	764871
604.883	767931
604.951	748392
605.020	765520
605.088	760886
605.156	746152
605.225	751956
605.293	751076
605.361	751522
605.429	752646
605.498	767882
605.566	774310
605.634	796286
605.702	820206
605.771	832696
605.839	851428
605.907	819700
605.975	808942
606.043	800356
606.111	775000
606.180	799076
606.248	784520
606.316	753838
606.384	777520
606.452	748745
606.520	704520
606.588	721972
606.656	731575
606.724	724713
606.792	687103
606.860	638587
606.928	586333
606.996	557947
607.064	548217
607.132	558231
607.200	578897
607.267	604055
607.335	609747
607.403	630327
607.471	617815
607.539	587157
607.607	600453
607.674	541783
607.742	530817
607.810	526739
607.878	528617
607.946	534046
608.013	553203
608.081	572285
608.149	571277
608.216	587410
608.284	604776
608.352	599643
608.419	604875
608.487	588997
608.555	576811
608.622	594047
608.690	613837
608.757	665171
608.825	689937
608.893	672881
608.960	646389
609.028	612125
609.095	609285
609.163	613401
609.230	570633
609.298	511425
609.365	533233
609.432	572048
609.500	610311
609.567	679375
609.635	760292
609.702	809166
609.769	787798
609.837	662241
609.904	551092
609.971	562290
610.039	596415
610.106	665143
610.173	883499
610.241	1500787
610.308	1470047
610.375	788165
610.442	617531
610.509	574751
610.577	561231
610.644	572315
610.711	582451
610.778	602323
610.845	620001
610.912	654632
610.980	676849
611.047	685637
611.114	673805
611.181	655932
611.248	650918
611.315	674008
611.382	698271
611.449	714091
611.516	730747
611.583	723650
611.650	721068
611.717	732445
611.784	743031
611.851	762833
611.918	794487
611.984	859061
612.051	995393
612.118	1288321
612.185	1974811
612.252	2024592
612.319	1170043
612.386	943204
612.452	873177
612.519	816809
612.586	799160
612.653	802450
612.719	823104
612.786	812130
612.853	765108
612.919	737854
612.986	747794
613.053	717038
613.120	682286
613.186	650431
613.253	651248
613.319	653380
613.386	655777
613.453	664415
613.519	665353
613.586	657503
613.652	664737
613.719	657735
613.785	661661
613.852	677846
613.918	671757
613.985	670937
614.051	696747
614.118	697554
614.184	680844
614.250	662085
614.317	687389
614.383	672347
614.449	683637
614.516	681129
614.582	682325
614.648	675796
614.715	669063
614.781	657259
614.847	650961
614.914	655838
614.980	635578
615.046	634907
615.112	649991
615.179	654949
615.245	664851
615.311	655516
615.377	658273
615.443	672113
615.509	670772
615.575	694150
615.642	692742
615.708	698327
615.774	729286
615.840	763256
615.906	793047
615.972	860049
616.038	1025181
616.104	1436962
616.170	2098759
616.236	2281088
616.302	1450936
616.368	1120072
616.434	927730
616.500	816859
616.565	829180
616.631	977990
616.697	942959
616.763	883372
616.829	1031761
616.895	1507807
616.961	1711198
617.026	1101140
617.092	768464
617.158	703132
617.224	688233
617.289	639087
617.355	610539
617.421	599274
617.487	602124
617.552	571676
617.618	564529
617.684	564007
617.749	565767
617.815	549290
617.880	538890
617.946	532442
618.012	538151
618.077	552951
618.143	539491
618.208	527785
618.274	558780
618.339	580279
618.405	501988
618.470	475184
618.536	485082
618.601	472258
618.667	453956
618.732	422184
618.798	414890
618.863	412664
618.928	413724
618.994	417450
619.059	416588
619.124	422962
619.190	419148
619.255	414738
619.320	413778
619.386	416756
619.451	417132
619.516	403646
619.581	402208
619.647	411509
619.712	419096
619.777	396007
619.842	396536
619.907	401591
619.972	407732
620.038	410341
620.103	398123
620.168	396637
620.233	401767
620.298	404085
620.363	411525
620.428	418745
620.493	430473
620.558	436703
620.623	439935
620.688	443773
620.753	436097
620.818	447945
620.883	445741
620.948	447477
621.013	443033
621.078	436498
621.143	439453
621.207	445504
621.272	440192
621.337	431426
621.402	419830
621.467	420928
621.532	416315
621.596	420794
621.661	411961
621.726	404515
621.791	409653
621.855	413811
621.920	405547
621.985	413305
622.049	418297
622.114	423463
622.179	427449
622.243	436669
622.308	445831
622.373	458567
622.437	461707
622.502	438120
622.566	429599
622.631	426634
622.695	436853
622.760	436502
622.824	431665
622.889	437495
622.953	436618
623.018	448059
623.082	466640
623.147	459337
623.211	448546
623.276	445641
623.340	440341
623.404	419167
623.469	422099
623.533	423315
623.597	418877
623.662	410381
623.726	395511
623.790	369297
623.854	356691
623.919	362010
623.983	367989
624.047	371396
624.111	372938
624.176	383148
624.240	381272
624.304	393291
624.368	388217
624.432	382335
624.496	387350
624.560	402428
624.625	418822
624.689	405634
624.753	423491
624.817	415926
624.881	397611
624.945	376579
625.009	355489
625.073	360373
625.137	365571
625.201	382797
625.265	389485
625.329	374906
625.393	374337
625.456	377912
625.520	386027
625.584	391930
625.648	402293
625.712	412406
625.776	419934
625.839	407882
625.903	356536
625.967	317256
626.031	327896
626.095	372049
626.158	382914
626.222	307527
626.286	274824
626.349	265957
626.413	252796
626.477	241803
626.540	245865
626.604	245477
626.668	244267
626.731	240320
626.795	240979
626.858	240418
626.922	239286
626.986	235458
627.049	234224
627.113	242554
627.176	241489
627.240	232022
627.303	230229
627.366	229711
627.430	231453
627.493	231220
627.557	227843
627.620	227138
627.684	233252
627.747	237696
627.810	226424
627.874	204726
627.937	194163
628.000	197416
628.064	198715
628.127	179352
628.190	171665
628.253	166980
628.317	164403
628.380	154858
628.443	151247
628.506	149645
628.569	145834
628.632	137223
628.696	137396
628.759	135999
628.822	132108
628.885	128392
628.948	126301
629.011	124182
629.074	122571
629.137	119448
629.200	115735
629.263	114631
629.326	111572
629.389	113153
629.452	111122
629.515	110382
629.578	109510
629.641	110376
629.704	111576
629.767	110384
629.830	107106
629.892	104191
629.955	102595
630.018	105007
630.081	105718
630.144	104482
630.207	102976
630.269	102963
630.332	101343
630.395	97841
630.458	98122
630.520	95702
630.583	95312
630.646	95303
630.708	98723
630.771	99799
630.834	104146
630.896	103533
630.959	101526
631.021	99741
631.084	99305
631.146	99919
631.209	101517
631.272	99816
631.334	101858
631.397	102226
631.459	102070
631.522	104370
631.584	107186
631.646	112062
631.709	114034
631.771	114680
631.834	111356
631.896	109070
631.958	104160
632.021	101928
632.083	99118
632.145	96678
632.208	96888
632.270	95711
632.332	96020
632.395	93448
632.457	95687
632.519	94278
632.581	93977
632.643	93726
632.706	92962
632.768	92090
632.830	92537
632.892	94931
632.954	96335
633.016	96743
633.078	94763
633.141	95253
633.203	94819
633.265	96243
633.327	94689
633.389	95669
633.451	96153
633.513	95237
633.575	96943
633.637	98280
633.698	98053
633.760	101191
633.822	104621
633.884	105805
633.946	108454
634.008	110098
634.070	112175
634.132	115612
634.193	120768
634.255	125530
634.317	130276
634.379	128573
634.441	120751
634.502	114433
634.564	105427
634.626	98713
634.687	95653
634.749	92951
634.811	91659
634.873	91457
634.934	92281
634.996	90356
635.057	91683
635.119	93323
635.181	95002
635.242	95299
635.304	93398
635.365	96674
635.427	93855
635.488	94557
635.550	93353
635.611	92626
635.673	93799
635.734	98134
635.796	100154
635.857	107740
635.918	111675
635.980	119201
636.041	125619
636.102	130823
636.164	132515
636.225	128919
636.286	119821
636.348	108684
636.409	100103
636.470	95857
636.531	93075
636.593	92357
636.654	88562
636.715	84539
636.776	85303
636.838	83160
636.899	83974
636.960	81452
637.021	81685
637.082	79208
637.143	78529
637.204	76596
637.265	76806
637.326	76498
637.387	78214
637.448	78953
637.509	79011
637.570	76929
637.631	76321
637.692	74980
637.753	74087
637.814	73147
637.875	72938
637.936	72809
637.997	71954
638.058	73009
638.119	72421
638.179	72637
638.240	71552
638.301	73248
638.362	72640
638.423	68749
638.483	69958
638.544	67144
638.605	68645
638.666	68434
638.726	69595
638.787	67990
638.848	67916
638.908	67552
638.969	65761
639.030	63646
639.090	63517
639.151	64315
639.211	65207
639.272	66407
639.332	67470
639.393	66794
639.453	68963
639.514	71316
639.574	67114
639.635	62516
639.695	61622
639.756	61304
639.816	60423
639.877	59535
639.937	62677
639.997	61663
640.058	60968
640.118	59852
640.178	61191
640.239	61188
640.299	61310
640.359	62411
640.420	63916
640.480	67009
640.540	73272
640.600	77883
640.661	73092
640.721	69040
640.781	70939
640.841	67609
640.901	63549
640.961	61268
641.021	61873
641.082	66461
641.142	64744
641.202	61018
641.262	57722
641.322	58161
641.382	58508
641.442	57590
641.502	58267
641.562	58217
641.622	59629
641.682	62229
641.742	65353
641.802	68038
641.861	60562
641.921	57114
641.981	56540
642.041	54741
642.101	54875
642.161	53392
642.221	53912
642.280	54424
642.340	54639
642.400	55283
642.460	56669
642.519	56246
642.579	56600
642.639	57944
642.698	54379
642.758	58369
642.818	56923
642.877	56980
642.937	57370
642.997	57065
643.056	57537
643.116	56196
643.175	58538
643.235	58964
643.294	61735
643.354	64702
643.414	67808
643.473	77481
643.532	88440
643.592	108956
643.651	143388
643.711	197698
643.770	300840
643.830	540182
643.889	1111586
643.948	774928
644.008	218746
644.067	115034
644.126	86762
644.186	74652
644.245	65854
644.304	61487
644.363	60930
644.423	57669
644.482	60130
644.541	61024
644.600	64928
644.659	75285
644.719	87609
644.778	109611
644.837	149143
644.896	240317
644.955	522222
645.014	433407
645.073	111541
645.132	73135
645.191	67381
645.250	64893
645.309	66683
645.368	69425
645.427	78547
645.486	105169
645.545	209197
645.604	135104
645.663	62255
645.722	59176
645.781	63582
645.840	68289
645.898	79050
645.957	98234
646.016	130426
646.075	183900
646.134	283993
646.192	539465
646.251	1027078
646.310	504969
646.369	146525
646.427	96780
646.486	84767
646.545	65715
646.603	59497
646.662	55957
646.721	54559
646.779	54883
646.838	58615
646.896	65296
646.955	77871
647.014	100020
647.072	150527
647.131	344811
647.189	399211
647.248	91891
647.306	53426
647.365	48519
647.423	44414
647.481	44552
647.540	42411
647.598	43765
647.657	42733
647.715	42511
647.773	40857
647.832	41617
647.890	38442
647.948	37295
648.007	38859
648.065	36333
648.123	37093
648.181	37254
648.240	35655
648.298	36238
648.356	36576
648.414	35687
648.472	36344
648.531	35229
648.589	32874
648.647	34549
648.705	35556
648.763	34517
648.821	36833
648.879	38846
648.937	41326
648.995	48685
649.053	57213
649.111	73511
649.169	100296
649.227	145651
649.285	236877
649.343	560394
649.401	640995
649.459	153492
649.516	68013
649.574	53170
649.632	53973
649.690	59609
649.748	64213
649.806	78902
649.863	117452
649.921	243160
649.979	364050
650.037	91816
650.094	40557
650.152	35335
650.210	31258
650.268	30773
650.325	29906
650.383	31098
650.440	28270
650.498	27231
650.556	27625
650.613	27037
650.671	27595
650.728	27680
650.786	28350
650.843	33122
650.901	36548
650.958	26095
651.016	24656
651.073	24960
651.131	23594
651.188	23468
651.246	23357
651.303	22141
651.360	23948
651.418	22422
651.475	22997
651.532	22055
651.590	22558
651.647	22069
651.704	22662
651.762	23070
651.819	20808
651.876	20934
651.933	21251
651.990	20570
652.048	20580
652.105	19624
652.162	21351
652.219	20032
652.276	20581
652.333	21593
652.390	19684
652.448	20549
652.505	20542
652.562	20470
652.619	19933
652.676	21116
652.733	22047
652.790	19804
652.847	18373
652.904	19821
652.961	18176
653.017	18135
653.074	19018
653.131	19389
653.188	18096
653.245	19023
653.302	19581
653.359	19254
653.415	19552
653.472	18919
653.529	18938
653.586	18117
653.642	18195
653.699	19833
653.756	17518
653.813	18131
653.869	18811
653.926	19517
653.983	18534
654.039	19168
654.096	19136
654.152	18391
654.209	18163
654.266	18085
654.322	17550
654.379	18688
654.435	19368
654.492	18508
654.548	17787
654.605	18495
654.661	19352
654.717	18405
654.774	17725
654.830	17655
654.887	17631
654.943	17918
655.000	18598
655.056	18807
655.112	18659
655.168	17610
655.225	18492
655.281	18658
655.337	18452
655.394	19566
655.450	18352
655.506	17220
655.562	17874
655.618	19776
655.675	17224
655.731	16815
655.787	16282
655.843	17254
655.899	16703
655.955	18309
656.011	18439
656.067	17231
656.123	17413
656.179	17146
656.235	18557
656.291	17209
656.347	18440
656.403	18127
656.459	17218
656.515	16696
656.571	17567
656.627	16401
656.683	16919
656.739	18389
656.795	17403
656.850	17013
656.906	18095
656.962	19654
657.018	19679
657.074	21893
657.129	27305
657.185	34840
657.241	61384
657.297	81429
657.352	27313
657.408	17272
657.464	18231
657.519	16571
657.575	15673
657.630	15925
657.686	15542
657.742	15357
657.797	16015
657.853	15482
657.908	17558
657.964	15317
658.019	16165
658.075	15351
658.130	16015
658.186	15602
658.241	15617
658.297	14949
658.352	15102
658.407	15734
658.463	15046
658.518	15053
658.573	15202
658.629	15103
658.684	15047
658.739	14595
658.795	14032
658.850	14503
658.905	13746
658.960	14623
659.016	14353
659.071	14659
659.126	14228
659.181	14133
659.236	15102
659.291	14672
659.346	14847
659.401	14808
659.457	15109
659.512	15519
659.567	15635
659.622	15402
659.677	15022
659.732	13610
659.787	13861
659.842	13604
659.897	14089
659.952	14446
660.007	14968
660.061	13791
660.116	13530
660.171	14098
660.226	14249
660.281	14306
660.336	14240
660.391	14411
660.445	13712
660.500	13395
660.555	14305
660.610	13605
660.664	13636
660.719	13155
660.774	12926
660.828	13718
660.883	14130
660.938	13166
660.992	12954
661.047	13565
661.101	13680
661.156	13692
661.211	12891
661.265	13185
661.320	12877
661.374	13361
661.429	12869
661.483	14293
661.538	12609
661.592	12935
661.647	14063
661.701	15066
661.755	14475
661.810	13674
661.864	12714
661.919	12465
661.973	13328
662.027	13309
662.081	13042
662.136	12931
662.190	13435
662.244	13352
662.299	12959
662.353	14217
662.407	13049
662.461	12588
662.515	12868
662.569	11665
662.624	12937
662.678	12289
662.732	13153
662.786	12471
662.840	12909
662.894	13402
662.948	12973
663.002	13246
663.056	12557
663.110	12491
663.164	12041
663.218	13810
663.272	13488
663.326	14236
663.380	12443
663.434	13187
663.488	11951
663.542	13169
663.595	13726
663.649	14046
663.703	13574
663.757	13571
663.811	12018
663.864	12650
663.918	14065
663.972	13013
664.026	14003
664.079	12438
664.133	13515
664.187	13996
664.240	14028
664.294	13863
664.348	13298
664.401	13300
664.455	12988
664.508	12820
664.562	12216
664.615	12328
664.669	12562
664.722	13093
664.776	12208
664.829	12922
664.883	13160
664.936	12420
664.990	13177
665.043	12759
665.097	13871
665.150	13566
665.203	12942
665.257	13592
665.310	13965
665.363	12826
665.417	12667
665.470	13645
665.523	14377
665.576	14335
665.630	12838
665.683	13335
665.736	13295
665.789	14373
665.842	12925
665.895	13508
665.949	13085
666.002	13313
666.055	13646
666.108	14127
666.161	14934
666.214	13946
666.267	13874
666.320	14098
666.373	15536
666.426	15400
666.479	14244
666.532	15353
666.585	14922
666.638	15307
666.691	15532
666.744	14279
666.796	14830
666.849	14561
666.902	15741
666.955	15116
667.008	15017
667.060	14116
667.113	15113
667.166	15611
667.219	16065
667.271	16583
667.324	16166
667.377	15789
667.430	15904
667.482	14733
667.535	15265
667.587	14703
667.640	15099
667.693	14610
667.745	16127
667.798	15938
667.850	15948
667.903	14810
667.955	14870
668.008	14880
668.060	14875
668.113	14921
668.165	14913
668.218	14766
668.270	15732
668.322	14365
668.375	14494
668.427	15119
668.479	14814
668.532	15163
668.584	14594
668.636	15338
668.689	14295
668.741	13576
668.793	14643
668.845	13866
668.898	15091
668.950	13924
669.002	14309
669.054	14106
669.106	14663
669.158	15267
669.211	14566
669.263	14314
669.315	14254
669.367	14706
669.419	14462
669.471	15089
669.523	14213
669.575	13648
669.627	14686
669.679	14318
669.731	14432
669.783	14803
669.835	15011
669.886	14457
669.938	14264
669.990	15216
670.042	15116
670.094	15524
670.146	16062
670.197	16572
670.249	18496
670.301	19597
670.353	24143
670.404	29480
670.456	36574
670.508	47761
670.560	67057
670.611	94040
670.663	138224
670.715	248101
670.766	491022
670.818	398796
670.869	105107
670.921	40842
670.972	29874
671.024	24026
671.075	21642
671.127	19534
671.178	18942
671.230	20879
671.281	20801
671.333	24085
671.384	25901
671.436	32228
671.487	41360
671.538	51277
671.590	66482
671.641	91219
671.692	138092
671.744	249845
671.795	323768
671.846	179543
671.897	79995
671.949	46983
672.000	34243
672.051	25389
672.102	22211
672.153	18344
672.204	18935
672.256	16823
672.307	15643
672.358	15606
672.409	15084
672.460	13346
672.511	14027
672.562	13094
672.613	12724
672.664	11609
672.715	12807
672.766	12932
672.817	11542
672.868	11500
672.919	11896
672.970	10680
673.021	10539
673.071	11188
673.122	11629
673.173	10373
673.224	11073
673.275	11826
673.326	12435
673.376	10767
673.427	10132
673.478	10846
673.528	11276
673.579	10688
673.630	10758
673.680	11813
673.731	10575
673.782	10885
673.832	11156
673.883	11715
673.934	10426
673.984	10466
674.035	11509
674.085	11887
674.136	11068
674.186	11101
674.237	12206
674.287	11615
674.338	11754
674.388	11596
674.438	11787
674.489	11699
674.539	11891
674.589	12136
674.640	12682
674.690	11795
674.740	11753
674.791	11518
674.841	11170
674.891	11550
674.942	10284
674.992	10393
675.042	10450
675.092	9781
675.142	10505
675.193	9782
675.243	9063
675.293	10221
675.343	10892
675.393	10738
675.443	10652
675.493	10131
675.543	9753
675.593	9614
675.643	10236
675.693	9800
675.743	9964
675.793	9891
675.843	9084
675.893	9611
675.943	9232
675.993	9610
676.043	9277
676.093	9306
676.142	8575
676.192	9910
676.242	9483
676.292	9085
676.341	9361
676.391	9545
676.441	8707
676.491	9124
676.540	9080
676.590	8592
676.640	8740
676.689	8133
676.739	8094
676.789	7638
676.838	8157
676.888	7906
676.937	7885
676.987	7880
677.037	8124
677.086	8803
677.136	8473
677.185	7903
677.235	7868
677.284	7576
677.333	8498
677.383	8583
677.432	8448
677.482	7539
677.531	8569
677.580	7480
677.630	8228
677.679	7626
677.728	8439
677.778	8034
677.827	7411
677.876	7461
677.925	8009
677.975	8323
678.024	8934
678.073	9558
678.122	9429
678.171	7915
678.220	9568
678.269	10170
678.319	10408
678.368	11472
678.417	10964
678.466	9498
678.515	8333
678.564	8124
678.613	7753
678.662	7363
678.711	7000
678.760	7344
678.809	7296
678.857	7809
678.906	8918
678.955	8213
679.004	8270
679.053	7451
679.102	7086
679.151	7300
679.199	7957
679.248	7858
679.297	7723
679.346	7482
679.394	7148
679.443	7151
679.492	7153
679.540	7781
679.589	7890
679.638	8211
679.686	8626
679.735	8429
679.784	8997
679.832	10140
679.881	10120
679.929	8070
679.978	7625
680.026	8182
680.075	7596
680.123	7940
680.172	7352
680.220	6793
680.268	7471
680.317	6931
680.365	6626
680.414	6730
680.462	6103
680.510	6901
680.559	6662
680.607	6746
680.655	7460
680.703	8197
680.752	7930
680.800	6582
680.848	6443
680.896	6603
680.945	6728
680.993	7482
681.041	6380
681.089	6393
681.137	6907
681.185	6698
681.233	6847
681.258	6676
681.281	6509
681.329	6823
681.377	6537
681.380	6567
681.425	7001
681.473	7252
681.502	7270
681.521	7271
681.569	8146
681.617	8331
681.624	8192
681.665	7229
681.713	7793
681.745	6956
681.761	6539
681.809	7083
681.857	7668
681.867	7558
681.904	7179
681.952	7215
681.989	7304
682.000	7315
682.048	6982
682.096	6537
682.111	6685
682.143	6969
682.191	6921
682.233	7817
682.239	7944
682.286	7214
682.334	7417
682.354	7254
682.382	7001
682.430	7057
682.476	7257
682.477	7255
682.525	7309
682.572	7954
682.598	7645
682.620	7358
682.667	7805
682.715	7353
682.720	7302
682.763	6721
682.810	7368
682.841	7607
682.857	7728
682.905	6949
682.952	7291
682.963	7366
683.000	7556
683.047	6284
683.085	7304
683.095	7589
683.142	6683
683.190	6762
683.206	6997
683.237	7390
683.284	7034
683.328	7169
683.332	7167
683.379	6767
683.426	6350
683.449	6425
683.473	6512
683.521	7254
683.568	6843
683.571	6851
683.615	6788
683.662	6683
683.693	6724
683.709	6750
683.757	7000
683.804	6601
683.814	6762
683.851	7269
683.898	6769
683.936	7028
683.945	7101
683.992	7459
684.039	7005
684.057	7212
684.086	7483
684.133	7250
684.179	7038
684.180	7023
684.227	7085
684.274	7165
684.300	7336
684.321	7490
684.368	6689
684.415	7111
684.422	7175
684.462	7438
684.509	6392
684.543	6944
684.556	7127
684.603	7265
684.649	7603
684.665	7479
684.696	7327
684.743	7048
684.786	7825
684.790	7873
684.837	7567
684.883	7280
684.908	7209
684.930	7161
684.977	7591
685.023	8211
685.029	8146
685.070	7601
685.117	8073
685.150	7741
685.164	7599
685.210	7635
685.257	7880
685.272	7897
685.303	7911
685.350	8086
685.393	7746
685.396	7712
685.443	7514
685.490	6774
685.514	7317
685.536	7766
685.583	7579
685.629	7272
685.636	7242
685.675	7253
685.722	7641
685.757	8021
685.768	8070
685.815	7229
685.861	7611
685.878	7576
685.908	7616
685.954	7244
686.000	8172
686.000	8182
686.047	7578
686.093	8038
686.121	8244
686.139	8446
686.185	8958
686.232	8304
686.242	8291
686.278	8011
686.324	8208
686.363	7882
686.370	7855
686.416	7765
686.463	8208
686.484	8119
686.509	7932
686.555	7778
686.601	8117
686.606	8089
686.647	7940
686.693	7987
686.727	7775
686.739	7649
686.785	8057
686.831	7525
686.848	7569
686.877	7761
686.923	7529
686.969	7802
686.969	7803
687.015	8287
687.061	8591
687.090	8459
687.107	8367
687.153	8881
687.199	9095
687.211	9207
687.245	9311
687.291	8647
687.332	8914
687.336	8958
687.382	8862
687.428	8586
687.453	8664
687.474	8730
687.520	8651
687.565	8973
687.574	8984
687.611	9045
687.657	9305
687.695	9715
687.702	9786
687.748	9245
687.794	10139
687.816	10175
687.839	10268
687.885	9869
687.931	9692
687.937	9758
687.976	9787
688.022	8630
688.058	8873
688.067	9029
688.113	8950
688.158	8521
688.179	8678
688.204	8751
688.249	8937
688.295	9272
688.300	9205
688.340	8821
688.386	9777
688.421	9688
688.431	9635
688.477	9681
688.522	9401
688.542	9437
688.567	9640
688.613	9540
688.658	10061
688.663	10133
688.703	10534
688.749	9930
688.784	9966
688.794	10005
688.839	9972
688.884	10291
688.905	10151
688.930	9899
688.975	10426
689.020	9649
689.026	9680
689.065	9951
689.110	9403
689.146	9798
689.155	9926
689.201	9334
689.246	9853
689.267	9764
689.291	9717
689.336	9866
689.381	10229
689.388	10243
689.426	10047
689.471	10324
689.509	9249
689.516	9137
689.561	10178
689.606	10213
689.630	10331
689.651	10309
689.696	10379
689.741	10333
689.750	10265
689.785	10142
689.830	10639
689.871	10719
689.875	10719
689.920	10123
689.965	10529
689.992	10315
690.010	10264
690.054	10172
690.099	10539
690.112	10617
690.144	10721
690.189	10418
690.233	9978
690.233	9986
690.278	10514
690.323	10569
690.354	10791
690.367	10821
690.412	11096
690.457	10494
690.474	10545
690.501	10668
690.546	10570
690.590	10567
690.595	10580
690.635	10794
690.680	10654
690.716	10416
690.724	10430
690.769	11066
690.813	11461
690.836	11415
690.857	11503
690.902	12334
690.946	13058
690.957	13256
690.991	14893
691.035	16874
691.077	19676
691.080	19759
691.124	20036
691.168	18722
691.198	18128
691.213	17165
691.257	14757
691.301	12614
691.318	11781
691.346	11650
691.390	11580
691.434	11005
691.439	10944
691.478	10684
691.522	10732
691.559	10818
691.567	10910
691.611	11553
691.655	11792
691.680	11773
691.699	11623
691.743	11520
691.787	11484
691.800	11376
691.831	11254
691.875	11470
691.919	11551
691.921	11538
691.964	11695
692.008	11896
692.041	11688
692.052	11574
692.096	11404
692.139	11390
692.162	11197
692.183	11142
692.227	11285
692.271	11351
692.282	11388
692.315	11645
692.359	11473
692.402	11639
692.403	11656
692.447	11837
692.490	11620
692.523	11877
692.534	11974
692.578	11680
692.622	11349
692.643	11414
692.666	11700
692.709	11673
692.753	12103
692.763	12203
692.797	12265
692.840	12071
692.884	11776
692.884	11792
692.928	11489
692.971	11856
693.004	11564
693.015	11511
693.059	11938
693.102	11871
693.124	11939
693.146	11951
693.189	11747
693.233	11843
693.245	11829
693.276	12211
693.320	12458
693.363	13127
693.365	13117
693.407	13076
693.450	12838
693.485	13149
693.493	13297
693.537	13707
693.580	14016
693.605	14182
693.624	14663
693.667	16000
693.710	17221
693.725	17651
693.753	20843
693.797	26186
693.840	31900
693.845	32518
693.883	32420
693.926	30318
693.966	28617
693.970	28119
694.013	23261
694.056	18246
694.086	14917
694.099	14764
694.142	14290
694.185	13856
694.206	13582
694.229	13444
694.272	13204
694.315	13198
694.326	13068
694.358	13108
694.401	13101
694.444	13447
694.446	13437
694.487	13601
694.530	13618
694.566	13596
694.573	13565
694.616	13369
694.659	13136
694.686	12840
694.702	12839
694.745	12942
694.787	13087
694.806	13092
694.830	13133
694.873	13183
694.916	13111
694.926	13132
694.959	13434
695.002	13502
695.044	13752
695.046	13738
695.087	14036
695.130	14369
695.166	14579
695.172	14633
695.215	14598
695.258	14602
695.286	14739
695.301	14958
695.343	15402
695.386	16130
695.406	16192
695.428	16176
695.471	16409
695.514	16573
695.526	16615
695.556	18111
695.599	20377
695.641	22300
695.646	22466
695.684	21249
695.726	19830
695.766	18588
695.769	18617
695.811	18576
695.854	18479
695.886	18204
695.896	18134
695.938	17996
695.981	17808
696.005	17640
696.023	18124
696.065	19281
696.108	20375
696.125	20795
696.150	21458
696.192	22671
696.235	23830
696.245	24007
696.277	23658
696.319	23218
696.361	22990
696.365	22913
696.404	22933
696.446	22881
696.485	22927
696.488	22945
696.530	22450
696.572	21972
696.604	21583
696.614	21647
696.656	21760
696.698	21883
696.724	21879
696.740	21997
696.783	22277
696.825	22543
696.844	22645
696.867	22686
696.909	22613
696.951	22405
696.964	22340
696.992	22738
697.034	23179
697.076	23680
697.083	23719
697.118	24170
697.160	24754
697.202	25150
697.203	25112
697.244	25009
697.286	24816
697.323	24626
697.327	24676
697.369	24688
697.411	24745
697.442	24679
697.453	24775
697.494	24939
697.536	25205
697.562	25245
697.578	25202
697.620	25017
697.661	24772
697.682	24656
697.703	25204
697.744	26158
697.786	27130
697.801	27407
697.828	27585
697.869	27757
697.911	27933
697.921	27932
697.952	27775
697.994	27443
698.035	27160
698.040	27064
698.077	27243
698.118	27363
698.160	27574
698.160	27519
698.201	27916
698.243	28270
698.279	28550
698.284	28672
698.325	29236
698.367	29801
698.399	30214
698.408	30418
698.449	31002
698.491	31648
698.518	31970
698.532	32099
698.573	32342
698.614	32595
698.638	32647
698.656	32680
698.697	32610
698.738	32554
698.757	32450
698.779	32597
698.820	32740
698.862	32907
698.877	32896
698.903	32921
698.944	32844
698.985	32769
698.996	32679
699.026	32741
699.067	32732
699.116	32652
699.235	33846
699.354	32133
699.474	31525
699.593	30547
699.713	31246
699.832	31421
699.951	32880
700.070	32322
700.190	30371
700.309	28999
700.428	28346
700.547	28619
700.667	28973
700.786	29040
700.905	28285
701.024	27068
701.143	28937
701.262	28835
701.381	29716
701.500	30209
701.619	29529
701.738	30277
701.857	29017
701.976	29233
702.095	28610
702.214	29715
702.333	29164
702.452	29938
702.571	30230
702.690	30516
702.809	30453
702.928	27929
703.047	27495
703.165	28128
703.284	29531
703.403	27436
703.522	28243
703.640	26979
703.759	26020
703.878	26570
703.997	27589
704.115	27774
704.234	27351
704.353	27711
704.471	26245
704.590	25270
704.708	25938
704.827	24630
704.946	24266
705.064	25050
705.183	26228
705.301	26614
705.420	26866
705.538	25407
705.656	24798
705.775	24213
705.893	26997
706.012	29403
706.130	25060
706.249	26096
706.367	25263
706.485	24849
706.604	24223
706.722	23678
706.840	24496
706.958	27906
707.077	25966
707.195	22889
707.313	24084
707.431	22077
707.549	23897
707.668	22264
707.786	24739
707.904	23080
708.022	23511
708.140	23429
708.258	21125
708.376	24203
708.494	21897
708.612	22911
708.730	24696
708.848	22659
708.966	24181
709.084	24193
709.202	23906
709.320	22309
709.438	23134
709.556	23443
709.674	21417
709.791	21237
709.909	21965
710.027	21879
710.145	22245
710.263	21952
710.380	21733
710.498	21049
710.616	21096
710.733	19964
710.851	20188
710.969	20970
711.086	20113
711.204	20416
711.322	21134
711.439	19780
711.557	19473
711.674	19795
711.792	19862
711.909	19452
712.027	20422
712.144	19885
712.262	19449
712.379	19837
712.497	21163
712.614	20344
712.732	20449
712.849	20175
712.966	21365
713.084	21372
713.201	19829
713.318	20375
713.436	23346
713.553	20344
713.670	21690
713.787	21924
713.905	21011
714.022	21101
714.139	22722
714.256	23979
714.373	31137
714.490	51405
714.608	108316
714.725	402179
714.842	721382
714.959	101563
715.076	32279
715.193	25947
715.310	25653
715.427	20038
715.544	21220
715.661	19449
715.778	19115
715.895	19854
716.011	19337
716.128	19303
716.245	19812
716.362	19820
716.479	18412
716.596	17979
716.713	18775
716.829	18356
716.946	17943
717.063	18431
717.180	17516
717.296	17932
717.413	18882
717.530	17679
717.646	16843
717.763	16577
717.880	16245
717.996	16531
718.113	16818
718.229	16544
718.346	16052
718.462	15676
718.579	16749
718.695	16738
718.812	17279
718.928	16103
719.045	17284
719.161	16089
719.277	16658
719.394	17076
719.510	15975
719.626	18392
719.743	20943
719.859	28157
719.975	49170
720.092	151411
720.208	479618
720.324	126357
720.440	24531
720.557	19658
720.673	19354
720.789	18685
720.905	21122
721.021	18106
721.137	15452
721.253	14840
721.369	15242
721.486	15680
721.602	16119
721.718	14972
721.834	14298
721.950	15414
722.066	15247
722.181	14970
722.297	15008
722.413	14308
722.529	14595
722.645	14190
722.761	13814
722.877	14705
722.993	15217
723.108	18574
723.224	17408
723.340	14796
723.456	13933
723.571	13984
723.687	13642
723.803	12742
723.918	15065
724.034	13260
724.150	13182
724.265	14298
724.381	14345
724.497	15477
724.612	13348
724.728	13278
724.843	13287
724.959	13089
725.074	14956
725.190	15654
725.305	13597
725.421	13298
725.536	13416
725.651	13942
725.767	13764
725.882	12681
725.997	12978
726.113	13020
726.228	13201
726.343	12761
726.459	12750
726.574	12960
726.689	13409
726.804	12739
726.920	12446
727.035	13657
727.150	13265
727.265	12815
727.380	13531
727.495	13463
727.610	12761
727.725	12991
727.841	12851
727.956	14854
728.071	15153
728.186	12621
728.301	11349
728.416	14229
728.531	13667
728.645	12632
728.760	12639
728.875	12543
728.990	13479
729.105	12187
729.220	12909
729.335	13407
729.449	12549
729.564	12552
729.679	12657
729.794	13327
729.908	12845
730.023	12544
730.138	13351
730.253	13118
730.367	12707
730.482	13179
730.596	13131
730.711	15156
730.826	19376
730.940	19482
731.055	17345
731.169	16155
731.284	17463
731.398	18062
731.513	18518
731.627	19426
731.742	23091
731.856	30002
731.970	28529
732.085	30973
732.199	38819
732.313	61116
732.428	134926
732.542	399543
732.656	377043
732.771	74993
732.885	41870
732.999	37568
733.113	41456
733.227	40743
733.342	39926
733.456	38245
733.570	37036
733.684	35133
733.798	34384
733.912	33735
734.026	34878
734.140	34905
734.254	33360
734.368	33066
734.482	33874
734.596	34694
734.710	31920
734.824	31883
734.938	30960
735.052	32650
735.166	31726
735.280	31493
735.393	30552
735.507	30473
735.621	32252
735.735	29561
735.849	31383
735.962	29831
736.076	30204
736.190	28941
736.303	28758
736.417	29975
736.531	27902
736.644	29615
736.758	28286
736.872	28158
736.985	27802
737.099	28512
737.212	26807
737.326	27013
737.439	27779
737.553	26508
737.666	26730
737.780	25669
737.893	27621
738.007	25673
738.120	29690
738.233	23939
738.347	28175
738.460	23981
738.573	27774
738.687	24160
738.800	26406
738.913	25885
739.026	26148
739.140	23857
739.253	25750
739.366	25048
739.479	24660
739.592	25954
739.705	22600
739.818	26297
739.932	24042
740.045	23509
740.158	25148
740.271	24086
740.384	25336
740.497	20077
740.610	24774
740.723	21822
740.836	22091
740.949	22405
741.062	25288
741.174	21973
741.287	21846
741.400	23663
741.513	21451
741.626	23741
741.739	22266
741.851	20866
741.964	22442
742.077	21992
742.189	19609
742.302	21861
742.415	21755
742.527	21201
742.640	22848
742.753	18622
742.865	21302
742.978	21585
743.090	20513
743.203	20716
743.316	20041
743.428	19111
743.541	21245
743.653	17732
743.766	20088
743.878	20721
743.990	17537
744.103	19791
744.215	20594
744.327	16689
744.440	21806
744.552	21014
744.664	17680
744.777	20037
744.889	20590
745.001	17316
745.113	19908
745.226	18821
745.338	17064
745.450	19677
745.562	19332
745.674	15848
745.786	20065
745.898	19896
746.010	17084
746.122	18341
746.234	18614
746.347	17526
746.459	18092
746.570	15219
746.682	17582
746.794	21300
746.906	16780
747.018	16088
747.130	18860
747.242	16305
747.354	15707
747.466	17284
747.577	16484
747.689	16135
747.801	17625
747.913	15677
748.024	16760
748.136	15652
748.248	15429
748.359	15856
748.471	17659
748.583	15748
748.694	14581
748.806	16852
748.918	15582
749.029	15653
749.141	16865
749.252	16638
749.364	14534
749.475	14890
749.587	14815
749.698	15071
749.809	16200
749.921	14750
750.032	14676
750.144	13738
750.255	14262
750.366	15013
750.478	14734
750.589	15909
750.700	13967
750.811	14602
750.923	13882
751.034	12653
751.145	16396
751.256	14071
751.367	13209
751.479	13698
751.590	13304
751.701	13596
751.812	12748
751.923	12491
752.034	15086
752.145	15335
752.256	14097
752.367	14139
752.478	14556
752.589	14488
752.700	15641
752.811	14151
752.922	14691
753.032	14633
753.143	14807
753.254	14442
753.365	14196
753.476	14806
753.586	15043
753.697	13305
753.808	14711
753.919	12370
754.029	13974
754.140	13199
754.251	13391
754.361	13667
754.472	14989
754.582	13715
754.693	13021
754.804	14557
754.914	14208
755.025	10817
755.135	13529
755.246	14371
755.356	13904
755.466	11332
755.577	12645
755.687	12911
755.798	13048
755.908	12195
756.018	13594
756.129	13083
756.239	12744
756.349	14365
756.460	12872
756.570	14320
756.680	13388
756.790	13051
756.900	14101
757.011	12812
757.121	11195
757.231	11880
757.341	13952
757.451	12014
757.561	12293
757.671	12055
757.781	13848
757.891	12461
758.001	12467
758.111	13067
758.221	14115
758.331	13786
758.441	12616
758.551	12991
758.661	14544
758.771	13101
758.880	14032
758.990	12556
759.100	13444
759.210	13609
759.320	13704
759.429	14404
759.539	14413
759.649	14205
759.758	15441
759.868	16309
759.978	15380
760.087	17571
760.197	16505
760.307	16148
760.416	15475
760.526	15213
760.635	15897
760.745	16757
760.854	17268
760.964	18274
761.073	18497
761.182	17955
761.292	16106
761.401	15402
761.511	13878
761.620	13503
761.729	14827
761.839	13958
761.948	13837
762.057	13175
762.166	14252
762.276	13664
762.385	13050
762.494	13634
762.603	13803
762.712	14564
762.822	14649
762.931	13688
763.040	13532
763.149	13748
763.258	14568
763.367	14465
763.476	14875
763.585	15579
763.694	15869
763.803	16021
763.912	16102
764.021	16739
764.130	17066
764.238	18336
764.347	19059
764.456	19390
764.565	20013
764.674	19987
764.783	21698
764.891	22924
765.000	25150
765.109	26644
765.217	29036
765.326	34135
765.435	39501
765.543	46743
765.652	56159
765.761	71641
765.869	96386
765.978	138861
766.086	219087
766.195	366690
766.303	627422
766.412	775716
766.520	736076
766.629	705126
766.737	381957
766.846	221072
766.954	145684
767.062	105874
767.171	80033
767.279	64667
767.387	52950
767.496	44430
767.604	38377
767.712	35699
767.820	32888
767.928	30743
768.037	27681
768.145	26858
768.253	26290
768.361	24842
768.469	25071
768.577	25026
768.685	26330
768.793	28135
768.901	29881
769.009	32882
769.117	38562
769.225	46544
769.333	63153
769.441	93045
769.549	155978
769.657	291877
769.765	569393
769.873	676999
769.981	649551
770.088	318119
770.196	158949
770.304	99224
770.412	72847
770.519	56806
770.627	45974
770.735	37823
770.842	33184
770.950	30636
771.058	30317
771.165	29342
771.273	30472
771.380	29476
771.488	32264
771.595	38049
771.703	32968
771.810	30421
771.918	30235
772.025	33520
772.133	40263
772.240	35467
772.348	40395
772.455	38492
772.562	34811
772.670	33879
772.777	34857
772.884	33321
772.991	31761
773.099	33044
773.206	31109
773.313	31668
773.420	31331
773.528	31502
773.635	30585
773.742	31799
773.849	28833
773.956	30873
774.063	28449
774.170	30629
774.277	29063
774.384	27670
774.491	27793
774.598	28122
774.705	27760
774.812	28251
774.919	26765
775.026	27472
775.133	26674
775.239	28034
775.346	27455
775.453	25451
775.560	27097
775.667	25773
775.773	26318
775.880	24349
775.987	25966
776.093	23956
776.200	28002
776.307	20684
776.413	22347
776.520	27444
776.627	26281
776.733	21597
776.840	20953
776.946	27987
777.053	25407
777.159	23282
777.266	23182
777.372	22934
777.478	24328
777.585	25255
777.691	20170
777.798	22301
777.904	22528
778.010	20384
778.117	22320
778.223	20630
778.329	22580
778.435	19484
778.542	21998
778.648	20202
778.754	18936
778.860	19836
778.966	21542
779.072	19022
779.178	20048
779.284	17672
779.391	18969
779.497	22301
779.603	21408
779.708	22047
779.815	26175
779.920	54913
780.026	114693
780.132	35727
780.238	21508
780.344	17178
780.450	23086
780.556	17942
780.661	14683
780.767	21166
780.873	15723
780.979	15548
781.085	19979
781.190	17338
781.296	16641
781.402	16740
781.507	17743
781.613	14680
781.719	15158
781.824	19977
781.930	17351
782.035	15104
782.141	19819
782.246	14005
782.352	14781
782.457	15940
782.563	17406
782.668	16837
782.773	15282
782.879	14578
782.984	15066
783.090	15396
783.195	14996
783.300	17653
783.405	14664
783.511	13337
783.616	13800
783.721	14827
783.826	14800
783.932	12119
784.037	15307
784.142	14660
784.247	14036
784.352	14606
784.457	13425
784.562	14420
784.667	15980
784.772	12635
784.877	10634
784.982	14160
785.087	16067
785.192	11854
785.297	13204
785.402	14496
785.507	13683
785.611	13509
785.716	11499
785.821	12329
785.926	12936
786.031	12661
786.135	13136
786.240	13323
786.345	12369
786.450	10492
786.554	12212
786.659	11357
786.763	12168
786.868	13002
786.973	13367
787.077	11074
787.182	10947
787.286	12002
787.391	14749
787.495	9854
787.600	8885
787.704	11405
787.809	11960
787.913	12019
788.017	10414
788.122	12646
788.226	11654
788.330	7862
788.435	11224
788.539	13201
788.643	10777
788.747	8142
788.852	10608
788.956	11200
789.060	12063
789.164	11106
789.268	10957
789.372	11290
789.476	10290
789.580	8077
789.684	9126
789.788	11367
789.892	11846
789.996	8482
790.100	8097
790.204	10356
790.308	11910
790.412	9378
790.516	7260
790.620	8644
790.724	12309
790.828	9987
790.931	8398
791.035	8032
791.139	9688
791.242	10589
791.346	8560
791.450	9958
791.554	9194
791.657	7513
791.761	8265
791.864	9288
791.968	9727
792.072	10057
792.175	8404
792.279	7968
792.382	8901
792.486	6956
792.589	8471
792.693	9625
792.796	8651
792.899	8924
793.003	9266
793.106	8305
793.209	8755
793.313	7491
793.416	6200
793.519	6853
793.623	9835
793.726	9528
793.829	7862
793.932	5949
794.035	7088
794.138	9614
794.242	11339
794.345	8642
794.448	8997
794.551	11809
794.654	25635
794.757	54630
794.860	17342
794.963	8818
795.066	7748
795.169	7859
795.272	8304
795.375	8908
795.477	6750
795.580	5789
795.683	6246
795.786	8646
795.889	7947
795.991	6274
796.094	7062
796.197	6052
796.300	7973
796.402	7960
796.505	6471
796.608	5616
796.710	6434
796.813	7958
796.915	8342
797.018	7321
797.120	6952
797.223	6999
797.326	8535
797.428	6327
797.530	5635
797.633	5434
797.735	7752
797.838	7153
797.940	8945
798.042	7602
798.145	6291
798.247	4964
798.349	5947
798.452	6605
798.554	6618
798.656	6662
798.758	8642
798.860	6103
798.962	6161
799.065	5629
799.167	5967
799.269	6121
799.371	6809
799.473	9403
799.575	8581
799.677	5415
799.779	6017
799.881	4885
799.983	7884
800.085	5778
800.187	6512
800.289	4320
800.390	5703
800.492	7695
800.594	6452
800.696	4908
800.798	4955
800.899	4935
801.001	5836
801.103	6105
801.205	6454
801.306	5815
801.408	5297
801.509	6270
801.611	5449
801.713	5946
801.814	6023
801.916	4326
802.017	5161
802.119	4154
802.220	5766
802.322	5263
802.423	7166
802.525	4912
802.626	5034
802.727	5755
802.829	6719
802.930	3171
803.031	5331
803.133	4629
803.234	5081
803.335	5694
803.436	4610
803.538	4651
803.639	3869
803.740	4636
803.841	5303
803.942	5393
804.043	5104
804.144	4321
804.245	5338
804.346	4861
804.447	4813
804.548	4404
804.649	5901
804.750	4104
804.851	4800
804.952	4525
805.053	5306
805.154	3995
805.255	4935
805.355	5002
805.456	4613
805.557	4249
805.658	4396
805.758	5260
805.859	4712
805.960	5028
806.061	4047
806.161	4412
806.262	4617
806.362	2842
806.463	4556
806.564	5609
806.664	4787
806.765	4020
806.865	3421
806.966	3289
807.066	4087
807.166	3576
807.267	4405
807.367	3313
807.468	4251
807.568	3356
807.668	3987
807.769	4152
807.869	4361
807.969	4187
808.069	4426
808.170	2914
808.270	4816
808.370	4750
808.470	5100
808.570	3805
808.670	3573
808.770	3488
808.870	3506
808.970	2834
809.070	3613
809.170	3196
809.271	4582
809.370	4075
809.470	4337
809.570	3230
809.670	2514
809.770	3491
809.870	3481
809.970	3995
810.070	4664
810.169	4034
810.269	3063
810.369	5007
810.469	5170
810.568	4414
810.668	3509
810.768	2993
810.867	3396
810.967	2818
811.066	3262
811.166	3619
811.265	4278
811.365	3302
811.464	4073
811.564	4562
811.663	4410
811.763	3612
811.862	5264
811.962	4012
812.061	3906
812.160	3529
812.260	4198
812.359	4343
812.458	4373
812.557	5415
812.657	6839
812.756	4747
812.855	4287
812.954	3997
813.053	4223
813.153	3233
813.252	3754
813.351	3823
813.450	4255
813.549	3426
813.648	3627
813.747	2852
813.846	3595
813.945	3929
814.044	4461
814.143	3820
814.242	4251
814.341	4339
814.439	5329
814.538	4927
814.637	4849
814.736	5253
814.835	5793
814.933	6116
815.032	6727
815.131	8228
815.229	15155
815.328	22240
815.427	17840
815.525	14444
815.624	14281
815.722	13846
815.821	14257
815.919	15507
816.018	14488
816.116	14340
816.215	14596
816.313	15987
816.412	17927
816.510	18588
816.609	19328
816.707	20598
816.805	20235
816.904	16698
817.002	19375
817.100	18575
817.198	18851
817.296	17777
817.395	18272
817.493	17945
817.591	16323
817.689	16877
817.787	17418
817.885	17182
817.983	16626
818.081	17928
818.179	21069
818.277	32525
818.375	32230
818.473	18131
818.571	15666
818.669	15868
818.767	17816
818.865	15597
818.963	13784
819.061	16350
819.158	17994
819.256	21582
819.354	27604
819.452	46746
819.549	38824
819.647	21136
819.745	14947
819.842	13733
819.940	15872
820.038	14501
820.135	13210
820.233	14174
820.330	14008
820.428	12709
820.525	14805
820.623	12694
820.720	12296
820.818	13428
820.915	15126
821.012	13287
821.110	12375
821.207	12382
821.304	12044
821.402	12636
821.499	13513
821.596	12180
821.693	12543
821.791	12940
821.888	12320
821.985	13747
822.082	11743
822.179	10814
822.276	13588
822.373	11092
822.470	10570
822.567	11651
822.664	11034
822.761	10618
822.858	12256
822.955	10255
823.052	9599
823.149	10735
823.246	13304
823.343	9438
823.440	9340
823.536	10693
823.633	12188
823.730	8438
823.827	10070
823.923	10609
824.020	9531
824.117	11314
824.213	12402
824.310	9908
824.407	8026
824.503	10737
824.600	10289
824.696	8033
824.793	11279
824.889	10378
824.986	10464
825.082	6819
825.179	8308
825.275	10323
825.371	12696
825.468	9761
825.564	5362
825.660	8699
825.757	13273
825.853	9066
825.949	8622
826.045	7955
826.142	9428
826.238	9662
826.334	9396
826.430	8853
826.526	7437
826.622	5871
826.718	9702
826.814	10983
826.910	9621
827.006	5657
827.102	6256
827.198	8698
827.294	10013
827.390	9131
827.486	7480
827.582	5965
827.678	6498
827.774	9963
827.869	7395
827.965	6306
828.061	6374
828.157	9200
828.252	9817
828.348	7300
828.444	6488
828.539	5725
828.635	8570
828.731	7609
828.826	5996
828.922	7660
829.017	8665
829.113	8501
829.208	6120
829.304	6427
829.399	8413
829.495	9015
829.590	6373
829.685	7258
829.781	7246
829.876	7871
829.971	5759
830.066	4036
830.162	5430
830.257	10143
830.352	8242
830.447	5532
830.543	5289
830.638	5740
830.733	8657
830.828	6519
830.923	7092
831.018	6788
831.113	8715
831.208	6003
831.303	3809
831.398	4870
831.493	5753
831.588	9471
831.683	7017
831.778	5087
831.873	5098
831.967	7012
832.062	7876
832.157	5892
832.252	6044
832.346	5090
832.441	6667
832.536	5194
832.631	7433
832.725	5048
832.820	5716
832.914	6052
833.009	4765
833.104	4565
833.198	4421
833.293	5375
833.387	7096
833.482	5365
833.576	5263
833.670	4686
833.765	5130
833.859	6458
833.954	6808
834.048	5083
834.142	5312
834.237	3574
834.331	5079
834.425	5812
834.519	5850
834.613	3784
834.708	5200
834.802	4445
834.896	5309
834.990	4633
835.084	4296
835.178	3609
835.272	4088
835.366	6294
835.460	6694
835.554	4988
835.648	3737
835.742	2048
835.836	3848
835.930	4263
836.024	5713
836.117	4497
836.211	4403
836.305	3542
836.399	4077
836.493	3340
836.586	5517
836.680	3853
836.774	4333
836.867	4567
836.961	3144
837.055	3899
837.148	2632
837.242	4580
837.335	4222
837.429	3550
837.522	4440
837.616	3356
837.709	4482
837.803	3512
837.896	4675
837.989	5446
838.083	2890
838.176	2755
838.269	3391
838.363	4077
838.456	3745
838.549	4065
838.642	4686
838.735	3320
838.829	3936
838.922	3578
839.015	3434
839.108	2784
839.201	3050
839.294	4388
839.387	3562
839.480	2132
839.573	3287
839.666	2894
839.759	3363
839.852	3206
839.945	3704
840.038	3394
840.131	2785
840.223	2704
840.316	4214
840.409	3273
840.502	4427
840.594	4752
840.687	2630
840.780	1597
840.873	1616
840.965	2650
841.058	2889
841.150	4406
841.243	3033
841.336	2448
841.428	2635
841.521	1902
841.613	3014
841.706	3040
841.798	2236
841.890	3427
841.983	2233
842.075	2751
842.167	2666
842.260	2534
842.352	3279
842.444	3166
842.537	3360
842.629	3062
842.721	2344
842.813	1984
842.905	3361
842.997	2948
843.090	3437
843.182	3288
843.274	2448
843.366	3525
843.458	5280
843.550	5193
843.642	3295
843.734	2927
843.826	2365
843.918	2591
844.009	2110
844.101	2545
844.193	2626
844.285	2815
844.377	3733
844.469	2186
844.560	1661
844.652	1815
844.744	2923
844.835	2524
844.927	3142
845.019	2658
845.110	3186
845.202	2385
845.293	2471
845.385	1726
845.476	2631
845.568	3031
845.659	2363
845.751	1787
845.842	1691
845.934	1640
846.025	2182
846.116	1674
846.208	2084
846.299	1535
846.390	1407
846.482	1964
846.573	2619
846.664	2516
846.755	2452
846.846	2899
846.937	1456
847.029	1763
847.120	2025
847.211	2017
847.302	3210
847.393	2398
847.484	2451
847.575	226
847.666	1554
847.757	1446
847.847	1581
847.938	2557
848.029	2466
848.120	2917
848.211	1369
848.302	1113
848.392	1632
848.483	1924
848.574	1455
848.664	2621
848.755	2395
848.846	1548
848.936	2743
849.027	1541
849.118	2489
849.208	2653
849.299	3364
849.389	4755
849.480	8627
849.570	15464
849.661	24999
849.751	49789
849.841	33564
849.932	6257
850.022	3397
850.112	3116
850.203	2777
850.293	1057
850.383	1322
850.474	1501
850.564	1007
850.654	1709
850.744	2704
850.834	1403
850.924	2281
851.014	2796
851.104	2350
851.194	2166
851.284	1888
851.374	1664
851.464	1583
851.554	1758
851.644	1955
851.734	3002
851.824	2107
851.914	2412
852.004	3515
852.094	2130
852.183	1293
852.273	1682
852.363	1207
852.452	1676
852.542	1829
852.632	1005
852.721	2548
852.811	1636
852.901	3109
852.990	2348
853.080	2666
853.169	2425
853.259	2039
853.348	2286
853.438	2940
853.527	3728
853.617	4706
853.706	9663
853.795	17140
853.885	33427
853.974	61540
854.063	94737
854.152	169510
854.242	114837
854.331	26214
854.420	9277
854.509	7052
854.598	4796
854.687	4061
854.777	4005
854.866	2389
854.955	2294
855.044	2073
855.133	1736
855.222	2340
855.311	1916
855.400	2058
855.488	1877
855.577	1737
855.666	857
855.755	2205
855.844	1825
855.933	2144
856.021	1187
856.110	1304
856.199	-63
856.288	1728
856.376	445
856.465	1184
856.554	1234
856.642	2561
856.731	1811
856.819	2612
856.908	1301
856.996	1605
857.085	1149
857.173	1483
857.262	935
857.350	1357
857.438	591
857.527	2244
857.615	1125
857.703	2141
857.792	1496
857.880	1072
857.968	816
858.056	1272
858.145	1315
858.233	1686
858.321	1293
858.409	1550
858.497	1648
858.585	1345
858.673	1371
858.761	1251
858.849	570
858.937	1165
859.025	633
859.113	1907
859.201	1852
859.289	2611
859.377	1500
859.465	2542
859.552	862
859.640	509
859.728	1216
859.816	1308
859.903	1773
859.991	1599
860.079	1609
860.166	2301
860.254	1843
860.342	1438
860.429	1402
860.517	891
860.604	1673
860.692	1994
860.779	933
860.867	1599
860.954	984
861.042	1914
861.129	2581
861.216	2055
861.304	1937
861.391	1649
861.478	2163
861.565	1886
861.653	1432
861.740	1315
861.827	968
861.914	2448
862.001	539
862.089	2127
862.176	1672
862.263	1344
862.350	857
862.437	1495
862.524	885
862.611	1779
862.698	2480
862.785	2269
862.871	2520
862.958	2696
863.045	2164
863.132	2002
863.219	2459
863.306	1507
863.392	2262
863.479	1898
863.566	1319
863.652	2157
863.739	1606
863.826	2319
863.912	2488
863.999	1756
864.086	2294
864.172	1962
864.259	3020
864.345	2824
864.432	3031
864.518	2709
864.604	2233
864.691	2717
864.777	2327
864.863	4933
864.950	5561
865.036	7365
865.122	12267
865.209	16098
865.295	13756
865.381	13166
865.467	12544
865.553	13104
865.639	14756
865.726	17209
865.812	25457
865.898	41515
865.984	56609
866.070	80879
866.156	125322
866.242	64383
866.328	21191
866.414	13240
866.499	13107
866.585	12045
866.671	11556
866.757	11851
866.843	10798
866.928	10483
867.014	9336
867.100	11520
867.186	10251
867.271	9348
867.357	10292
867.442	9867
867.528	9566
867.614	10014
867.699	10141
867.785	10106
867.870	8856
867.956	9497
868.041	9687
868.127	8633
868.212	9610
868.297	8895
868.383	9502
868.468	9393
868.553	9474
868.639	8885
868.724	8917
868.809	10286
868.894	7733
868.979	9547
869.065	9270
869.150	7655
869.235	8108
869.320	8839
869.405	7280
869.490	8813
869.575	9124
869.660	6997
869.745	7560
869.830	9879
869.915	8275
870.000	7072
870.085	8075
870.169	9051
870.254	9717
870.339	7556
870.424	6349
870.509	7628
870.593	9122
870.678	8771
870.763	7170
870.847	6539
870.932	6836
871.016	9711
871.101	6827
871.186	5630
871.270	8949
871.355	7218
871.439	5347
871.523	8088
871.608	6719
871.692	5632
871.777	7914
871.861	8669
871.945	6876
872.030	7721
872.114	7259
872.198	7252
872.282	6010
872.367	6110
872.451	6632
872.535	6887
872.619	6792
872.703	6012
872.787	7727
872.871	7138
872.955	6200
873.039	5763
873.123	5956
873.207	7716
873.291	5645
873.375	5268
873.459	7383
873.543	6722
873.627	5616
873.711	5597
873.794	6394
873.878	6804
873.962	4568
874.045	5201
874.129	5213
874.137	5305
874.213	6225
874.245	6060
874.296	5798
874.352	5442
874.380	5271
874.460	5349
874.464	5354
874.547	5586
874.568	5589
874.631	5600
874.676	5708
874.714	5801
874.784	6197
874.798	6272
874.881	6013
874.892	5784
874.965	4316
874.999	4777
875.048	5351
875.107	5829
875.131	6029
875.215	4804
875.215	4802
875.298	3490
875.323	3794
875.381	4640
875.430	5997
875.465	6868
875.538	6478
875.548	6434
875.631	3851
875.646	3938
875.714	4321
875.753	4097
875.798	3876
875.861	5584
875.881	6118
875.964	5375
875.968	5269
876.047	3337
876.076	3894
876.130	4998
876.183	5048
876.213	5064
876.291	5284
876.296	5292
876.379	5112
876.398	4798
876.462	3763
876.506	3503
876.545	3318
876.613	3398
876.628	3432
876.711	4583
876.721	4697
876.794	5405
876.828	5187
876.877	4891
876.935	4403
876.960	4198
877.043	4464
877.043	4461
877.125	3789
877.150	4142
877.208	4862
877.258	4833
877.291	4807
877.365	3720
877.374	3587
877.456	3019
877.472	3070
877.539	3343
877.579	3596
877.622	3980
877.687	4842
877.704	4986
877.787	3896
877.794	3919
877.869	4396
877.901	4183
877.952	3821
878.008	3673
878.034	3479
878.115	2844
878.117	2841
878.199	3898
878.222	3868
878.282	3753
878.329	4544
878.364	5147
878.437	4609
878.447	4460
878.529	3159
878.544	2988
878.611	2584
878.651	3052
878.694	3636
878.758	3876
878.776	3900
878.858	4830
878.865	4767
878.941	3754
878.972	3513
879.023	3202
879.078	3009
879.105	3107
879.185	4581
879.187	4597
879.269	3598
879.292	3709
879.351	4276
879.399	4164
879.433	3836
879.506	3262
879.516	3215
879.598	2967
879.613	2872
879.680	2635
879.720	3160
879.762	3716
879.827	3606
879.844	3510
879.926	2683
879.933	2747
880.007	3493
880.040	3254
880.089	2948
880.147	3418
880.171	3700
880.253	4567
880.254	4568
880.335	4285
880.360	4434
880.417	5015
880.467	5565
880.499	6139
880.574	7536
880.580	7501
880.662	5922
880.680	5356
880.744	3555
880.787	2904
880.825	2544
880.893	3104
880.907	3334
880.989	3250
881.000	3249
881.070	2904
881.106	3233
881.152	3601
881.213	3203
881.233	2993
881.315	2457
881.319	2455
881.396	3192
881.426	3313
881.478	3100
881.532	3247
881.559	3464
881.639	3491
881.641	3475
881.722	2715
881.745	2676
881.803	3093
881.852	3212
881.885	3167
881.958	2960
881.966	2926
882.047	2531
882.064	2603
882.129	3127
882.171	2910
882.210	2439
882.277	2081
882.291	2048
882.372	1945
882.383	2052
882.454	3444
882.489	3604
882.535	3344
882.596	3301
882.616	3372
882.697	3035
882.702	3033
882.778	2534
882.808	2417
882.859	2077
882.914	1740
882.940	1736
883.020	1915
883.021	1919
883.102	2639
883.127	2807
883.183	3492
883.233	4220
883.264	4056
883.339	2581
883.345	2443
883.426	1443
883.445	1238
883.507	1415
883.551	1695
883.587	2267
883.657	3096
883.668	3128
883.749	3619
883.763	3558
883.830	2625
883.869	2343
883.910	2290
883.975	2216
883.991	2265
884.072	2426
884.081	2460
884.152	2852
884.187	3082
884.233	3488
884.292	3897
884.314	3614
884.394	1859
884.398	1799
884.475	1297
884.504	1146
884.555	1440
884.610	1707
884.636	1808
884.716	2476
884.716	2480
884.797	2902
884.821	3049
884.877	3023
884.927	2637
884.958	2390
885.033	1948
885.038	1921
885.118	1889
885.139	1830
885.199	2286
885.244	2705
885.279	2651
885.350	2453
885.359	2570
885.439	3890
885.456	4069
885.520	3555
885.561	3055
885.600	2483
885.667	1880
885.680	1968
885.760	2412
885.773	2491
885.840	2253
885.878	2045
885.920	1842
885.984	1808
886.000	2041
886.080	2957
886.089	3085
886.160	3369
886.195	3268
886.240	2843
886.300	2470
886.320	2381
886.400	2093
886.406	2073
886.480	2141
886.511	2100
886.560	2066
886.616	2199
886.640	2249
886.720	2306
886.722	2304
886.800	2121
886.827	2122
886.879	2125
886.932	2187
886.959	2557
887.038	3338
887.039	3331
887.119	2633
887.143	2394
887.198	2269
887.248	2096
887.278	2077
887.354	2344
887.358	2339
887.437	1990
887.459	1944
887.517	2437
887.564	2664
887.596	2396
887.669	1859
887.676	1852
887.755	1929
887.774	1890
887.835	1378
887.880	1129
887.914	1503
887.985	2224
887.994	2314
888.073	3154
888.090	3313
888.153	3776
888.195	4023
888.232	3466
888.300	2463
888.311	2418
888.391	2159
888.405	2108
888.470	1933
888.510	1823
888.549	1955
888.615	2225
888.628	2334
888.708	3015
888.720	3102
888.787	3159
888.825	3186
888.866	2598
888.930	1672
888.945	1595
889.024	1325
889.035	1273
889.103	2066
889.140	2519
889.182	2297
889.245	1954
889.261	1972
889.340	2078
889.349	2088
889.419	2330
889.454	2458
889.498	2131
889.559	1692
889.577	1815
889.656	2356
889.664	2410
889.735	2912
889.768	3145
889.814	2971
889.873	2725
889.978	2115
890.083	2763
890.187	2427
890.292	3068
890.397	2132
890.501	2216
890.606	1225
890.710	1903
890.815	2136
890.919	2857
891.024	2438
891.128	2185
891.233	1677
891.337	2451
891.442	2011
891.546	2374
891.650	1900
891.755	1362
891.859	1904
891.963	2524
892.068	1870
892.172	2057
892.276	1331
892.380	1682
892.484	1658
892.589	3179
892.693	2535
892.797	1151
892.901	135
893.005	1449
893.109	3094
893.213	2822
893.317	1335
893.421	1467
893.525	738
893.629	2065
893.733	2792
893.837	2527
893.941	1081
894.045	1577
894.148	560
894.252	1418
894.356	1708
894.460	4075
894.564	2425
894.667	1760
894.771	1315
894.875	1198
894.978	1061
895.082	2217
895.186	1986
895.289	1806
895.393	1945
895.496	3383
895.600	1716
895.703	1523
895.807	882
895.910	2502
896.014	2411
896.117	1059
896.221	1870
896.324	1475
896.427	1401
896.531	1295
896.634	1403
896.737	1669
896.840	1885
896.944	2338
897.047	1970
897.150	1601
897.253	1277
897.356	1612
897.460	306
897.563	1201
897.666	1574
897.769	1433
897.872	1308
897.975	1606
898.078	991
898.181	1210
898.284	954
898.387	2713
898.490	1678
898.593	1622
898.695	898
898.798	2103
898.901	828
899.004	1600
899.107	908
899.209	2157
899.312	2683
899.415	1032
899.518	547
899.620	1276
899.723	1387
899.826	2140
899.928	1290
900.031	1173
900.133	2057
900.236	1600
900.338	140
900.441	1284
900.543	692
900.646	1748
900.748	1654
900.851	1448
900.953	1957
901.055	1233
901.158	400
901.260	1400
901.362	213
901.465	1119
901.567	1083
901.669	2118
901.771	1004
901.873	1837
901.976	1235
902.078	853
902.180	672
902.282	972
902.384	951
902.486	1884
902.588	1953
902.690	1123
902.792	694
902.894	1334
902.996	1068
903.098	2028
903.200	661
903.302	1547
903.404	686
903.505	1219
903.607	460
903.709	2581
903.811	1381
903.913	1701
904.014	663
904.116	500
904.218	371
904.319	1585
904.421	1561
904.523	2483
904.624	1178
904.726	1532
904.827	333
904.929	824
905.030	156
905.132	1707
905.233	1605
905.335	1018
905.436	823
905.537	719
905.639	1534
905.740	1288
905.841	1741
905.943	1559
906.044	694
906.145	1595
906.247	432
906.348	675
906.449	600
906.550	1262
906.651	761
906.752	972
906.854	613
906.955	697
907.056	210
907.157	2092
907.258	2020
907.359	972
907.460	-453
907.561	1290
907.662	786
907.762	640
907.863	1212
907.964	2323
908.065	1198
908.166	1325
908.267	1024
908.367	146
908.468	379
908.569	1543
908.670	745
908.770	896
908.871	992
908.971	1344
909.072	285
909.173	712
909.273	1116
909.374	1607
909.474	1759
909.575	1540
909.675	689
909.776	898
909.876	1112
909.977	1217
910.077	1416
910.177	1107
910.278	1818
910.378	809
910.478	765
910.579	1960
910.679	930
910.779	2423
910.879	1273
910.980	1467
911.080	1057
911.180	17
911.280	909
911.380	922
911.480	724
911.580	1010
911.680	985
911.780	1390
911.880	1174
911.980	811
912.080	1324
912.180	1406
912.280	1046
912.380	1423
912.480	649
912.580	547
912.679	-138
912.779	1614
912.879	889
912.979	1110
913.078	995
913.178	1037
913.278	308
913.377	1334
913.477	-342
913.577	1147
913.676	693
913.776	1031
913.875	1115
913.975	662
914.074	742
914.174	1352
914.273	-312
914.373	1108
914.472	569
914.572	1035
914.671	725
914.770	1407
914.870	855
914.969	1019
915.068	1988
915.167	428
915.267	825
915.366	454
915.465	96
915.564	1269
915.663	257
915.763	1227
915.862	1473
915.961	1091
916.060	542
916.159	685
916.258	221
916.357	887
916.456	1202
916.555	1544
916.654	-17
916.752	1355
916.851	1555
916.950	1308
917.049	438
917.148	770
917.247	187
917.345	871
917.444	102
917.543	1100
917.642	738
917.740	1568
917.839	2479
917.937	2519
918.036	1196
918.135	1186
918.233	817
918.332	1074
918.430	900
918.529	843
918.627	517
918.726	1483
918.824	1462
918.923	527
919.021	445
919.119	569
919.218	781
919.316	1087
919.414	1127
919.512	1371
919.611	796
919.709	1035
919.807	1281
919.905	1908
920.003	1263
920.102	1967
920.200	1342
920.298	1723
920.396	1142
920.494	1716
920.592	2162
920.690	1546
920.788	1259
920.886	1463
920.984	1121
921.082	1576
921.180	2348
921.277	2303
921.375	2396
921.473	3910
921.571	2724
921.669	3344
921.766	2501
921.864	3316
921.962	2714
922.060	2822
922.157	2038
922.255	2654
922.352	2974
922.450	3098
922.548	3071
922.645	3944
922.743	5351
922.840	7362
922.938	9477
923.035	8135
923.133	8423
923.230	8975
923.327	11631
923.425	11092
923.522	10912
923.619	9394
923.717	8523
923.814	8222
923.911	8691
924.008	9120
924.106	8094
924.203	7431
924.300	8014
924.397	8466
924.494	7270
924.591	8558
924.688	6887
924.786	8096
924.883	7889
924.979	8063
925.077	7981
925.173	7270
925.270	7723
925.367	7934
925.464	7820
925.561	8701
925.658	9805
925.755	7111
925.852	9125
925.948	8170
926.045	7065
926.142	7337
926.239	7424
926.335	6528
926.432	6700
926.529	8004
926.625	7907
926.722	7202
926.818	6907
926.915	7750
927.011	6543
927.108	6966
927.204	6971
927.301	5787
927.397	6880
927.494	8445
927.590	5146
927.687	5598
927.783	7767
927.879	8049
927.976	6764
928.072	5655
928.168	6350
928.264	7210
928.361	4954
928.457	7937
928.553	5549
928.649	5532
928.745	6481
928.841	5892
928.937	5573
929.033	6675
929.129	5525
929.225	7363
929.321	6555
929.417	5328
929.513	6256
929.609	6186
929.705	4941
929.801	6074
929.897	6344
929.993	5365
930.089	6566
930.184	5148
930.280	5255
930.376	7906
930.471	6085
930.567	5007
930.663	5483
930.758	4724
930.854	4820
930.950	5031
931.045	4889
931.141	5874
931.236	6249
931.332	5650
931.427	3776
931.523	6431
931.618	6179
931.714	4331
931.809	5285
931.905	6332
932.000	5070
932.095	4604
932.191	4668
932.286	6628
932.381	5828
932.476	3828
932.572	4617
932.667	4646
932.762	3473
932.857	5705
932.952	5065
933.047	4712
933.142	3399
933.237	5354
933.332	5548
933.427	6185
933.522	5234
933.617	4042
933.712	4187
933.807	5521
933.902	6184
933.997	5369
934.092	4465
934.187	4331
934.282	4298
934.376	4574
934.471	4228
934.566	4458
934.661	3801
934.755	4766
934.850	4897
934.945	4476
935.039	3405
935.134	3129
935.228	3650
935.323	6607
935.417	4192
935.512	3094
935.606	2758
935.701	5132
935.795	5038
935.890	4761
935.984	3874
936.079	3130
936.173	4304
936.267	4317
936.362	2689
936.456	3539
936.550	5775
936.644	5260
936.738	2713
936.833	2928
936.927	2005
937.021	3275
937.115	3527
937.209	4980
937.303	3684
937.397	2588
937.491	3803
937.585	4730
937.679	4207
937.773	2920
937.867	2862
937.961	3119
938.055	4914
938.149	4738
938.243	2011
938.337	2247
938.430	2929
938.524	4713
938.618	3342
938.712	2329
938.805	3222
938.899	3497
938.993	4563
939.086	4348
939.180	1607
939.274	2639
939.367	3315
939.461	4339
939.554	2805
939.648	2920
939.741	3113
939.835	3405
939.928	3704
940.022	4516
940.115	3178
940.208	3900
940.302	4466
940.395	5213
940.488	2235
940.582	3172
940.675	2299
940.768	3020
940.861	3901
940.954	5077
941.048	2558
941.141	2458
941.234	2466
941.327	3590
941.420	3597
941.513	4544
941.606	3000
941.699	2423
941.792	3158
941.885	2846
941.978	3350
942.071	4153
942.164	1839
942.257	2440
942.349	2904
942.442	3215
942.535	1835
942.628	2652
942.721	2162
942.813	2215
942.906	3623
942.999	3554
943.091	2180
943.184	2293
943.277	2859
943.369	1366
943.462	1181
943.554	2962
943.647	2498
943.739	2896
943.832	3684
943.924	1272
944.017	915
944.109	1507
944.201	1845
944.294	2388
944.386	2149
944.478	2782
944.571	1475
944.663	2546
944.755	1985
944.847	3950
944.940	3039
945.032	2122
945.124	1269
945.216	2524
945.308	2337
945.400	2666
945.492	2130
945.584	3181
945.676	3258
945.768	2883
945.860	2974
945.952	3314
946.044	2451
946.136	2659
946.228	1471
946.320	2191
946.412	2468
946.503	3845
946.595	2479
946.687	2379
946.779	911
946.870	1941
946.962	1323
947.054	1287
947.145	2345
947.237	2529
947.329	2185
947.420	1979
947.512	1786
947.603	1546
947.695	1272
947.786	2059
947.878	405
947.969	2590
948.061	1980
948.152	2519
948.243	1449
948.335	1070
948.426	791
948.517	1986
948.609	1564
948.700	1921
948.791	1330
948.882	884
948.973	1406
949.065	2310
949.156	1694
949.247	806
949.338	1386
949.429	1234
949.520	749
949.611	1753
949.702	2127
949.793	2047
949.884	1765
949.975	2224
950.066	1211
950.157	1724
950.247	2265
950.338	1070
950.429	320
950.520	1819
950.611	726
950.701	2084
950.792	2516
950.883	2496
950.973	1251
951.064	2480
951.155	1756
951.245	2132
951.336	1582
951.427	2910
951.517	2143
951.608	2055
951.698	1433
951.788	1308
951.879	504
951.969	1717
952.060	954
952.150	1391
952.240	1567
952.331	1963
952.421	2066
952.511	1066
952.602	900
952.692	-134
952.782	1201
952.872	660
952.962	1863
953.052	1192
953.143	862
953.233	1371
953.323	1384
953.413	1308
953.503	2427
953.593	1131
953.683	1195
953.773	1099
953.863	871
953.953	972
954.042	954
954.132	1737
954.222	1110
954.312	909
954.402	657
954.492	1475
954.581	819
954.671	946
954.761	465
954.850	1570
954.940	1227
955.030	385
955.119	280
955.209	1010
955.298	1034
955.388	1680
955.477	1272
955.567	155
955.656	179
955.746	1552
955.835	378
955.925	363
956.014	1157
956.103	1752
956.193	2422
956.282	1569
956.371	868
956.461	1453
956.550	1000
956.639	1067
956.728	854
956.817	1341
956.906	1073
956.995	1964
957.085	1680
957.174	689
957.263	647
957.352	1322
957.441	750
957.530	1643
957.619	201
957.708	616
957.796	11
957.885	1136
957.974	937
958.063	478
958.152	349
958.241	14
958.329	312
958.418	1263
958.507	185
958.596	1327
958.684	353
958.773	1147
958.861	808
958.950	466
959.039	515
959.127	1072
959.216	1081
959.304	538
959.393	511
959.481	1144
959.570	-335
959.658	26
959.746	196
959.835	735
959.923	281
960.011	855
960.100	371
960.188	1275
960.276	754
960.365	408
960.453	-583
960.541	-677
960.629	-400
960.717	720
960.805	625
960.893	129
960.981	130
961.069	1922
961.158	1367
961.245	2107
961.333	817
961.421	1217
961.509	567
961.597	937
961.685	376
961.773	660
961.861	331
961.949	373
962.036	316
962.124	236
962.212	-507
962.299	411
962.387	-506
962.475	-75
962.562	-326
962.650	193
962.738	230
962.825	139
962.913	-24
963.000	399
963.088	-274
963.175	649
963.263	1061
963.350	584
963.438	-260
963.525	130
963.612	81
963.700	1389
963.787	862
963.874	559
963.962	124
964.049	511
964.136	64
964.223	307
964.310	532
964.398	38
964.485	-495
964.572	549
964.659	639
964.746	933
964.833	111
964.920	339
965.007	875
965.094	981
965.181	-122
965.268	428
965.355	65
965.441	-305
965.528	-451
965.615	569
965.702	-124
965.789	534
965.875	61
965.962	919
966.049	-609
966.136	1673
966.222	1169
966.309	-138
966.395	458
966.482	971
966.569	395
966.655	1176
966.742	942
966.828	-198
966.915	-458
967.001	656
967.087	-37
967.174	-99
967.260	-46
967.347	381
967.433	361
967.519	626
967.605	577
967.692	391
967.778	-342
967.864	-437
967.950	401
968.036	802
968.123	308
968.209	705
968.295	-159
968.381	740
968.467	921
968.553	720
968.639	557
968.725	991
968.811	974
968.897	1184
968.983	305
969.069	151
969.154	334
969.240	-74
969.326	-198
969.412	-342
969.497	-852
969.583	476
969.669	1062
969.755	356
969.840	376
969.926	1414
970.012	1561
970.097	2780
970.183	2835
970.268	1326
970.354	530
970.439	693
970.525	481
970.610	672
970.696	120
970.781	753
970.866	-374
970.952	65
971.037	-834
971.122	401
971.208	197
971.293	562
971.378	360
971.463	742
971.549	-364
971.634	-124
971.719	-172
971.804	652
971.889	153
971.974	26
972.059	-23
972.144	633
972.229	-772
972.314	262
972.399	181
972.484	-530
972.569	-421
972.654	-84
972.739	330
972.824	553
972.908	271
972.993	-177
973.078	-660
973.163	-442
973.247	51
973.332	-489
973.417	768
973.501	-402
973.586	-298
973.671	502
973.755	-215
973.840	962
973.924	409
974.009	596
974.093	730
974.178	1389
974.262	1008
974.346	810
974.431	175
974.515	-149
974.600	176
974.684	542
974.768	-643
974.852	635
974.937	-673
975.021	-207
975.105	838
975.189	669
975.273	128
975.358	-241
975.442	-617
975.526	290
975.610	209
975.694	332
975.778	913
975.862	205
975.946	-622
976.030	664
976.114	318
976.198	122
976.281	-414
976.365	-123
976.449	478
976.533	445
976.617	-316
976.700	-351
976.784	223
976.868	-102
976.951	213
977.035	568
977.119	-489
977.202	241
977.286	448
977.369	492
977.453	1646
977.536	2023
977.620	533
977.703	774
977.787	-402
977.870	953
977.953	1491
978.037	-40
978.120	-406
978.203	-229
978.287	176
978.370	573
978.453	-1309
978.536	127
978.620	414
978.703	748
978.786	336
978.869	-277
978.952	-373
979.035	1294
979.118	1190
979.201	579
979.284	645
979.367	821
979.450	-79
979.533	386
979.616	-159
979.699	-402
979.782	-201
979.865	278
979.948	-485
980.030	-44
980.113	406
980.196	-57
980.279	518
980.361	-353
980.444	497
980.526	273
980.609	815
980.692	2621
980.774	1685
980.857	620
980.939	1245
981.022	1006
981.104	-51
981.187	675
981.269	272
981.352	977
981.434	146
981.516	-147
981.599	523
981.681	813
981.763	-631
981.846	533
981.928	544
982.010	610
982.092	-232
982.174	469
982.256	156
982.339	341
982.421	352
982.503	340
982.585	-756
982.667	61
982.749	-50
982.831	-33
982.913	23
982.995	556
983.077	-342
983.158	926
983.240	-217
983.322	1197
983.404	1880
983.486	2143
983.568	1386
983.649	1370
983.731	1109
983.813	757
983.894	487
983.976	829
984.058	58
984.139	1387
984.221	93
984.302	364
984.384	91
984.465	-379
984.547	-6
984.628	401
984.710	934
984.791	1004
984.872	301
984.954	669
985.035	1191
985.116	-195
985.198	238
985.279	824
985.360	13
985.441	44
985.522	662
985.604	85
985.685	-1055
985.766	1348
985.847	901
985.928	704
986.009	590
986.090	836
986.171	536
986.252	798
986.333	312
986.414	192
986.495	245
986.576	878
986.656	874
986.737	1321
986.818	-1
986.899	812
986.980	273
987.060	1095
987.141	426
987.222	1986
987.302	1278
987.383	2366
987.464	1121
987.544	1236
987.625	1548
987.705	1797
987.786	1408
987.866	1663
987.947	1084
988.027	2064
988.108	828
988.188	2098
988.268	421
988.349	1764
988.429	1036
988.509	1630
988.589	747
988.670	602
988.750	1564
988.830	1104
988.910	454
988.990	1213
989.070	671
989.151	1054
989.231	305
989.311	1128
989.391	342
989.471	1044
989.551	920
989.631	871
989.711	1297
989.791	430
989.870	487
989.950	1642
990.030	795
990.110	1610
990.190	274
990.269	485
990.349	491
990.429	934
990.509	592
990.588	751
990.668	172
990.747	839
990.827	733
990.907	874
990.986	410
991.066	1477
991.145	-168
991.225	543
991.304	812
991.383	851
991.463	329
991.542	878
991.622	134
991.701	-307
991.780	-745
991.859	377
991.939	408
992.018	708
992.097	-1
992.176	240
992.256	-195
992.335	210
992.414	1248
992.493	161
992.572	-412
992.651	792
992.730	-95
992.809	60
992.888	-248
992.967	813
993.046	-225
993.125	163
993.203	-460
993.282	762
993.361	427
993.440	140
993.519	-495
993.597	785
993.676	-487
993.755	469
993.834	38
993.912	-386
993.991	159
994.069	63
994.148	290
994.226	48
994.305	-64
994.384	196
994.462	608
994.540	146
994.619	-840
994.697	400
994.776	-19
994.854	251
994.932	-1065
995.011	-7
995.089	-306
995.167	-58
995.245	-107
995.324	-408
995.402	667
995.480	-52
995.558	-315
995.636	-787
995.714	-704
995.792	1201
995.870	-370
995.948	-13
996.026	-655
996.104	-416
996.182	-288
996.260	-356
996.338	-702
996.416	-1244
996.494	-277
996.572	-235
996.649	-859
996.727	-420
996.805	449
996.883	-465
996.960	-300
997.038	-342
997.116	-1097
997.193	-893
997.271	-381
997.348	-382
997.426	-602
997.504	-22
997.581	-247
997.658	57
997.736	-770
997.813	-936
997.891	-73
997.968	-1209
998.046	-850
998.123	-654
998.200	-733
998.277	-283
998.355	-635
998.432	-1159
998.509	-1358
998.586	-312
998.663	-984
998.741	-1143
998.818	-1364
998.895	-607
998.972	-387
999.049	719
999.126	-1399
999.203	-629
999.280	-1407
999.357	-915
999.434	-282
999.511	-881
999.587	-880
999.664	-1117
999.741	-570
999.818	-95
999.895	-908
999.971	-893
1000.048	-1391
1000.125	34
1000.202	-1635
1000.278	-205
1000.355	-241
1000.431	-983
1000.508	-998
1000.584	-1113
1000.661	150
1000.738	-1309
1000.814	-856
1000.890	96
1000.967	-588
1001.043	-370
1001.120	-1789
1001.196	-744
1001.272	-1103
1001.349	-1581
1001.425	-499
1001.501	-1071
1001.577	-1179
1001.654	-209
1001.730	-1042
1001.806	-1490
1001.882	-1524
1001.958	-422
1002.034	-591
1002.110	-354
1002.186	-881
1002.262	-1090
1002.338	-1715
1002.414	-1023
1002.490	-799
1002.566	-852
1002.642	-1695
1002.718	-618
1002.794	-1397
1002.870	-1416
1002.945	-615
1003.021	-1070
1003.097	-1123
1003.173	-222
1003.248	-580
1003.324	-1206
1003.400	-1087
1003.475	-1069
1003.551	-1375
1003.626	-1512
1003.702	-653
1003.777	-1038
1003.853	-2019
1003.928	-1157
1004.004	-1239
1004.079	-524
1004.155	-1481
1004.230	-2177
1004.305	-764
1004.381	-1111
1004.456	-477
1004.531	-1299
1004.607	-1435
1004.682	-1117
1004.757	-1285
1004.832	-1877
1004.907	-626
1004.982	-393
1005.057	-1103
1005.133	-1459
1005.208	-1953
1005.283	-183
1005.358	-1174
1005.433	-1315
1005.508	-1393
1005.583	-1500
1005.657	-1865
1005.732	-1245
1005.807	-1808
1005.882	-1254
1005.957	-1884
1006.032	-710
1006.106	-940
1006.181	-983
1006.256	-1372
1006.331	-944
1006.405	-1494
1006.480	-1740
1006.554	-1053
1006.629	-1162
1006.704	-738
1006.778	-985
1006.853	-952
1006.927	-1146
1007.002	-1913
1007.076	-564
1007.150	-1534
1007.225	-1530
1007.299	-1812
1007.373	-1294
1007.448	-1098
1007.522	-973
1007.596	-1061
1007.671	-1552
1007.745	-940
1007.819	-1511
1007.893	-1662
1007.967	-546
1008.041	-1941
1008.115	-826
1008.190	-1361
1008.264	-408
1008.338	-1828
1008.412	-1032
1008.486	-1400
1008.560	-1160
1008.633	-2342
1008.707	-1156
1008.781	-1014
1008.855	-1411
1008.929	-986
1009.003	-1966
1009.076	-1840
1009.150	-991
1009.224	-1623
1009.298	-626
1009.371	-2583
1009.445	-1296
1009.519	-936
1009.592	-1416
1009.666	-1376
1009.739	-818
1009.813	-2223
1009.886	-1027
1009.960	-2546
1010.033	-503
1010.107	-110
1010.180	-1044
1010.253	-2282
1010.327	-2444
1010.400	-1720
1010.473	-671
1010.547	-1134
1010.620	-1484
1010.693	-1383
1010.766	-1241
1010.840	-1283
1010.913	-1380
1010.986	-1784
1011.059	-1031
1011.132	-2074
1011.205	-597
1011.278	-1842
1011.351	-1086
1011.424	-1777
1011.497	-1447
1011.570	-1082
1011.643	-1300
1011.716	-1055
1011.789	-1146
1011.862	-1551
1011.934	-1162
1012.007	-2020
1012.080	-1069
1012.153	-1676
1012.225	-778
1012.298	-2198
1012.371	-1505
1012.443	-1289
1012.516	-1081
1012.588	-1325
1012.661	-774
1012.733	-1338
1012.806	-777
1012.879	-2275
1012.951	-772
1013.023	-1454
1013.096	-1051
1013.168	-2234
1013.241	-1755
1013.313	-1566
1013.385	-1816
1013.458	-1613
1013.530	-69
1013.602	-1490
1013.674	-854
1013.746	-2368
1013.819	-1640
1013.891	-1539
1013.963	-825
1014.035	-1543
1014.107	-775
1014.179	-1774
1014.251	-1473
1014.323	-1107
1014.395	-1550
1014.467	-1173
1014.539	-974
1014.611	-2263
1014.683	-896
1014.754	-1712
1014.826	-2425
1014.898	-699
1014.970	-2112
1015.042	-1642
1015.113	-767
1015.185	-1288
1015.257	-2397
1015.328	-2049
1015.400	-1380
1015.471	-1301
1015.543	-1717
1015.615	-2255
1015.686	-688
1015.757	-1891
1015.829	-1012
1015.901	-1658
1015.972	-1164
1016.043	-1440
1016.115	-1427
1016.186	-1411
1016.257	-1765
1016.328	-1350
1016.400	-400
1016.471	-2087
1016.542	-1344
1016.613	-1923
1016.685	-572
1016.756	-1842
1016.827	-1309
1016.898	-1298
1016.969	-736
1017.040	-1956
1017.111	-1866
1017.182	-2031
1017.253	-1707
1017.324	-2388
1017.395	-1373
1017.466	-1826
1017.537	-1815
1017.608	-1556
1017.678	-1343
1017.749	-1775
1017.820	-1723
1017.891	-2717
1017.961	-2421
1018.032	-1388
1018.103	-1212
1018.173	-1225
1018.244	-1417
1018.315	-1552
1018.385	-570
1018.456	-2236
1018.526	-1892
1018.597	-1583
1018.667	-1676
1018.738	-2329
1018.808	-577
1018.878	-2478
1018.949	-1798
1019.019	-1559
1019.089	-817
1019.160	-1709
1019.230	-775
1019.300	-1988
1019.371	-1693
1019.441	-1374
1019.511	-1484
1019.581	-1463
1019.651	-559
1019.721	-1262
1019.791	-1057
1019.861	-1316
1019.931	-1563
1020.001	-1717
1020.071	-2230
1020.141	-1469
1020.211	-1896
1020.281	-2695
1020.351	-1280
1020.421	-1572
1020.491	-803
1020.560	-2456
1020.630	-1597
1020.700	-2227
1020.770	-2300
1020.839	-2161
1020.909	-1326
1020.979	-1437
1021.048	-904
1021.118	-2330
1021.187	-1361
1021.257	-1742
1021.326	-566
1021.396	-2721
1021.465	-1445
1021.535	-2246
1021.604	-1726
1021.674	-1644
1021.743	-1811
1021.812	-1895
1021.882	-1297
1021.951	-1310
1022.020	-1710
1022.089	-1448
1022.159	-1277
1022.228	-2074
1022.297	-914
1022.366	-2388
1022.435	-1603
1022.504	-1579
1022.573	-1385
1022.642	-1278
1022.711	-1972
1022.781	-1964
1022.849	-984
1022.918	-2124
1022.987	-665
1023.056	-2068
1023.125	-2201
1023.194	-1997
1023.263	-905
1023.331	-1157
1023.400	-1481
1023.469	-2527
1023.538	-1057
1023.606	-2133
1023.675	-2159
1023.744	-1914
1023.812	-1548
1023.881	-2309
1023.949	-1587
1024.018	-1961
1024.086	-2097
1024.155	-1985
1024.223	-2279
1024.292	-1371
1024.360	-932
1024.429	-1944
1024.497	-1337
1024.565	-2376
1024.634	-1503
1024.702	-1442
1024.770	-2171
1024.838	-2386
1024.907	-1076
1024.975	-2614
1025.043	-1636
1025.111	-2052
1025.179	-1510
1025.247	-2383
1025.315	-1285
1025.383	-1568
1025.451	-1393
1025.519	-1547
1025.587	-940
1025.655	-1824
1025.723	-1466
1025.791	-1568
1025.859	-1605
1025.927	-787
1025.995	-1644
1026.062	-1306
1026.130	-1217
1026.198	-1303
1026.266	-1761
1026.333	-1375
1026.401	-1418
1026.469	-1931
1026.536	-1192
1026.604	-1684
1026.671	-1800
1026.739	-2079
1026.806	-1395
1026.874	-1988
1026.941	-2168
1027.009	-1536
1027.076	-1466
1027.144	-1399
1027.211	-1719
1027.278	-1472
1027.345	-1465
1027.413	-1625
1027.480	-1566
1027.547	-1783
1027.614	-2140
1027.682	-1597
1027.749	-2493
1027.816	-1846
1027.883	-1449
1027.950	-1984
1028.017	-1351
1028.084	-1780
1028.151	-2019
1028.218	-2651
1028.285	-1207
1028.352	-2044
1028.419	-2155
1028.486	-2199
1028.553	-2236
1028.619	-1919
1028.686	-1621
1028.753	-2532
1028.820	-1896
1028.886	-2026
1028.953	-1706
1029.020	-2032
1029.086	-1403
1029.153	-1865
1029.220	-2132
1029.286	-1474
1029.353	-1814
1029.419	-2023
1029.486	-1993
1029.552	-2537
1029.619	-2059
1029.685	-2518
1029.751	-1769
1029.818	-1631
1029.884	-1800
1029.951	-1496
1030.017	-2224
1030.083	-1856
1030.149	-2030
1030.216	-2566
1030.282	-2357
1030.348	-1619
1030.414	-1764
1030.480	-1634
1030.546	-1441
1030.612	-2245
1030.678	-1366
1030.744	-1997
1030.810	-1913
1030.876	-2083
1030.942	-1177
1031.008	-1235
1031.074	-1304
1031.140	-1731
1031.206	-640
1031.272	-2352
1031.337	-1108
1031.403	-1761
1031.469	-1343
1031.534	-2112
1031.600	-1580
1031.666	-2344
1031.731	-2003
1031.797	-1991
1031.863	-1910
1031.928	-1955
1031.994	-1532
1032.059	-1977
1032.125	-1832
1032.190	-3056
1032.256	-1994
1032.321	-2679
1032.386	-1632
1032.452	-1222
1032.517	-1429
1032.582	-1798
1032.647	-2127
1032.713	-2716
1032.778	-2507
1032.843	-2173
1032.908	-1283
1032.974	-2814
1033.039	-2839
1033.104	-1803
1033.169	-2201
1033.234	-2669
1033.299	-1462
1033.364	-2516
1033.429	-1883
1033.494	-2003
1033.559	-1637
1033.624	-1804
1033.688	-1337
1033.753	-2533
1033.818	-1488
1033.883	-1542
1033.948	-1386
1034.013	-1076
1034.077	-1223
1034.142	-375
1034.207	-145
1034.271	-168
1034.336	1761
1034.400	661
1034.465	-4
1034.530	-1824
1034.594	-1271
1034.658	-2000
1034.723	-2491
1034.787	-1625
1034.852	-1630
1034.916	-2029
1034.981	-2211
1035.045	-1639
1035.109	-2190
1035.173	-2080
1035.238	-2264
1035.302	-1977
1035.366	-2137
1035.430	-2548
1035.495	-1621
1035.559	-1579
1035.623	-1567
1035.687	-1631
1035.751	-1842
1035.815	-2020
1035.879	-2060
1035.943	-1587
1036.007	-1990
1036.071	-1158
1036.135	-1587
1036.198	-1244
1036.262	-1394
1036.326	-1444
1036.390	-2246
1036.454	-1963
1036.517	-2473
1036.581	-2033
1036.645	-1477
1036.709	-1851
1036.772	-2111
1036.836	-1914
1036.900	-1510
1036.963	-2290
1037.026	-1099
1037.090	-2570
1037.154	-1973
1037.217	-2411
1037.280	-2277
1037.344	-1613
1037.407	-2080
1037.471	-1326
1037.534	-1906
1037.597	-2064
1037.661	-1378
1037.724	-2019
1037.787	-1534
1037.850	-1791
1037.913	-1411
1037.977	-1203
1038.040	-2034
1038.103	-1318
1038.166	-1900
1038.229	-1525
1038.292	-2143
1038.355	-1645
1038.418	-1789
1038.481	-2126
1038.544	-2381
1038.607	-2152
1038.670	-2183
1038.732	-2028
1038.795	-2251
1038.858	-2417
1038.921	-2277
1038.984	-2278
1039.046	-2182
1039.109	-2431
1039.172	-1352
1039.234	-2365
1039.297	-2310
1039.360	-1715
1039.422	-1487
1039.485	-2239
1039.547	-2013
1039.610	-1405
1039.672	-1387
1039.734	-2043
1039.797	-872
1039.859	-1935
1039.922	-1830
1039.984	-2289
1040.046	-1921
1040.109	-2125
1040.171	-2197
1040.233	-1440
1040.295	-2163
1040.358	-2267
1040.420	-1587
1040.482	-2298
1040.544	-1596
1040.606	-1825
1040.668	-1341
1040.730	-2305
1040.792	-820
1040.854	-2343
1040.916	-1154
1040.978	-1956
1041.040	-1178
1041.102	-2412
1041.164	-2605
1041.225	-2586
1041.287	-1273
1041.349	-1815
1041.411	-1458
1041.472	-1917
1041.534	-1658
1041.596	-2303
1041.657	-1378
1041.719	-1826
1041.781	-1491
1041.842	-1553
1041.904	-1979
1041.965	-2340
1042.027	-1405
1042.088	-2683
1042.150	-1089
1042.211	-1012
1042.272	-1447
1042.334	-2414
1042.395	-1859
1042.456	-2280
1042.518	-1681
1042.579	-1974
1042.640	-1907
1042.701	-1974
1042.763	-1968
1042.824	-2176
1042.885	-1927
1042.946	-1253
1043.007	-777
1043.068	-2568
1043.129	-1664
1043.190	-2367
1043.251	-1493
1043.312	-2745
1043.373	-1388
1043.434	-1644
1043.495	-2175
1043.556	-1633
1043.616	-1294
1043.677	-3019
1043.738	-1787
1043.799	-1857
1043.859	-1835
1043.920	-1957
1043.981	-1935
1044.041	-1671
1044.102	-1890
1044.162	-1477
1044.223	-1567
1044.284	-1569
1044.344	-1793
1044.405	-1541
1044.465	-1719
1044.525	-1686
1044.586	-1255
1044.646	-1191
1044.707	-1105
1044.767	-1267
1044.827	-1350
1044.887	-1843
1044.948	-1550
1045.008	-1696
1045.068	-1566
1045.128	-1927
1045.188	-1806
1045.249	-1654
1045.309	-1234
1045.369	-1126
1045.429	-1431
1045.489	-2244
1045.549	-940
1045.609	-1213
1045.669	-1610
1045.729	-1282
1045.789	-1584
1045.848	-1907
1045.908	-2020
1045.968	-1684
1046.028	-1009
1046.088	-1724
1046.147	-1475
1046.207	-1704
1046.267	-1301
1046.326	-1702
1046.386	-1471
1046.446	-1473
1046.505	-874
1046.565	-840
1046.624	-669
1046.684	-1344
1046.743	-591
1046.803	-930
1046.862	-10
1046.922	0
