'Start Wavelength	183.907
'End Wavelength	1046.922
'Gate Delay	5.000
'Gate Width (ms)	1.050
'Laser Output Level	0.000
'X Position	0.000
'Y Position	0.000
'Z Position	0.000
'Grid Point Number	1.000
'Shot Number	100.000
183.907	1019.000
183.977	670.000
184.047	815
184.116	521
184.186	1113
184.256	519
184.325	777
184.395	1245
184.465	297
184.534	1035
184.604	758
184.674	872
184.743	655
184.813	1120
184.883	189
184.952	468
185.022	205
185.092	1668
185.161	764
185.231	1605
185.301	1381
185.370	1525
185.440	480
185.509	1002
185.579	779
185.649	1325
185.718	940
185.788	1167
185.857	795
185.927	1275
185.996	1423
186.066	1179
186.136	1134
186.205	1696
186.275	1431
186.344	963
186.414	1536
186.483	676
186.553	2140
186.622	1848
186.692	461
186.761	1439
186.831	494
186.900	1314
186.970	1840
187.039	3994
187.109	2781
187.178	2232
187.248	2195
187.317	2267
187.387	1881
187.456	3212
187.526	3757
187.595	1837
187.664	1962
187.734	3528
187.803	2813
187.873	3556
187.942	3091
188.012	2330
188.081	2036
188.150	3533
188.220	3004
188.289	3200
188.358	2157
188.428	1646
188.497	1626
188.567	2677
188.636	2450
188.705	1901
188.775	2654
188.844	2623
188.913	2206
188.983	3118
189.052	2437
189.121	2411
189.191	4065
189.260	6472
189.329	5419
189.399	3075
189.468	2296
189.537	2752
189.606	2985
189.676	3329
189.745	3839
189.814	3705
189.883	3375
189.953	4285
190.022	9435
190.091	20275
190.161	13589
190.230	4740
190.299	3872
190.368	3132
190.437	3144
190.507	3091
190.576	2687
190.645	2592
190.714	2410
190.783	3146
190.853	3097
190.922	3173
190.991	2685
191.060	2532
191.129	2959
191.198	2342
191.268	1942
191.337	3081
191.406	2651
191.475	2903
191.544	2545
191.613	2447
191.682	1937
191.752	2356
191.821	2950
191.890	2896
191.959	2843
192.028	2176
192.097	2856
192.166	3131
192.235	2402
192.304	3094
192.373	2112
192.442	2624
192.511	2056
192.580	2416
192.650	2719
192.719	4428
192.788	2685
192.857	3893
192.926	3020
192.995	4774
193.064	6291
193.133	9133
193.202	10259
193.271	7266
193.340	6366
193.409	8876
193.478	8962
193.547	13535
193.615	15257
193.684	11653
193.753	7911
193.822	5261
193.891	4420
193.960	5141
194.029	5493
194.098	4079
194.167	3266
194.236	4261
194.305	3240
194.374	3873
194.443	3949
194.512	4140
194.580	4195
194.649	7144
194.718	4016
194.787	3546
194.856	3176
194.925	4958
194.994	4805
195.062	5908
195.131	6338
195.200	8150
195.269	6785
195.338	3887
195.407	4958
195.475	6747
195.544	7895
195.613	5778
195.682	6228
195.751	8599
195.819	6290
195.888	5534
195.957	9379
196.026	6393
196.094	7313
196.163	8764
196.232	6613
196.301	5880
196.369	6775
196.438	4105
196.507	5598
196.576	3747
196.644	3281
196.713	4236
196.782	3894
196.850	4192
196.919	4755
196.988	4889
197.056	3593
197.125	5039
197.194	4596
197.262	4121
197.331	3913
197.400	5083
197.468	4335
197.537	5524
197.606	7028
197.674	18372
197.743	15041
197.812	13164
197.880	20900
197.949	13831
198.017	19331
198.086	8453
198.155	7817
198.223	17493
198.292	19954
198.360	8658
198.429	7542
198.497	9882
198.566	24964
198.635	12441
198.703	8672
198.772	15953
198.840	34873
198.909	13238
198.977	8475
199.046	6806
199.114	8380
199.183	6750
199.251	5892
199.320	5847
199.388	5151
199.457	6039
199.525	6556
199.594	5812
199.662	5763
199.731	5577
199.799	5952
199.867	5654
199.936	5504
200.004	5213
200.073	5917
200.141	5370
200.210	4995
200.278	6578
200.346	6293
200.415	7157
200.483	6587
200.552	6362
200.620	6695
200.688	6316
200.757	5283
200.825	6422
200.893	6120
200.962	5238
201.030	4908
201.098	6692
201.167	5933
201.235	7216
201.303	6497
201.372	6462
201.440	6762
201.508	7388
201.577	6892
201.645	7161
201.713	6111
201.781	7556
201.850	6854
201.918	6815
201.986	6370
202.055	6066
202.123	5953
202.191	6440
202.259	6182
202.327	5890
202.396	6243
202.464	7082
202.532	15119
202.600	23095
202.669	7512
202.737	7549
202.805	6028
202.873	6448
202.941	6341
203.009	6456
203.078	6191
203.146	6048
203.214	7038
203.282	6525
203.350	7008
203.418	7041
203.487	6335
203.555	6677
203.623	7075
203.691	7187
203.759	6889
203.827	7668
203.895	7808
203.963	7749
204.031	6774
204.099	6929
204.168	7191
204.236	7559
204.304	8736
204.372	7823
204.440	7443
204.508	7121
204.576	6916
204.644	7266
204.712	7151
204.780	7795
204.848	7151
204.916	7182
204.984	7281
205.052	7172
205.120	8899
205.188	8039
205.256	7419
205.324	8514
205.392	8534
205.460	11935
205.528	9233
205.596	8314
205.664	9809
205.732	16002
205.799	54106
205.867	26785
205.935	11517
206.003	9950
206.071	11002
206.139	11464
206.207	9647
206.275	8354
206.343	8540
206.411	8408
206.478	9361
206.546	10104
206.614	8648
206.682	8943
206.750	7938
206.818	10784
206.885	8482
206.953	8459
207.021	8492
207.089	9521
207.157	8819
207.225	9312
207.292	8505
207.360	11279
207.428	9436
207.496	9207
207.563	8024
207.631	9444
207.699	8674
207.767	9715
207.834	9809
207.902	10330
207.970	9660
208.038	9555
208.105	10155
208.173	17471
208.241	15025
208.309	13123
208.376	20668
208.444	24968
208.512	11591
208.579	10762
208.647	11781
208.715	11641
208.782	10279
208.850	11353
208.918	10113
208.985	10597
209.053	11378
209.120	10275
209.188	10276
209.256	10662
209.323	14810
209.391	14309
209.459	11024
209.526	11311
209.594	10486
209.661	11100
209.729	10373
209.796	11487
209.864	11980
209.932	11240
209.999	11657
210.067	14235
210.134	12580
210.202	16763
210.269	14614
210.337	12513
210.404	11535
210.472	11685
210.539	12102
210.607	16995
210.674	13920
210.742	12093
210.809	13906
210.877	18390
210.944	14959
211.012	15654
211.079	12602
211.146	12475
211.214	13683
211.281	16612
211.349	13295
211.416	15228
211.484	15481
211.551	13502
211.618	13389
211.686	12755
211.753	12030
211.821	13482
211.888	13599
211.955	14928
212.023	14340
212.090	16173
212.157	16994
212.225	24454
212.292	47700
212.359	109363
212.427	108809
212.494	40135
212.561	24555
212.629	20467
212.696	18156
212.763	16595
212.831	16089
212.898	13906
212.965	13710
213.032	15280
213.100	16846
213.167	19493
213.234	14835
213.301	15284
213.369	14513
213.436	14787
213.503	15613
213.570	19443
213.638	16153
213.705	12795
213.772	15266
213.839	24214
213.906	15804
213.973	17978
214.041	14267
214.108	14577
214.175	14404
214.242	13633
214.309	14739
214.376	16049
214.444	16742
214.511	19096
214.578	16105
214.645	16552
214.712	16890
214.779	16957
214.846	18191
214.913	20331
214.980	20270
215.048	21795
215.115	21987
215.182	19469
215.249	17364
215.316	16094
215.383	14240
215.450	15083
215.517	13836
215.584	13748
215.651	13425
215.718	16909
215.785	19093
215.852	19524
215.919	18622
215.986	16362
216.053	13355
216.120	16397
216.187	16969
216.254	16113
216.321	17806
216.388	19766
216.455	18824
216.522	19625
216.589	26585
216.656	42424
216.722	25564
216.789	26442
216.856	24116
216.923	20702
216.990	20637
217.057	22235
217.124	27231
217.191	24176
217.258	31486
217.324	35188
217.391	31834
217.458	24062
217.525	20316
217.592	19744
217.659	21748
217.725	23969
217.792	35392
217.859	19130
217.926	15618
217.993	13940
218.059	14638
218.126	14027
218.193	13450
218.260	13376
218.327	13641
218.393	15601
218.460	13062
218.527	14020
218.594	25142
218.660	34660
218.727	22522
218.794	13676
218.860	12373
218.927	12023
218.994	12571
219.061	16209
219.127	24833
219.194	22638
219.261	12679
219.327	11845
219.394	11436
219.461	11357
219.527	15967
219.594	23358
219.661	12955
219.727	12451
219.794	13517
219.860	13744
219.927	16025
219.994	34010
220.060	31724
220.127	18935
220.193	19003
220.260	22565
220.326	33250
220.393	50990
220.460	46712
220.526	29313
220.593	24131
220.659	25130
220.726	48915
220.792	70085
220.859	54539
220.925	81395
220.992	85623
221.058	106347
221.125	82625
221.191	48995
221.258	25646
221.324	21832
221.391	19131
221.457	17116
221.524	20703
221.590	57049
221.657	95502
221.723	47304
221.789	65700
221.856	41986
221.922	25292
221.989	20152
222.055	17288
222.121	17199
222.188	17239
222.254	15285
222.321	15188
222.387	12555
222.453	12657
222.520	13287
222.586	13517
222.652	13429
222.719	13062
222.785	13916
222.851	12301
222.918	12645
222.984	13460
223.050	14259
223.116	13021
223.183	11418
223.249	10052
223.315	11401
223.382	11477
223.448	11275
223.514	10415
223.580	10636
223.647	11252
223.713	11632
223.779	12038
223.845	12519
223.911	12087
223.978	11444
224.044	11969
224.110	11169
224.176	11884
224.242	12426
224.309	11833
224.375	11144
224.441	11995
224.507	11991
224.573	12407
224.639	12029
224.705	10738
224.772	10289
224.838	13336
224.904	12750
224.970	11357
225.036	14532
225.102	13736
225.168	12624
225.234	11593
225.300	13634
225.366	10674
225.432	11225
225.499	12317
225.565	16639
225.631	16175
225.697	16712
225.763	19597
225.829	20175
225.895	32856
225.961	36267
226.027	26640
226.093	27695
226.159	31870
226.225	57493
226.291	131790
226.357	100895
226.423	51753
226.489	35603
226.554	28767
226.620	31694
226.686	47246
226.752	62081
226.818	132815
226.884	197811
226.950	91612
227.016	46952
227.082	34487
227.148	34230
227.214	28909
227.279	23653
227.345	20399
227.411	19547
227.477	20144
227.543	31462
227.609	28106
227.674	20640
227.740	19600
227.806	22080
227.872	16699
227.938	24862
228.003	22265
228.069	15542
228.135	14408
228.201	15031
228.267	17528
228.332	24850
228.398	25846
228.464	14294
228.530	13031
228.595	14383
228.661	23332
228.727	28865
228.792	17300
228.858	17847
228.924	23980
228.990	23180
229.055	28338
229.121	19561
229.187	18417
229.252	18073
229.318	13110
229.384	20485
229.449	17918
229.515	12508
229.581	11629
229.646	15759
229.712	27549
229.777	55459
229.843	31340
229.909	32935
229.974	33090
230.040	24918
230.105	27783
230.171	31587
230.236	54972
230.302	58520
230.368	32960
230.433	26975
230.499	23280
230.564	22160
230.630	20284
230.695	17084
230.761	17198
230.826	23851
230.892	28126
230.957	17125
231.023	17161
231.088	17758
231.154	16704
231.219	21479
231.284	34040
231.350	20613
231.415	16114
231.481	14755
231.546	14747
231.612	13888
231.677	13765
231.742	15926
231.808	14906
231.873	14908
231.939	18233
232.004	36707
232.069	19718
232.135	18741
232.200	15705
232.265	13746
232.331	13085
232.396	13562
232.461	12799
232.527	14683
232.592	14180
232.657	22043
232.723	34857
232.788	16406
232.853	14606
232.918	13866
232.984	13927
233.049	20861
233.114	33019
233.179	22632
233.245	60385
233.310	26180
233.375	15866
233.440	16524
233.506	15629
233.571	15297
233.636	13129
233.701	19209
233.766	49777
233.832	22426
233.897	21794
233.962	23367
234.027	20473
234.092	18999
234.157	17369
234.222	21499
234.288	67482
234.353	92458
234.418	62354
234.483	36446
234.548	30176
234.613	26340
234.678	27933
234.743	63642
234.808	99185
234.873	36012
234.938	26788
235.004	23884
235.069	23302
235.134	21317
235.199	19761
235.264	18860
235.329	19180
235.394	21973
235.459	29942
235.524	20948
235.589	19159
235.654	19013
235.719	17086
235.784	19268
235.849	41466
235.913	51299
235.978	77051
236.043	38505
236.108	24936
236.173	33105
236.238	21896
236.303	21956
236.368	24413
236.433	62826
236.498	46281
236.563	46842
236.627	154160
236.692	263767
236.757	105032
236.822	76381
236.887	55995
236.952	44439
237.017	45421
237.081	45610
237.146	75875
237.211	149456
237.276	385716
237.341	292290
237.405	104738
237.470	72374
237.535	47438
237.600	33231
237.664	30510
237.729	30793
237.794	57171
237.859	60641
237.923	42902
237.988	34528
238.053	56017
238.118	72177
238.182	143479
238.247	61428
238.312	52023
238.376	37182
238.441	33093
238.506	23594
238.570	19663
238.635	18520
238.700	19369
238.764	31380
238.829	89797
238.893	38815
238.958	37001
239.023	24952
239.087	25477
239.152	23434
239.216	19049
239.281	18684
239.346	18470
239.410	21162
239.475	62597
239.539	139254
239.604	38936
239.668	23562
239.733	20905
239.797	25928
239.862	72010
239.926	63920
239.991	24540
240.055	20674
240.120	21512
240.184	20846
240.249	19516
240.313	18877
240.378	38286
240.442	123674
240.507	58521
240.571	37156
240.635	88806
240.700	42410
240.764	23643
240.829	18490
240.893	17782
240.957	33767
241.022	117399
241.086	91216
241.151	33956
241.215	25157
241.279	64063
241.344	45520
241.408	30231
241.472	29159
241.537	28151
241.601	24299
241.665	24517
241.730	24866
241.794	24889
241.858	24041
241.922	24949
241.987	24171
242.051	22411
242.115	21170
242.179	21490
242.244	22539
242.308	22849
242.372	31901
242.436	30218
242.501	24045
242.565	22424
242.629	21371
242.693	21054
242.757	22059
242.822	22403
242.886	22897
242.950	27354
243.014	26833
243.078	32859
243.142	27864
243.206	31907
243.271	32073
243.335	38380
243.399	98909
243.463	440183
243.527	277760
243.591	83028
243.655	50097
243.719	38868
243.783	51902
243.847	100242
243.911	84601
243.975	88900
244.040	38132
244.104	27322
244.168	32724
244.232	64187
244.296	82980
244.360	56732
244.424	36767
244.488	28993
244.552	26319
244.615	22647
244.679	24707
244.743	41277
244.807	23801
244.871	20325
244.935	20909
244.999	22544
245.063	24021
245.127	40383
245.191	77179
245.255	35758
245.319	43106
245.383	26749
245.446	24871
245.510	24502
245.574	26599
245.638	24458
245.702	56567
245.766	52689
245.829	34573
245.893	29168
245.957	27336
246.021	29165
246.085	35199
246.149	57561
246.212	135889
246.276	83623
246.340	46939
246.404	33876
246.467	71697
246.531	51837
246.595	34992
246.659	36962
246.722	41686
246.786	39955
246.850	68554
246.913	40259
246.977	28757
247.041	34740
247.104	28514
247.168	51379
247.232	147876
247.295	134326
247.359	44316
247.423	63493
247.486	61336
247.550	36414
247.614	44923
247.677	38433
247.741	26919
247.804	31198
247.868	44455
247.932	149041
247.995	95937
248.059	39572
248.122	33472
248.186	49768
248.249	159417
248.313	321696
248.376	207331
248.440	99677
248.503	51908
248.567	63849
248.630	97791
248.694	103309
248.757	227346
248.821	219676
248.884	120465
248.948	203813
249.011	264711
249.075	336862
249.138	152110
249.202	81192
249.265	86053
249.328	78015
249.392	57706
249.455	43698
249.519	47432
249.582	73032
249.645	86038
249.709	50415
249.772	48106
249.835	52093
249.899	46671
249.962	41329
250.025	64803
250.089	162736
250.152	90334
250.215	60348
250.279	55359
250.342	57946
250.405	51308
250.468	59258
250.532	90438
250.595	243548
250.658	737136
250.721	377926
250.785	161193
250.848	97570
250.911	74772
250.974	72229
251.038	164443
251.101	126390
251.164	94159
251.227	96304
251.290	112337
251.354	365356
251.417	735599
251.480	392804
251.543	793726
251.606	1021868
251.669	445738
251.732	281057
251.795	302265
251.859	523570
251.922	583735
251.985	196279
252.048	119659
252.111	104919
252.174	116836
252.237	299633
252.300	334445
252.363	745341
252.426	558006
252.489	225825
252.552	141769
252.615	116140
252.678	193482
252.741	324276
252.804	739420
252.867	664994
252.930	329777
252.993	175286
253.056	130531
253.119	98796
253.182	155726
253.245	172939
253.308	106041
253.371	105967
253.434	85184
253.497	130311
253.559	155098
253.622	111473
253.685	165433
253.748	86006
253.811	73592
253.874	101321
253.937	66495
254.000	74229
254.062	181048
254.125	124344
254.188	163093
254.251	70815
254.314	88496
254.376	143985
254.439	109552
254.502	92752
254.565	191879
254.628	143635
254.690	86776
254.753	60042
254.816	61324
254.878	85591
254.941	161290
255.004	66752
255.067	61819
255.129	43841
255.192	31986
255.255	38991
255.317	36936
255.380	25214
255.443	25230
255.505	27108
255.568	27567
255.631	28094
255.693	27847
255.756	24261
255.819	24300
255.881	22189
255.944	23153
256.006	25146
256.069	23681
256.132	28732
256.194	82362
256.257	94796
256.319	85851
256.382	46041
256.444	34313
256.507	29500
256.569	29707
256.632	43889
256.694	76016
256.757	298585
256.819	242766
256.882	85639
256.944	55510
257.007	59149
257.069	50466
257.132	33467
257.194	30911
257.257	34599
257.319	32461
257.381	55531
257.444	245573
257.506	530548
257.569	291149
257.631	162678
257.693	85016
257.756	70684
257.818	47658
257.880	34946
257.943	32589
258.005	29855
258.067	28203
258.130	30705
258.192	70874
258.254	72240
258.317	33332
258.379	61324
258.441	118870
258.503	77646
258.566	203161
258.628	66524
258.690	38003
258.753	63261
258.815	61057
258.877	34172
258.939	28859
259.001	27800
259.064	33291
259.126	60970
259.188	40547
259.250	39063
259.312	88338
259.375	111658
259.437	41250
259.499	30807
259.561	31838
259.623	32336
259.685	30564
259.747	59505
259.809	227847
259.872	221095
259.934	346010
259.996	107925
260.058	47222
260.120	36481
260.182	29576
260.244	27614
260.306	25743
260.368	25800
260.430	35226
260.492	77460
260.554	108240
260.616	100269
260.678	271649
260.740	95662
260.802	47804
260.864	43218
260.926	36999
260.988	33993
261.050	49456
261.112	140262
261.174	241724
261.236	70828
261.298	66648
261.359	169885
261.421	65398
261.483	35880
261.545	31802
261.607	26547
261.669	39831
261.731	148453
261.793	101805
261.854	44548
261.916	34779
261.978	38210
262.040	34896
262.102	48685
262.164	69208
262.225	30914
262.287	54974
262.349	86880
262.411	34511
262.472	40400
262.534	157300
262.596	73655
262.658	34785
262.719	34154
262.781	118555
262.843	101371
262.904	42218
262.966	49286
263.028	143936
263.090	723024
263.151	378095
263.213	131436
263.275	68633
263.336	44888
263.398	34471
263.459	29331
263.521	53529
263.583	69041
263.644	30606
263.706	21359
263.767	19418
263.829	18455
263.891	16799
263.952	16861
264.014	19570
264.075	52959
264.137	46715
264.198	22443
264.260	16953
264.321	28864
264.383	101910
264.444	55917
264.506	26196
264.567	27719
264.629	76714
264.690	47774
264.752	29614
264.813	24213
264.875	21560
264.936	19923
264.998	18594
265.059	18473
265.120	26512
265.182	93816
265.243	215155
265.305	63372
265.366	32838
265.427	25903
265.489	21439
265.550	21970
265.611	28495
265.673	21208
265.734	17252
265.795	16989
265.857	20251
265.918	28854
265.979	164942
266.040	320079
266.102	89436
266.163	54962
266.224	42139
266.286	27820
266.347	25638
266.408	27372
266.469	23820
266.530	18497
266.592	28433
266.653	79779
266.714	40775
266.775	20935
266.836	18742
266.898	25631
266.959	30147
267.020	17912
267.081	18099
267.142	17661
267.203	18760
267.264	20419
267.326	20274
267.387	16963
267.448	17113
267.509	19129
267.570	17335
267.631	17207
267.692	17031
267.753	17646
267.814	24347
267.875	94444
267.936	55436
267.997	37114
268.058	27857
268.119	25401
268.180	25036
268.241	18909
268.302	17553
268.363	21071
268.424	23031
268.485	20973
268.546	15747
268.607	15517
268.668	16376
268.729	17464
268.790	19665
268.851	36626
268.912	84323
268.972	48179
269.033	25433
269.094	18576
269.155	18885
269.216	20948
269.277	21743
269.338	16682
269.398	23340
269.459	29134
269.520	39479
269.581	53989
269.642	41681
269.702	29852
269.763	22203
269.824	24667
269.885	48443
269.945	28291
270.006	19114
270.067	17882
270.128	17333
270.188	19029
270.249	17960
270.310	15507
270.370	21404
270.431	18198
270.492	17643
270.553	34702
270.613	82564
270.674	65222
270.734	27897
270.795	29412
270.856	40558
270.916	22636
270.977	23668
271.038	29450
271.098	33837
271.159	56465
271.219	26078
271.280	19397
271.340	22720
271.401	67132
271.462	57271
271.522	29024
271.583	25589
271.643	24829
271.704	22860
271.764	42287
271.825	144461
271.885	327629
271.946	136241
272.006	90922
272.066	244570
272.127	108307
272.187	44157
272.248	41212
272.308	122433
272.369	141281
272.429	59638
272.489	78112
272.550	57335
272.610	66635
272.671	42470
272.731	96017
272.791	64157
272.852	41473
272.912	30212
272.972	23223
273.033	40195
273.093	44679
273.153	29055
273.214	26800
273.274	61007
273.334	240842
273.394	130220
273.455	71647
273.515	182448
273.575	120471
273.635	79731
273.696	223393
273.756	136439
273.816	54830
273.876	78101
273.936	235470
273.997	91621
274.057	42445
274.117	48691
274.177	177066
274.237	308318
274.297	189921
274.358	177115
274.418	177994
274.478	76585
274.538	48552
274.598	134911
274.658	253998
274.718	134781
274.778	52899
274.838	67897
274.898	296948
274.958	264719
275.018	213828
275.078	81513
275.138	45766
275.198	33915
275.258	36184
275.318	60024
275.378	74847
275.438	51210
275.498	86886
275.558	278606
275.618	225771
275.678	98696
275.738	87091
275.798	49979
275.858	29024
275.918	28316
275.978	34560
276.038	23542
276.098	33639
276.157	131650
276.217	97930
276.277	54505
276.337	35728
276.397	34814
276.457	30956
276.517	21546
276.576	20498
276.636	31657
276.696	69201
276.756	93889
276.815	36861
276.875	36560
276.935	38984
276.995	24181
277.055	21152
277.114	25765
277.174	101515
277.234	82458
277.293	37182
277.353	25671
277.413	23706
277.472	28083
277.532	23335
277.592	46447
277.651	152805
277.711	65661
277.771	119462
277.830	190067
277.890	88275
277.950	269354
278.009	180524
278.069	79424
278.128	152513
278.188	78338
278.248	111670
278.307	136647
278.367	48795
278.426	32092
278.486	25299
278.545	21893
278.605	20866
278.664	24383
278.724	48669
278.783	213106
278.843	113255
278.902	41194
278.962	41225
279.021	40743
279.081	46936
279.140	39597
279.199	33407
279.259	31399
279.318	34750
279.378	56450
279.437	220316
279.496	648115
279.556	853331
279.615	254469
279.675	115156
279.734	127065
279.793	251359
279.853	147535
279.912	58759
279.971	46453
280.031	63209
280.090	178297
280.149	118763
280.208	363442
280.268	708860
280.327	216075
280.386	108233
280.445	128001
280.505	62017
280.564	46122
280.623	49388
280.682	110892
280.742	51642
280.801	29520
280.860	24572
280.919	23710
280.978	22848
281.037	22363
281.097	19371
281.156	21304
281.215	25455
281.274	92761
281.333	157119
281.392	40785
281.451	24569
281.510	23292
281.569	19812
281.628	18123
281.688	18300
281.747	25308
281.806	18801
281.865	17800
281.924	20594
281.983	15888
282.042	14813
282.101	15547
282.160	14853
282.219	17943
282.278	52673
282.337	72828
282.396	24290
282.454	24813
282.513	82509
282.572	93937
282.631	29634
282.690	21489
282.749	22981
282.808	25492
282.867	27922
282.926	16619
282.985	13909
283.043	14493
283.102	19183
283.161	38161
283.220	129025
283.279	67276
283.338	27986
283.396	24136
283.455	23676
283.514	34743
283.573	33969
283.631	22424
283.690	19560
283.749	31933
283.808	63376
283.866	26946
283.925	19458
283.984	24469
284.043	33693
284.101	23299
284.160	26160
284.219	26869
284.277	30746
284.336	105444
284.395	156669
284.453	50009
284.512	44393
284.570	49106
284.629	32778
284.688	32700
284.746	32185
284.805	39594
284.863	49300
284.922	49443
284.981	60522
285.039	98907
285.098	256095
285.156	855537
285.215	1128658
285.273	554586
285.332	245688
285.390	151242
285.449	99870
285.507	72355
285.566	53424
285.624	40789
285.683	33785
285.741	28574
285.799	29530
285.858	27784
285.916	22738
285.975	19126
286.033	17498
286.091	17989
286.150	17727
286.208	22215
286.267	24373
286.325	35000
286.383	38585
286.442	21162
286.500	17084
286.558	17198
286.616	21552
286.675	25961
286.733	22481
286.791	22990
286.850	31517
286.908	55196
286.966	36115
287.024	21117
287.083	18358
287.141	17716
287.199	29145
287.257	27497
287.315	25343
287.374	50578
287.432	55418
287.490	31580
287.548	26669
287.606	24188
287.664	30901
287.723	46122
287.781	33249
287.839	35456
287.897	43667
287.955	63914
288.013	140734
288.071	499707
288.129	1474823
288.187	1151504
288.245	416304
288.303	204631
288.361	143321
288.419	102636
288.477	69569
288.535	49850
288.593	38832
288.651	30310
288.709	25620
288.767	27142
288.825	21040
288.883	21139
288.941	19798
288.999	19290
289.057	17884
289.115	18510
289.173	18620
289.231	20546
289.289	16845
289.346	19377
289.404	31464
289.462	41749
289.520	25498
289.578	15057
289.636	13092
289.694	13815
289.751	12071
289.809	15638
289.867	16735
289.925	25804
289.983	17211
290.040	13899
290.098	16755
290.156	22108
290.214	19109
290.271	11855
290.329	11650
290.387	12189
290.444	11345
290.502	11239
290.560	13350
290.617	13674
290.675	12821
290.733	16949
290.790	12454
290.848	15002
290.906	16244
290.963	15356
291.021	13361
291.078	14723
291.136	32133
291.194	109154
291.251	53818
291.309	19347
291.366	15884
291.424	16708
291.481	14069
291.539	12909
291.596	10975
291.654	9787
291.711	12757
291.769	33444
291.826	32400
291.884	16792
291.941	13875
291.999	16406
292.056	20105
292.114	13950
292.171	12622
292.228	16329
292.286	32228
292.343	46908
292.401	32520
292.458	20930
292.515	23124
292.573	25633
292.630	25581
292.687	20727
292.745	20949
292.802	45494
292.859	104336
292.917	99889
292.974	33625
293.031	20344
293.089	17892
293.146	15794
293.203	14556
293.260	18325
293.318	25502
293.375	18012
293.432	12899
293.489	12471
293.546	19153
293.604	54115
293.661	182678
293.718	131659
293.775	54407
293.832	36832
293.889	37916
293.947	33430
294.004	25163
294.061	39842
294.118	92362
294.175	101063
294.232	56004
294.289	27177
294.346	23452
294.403	25400
294.460	21959
294.517	19128
294.574	14685
294.631	17721
294.688	42323
294.745	170258
294.802	224660
294.859	105903
294.916	61872
294.973	44619
295.030	41197
295.087	27055
295.144	21768
295.201	17850
295.258	21480
295.315	63503
295.372	171253
295.429	96605
295.486	42471
295.542	53090
295.599	115196
295.656	94629
295.713	146921
295.770	85139
295.827	34246
295.883	27779
295.940	41116
295.997	52784
296.054	28394
296.111	18733
296.167	15781
296.224	13998
296.281	12893
296.338	14232
296.394	18994
296.451	47202
296.508	118342
296.564	83482
296.621	126324
296.678	253800
296.734	116161
296.791	49306
296.848	42236
296.904	85611
296.961	158380
297.018	167536
297.074	62940
297.131	35659
297.187	44674
297.244	129827
297.301	330558
297.357	164212
297.414	56616
297.470	35827
297.527	29327
297.583	27138
297.640	23241
297.696	17344
297.753	13567
297.809	12799
297.866	12295
297.922	14419
297.979	15090
298.035	27699
298.092	75785
298.148	110825
298.204	52287
298.261	58925
298.317	175092
298.374	161378
298.430	69889
298.486	52232
298.543	38496
298.599	38295
298.656	64150
298.712	189646
298.768	220104
298.824	80509
298.881	36731
298.937	28464
298.993	32608
299.050	30569
299.106	22212
299.162	21251
299.218	17192
299.275	17561
299.331	35953
299.387	135120
299.443	203501
299.500	79557
299.556	37872
299.612	30744
299.668	25291
299.724	21981
299.780	19405
299.837	31557
299.893	104091
299.949	176707
300.005	129016
300.061	213202
300.117	155956
300.173	64427
300.229	57572
300.285	73747
300.341	46637
300.397	26720
300.453	19978
300.510	19390
300.566	18293
300.622	29959
300.678	85031
300.734	126943
300.790	177299
300.845	119726
300.901	115661
300.957	130106
301.013	57554
301.069	34263
301.125	36647
301.181	29549
301.237	21226
301.293	15974
301.349	15956
301.405	15386
301.461	18237
301.516	20506
301.572	37019
301.628	41847
301.684	50636
301.740	96436
301.796	71650
301.851	87396
301.907	108152
301.963	148695
302.019	419785
302.074	523492
302.130	272975
302.186	109494
302.242	63897
302.297	58545
302.353	88952
302.409	101398
302.464	70964
302.520	146286
302.576	223624
302.631	138719
302.687	61866
302.743	34463
302.798	26282
302.854	24217
302.910	29071
302.965	48210
303.021	56402
303.076	60791
303.132	80923
303.187	49938
303.243	25554
303.299	20263
303.354	17165
303.410	17276
303.465	15970
303.521	15931
303.576	20085
303.632	42078
303.687	127596
303.743	160841
303.798	68855
303.853	33816
303.909	26293
303.964	33304
304.020	54744
304.075	52108
304.130	79267
304.186	97429
304.241	80102
304.297	48725
304.352	29030
304.358	28549
304.407	24647
304.449	24910
304.463	25022
304.518	22452
304.539	22006
304.573	21282
304.629	33989
304.630	35227
304.684	91432
304.720	149462
304.739	179259
304.794	110467
304.811	93462
304.850	50633
304.902	30129
304.905	28945
304.960	29081
304.992	28269
305.015	27755
305.071	21500
305.083	20181
305.126	15300
305.173	13042
305.181	12706
305.236	13778
305.264	16463
305.292	19280
305.347	19807
305.354	20199
305.402	22490
305.445	27754
305.457	29321
305.512	31933
305.535	30418
305.567	28038
305.622	45605
305.626	50006
305.678	126796
305.716	178282
305.733	198304
305.788	131379
305.807	134585
305.843	138443
305.897	171091
305.898	171505
305.953	100085
305.988	71661
306.008	54290
306.063	34624
306.078	30586
306.118	24450
306.168	19841
306.173	19457
306.228	16166
306.259	15212
306.283	14489
306.338	15568
306.349	16205
306.393	19363
306.440	19918
306.448	19895
306.503	22534
306.530	33278
306.558	48838
306.613	93622
306.620	99010
306.668	133124
306.711	145964
306.723	145111
306.778	82353
306.801	66243
306.833	45135
306.888	25442
306.892	24464
306.943	20280
306.982	17642
306.997	16945
307.052	17198
307.072	18279
307.107	21957
307.162	36530
307.163	36706
307.217	54592
307.253	64838
307.272	67506
307.327	54816
307.343	52751
307.381	43609
307.434	49248
307.436	50802
307.491	113358
307.524	139378
307.546	145873
307.600	104013
307.614	95273
307.655	56578
307.704	32303
307.710	32276
307.765	47738
307.795	67058
307.819	89984
307.874	107865
307.885	107608
307.929	71081
307.975	48585
307.984	48835
308.038	70004
308.065	104068
308.093	167753
308.148	399643
308.156	430005
308.202	634855
308.246	618226
308.257	562269
308.312	286909
308.336	197292
308.366	159751
308.421	98443
308.426	94165
308.475	62323
308.517	43348
308.530	40681
308.585	33954
308.607	33097
308.639	34428
308.694	45811
308.697	47619
308.748	104670
308.787	134300
308.803	132211
308.857	92534
308.877	84047
308.912	66280
308.967	47099
308.967	46944
309.021	60872
309.058	80712
309.076	101676
309.130	200962
309.148	254676
309.185	467714
309.238	820116
309.239	823783
309.293	846832
309.328	782720
309.348	627408
309.402	260862
309.418	170065
309.457	119430
309.508	73211
309.511	71953
309.566	63023
309.598	62247
309.620	68694
309.674	89950
309.688	93122
309.729	85128
309.778	70326
309.783	68289
309.837	51959
309.868	48463
309.892	61560
309.946	111081
309.959	121360
310.001	168205
310.049	193225
310.055	184805
310.109	104585
310.139	66822
310.163	52941
310.218	29512
310.229	25403
310.272	21798
310.319	18672
310.326	18647
310.381	19018
310.409	19369
310.435	18175
310.489	16253
310.499	16003
310.543	17579
310.589	19618
310.598	19652
310.652	18795
310.679	18490
310.706	15876
310.760	10546
310.769	9806
310.814	8708
310.859	7921
310.868	7994
310.923	8476
310.948	8968
310.977	10406
311.031	13169
311.038	13515
311.085	13304
311.128	13019
311.139	12767
311.193	11635
311.218	11087
311.247	10420
311.301	9514
311.308	9402
311.356	9240
311.398	9197
311.410	9133
311.464	8870
311.488	8779
311.518	8799
311.572	9103
311.578	9200
311.626	13614
311.668	17154
311.680	17134
311.734	17093
311.758	17074
311.788	16805
311.842	16417
311.847	16410
311.896	18497
311.937	20384
311.950	20821
312.004	22613
312.027	23398
312.058	19559
312.112	12789
312.117	12116
312.165	11073
312.207	10204
312.297	13558
312.386	12115
312.476	12008
312.566	26822
312.656	16876
312.745	8518
312.835	9184
312.925	11429
313.015	12425
313.104	18437
313.194	8552
313.284	9832
313.374	12722
313.463	14735
313.553	9491
313.643	8274
313.732	6579
313.822	8029
313.912	9024
314.001	11373
314.091	11413
314.180	14795
314.270	16094
314.360	20426
314.449	19355
314.539	10134
314.628	8496
314.718	10946
314.808	19107
314.897	10611
314.987	8102
315.076	12381
315.166	20184
315.255	21509
315.345	17538
315.434	21423
315.524	16984
315.613	20922
315.703	20849
315.792	26250
315.881	49815
315.971	33996
316.060	36023
316.150	75391
316.239	83766
316.328	37525
316.418	10003
316.507	11136
316.597	14721
316.686	16267
316.775	28588
316.865	91461
316.954	23787
317.043	8246
317.133	8998
317.222	8745
317.311	8168
317.400	9451
317.490	12980
317.579	19798
317.668	10875
317.757	16544
317.847	31428
317.936	91517
318.025	68092
318.114	30008
318.203	21241
318.293	18832
318.382	27421
318.471	30050
318.560	43921
318.649	98302
318.738	33647
318.828	16538
318.917	22681
319.006	27458
319.095	86854
319.184	138634
319.273	99215
319.362	56025
319.451	17732
319.540	16578
319.629	35443
319.718	69358
319.807	25025
319.896	51312
319.985	171745
320.074	94154
320.163	22929
320.252	45320
320.341	31076
320.430	21159
320.519	27604
320.608	22097
320.697	12640
320.786	12677
320.875	18640
320.964	26897
321.053	42023
321.142	62605
321.230	74880
321.319	45133
321.408	107821
321.497	57873
321.586	44017
321.675	68146
321.764	76382
321.852	39941
321.941	58092
322.030	50641
322.119	39744
322.207	121467
322.296	123435
322.385	47008
322.474	47257
322.562	130021
322.651	93046
322.740	49695
322.829	89136
322.917	110947
323.006	67195
323.095	39767
323.183	34092
323.272	49198
323.361	94753
323.449	347437
323.538	163085
323.626	213743
323.715	203770
323.804	52158
323.892	200553
323.981	154869
324.069	33670
324.158	103077
324.246	147907
324.335	28906
324.424	44727
324.512	19332
324.601	17735
324.689	26690
324.778	59892
324.866	86639
324.954	30447
325.043	16505
325.131	40234
325.220	90917
325.308	113149
325.397	70751
325.485	54512
325.574	11866
325.662	10932
325.750	13209
325.839	10417
325.927	9849
326.015	14881
326.104	33206
326.192	70273
326.280	14230
326.369	11669
326.457	17113
326.545	31424
326.634	19173
326.722	7915
326.810	8846
326.898	8588
326.987	10291
327.075	28856
327.163	44838
327.251	25727
327.340	13381
327.428	23590
327.516	9735
327.604	10038
327.692	14321
327.781	17768
327.869	41529
327.957	26715
328.045	18999
328.133	9695
328.221	18143
328.309	15834
328.397	9230
328.485	12425
328.574	18944
328.662	70439
328.750	66248
328.838	28804
328.926	11772
329.014	7345
329.102	13278
329.190	32335
329.278	29539
329.366	8077
329.454	6478
329.542	6736
329.630	6325
329.718	6698
329.806	11993
329.893	9259
329.981	7801
330.069	5605
330.157	12904
330.245	38220
330.333	24437
330.421	8589
330.509	17372
330.597	81568
330.684	74095
330.772	19261
330.860	24355
330.948	30622
331.036	15282
331.123	7468
331.211	6080
331.299	9772
331.387	20089
331.475	44644
331.562	20850
331.650	8479
331.738	12421
331.825	23801
331.913	9415
332.001	7487
332.089	12649
332.176	34386
332.264	102274
332.352	112972
332.439	21040
332.527	12220
332.614	12454
332.702	21312
332.790	13617
332.877	38508
332.965	111965
333.052	27966
333.140	16516
333.228	45723
333.315	15973
333.403	13205
333.490	54666
333.578	62229
333.665	32769
333.753	21958
333.840	12324
333.928	14989
334.015	55588
334.103	88480
334.190	251595
334.278	94648
334.365	22746
334.452	17603
334.540	10886
334.627	16059
334.715	29531
334.802	50101
334.889	356013
334.977	531964
335.064	54048
335.151	15195
335.239	14133
335.326	17734
335.413	79093
335.501	138539
335.588	22568
335.675	11609
335.762	12893
335.850	22535
335.937	18084
336.024	58277
336.111	357458
336.199	207479
336.286	21288
336.373	10239
336.460	8078
336.547	8598
336.635	13464
336.722	13752
336.809	10416
336.896	16028
336.983	49113
337.070	125091
337.157	210647
337.245	237731
337.332	267988
337.419	26641
337.506	11986
337.593	10607
337.680	32782
337.767	105444
337.854	41213
337.941	41219
338.028	83215
338.115	39882
338.202	18755
338.289	51926
338.376	261925
338.463	120307
338.550	60117
338.637	80797
338.724	38238
338.811	92481
338.898	22099
338.984	9154
339.071	9941
339.158	13305
339.245	40127
339.332	32095
339.419	43301
339.506	65576
339.593	11037
339.679	7929
339.766	8910
339.853	10912
339.940	32411
340.027	13782
340.113	8692
340.200	17104
340.287	14713
340.374	13601
340.460	30753
340.547	18261
340.634	18423
340.720	82723
340.807	75466
340.894	10251
340.980	12088
341.067	11013
341.154	10211
341.240	19091
341.327	46664
341.414	17334
341.500	15546
341.587	10503
341.674	8202
341.760	24972
341.847	37940
341.933	14155
342.020	5514
342.106	4750
342.193	9155
342.279	23548
342.366	16513
342.452	30377
342.539	17952
342.625	30241
342.712	98361
342.798	52699
342.885	19863
342.971	6210
343.058	5480
343.144	7568
343.230	8483
343.317	9196
343.403	9403
343.490	5874
343.576	6030
343.662	8041
343.749	11675
343.835	14176
343.921	22944
344.008	164435
344.094	522074
344.180	160531
344.267	34931
344.353	108325
344.439	169462
344.525	57309
344.612	22140
344.698	15366
344.784	13976
344.870	7404
344.957	10719
345.043	16292
345.129	12321
345.215	27339
345.301	19897
345.387	18344
345.474	7376
345.560	7209
345.646	12833
345.732	10051
345.818	10177
345.904	10925
345.990	13146
346.076	15340
346.162	36730
346.249	17436
346.335	9597
346.421	8077
346.507	40217
346.593	188979
346.679	71397
346.765	10805
346.851	8297
346.937	10703
347.023	7617
347.108	10121
347.194	11111
347.280	8648
347.366	12167
347.452	39207
347.538	214069
347.624	178498
347.710	141786
347.796	31795
347.882	9713
347.967	7370
348.053	10657
348.139	9869
348.225	7701
348.311	9202
348.397	8343
348.482	9811
348.568	14334
348.654	6161
348.740	5432
348.825	7513
348.911	16670
348.997	83943
349.083	233588
349.168	58054
349.254	11266
349.340	11067
349.425	6811
349.511	11862
349.597	16345
349.682	26425
349.768	105787
349.854	73843
349.939	10318
350.025	6699
350.110	7623
350.196	8110
350.282	9664
350.367	5863
350.453	19404
350.538	32705
350.624	15341
350.709	13940
350.795	7485
350.880	8408
350.966	9531
351.051	21467
351.137	23827
351.222	9346
351.308	27101
351.393	94697
351.479	36800
351.564	9281
351.649	7693
351.735	7329
351.820	5871
351.906	8015
351.991	12218
352.076	50725
352.162	104213
352.247	24971
352.332	11866
352.418	22056
352.503	28998
352.588	107833
352.673	136998
352.759	30970
352.844	14785
352.929	13065
353.014	23203
353.100	12118
353.185	15986
353.270	31535
353.355	41526
353.441	11625
353.526	13894
353.611	27616
353.696	44252
353.781	20667
353.866	11683
353.952	8361
354.037	24166
354.122	68578
354.207	69059
354.292	31978
354.377	9735
354.462	7736
354.547	12164
354.632	12309
354.717	13054
354.802	21848
354.887	11463
354.972	6822
355.057	5829
355.142	5795
355.227	9224
355.312	17078
355.397	39717
355.482	106865
355.567	78331
355.652	31066
355.737	44125
355.822	115572
355.907	148817
355.991	20604
356.076	10134
356.161	9027
356.246	8507
356.331	9206
356.416	24554
356.501	203485
356.585	336160
356.670	51283
356.755	17574
356.840	22425
356.924	112449
357.009	579835
357.094	340732
357.179	44174
357.263	29416
357.348	22986
357.433	29173
357.517	22668
357.602	20862
357.687	14358
357.771	16853
357.856	40384
357.941	33750
358.025	79533
358.110	507679
358.195	369121
358.279	42397
358.364	21507
358.448	68744
358.533	234422
358.617	205307
358.702	180146
358.787	92934
358.871	34036
358.956	31265
359.040	12376
359.125	7569
359.209	8273
359.294	17735
359.378	33499
359.462	26068
359.547	19538
359.631	15673
359.716	9693
359.800	7780
359.885	12799
359.969	12695
360.053	9268
360.138	10218
360.222	14623
360.306	32525
360.391	28962
360.475	28122
360.559	80957
360.644	88954
360.728	89146
360.812	94573
360.896	393249
360.981	191961
361.065	78061
361.149	20399
361.233	17021
361.318	14647
361.402	15250
361.486	14360
361.570	10820
361.654	15378
361.739	36179
361.823	189124
361.907	439989
361.991	107247
362.075	25989
362.159	65649
362.243	53315
362.327	26701
362.411	22077
362.495	21088
362.580	15567
362.664	7280
362.748	7652
362.832	7621
362.916	9405
363.000	22432
363.084	148859
363.168	460572
363.252	150434
363.336	27827
363.420	31674
363.503	113140
363.587	174406
363.671	38634
363.755	19006
363.839	29638
363.923	16410
364.007	26178
364.091	43407
364.175	43456
364.258	180973
364.342	130525
364.426	35265
364.510	25537
364.594	25921
364.677	42678
364.761	276888
364.845	316486
364.929	65681
365.013	56223
365.096	36503
365.180	54116
365.264	47579
365.347	205772
365.431	124278
365.515	23186
365.598	15859
365.682	10854
365.766	15437
365.849	23444
365.933	14976
366.017	20052
366.100	13732
366.184	8320
366.267	10856
366.351	8560
366.435	7177
366.518	7239
366.602	5120
366.685	7717
366.769	10064
366.852	14693
366.936	31462
367.019	26711
367.103	13915
367.186	20913
367.270	9939
367.353	5611
367.436	6222
367.520	6972
367.603	9404
367.687	17827
367.770	40139
367.853	25629
367.937	60679
368.020	157718
368.104	49787
368.187	25512
368.270	40888
368.353	35649
368.437	51089
368.520	174446
368.603	132016
368.687	80345
368.770	199788
368.853	67721
368.936	31049
369.020	34017
369.103	15831
369.186	8512
369.269	7338
369.352	19751
369.436	40864
369.519	25665
369.602	11942
369.685	8419
369.768	15377
369.851	12343
369.934	8437
370.018	9713
370.101	32003
370.184	29632
370.267	13538
370.350	19612
370.433	37268
370.516	120630
370.599	216217
370.682	66783
370.765	73501
370.848	106829
370.931	234635
371.014	129793
371.097	21338
371.180	12554
371.263	7085
371.346	6869
371.429	7006
371.511	8117
371.594	16559
371.677	29825
371.760	27577
371.843	25432
371.926	114221
372.009	425417
372.091	185196
372.174	72305
372.257	223501
372.340	129384
372.423	40984
372.505	49311
372.588	23702
372.671	44936
372.754	214187
372.836	167472
372.919	51252
373.002	108191
373.085	50079
373.167	27143
373.250	73001
373.332	205484
373.415	245633
373.498	624209
373.580	317377
373.663	191523
373.746	420237
373.828	126498
373.911	32899
373.993	30442
374.076	93295
374.159	128080
374.241	57390
374.324	160494
374.406	159985
374.489	125640
374.571	500655
374.654	304774
374.736	79445
374.819	278192
374.901	427984
374.983	562027
375.066	139861
375.148	24515
375.231	71751
375.313	184290
375.395	84780
375.478	21990
375.560	12667
375.643	16743
375.725	62729
375.807	367991
375.890	432832
375.972	214865
376.054	82931
376.136	143851
376.219	94302
376.301	75890
376.383	349654
376.465	206739
376.548	68012
376.630	82605
376.712	261893
376.794	203614
376.877	22782
376.959	8817
377.041	11103
377.123	17509
377.205	23748
377.287	7987
377.369	7000
377.452	10331
377.534	9216
377.616	8410
377.698	9522
377.780	7668
377.862	8419
377.944	8367
378.026	6456
378.108	5811
378.190	6654
378.272	6611
378.354	4733
378.436	4565
378.518	9529
378.600	41822
378.682	46578
378.764	102696
378.846	130158
378.928	30779
379.010	32376
379.091	23268
379.173	9466
379.255	8179
379.337	12252
379.419	40438
379.501	172068
379.583	112484
379.664	17444
379.746	35101
379.828	97517
379.910	162388
379.991	177022
380.073	45387
380.155	14167
380.237	13595
380.318	7329
380.400	8537
380.482	19258
380.564	44607
380.645	37313
380.727	40135
380.809	22529
380.890	12808
380.972	11256
381.053	10647
381.135	11803
381.217	27424
381.298	114246
381.380	86250
381.461	41887
381.543	212873
381.624	432640
381.706	111966
381.787	23608
381.869	22826
381.951	71228
382.032	434361
382.113	416587
382.195	79046
382.276	27134
382.358	54460
382.439	225939
382.521	271007
382.602	484083
382.684	254457
382.765	274098
382.846	328194
382.928	238120
383.009	173294
383.090	69228
383.172	243853
383.253	602364
383.334	284973
383.416	346251
383.497	268505
383.578	53274
383.659	60108
383.741	195083
383.822	796749
383.903	632182
383.984	194290
384.066	411292
384.147	364573
384.228	78600
384.309	30933
384.390	28782
384.471	16170
384.553	18528
384.634	25983
384.715	34492
384.796	16914
384.877	17141
384.958	77571
385.039	156247
385.120	63103
385.201	18019
385.282	21443
385.363	20512
385.444	17797
385.525	25579
385.606	148229
385.687	215339
385.768	49851
385.849	29656
385.930	133293
386.011	385725
386.092	159301
386.173	21644
386.254	13690
386.335	13228
386.416	14435
386.496	44631
386.577	124634
386.658	57409
386.739	24587
386.820	19348
386.901	15720
386.981	13227
387.062	10204
387.143	17998
387.224	92586
387.304	133815
387.385	43299
387.466	19429
387.547	18484
387.627	13524
387.708	24816
387.789	162755
387.869	321281
387.950	123962
388.031	15491
388.111	9424
388.192	21805
388.273	39920
388.353	31190
388.434	16173
388.514	28906
388.595	175569
388.676	329371
388.756	161161
388.837	100120
388.917	95465
388.998	20607
389.078	10878
389.159	11441
389.239	12046
389.320	15767
389.400	21764
389.480	30275
389.561	118700
389.641	93619
389.722	20173
389.802	30700
389.883	41064
389.963	144429
390.043	146024
390.124	47086
390.204	27775
390.284	115482
390.365	123130
390.445	91424
390.525	439780
390.605	707087
390.686	193081
390.766	34208
390.846	15775
390.927	11090
391.007	11926
391.087	11317
391.167	11768
391.247	10177
391.328	22030
391.408	34439
391.488	21329
391.568	8876
391.648	12662
391.728	21282
391.808	18093
391.888	24510
391.969	46257
392.049	118540
392.129	59355
392.209	36597
392.289	133193
392.369	105609
392.449	43192
392.529	31516
392.609	24103
392.689	27201
392.769	114249
392.849	154314
392.929	57629
393.009	152305
393.089	171202
393.169	53127
393.248	96593
393.328	650192
393.408	1301870
393.488	388645
393.568	57614
393.648	29970
393.728	20990
393.807	17655
393.887	15004
393.967	15044
394.047	17384
394.127	23910
394.206	34616
394.286	113283
394.366	715931
394.446	1196541
394.525	336066
394.605	50535
394.685	29429
394.764	53116
394.844	101649
394.924	95968
395.003	34533
395.083	22090
395.163	20354
395.242	16800
395.322	18833
395.402	14892
395.481	14688
395.561	34381
395.640	112395
395.720	103986
395.799	122444
395.879	137942
395.958	61899
396.038	160597
396.117	936206
396.197	1578817
396.276	497696
396.356	99460
396.435	57983
396.515	37954
396.594	34617
396.673	50205
396.753	126284
396.832	724675
396.912	948931
396.991	283537
397.070	50160
397.150	25966
397.229	16227
397.308	11660
397.388	14598
397.467	11682
397.546	8486
397.625	9557
397.705	13918
397.784	17843
397.863	12339
397.942	6448
398.022	6196
398.101	24238
398.180	108005
398.259	81170
398.338	18660
398.417	12430
398.497	9831
398.576	8114
398.655	8563
398.734	6033
398.813	5570
398.892	22295
398.971	118027
399.050	97180
399.129	14491
399.208	4649
399.287	4603
399.366	4655
399.445	5431
399.524	6349
399.603	7549
399.682	12058
399.761	36298
399.840	127181
399.919	150398
399.998	30068
400.077	5935
400.156	4923
400.235	6418
400.313	5020
400.392	8006
400.471	35590
400.550	109897
400.629	51582
400.708	11589
400.786	10042
400.865	18645
400.944	29168
401.023	17934
401.102	5272
401.180	3485
401.259	5684
401.338	7281
401.416	9909
401.495	12614
401.574	8282
401.652	6031
401.731	9488
401.810	10451
401.888	5927
401.967	2853
402.046	3797
402.124	6324
402.203	15360
402.281	9770
402.360	5898
402.438	22356
402.517	29165
402.596	9568
402.674	8411
402.753	5479
402.831	4651
402.910	4974
402.988	18850
403.066	100284
403.145	97210
403.223	30563
403.302	78973
403.380	76639
403.459	61822
403.537	37598
403.615	11688
403.694	4498
403.772	3654
403.850	3502
403.929	3631
404.007	5042
404.085	9364
404.164	16237
404.242	9411
404.320	8641
404.398	25155
404.477	49947
404.555	264933
404.633	444110
404.711	112173
404.789	16986
404.868	7852
404.946	7274
405.024	4425
405.102	3312
405.180	3739
405.258	4068
405.336	4021
405.415	5097
405.493	11060
405.571	12521
405.649	5907
405.727	4597
405.805	8202
405.883	9569
405.961	9333
406.039	10686
406.117	8464
406.195	9567
406.273	40352
406.351	248556
406.429	277636
406.507	48372
406.585	10288
406.663	7730
406.740	12319
406.818	14339
406.896	8767
406.974	6120
407.052	13229
407.130	99663
407.208	284826
407.285	104967
407.363	10636
407.441	7948
407.519	7489
407.596	6735
407.674	14236
407.752	34031
407.830	51435
407.907	27063
407.985	11682
408.063	6451
408.141	2985
408.218	5881
408.296	10016
408.373	8363
408.451	8633
408.529	10076
408.606	5981
408.684	3742
408.762	2134
408.839	2169
408.917	1422
408.994	2035
409.072	1765
409.149	1595
409.227	3188
409.304	4392
409.382	2198
409.459	1995
409.537	3492
409.614	4960
409.692	3625
409.769	2439
409.846	4878
409.924	5532
410.001	4801
410.079	3881
410.156	3906
410.233	5671
410.311	9958
410.388	7914
410.465	3286
410.543	3529
410.620	2864
410.697	4154
410.775	8504
410.852	4542
410.929	4307
411.006	7782
411.083	4547
411.161	4614
411.238	8982
411.315	8377
411.392	4118
411.469	4340
411.547	5092
411.624	2862
411.701	4038
411.778	5534
411.855	18618
411.932	17617
412.009	6617
412.086	4339
412.163	5085
412.240	7604
412.317	7292
412.394	8603
412.471	4641
412.548	2457
412.625	4327
412.702	5185
412.779	12567
412.856	10760
412.933	4982
413.010	3979
413.087	6472
413.164	31361
413.241	89503
413.318	39727
413.395	10578
413.471	14717
413.548	12502
413.625	4188
413.702	7311
413.779	7680
413.855	2574
413.932	2148
414.009	2335
414.086	2513
414.162	3359
414.239	5922
414.316	29874
414.393	121661
414.469	91434
414.546	11160
414.623	3851
414.699	3245
414.776	6244
414.853	5674
414.929	4574
415.006	3992
415.082	5503
415.159	5735
415.236	3871
415.312	3887
415.389	8946
415.465	20027
415.542	14678
415.618	5416
415.695	11407
415.771	10874
415.848	7381
415.924	6634
416.000	5533
416.077	2945
416.153	1760
416.230	1645
416.306	2670
416.383	4198
416.459	4106
416.535	3182
416.612	1973
416.688	2203
416.764	2585
416.841	3200
416.917	3585
416.993	2299
417.069	4023
417.146	7709
417.222	10915
417.298	9953
417.374	5452
417.451	4845
417.527	6133
417.603	10568
417.679	8473
417.755	5497
417.831	4380
417.908	1951
417.984	2209
418.060	3005
418.136	8973
418.212	24503
418.288	13037
418.364	3644
418.440	3819
418.516	7670
418.592	9516
418.668	17003
418.744	36133
418.820	37659
418.896	13406
418.972	3065
419.048	3665
419.124	10003
419.200	19112
419.276	5871
419.352	1902
419.428	1699
419.504	3156
419.579	7637
419.655	7166
419.731	4594
419.807	14654
419.883	42711
419.959	47516
420.034	14532
420.110	9350
420.186	51934
420.262	89496
420.337	22623
420.413	8103
420.489	5948
420.565	3037
420.640	2493
420.716	3958
420.792	3002
420.867	2429
420.943	3735
421.019	6939
421.094	10730
421.170	4837
421.245	1848
421.321	2225
421.397	2899
421.472	4843
421.548	13756
421.623	21044
421.699	8691
421.774	6057
421.850	5119
421.925	8036
422.001	12738
422.076	5945
422.152	3573
422.227	9722
422.302	10575
422.378	7156
422.453	12386
422.529	20370
422.604	84320
422.679	354999
422.755	299826
422.830	71008
422.905	13708
422.981	6669
423.056	4573
423.131	3359
423.207	3158
423.282	3985
423.357	15295
423.432	19487
423.508	9386
423.583	25939
423.658	39562
423.733	10484
423.808	6916
423.883	10238
423.959	11247
424.034	6491
424.109	3251
424.184	1619
424.259	1137
424.334	2287
424.409	1299
424.484	2164
424.559	3470
424.634	3587
424.709	4614
424.784	10537
424.859	8232
424.934	5902
425.009	29557
425.084	84873
425.159	62640
425.234	10610
425.309	2206
425.384	5010
425.459	14746
425.534	8152
425.609	3468
425.683	2889
425.758	1872
425.833	3354
425.908	4581
425.983	13338
426.058	75743
426.132	76363
426.207	13078
426.282	6358
426.357	10041
426.431	4915
426.506	3556
426.581	3492
426.655	3601
426.730	3273
426.805	3067
426.879	4215
426.954	3812
427.029	7230
427.103	41731
427.178	204486
427.253	204999
427.327	33335
427.402	6567
427.476	17384
427.551	15445
427.625	5520
427.700	4750
427.774	2884
427.849	3803
427.923	4699
427.998	1939
428.072	3117
428.147	5059
428.221	15655
428.296	43329
428.370	29147
428.444	5818
428.519	6826
428.593	17510
428.667	22191
428.742	17971
428.816	19276
428.890	23212
428.965	48390
429.039	30878
429.113	27471
429.188	16525
429.262	3847
429.336	4801
429.410	28171
429.485	39354
429.559	17621
429.633	18734
429.707	5978
429.781	5033
429.855	29752
429.930	76023
430.004	69852
430.078	93554
430.152	102341
430.226	53782
430.300	68971
430.374	20972
430.448	5948
430.522	14754
430.596	86787
430.670	92923
430.744	69113
430.818	252180
430.892	146743
430.966	16503
431.040	5274
431.114	2656
431.188	2920
431.262	2976
431.336	4580
431.410	5813
431.484	22804
431.557	33648
431.631	8427
431.705	2275
431.779	2742
431.853	15793
431.927	27393
432.000	7196
432.074	1586
432.148	3500
432.222	5687
432.295	3090
432.369	2037
432.443	4694
432.516	33212
432.590	205649
432.664	190720
432.737	26406
432.811	4467
432.885	1621
432.958	1662
433.032	1550
433.106	1936
433.179	855
433.253	960
433.326	608
433.400	1538
433.473	1191
433.547	392
433.620	745
433.694	4709
433.767	11204
433.841	6753
433.914	2561
433.988	1127
434.061	352
434.134	842
434.208	1351
434.281	190
434.355	327
434.428	1556
434.501	1150
434.575	1204
434.648	1682
434.721	1605
434.795	264
434.868	730
434.941	965
435.014	471
435.088	388
435.161	2338
435.234	5058
435.307	9672
435.381	5223
435.454	1202
435.527	1417
435.600	1309
435.673	990
435.746	651
435.819	-195
435.892	1284
435.966	804
436.039	871
436.112	1281
436.185	467
436.258	-115
436.331	139
436.404	1239
436.477	898
436.550	-389
436.623	709
436.696	423
436.769	1901
436.842	2234
436.915	1364
436.987	4834
437.060	4262
437.133	738
437.206	488
437.279	1181
437.352	1530
437.425	1197
437.498	2146
437.570	6218
437.643	10920
437.716	4506
437.789	1141
437.861	1369
437.934	6402
438.007	6589
438.080	2645
438.152	2975
438.225	5912
438.298	40812
438.370	288926
438.443	291090
438.516	43187
438.588	6812
438.661	2582
438.734	2463
438.806	2592
438.879	4440
438.951	3020
439.024	4456
439.096	4035
439.169	2273
439.241	697
439.314	625
439.386	3715
439.459	6676
439.531	14094
439.604	11375
439.676	2050
439.749	636
439.821	589
439.893	826
439.966	1357
440.038	3711
440.110	4139
440.183	2611
440.255	1882
440.327	3317
440.400	12968
440.472	117677
440.544	218737
440.617	48361
440.689	6147
440.761	4446
440.833	8859
440.905	8575
440.978	3352
441.050	1354
441.122	1253
441.194	1169
441.266	1506
441.338	1253
441.411	3050
441.483	19737
441.555	88619
441.627	43005
441.699	6811
441.771	7695
441.843	5253
441.915	1927
441.987	691
442.059	696
442.131	1208
442.203	3790
442.275	5808
442.347	6032
442.419	2534
442.491	3603
442.563	13972
442.635	16024
442.706	16108
442.778	29106
442.850	8708
442.922	1543
442.994	1829
443.066	4936
443.137	5078
443.209	2506
443.281	1692
443.353	4007
443.425	9294
443.496	24735
443.568	39582
443.640	18368
443.711	5849
443.783	2326
443.855	1640
443.926	901
443.998	1628
444.070	2832
444.141	3732
444.213	4277
444.285	9359
444.356	8553
444.428	11978
444.499	5340
444.571	873
444.642	499
444.714	1307
444.785	3848
444.857	6710
444.928	12774
445.000	14652
445.071	8208
445.143	14589
445.214	8203
445.285	4514
445.357	15171
445.428	26202
445.500	58613
445.571	67608
445.642	29373
445.714	12267
445.785	26904
445.856	16099
445.928	7290
445.999	8793
446.070	3748
446.141	3000
446.213	8024
446.284	5479
446.355	3420
446.426	3463
446.497	2534
446.569	3738
446.640	7905
446.711	12361
446.782	4920
446.853	5086
446.924	10273
446.995	6163
447.066	2436
447.138	4939
447.209	5238
447.280	1352
447.351	1035
447.422	302
447.493	950
447.564	3515
447.635	7552
447.706	6676
447.777	1368
447.847	509
447.918	251
447.989	2349
448.060	3712
448.131	7274
448.202	12727
448.273	10267
448.344	5797
448.414	1147
448.485	2151
448.556	1179
448.627	941
448.698	714
448.768	24
448.839	474
448.910	3221
448.981	5990
449.051	2323
449.122	838
449.193	401
449.263	-170
449.334	528
449.405	689
449.475	7110
449.546	10107
449.616	4892
449.687	6399
449.758	2783
449.828	917
449.899	486
449.969	874
450.040	171
450.110	2190
450.181	6867
450.251	3967
450.322	1246
450.392	657
450.463	1144
450.533	312
450.604	776
450.674	591
450.744	488
450.815	655
450.885	295
450.955	912
451.026	753
451.096	433
451.166	1898
451.237	2661
451.307	13385
451.377	11405
451.447	1498
451.518	195
451.588	579
451.658	980
451.728	1658
451.799	8760
451.869	25333
451.939	10046
452.009	1562
452.079	666
452.149	186
452.219	1813
452.289	11793
452.360	24313
452.430	6047
452.500	2440
452.570	3567
452.640	3630
452.710	5789
452.780	18226
452.850	14641
452.920	21193
452.990	11662
453.060	2660
453.129	3609
453.199	6020
453.269	8456
453.339	64849
453.409	121288
453.479	67570
453.549	109881
453.619	125291
453.688	86543
453.758	14905
453.828	3642
453.898	2563
453.968	2213
454.037	1961
454.087	1694
454.107	1559
454.168	1326
454.177	1268
454.247	362
454.249	450
454.316	1860
454.330	1960
454.386	1810
454.411	2812
454.456	3958
454.492	10002
454.525	15439
454.574	10709
454.595	8732
454.655	3207
454.665	2335
454.734	2581
454.736	2780
454.804	5322
454.817	6922
454.873	11333
454.898	16664
454.943	26086
454.979	22238
455.013	19320
455.060	13782
455.082	11613
455.141	7181
455.152	6366
455.221	11563
455.222	12032
455.291	29773
455.303	30442
455.360	30073
455.384	37441
455.430	45643
455.465	48540
455.499	53876
455.546	31776
455.569	20746
455.627	16921
455.638	16556
455.707	6600
455.708	6606
455.777	2702
455.789	2738
455.846	2885
455.869	2546
455.916	1875
455.950	2006
455.985	1993
456.031	2184
456.054	2318
456.112	2260
456.124	2287
456.193	2516
456.193	2480
456.262	3323
456.274	3609
456.332	4542
456.355	5554
456.401	6162
456.436	5752
456.470	6000
456.516	4062
456.540	3073
456.597	1867
456.609	1638
456.678	2273
456.678	2253
456.747	1906
456.759	1825
456.817	1430
456.840	1651
456.886	1978
456.920	2083
456.955	2558
457.001	3018
457.024	3529
457.082	5297
457.093	5582
457.162	7932
457.163	8011
457.232	9409
457.243	9183
457.301	9702
457.324	7347
457.370	3524
457.405	2816
457.439	2247
457.485	2283
457.508	2231
457.566	2535
457.577	2609
457.646	3745
457.647	3771
457.715	3587
457.727	3642
457.784	4371
457.808	4778
457.853	4772
457.889	4858
457.922	5041
457.969	4980
457.991	5133
458.050	5718
458.060	5791
458.129	7117
458.130	7186
458.198	6204
458.211	5762
458.267	5318
458.292	4553
458.336	3557
458.372	3896
458.405	4702
458.453	6143
458.474	6869
458.533	8375
458.543	8198
458.611	8810
458.614	8865
458.680	7433
458.694	6487
458.749	4725
458.775	4255
458.818	3786
458.855	3503
458.887	3403
458.936	3935
458.955	4032
459.016	4401
459.024	4449
459.093	4985
459.097	4977
459.162	4699
459.177	4953
459.230	6432
459.257	7083
459.299	6640
459.338	6258
459.368	6425
459.418	6103
459.437	5714
459.499	4845
459.505	4842
459.574	4850
459.579	4880
459.643	4651
459.659	4625
459.711	5328
459.740	5450
459.780	5099
459.820	5566
459.849	5966
459.900	5903
459.917	5713
459.981	5929
459.986	5973
460.054	5600
460.061	5656
460.123	7318
460.141	7737
460.191	9157
460.222	10256
460.260	10384
460.302	10581
460.328	9473
460.382	7397
460.397	7504
460.462	6089
460.465	6135
460.534	8828
460.543	9161
460.602	15948
460.623	18376
460.671	25333
460.703	31266
460.739	23020
460.783	13956
460.808	14393
460.864	8988
460.876	8354
460.944	6400
460.945	6370
461.013	6708
461.024	6719
461.081	7343
461.104	7771
461.150	6815
461.184	6242
461.218	6503
461.264	6280
461.286	6311
461.345	6664
461.355	6604
461.423	6464
461.425	6449
461.491	7816
461.505	8212
461.559	16669
461.585	20460
461.628	28706
461.665	36599
461.696	33441
461.745	30850
461.764	27229
461.825	13860
461.832	14214
461.901	9843
461.905	9820
461.969	6783
461.985	6405
462.037	6991
462.065	7142
462.105	9447
462.145	11777
462.173	14770
462.225	20533
462.241	21417
462.305	25287
462.310	24406
462.378	12931
462.385	11196
462.446	9877
462.465	9297
462.514	8021
462.545	8136
462.582	7804
462.625	7152
462.650	6962
462.705	6872
462.718	7435
462.785	10000
462.786	10051
462.854	13038
462.865	13539
462.922	13588
462.945	13846
462.990	10579
463.025	7454
463.058	7334
463.104	6871
463.126	6757
463.184	6594
463.194	6678
463.262	7783
463.264	7811
463.330	7419
463.344	7362
463.398	8201
463.424	8559
463.466	8536
463.504	8478
463.533	8578
463.583	8761
463.601	9389
463.663	11579
463.669	12089
463.737	17908
463.743	18409
463.805	25794
463.823	28106
463.873	38459
463.903	44321
463.940	38991
463.982	34233
464.008	27436
464.062	12283
464.076	12284
464.142	8980
464.144	8944
464.211	9058
464.221	9178
464.279	9829
464.301	10125
464.347	10756
464.381	11172
464.414	12343
464.461	13846
464.482	13626
464.540	13268
464.550	13318
464.617	13451
464.620	13424
464.685	16698
464.699	17413
464.753	19205
464.779	20182
464.820	19994
464.859	19816
464.888	19397
464.938	18359
464.956	17978
465.018	16398
465.023	16187
465.091	13225
465.098	12905
465.158	13761
465.177	13926
465.226	14128
465.257	14386
465.293	16545
465.336	18954
465.361	20770
465.416	24694
465.428	25771
465.495	31576
465.496	31728
465.563	47225
465.575	49778
465.631	45676
465.654	44218
465.698	28547
465.734	15124
465.765	15182
465.813	14405
465.833	14078
465.893	13714
465.900	13671
465.968	13222
465.972	13176
466.035	13334
466.052	13327
466.102	13548
466.131	13660
466.170	13459
466.210	13172
466.237	13615
466.290	14435
466.304	14486
466.369	14510
466.372	14548
466.439	14816
466.449	14829
466.506	18388
466.528	19700
466.573	31131
466.607	39640
466.641	54075
466.687	73943
466.708	73240
466.766	70830
466.775	65379
466.842	23877
466.845	21846
466.909	18404
466.925	17579
466.977	16847
467.004	16525
467.044	18686
467.083	20818
467.111	23869
467.163	29484
467.178	29409
467.242	28757
467.245	28697
467.312	26188
467.321	25802
467.379	24930
467.400	24533
467.446	25980
467.480	26934
467.559	21500
467.638	21954
467.717	23613
467.796	27021
467.875	30395
467.955	26401
468.034	45753
468.113	83645
468.192	86963
468.271	19571
468.350	19016
468.429	18084
468.508	18995
468.588	18874
468.667	21350
468.746	21853
468.825	21039
468.904	19722
468.983	25640
469.062	36155
469.141	35235
469.220	18852
469.299	20344
469.378	23325
469.456	27298
469.535	22745
469.614	22556
469.693	25320
469.772	30195
469.851	39340
469.930	23453
470.009	21816
470.088	22658
470.166	26695
470.245	35511
470.324	34442
470.403	25615
470.482	22202
470.560	22584
470.639	25566
470.718	29782
470.797	22426
470.875	27544
470.954	34382
471.033	30512
471.111	16540
471.190	16335
471.269	16471
471.347	17084
471.426	18250
471.505	23013
471.583	22030
471.662	19358
471.740	18691
471.819	18997
471.898	18472
471.976	17856
472.055	18502
472.133	21733
472.212	26073
472.290	25511
472.369	16757
472.447	17195
472.526	16638
472.604	19061
472.683	20914
472.761	22321
472.839	19726
472.918	17986
472.996	18511
473.075	21437
473.153	19643
473.231	18161
473.310	21004
473.388	19213
473.466	21674
473.545	27952
473.623	35692
473.701	29812
473.780	18029
473.858	18706
473.936	19017
474.014	18394
474.093	22292
474.171	30349
474.249	37261
474.327	19833
474.405	16501
474.484	17502
474.562	19119
474.640	17113
474.718	18646
474.796	16736
474.874	15789
474.952	15349
475.030	15371
475.108	15241
475.187	17297
475.265	20951
475.343	29597
475.421	28541
475.499	16707
475.577	18115
475.655	26187
475.733	50994
475.811	73760
475.889	66563
475.966	29713
476.044	18822
476.122	25508
476.200	31114
476.278	19736
476.356	17103
476.434	18702
476.512	23838
476.590	29460
476.667	21766
476.745	16201
476.823	18603
476.901	15664
476.979	16425
477.056	16884
477.134	18991
477.212	17650
477.290	16505
477.367	15112
477.445	14786
477.523	14687
477.601	15273
477.678	15385
477.756	19243
477.834	18671
477.911	15138
477.989	14610
478.066	15168
478.144	19362
478.222	24167
478.299	36575
478.377	24875
478.454	13183
478.532	13442
478.609	17204
478.687	17427
478.764	15153
478.842	17824
478.919	20963
478.997	16822
479.074	14191
479.152	17523
479.229	20888
479.307	13676
479.384	12067
479.461	11751
479.539	13644
479.616	16576
479.694	13259
479.771	16444
479.848	18684
479.926	24440
480.003	21231
480.080	14046
480.157	12072
480.235	14060
480.312	13927
480.389	18893
480.467	28631
480.544	28703
480.621	13758
480.698	15210
480.775	18177
480.853	16853
480.930	14780
481.007	15996
481.084	17434
481.161	16094
481.238	14388
481.315	12870
481.392	11880
481.470	13147
481.547	13734
481.624	13318
481.701	12293
481.778	13689
481.855	17194
481.932	27026
482.009	39921
482.086	19246
482.163	15683
482.240	27833
482.317	43861
482.393	23958
482.470	13712
482.547	13978
482.624	12992
482.701	12684
482.778	12425
482.855	11067
482.932	11122
483.009	11689
483.085	12392
483.162	13794
483.239	12616
483.316	11673
483.393	11966
483.469	12760
483.546	16210
483.623	14392
483.699	11494
483.776	13951
483.853	18069
483.930	31513
484.006	73979
484.083	97368
484.160	62761
484.236	84962
484.313	57530
484.389	45653
484.466	39419
484.543	39912
484.619	39724
484.696	41375
484.772	43739
484.849	45039
484.925	38073
485.002	38646
485.078	39680
485.155	39127
485.231	35983
485.308	35523
485.384	39260
485.461	51050
485.537	77263
485.614	71156
485.690	36872
485.766	36876
485.843	46056
485.919	66942
485.995	58062
486.072	33039
486.148	31565
486.224	32749
486.301	34523
486.377	38061
486.453	36973
486.530	39856
486.606	54632
486.682	55896
486.758	65513
486.835	68255
486.911	65967
486.987	107126
487.063	131739
487.139	164928
487.215	97896
487.292	39559
487.368	36166
487.444	37644
487.520	41930
487.596	38243
487.672	43406
487.748	74862
487.824	78841
487.900	35520
487.976	34856
488.052	38761
488.128	41706
488.204	38516
488.280	34613
488.356	48526
488.432	92479
488.508	105478
488.584	38723
488.660	34806
488.736	33942
488.812	41150
488.888	54502
488.964	89103
489.039	201684
489.115	256111
489.191	104039
489.267	34658
489.343	31224
489.418	26387
489.494	26994
489.570	27433
489.646	27120
489.722	28095
489.797	30208
489.873	54137
489.949	97338
490.024	57305
490.100	27275
490.176	30344
490.251	41627
490.327	52350
490.403	25796
490.478	23252
490.554	22504
490.629	22460
490.705	22192
490.781	25934
490.856	25908
490.932	33049
491.007	33799
491.083	30331
491.158	26090
491.234	40430
491.309	70225
491.385	54480
491.460	23583
491.536	27902
491.611	24695
491.686	33654
491.762	55668
491.837	126577
491.913	193830
491.988	282462
492.063	283898
492.139	53004
492.214	32324
492.289	20899
492.365	25180
492.440	26619
492.515	24406
492.590	23336
492.666	19601
492.741	32752
492.816	37919
492.891	21648
492.967	19704
493.042	19717
493.117	21897
493.192	27580
493.267	68619
493.342	192194
493.418	170746
493.493	24291
493.568	17192
493.643	20175
493.718	26829
493.793	45609
493.868	49206
493.943	27316
494.018	20258
494.093	18296
494.168	17013
494.243	17251
494.318	14810
494.393	15617
494.468	15903
494.543	18370
494.618	23290
494.693	16545
494.768	17029
494.842	17171
494.917	15546
494.992	18122
495.067	14676
495.142	16135
495.217	18380
495.292	18238
495.366	22142
495.441	29272
495.516	37965
495.591	87426
495.665	310699
495.740	579679
495.815	130777
495.890	25976
495.964	19560
496.039	20167
496.114	17282
496.188	20035
496.263	19681
496.338	18237
496.412	22907
496.487	26474
496.561	33375
496.636	30320
496.710	21631
496.785	26260
496.860	26186
496.934	20131
497.009	21465
497.083	19477
497.158	19513
497.232	25593
497.307	30427
497.381	20821
497.455	27261
497.530	34478
497.604	19923
497.679	24667
497.753	44108
497.827	47430
497.902	41718
497.976	69266
498.050	238862
498.125	758034
498.199	462124
498.273	73652
498.348	56649
498.422	41428
498.496	42662
498.570	35285
498.645	22861
498.719	25784
498.793	34836
498.867	62509
498.941	100844
499.016	340687
499.090	685724
499.164	113046
499.238	20886
499.312	22229
499.386	30664
499.460	23204
499.534	21175
499.609	30321
499.683	43932
499.757	49315
499.831	160438
499.905	505775
499.979	275311
500.053	54641
500.127	62406
500.201	50895
500.275	25169
500.349	24877
500.422	32831
500.496	65547
500.570	154534
500.644	305764
500.718	395385
500.792	47603
500.866	23809
500.940	30546
501.013	22064
501.087	30817
501.161	58322
501.235	74726
501.309	170248
501.382	417989
501.456	226847
501.530	75734
501.603	107208
501.677	29694
501.751	20951
501.825	31673
501.898	62072
501.972	148176
502.046	55096
502.119	32973
502.193	85775
502.266	155494
502.340	53116
502.413	80878
502.487	120825
502.561	61500
502.634	22979
502.708	27549
502.781	21900
502.855	15371
502.928	12761
503.002	12942
503.075	13535
503.149	14041
503.222	14395
503.295	16016
503.369	21179
503.442	39628
503.516	137302
503.589	267832
503.662	122725
503.736	55166
503.809	129129
503.882	85993
503.956	151869
504.029	90384
504.102	55833
504.175	46235
504.249	16543
504.322	20009
504.395	18102
504.468	13895
504.542	14314
504.615	11911
504.688	11712
504.761	14393
504.834	20447
504.907	31718
504.980	46758
505.053	20688
505.127	30850
505.200	25296
505.273	23185
505.346	13291
505.419	12769
505.492	11011
505.565	10401
505.638	11722
505.711	10420
505.784	10833
505.857	9549
505.930	10621
506.003	10719
506.076	13085
506.149	18747
506.221	21122
506.294	23695
506.367	79512
506.440	206364
506.513	67833
506.586	22805
506.659	15018
506.731	14422
506.804	23361
506.877	31103
506.950	15098
507.022	12235
507.095	19801
507.168	20780
507.241	15122
507.313	12867
507.386	20935
507.459	29035
507.531	15508
507.604	12486
507.677	11647
507.749	11884
507.822	23036
507.894	48200
507.967	39544
508.040	20812
508.112	17013
508.185	16389
508.257	20491
508.330	26011
508.402	17239
508.475	16577
508.547	16749
508.620	18984
508.692	26797
508.765	16190
508.837	14040
508.909	13954
508.982	15398
509.054	20255
509.127	15812
509.199	13031
509.271	12487
509.344	11982
509.416	12797
509.488	13309
509.560	13839
509.633	18990
509.705	22574
509.777	21147
509.849	30864
509.922	18586
509.994	13893
510.066	14852
510.138	20337
510.210	34031
510.283	27727
510.355	22075
510.427	20339
510.499	19833
510.571	18809
510.643	22337
510.715	36679
510.787	29061
510.859	20703
510.931	26502
511.003	35087
511.076	25626
511.148	17354
511.219	19639
511.291	30948
511.363	27638
511.435	15469
511.507	16130
511.579	15159
511.651	14518
511.723	15036
511.795	15086
511.867	16524
511.939	22664
512.010	42469
512.082	26564
512.154	20019
512.226	19778
512.298	33991
512.369	40844
512.441	33861
512.513	37169
512.585	26755
512.656	24427
512.728	26819
512.800	19134
512.871	20567
512.943	20554
513.015	19181
513.086	20298
513.158	24310
513.230	27163
513.301	48585
513.373	49885
513.444	23589
513.516	18734
513.588	20116
513.659	24924
513.731	33624
513.802	31457
513.874	74944
513.945	111285
514.016	27384
514.088	19142
514.159	25058
514.231	35770
514.302	37785
514.374	25211
514.445	26309
514.516	46827
514.588	29014
514.659	26763
514.730	44357
514.802	31102
514.873	23352
514.944	19053
515.016	22287
515.087	27329
515.158	33996
515.229	33415
515.301	18607
515.372	19919
515.443	16789
515.514	16865
515.585	16718
515.656	16116
515.728	17012
515.799	17724
515.870	19630
515.941	19953
516.012	22788
516.083	27512
516.154	36560
516.225	49184
516.296	36141
516.367	28360
516.438	34418
516.509	46910
516.580	77036
516.651	245087
516.722	675910
516.793	197596
516.864	55621
516.935	50143
517.006	57547
517.077	99752
517.148	260320
517.219	797837
517.289	846998
517.360	224842
517.431	53673
517.502	25755
517.573	24165
517.643	25734
517.714	28224
517.785	28618
517.856	28804
517.926	32348
517.997	40985
518.068	53181
518.138	78511
518.209	160121
518.280	626277
518.350	1653784
518.421	373839
518.492	45749
518.562	33528
518.633	29487
518.703	25176
518.774	31540
518.845	50763
518.915	37660
518.986	29961
519.056	46115
519.127	99492
519.197	150999
519.268	247158
519.338	89233
519.408	38483
519.479	56898
519.549	37500
519.620	23363
519.690	17888
519.760	19498
519.831	22347
519.901	20637
519.971	16873
520.042	19404
520.112	23755
520.182	29386
520.253	30974
520.323	19316
520.393	28613
520.463	31072
520.534	29904
520.604	44500
520.674	22399
520.744	30626
520.814	65788
520.885	53091
520.955	95557
521.025	251610
521.095	54820
521.165	19252
521.235	17713
521.305	15638
521.375	15957
521.445	21835
521.515	33122
521.585	36565
521.655	31133
521.725	27357
521.795	20827
521.865	16453
521.935	23484
522.005	18898
522.075	14365
522.145	15207
522.215	20438
522.285	27356
522.355	42279
522.424	71368
522.494	52398
522.564	41428
522.634	115372
522.704	259693
522.774	62722
522.843	20280
522.913	21854
522.983	32410
523.053	22059
523.122	22684
523.192	50767
523.262	175569
523.331	114531
523.401	18526
523.471	14964
523.540	16563
523.610	13069
523.680	11523
523.749	13021
523.819	16871
523.888	15571
523.958	11982
524.027	12651
524.097	13401
524.166	14475
524.236	20741
524.305	16127
524.375	13454
524.444	12496
524.514	12894
524.583	14736
524.653	19924
524.722	18148
524.791	13954
524.861	13686
524.930	13117
524.999	16158
525.069	22754
525.138	16354
525.207	19067
525.277	13115
525.346	14274
525.415	12495
525.484	14725
525.554	17295
525.623	13030
525.692	11562
525.761	12254
525.830	10519
525.900	12877
525.969	17540
526.038	19161
526.107	28249
526.176	52528
526.245	40549
526.314	39884
526.383	44981
526.452	43837
526.522	82125
526.591	103834
526.660	113954
526.729	46665
526.797	60762
526.867	192714
526.935	681675
527.004	395716
527.073	111870
527.142	18789
527.211	15674
527.280	23255
527.349	22542
527.418	11863
527.487	12121
527.555	11428
527.624	10139
527.693	9970
527.762	9463
527.831	9601
527.899	10176
527.968	12160
528.037	13770
528.106	21855
528.174	43000
528.243	27396
528.312	51895
528.380	56268
528.449	14525
528.518	9460
528.586	8227
528.655	8240
528.723	9229
528.792	9253
528.861	11758
528.929	8685
528.998	8347
529.066	7796
529.135	7467
529.203	7847
529.272	8492
529.340	7846
529.409	9737
529.477	9607
529.545	13756
529.614	12409
529.682	17821
529.751	15482
529.819	17691
529.887	10938
529.956	9382
530.024	9301
530.092	10718
530.161	16657
530.229	31986
530.297	11292
530.365	7907
530.434	7182
530.502	7413
530.570	7686
530.638	6783
530.707	10988
530.775	9539
530.843	8139
530.911	7835
530.979	6911
531.047	8361
531.115	8662
531.183	7157
531.252	8738
531.320	8559
531.388	7095
531.456	9269
531.524	7324
531.592	9211
531.660	9859
531.728	8506
531.796	7360
531.864	8471
531.932	9594
532.000	9826
532.067	10475
532.135	12680
532.203	14445
532.271	19742
532.339	46228
532.407	129352
532.475	49354
532.542	22919
532.610	29249
532.678	57901
532.746	253011
532.814	438928
532.881	70420
532.949	14278
533.017	11893
533.084	9253
533.152	9156
533.220	10561
533.287	14349
533.355	8893
533.423	8908
533.490	7561
533.558	9088
533.625	11303
533.693	12219
533.761	10890
533.828	12418
533.896	16560
533.963	40648
534.031	44564
534.098	56887
534.166	18520
534.233	10160
534.300	11162
534.368	11113
534.435	8986
534.503	9399
534.570	9108
534.637	9068
534.705	9171
534.772	10172
534.840	12664
534.907	29759
534.974	25961
535.041	12093
535.109	13880
535.176	8652
535.243	8739
535.310	12435
535.378	10750
535.445	7406
535.512	7991
535.579	8161
535.646	8491
535.714	10086
535.781	12602
535.848	11939
535.915	12319
535.982	13081
536.049	11438
536.116	12410
536.183	12277
536.250	13318
536.317	14755
536.384	20914
536.451	38052
536.518	34541
536.585	21904
536.652	29575
536.719	51671
536.786	35455
536.853	26199
536.920	45473
536.987	80351
537.053	78955
537.120	270702
537.187	147071
537.254	15990
537.321	11904
537.388	11860
537.454	9897
537.521	9900
537.588	8875
537.654	13209
537.721	15086
537.788	13390
537.855	11307
537.921	12535
537.988	13412
538.055	13349
538.121	14457
538.188	19513
538.254	41639
538.321	90553
538.388	36544
538.454	13411
538.521	11960
538.587	10604
538.654	10656
538.720	10398
538.787	10868
538.853	13304
538.920	20133
538.986	18485
539.053	13231
539.119	15745
539.185	15476
539.252	22404
539.318	40316
539.385	19730
539.451	19556
539.517	18901
539.583	26686
539.650	81010
539.716	160478
539.782	30357
539.849	16613
539.915	15813
539.981	19109
540.047	25881
540.114	18073
540.180	17563
540.246	20770
540.312	36899
540.378	89093
540.444	75456
540.510	87461
540.576	193179
540.643	37599
540.709	14710
540.775	13811
540.841	14981
540.907	21978
540.973	33010
541.039	39266
541.105	42827
541.171	17395
541.237	15320
541.303	17169
541.369	21030
541.435	38206
541.500	77587
541.566	35866
541.632	13993
541.698	12113
541.764	12031
541.830	11338
541.896	11907
541.961	13560
542.027	14083
542.093	13935
542.159	17224
542.224	22996
542.290	35491
542.356	79420
542.421	79950
542.487	23751
542.553	17082
542.618	17305
542.684	15115
542.750	16880
542.815	24362
542.881	53074
542.947	186695
543.012	88748
543.078	15012
543.143	14144
543.209	16128
543.274	18265
543.340	25131
543.405	71149
543.471	86818
543.536	15096
543.602	12755
543.667	11255
543.732	12067
543.798	12808
543.863	12015
543.928	10464
543.994	10863
544.059	10983
544.124	11597
544.190	11098
544.255	13022
544.320	14333
544.386	17700
544.451	31132
544.516	38035
544.581	38857
544.646	124287
544.712	140863
544.777	20420
544.842	16985
544.907	16542
544.972	14475
545.037	13799
545.102	15061
545.168	15896
545.233	16699
545.298	21001
545.363	24931
545.428	33428
545.493	73034
545.558	144028
545.623	37447
545.688	15912
545.753	14840
545.818	15161
545.883	14200
545.947	14823
546.012	16847
546.077	16832
546.142	16868
546.207	20012
546.272	33904
546.337	33178
546.401	19931
546.466	16357
546.531	15593
546.596	17922
546.661	18474
546.725	14251
546.790	13143
546.855	13034
546.919	13145
546.984	14628
547.049	14623
547.113	18149
547.178	15432
547.243	17393
547.307	19196
547.372	25196
547.436	24298
547.501	16667
547.565	20617
547.630	32940
547.695	27668
547.759	26289
547.823	18159
547.888	15624
547.952	14987
548.017	17278
548.081	22995
548.146	30439
548.210	20369
548.274	15799
548.339	15096
548.403	15238
548.468	13767
548.532	14209
548.596	14630
548.660	16379
548.725	19705
548.789	26621
548.853	22389
548.917	18134
548.982	26167
549.046	22579
549.110	14839
549.174	14769
549.238	14183
549.303	14831
549.367	16270
549.431	14812
549.495	15147
549.559	14193
549.623	15915
549.687	22629
549.751	35455
549.815	20306
549.879	16428
549.943	15884
550.007	17692
550.071	20933
550.135	30126
550.199	19106
550.263	17576
550.327	21644
550.391	27108
550.455	18365
550.519	18049
550.582	20753
550.646	34316
550.710	30187
550.774	16747
550.838	17310
550.901	17656
550.965	19130
551.029	20433
551.093	24157
551.156	31922
551.220	65664
551.284	57089
551.347	33598
551.411	81214
551.475	66768
551.538	19198
551.602	16461
551.666	16925
551.729	15157
551.793	15704
551.856	15608
551.920	15915
551.983	15520
552.047	15069
552.110	14741
552.174	14214
552.237	16385
552.301	15073
552.364	14232
552.428	15035
552.491	14898
552.554	17132
552.618	16756
552.681	19022
552.745	23457
552.808	42744
552.871	51700
552.934	25622
552.998	18480
553.061	18615
553.124	16082
553.187	15065
553.251	18042
553.314	18260
553.377	19305
553.440	27725
553.503	72463
553.567	74882
553.630	17777
553.693	15094
553.756	16029
553.819	14760
553.882	15308
553.945	13992
554.008	13756
554.071	13462
554.134	14226
554.197	13084
554.260	14303
554.323	17263
554.386	16121
554.449	13761
554.512	14039
554.575	13631
554.638	15736
554.701	13814
554.764	13519
554.827	12551
554.889	12340
554.952	11735
555.015	12253
555.078	11643
555.141	12362
555.203	11989
555.266	12115
555.329	14035
555.391	13539
555.454	17184
555.517	16879
555.580	11530
555.642	12272
555.705	12875
555.768	13908
555.830	13038
555.893	12231
555.955	12164
556.018	13354
556.080	12083
556.143	12569
556.206	13241
556.268	16023
556.330	16710
556.393	15943
556.455	15775
556.518	26676
556.580	25422
556.643	13547
556.705	13999
556.767	13483
556.830	15027
556.892	22539
556.955	46817
557.017	23765
557.079	14374
557.142	15771
557.204	26100
557.266	69597
557.328	42452
557.391	13085
557.453	11558
557.515	14102
557.577	22149
557.639	21385
557.701	11503
557.764	10143
557.826	10634
557.888	13121
557.950	11965
558.012	11813
558.074	13307
558.136	22090
558.198	35148
558.260	17443
558.322	13720
558.384	14245
558.446	17411
558.508	21075
558.570	31869
558.632	78658
558.694	106673
558.756	45164
558.818	98447
558.880	178605
558.942	42658
559.003	37314
559.065	17879
559.127	13975
559.189	14481
559.251	16373
559.312	20400
559.374	44614
559.436	112772
559.498	41558
559.559	14051
559.621	15497
559.683	18242
559.744	29012
559.806	68964
559.868	69132
559.929	18438
559.991	17926
560.052	21858
560.114	39322
560.176	24971
560.237	34055
560.299	46680
560.360	16024
560.422	12182
560.483	12208
560.545	11293
560.606	11727
560.667	11207
560.729	11088
560.790	10869
560.852	10851
560.913	11731
560.974	10906
561.036	11626
561.097	11566
561.158	12289
561.220	13439
561.281	14400
561.342	16753
561.403	22642
561.465	37213
561.526	110121
561.587	121328
561.648	21636
561.709	14418
561.771	12829
561.832	13617
561.893	12669
561.954	12118
562.015	11927
562.076	11832
562.137	11658
562.198	12117
562.259	12707
562.320	14060
562.381	17717
562.442	31128
562.503	19787
562.564	12580
562.625	11264
562.686	11681
562.747	12455
562.808	12898
562.869	12170
562.930	15325
562.991	13817
563.051	12510
563.112	11997
563.173	11946
563.234	11101
563.294	11852
563.355	13094
563.416	14826
563.477	11940
563.537	12671
563.598	13641
563.659	13251
563.720	14114
563.780	14840
563.841	16161
563.901	13092
563.962	12238
564.023	11767
564.083	12577
564.144	14103
564.204	13403
564.265	13653
564.325	17027
564.386	35477
564.446	26398
564.507	12836
564.567	12973
564.628	11920
564.688	12224
564.749	11638
564.809	14968
564.869	17772
564.930	11271
564.990	11972
565.050	12001
565.111	12102
565.171	11612
565.231	11703
565.292	12044
565.352	10979
565.412	12773
565.472	13754
565.532	16262
565.593	13493
565.653	11518
565.713	12503
565.773	14229
565.833	22666
565.893	28600
565.953	13499
566.013	11948
566.074	14012
566.134	19670
566.194	33073
566.254	33225
566.314	18483
566.374	12591
566.434	12284
566.494	13118
566.554	13493
566.614	12542
566.673	12532
566.733	13210
566.793	12391
566.853	12113
566.913	12553
566.973	11724
567.033	12694
567.092	12268
567.152	11911
567.212	12631
567.272	12981
567.331	13198
567.391	13265
567.451	14323
567.511	21506
567.570	18389
567.630	11270
567.690	12100
567.749	12004
567.809	12723
567.868	14957
567.928	14884
567.988	15581
568.047	13951
568.107	14644
568.166	17905
568.226	26112
568.285	30225
568.345	23510
568.404	22043
568.464	21406
568.523	17747
568.582	18994
568.642	21035
568.701	23385
568.761	33158
568.820	49611
568.879	39500
568.939	31134
568.998	22750
569.057	19078
569.116	15841
569.176	14254
569.235	11796
569.294	11957
569.353	12482
569.413	11739
569.472	11276
569.531	10326
569.590	10037
569.649	10486
569.708	9903
569.767	11374
569.827	13023
569.886	11670
569.945	9933
570.004	11221
570.063	11660
570.122	15497
570.181	14403
570.240	13767
570.299	13033
570.358	13837
570.417	11417
570.475	10169
570.534	13252
570.593	14107
570.652	13604
570.711	13852
570.770	15877
570.829	20929
570.887	19686
570.946	20641
571.005	11499
571.064	10996
571.122	12123
571.181	13712
571.240	11299
571.299	9975
571.357	11176
571.416	11823
571.475	13450
571.533	13658
571.592	10352
571.650	11453
571.709	9266
571.768	9889
571.826	9215
571.885	8913
571.943	8505
572.002	9425
572.060	8932
572.119	7552
572.177	8128
572.236	8017
572.294	7374
572.352	8271
572.411	8204
572.469	7874
572.528	7475
572.586	8579
572.644	8952
572.703	11885
572.761	9413
572.819	7301
572.877	7329
572.936	7234
572.994	7546
573.052	7652
573.110	9080
573.169	9494
573.227	7784
573.285	7809
573.343	7239
573.401	7852
573.459	7319
573.517	7224
573.576	7956
573.634	7712
573.692	8905
573.750	8167
573.808	7822
573.866	9048
573.924	12778
573.982	11103
574.040	7616
574.098	8016
574.155	7414
574.213	7676
574.271	7513
574.329	7920
574.387	7510
574.445	6883
574.503	5830
574.560	6586
574.618	7085
574.676	8169
574.734	6606
574.792	7870
574.849	6452
574.907	6260
574.965	6653
575.022	7174
575.080	6486
575.138	8276
575.195	8677
575.253	9904
575.311	11456
575.368	8477
575.426	6133
575.483	7219
575.541	6611
575.598	7211
575.656	8242
575.713	7081
575.771	6300
575.828	6685
575.886	6932
575.943	8084
576.001	7594
576.058	8668
576.115	10819
576.173	11579
576.230	15215
576.287	18725
576.345	11034
576.402	7976
576.459	8479
576.517	8327
576.574	9986
576.631	10175
576.688	8323
576.746	7098
576.803	7852
576.860	7455
576.917	6911
576.974	8197
577.031	7939
577.089	7318
577.146	7749
577.203	8809
577.260	9817
577.317	10729
577.374	11943
577.431	9908
577.488	8591
577.545	7169
577.602	6899
577.659	6778
577.716	7378
577.773	8222
577.830	6964
577.886	7015
577.943	7460
578.000	8461
578.057	8829
578.114	8577
578.171	9057
578.227	10062
578.284	8162
578.341	7378
578.398	8596
578.454	8537
578.511	10441
578.568	12689
578.625	9128
578.681	7462
578.738	6310
578.794	6607
578.851	6437
578.908	6798
578.964	7235
579.021	7868
579.077	7396
579.134	8192
579.190	6820
579.247	6662
579.303	7336
579.360	7476
579.416	7184
579.473	7118
579.529	6003
579.586	6326
579.642	6402
579.698	7542
579.755	8651
579.811	8776
579.867	7335
579.924	6456
579.980	7113
580.036	7160
580.093	9073
580.149	10485
580.205	10860
580.261	7828
580.317	7680
580.374	9208
580.430	11480
580.486	9919
580.542	6794
580.598	7169
580.619	7339
580.654	7641
580.692	7400
580.710	7289
580.765	7311
580.767	7317
580.823	6354
580.838	6508
580.879	6929
580.911	7203
580.935	7419
580.984	6379
580.991	6238
581.047	6415
581.057	6489
581.103	6858
581.130	6951
581.159	7046
581.203	7309
581.215	7387
581.270	8008
581.276	7889
581.326	6818
581.349	6875
581.382	6946
581.422	7023
581.438	7070
581.494	7018
581.494	7021
581.550	7638
581.567	8031
581.606	8923
581.640	8051
581.661	7494
581.713	7068
581.717	7042
581.773	6552
581.786	6518
581.829	6400
581.859	6570
581.885	6742
581.932	6666
581.940	6647
581.996	6828
582.004	6823
582.052	6786
582.077	6222
582.107	5593
582.150	7155
582.163	7620
582.219	6747
582.223	6762
582.274	6939
582.296	7130
582.330	7559
582.368	7952
582.386	8052
582.441	6640
582.441	6638
582.497	6903
582.514	6962
582.552	7018
582.587	6941
582.608	6955
582.659	6577
582.663	6555
582.719	7023
582.732	6958
582.774	6605
582.805	6796
582.830	6995
582.877	7118
582.885	7118
582.941	6503
582.950	6608
582.996	7126
583.023	7241
583.052	7562
583.095	8033
583.107	8121
583.162	8666
583.168	8728
583.218	9280
583.240	8564
583.273	7499
583.313	7054
583.328	6862
583.384	7930
583.385	7914
583.439	7411
583.458	7190
583.494	6818
583.531	6650
583.549	6614
583.603	6763
583.605	6761
583.660	6222
583.676	6282
583.715	6598
583.748	7379
583.770	7912
583.820	7603
583.825	7561
583.881	7532
583.893	7566
583.936	7552
583.965	7345
583.991	7380
584.038	7336
584.046	7248
584.101	7294
584.110	7274
584.156	7702
584.183	7596
584.211	7190
584.255	6980
584.266	6948
584.321	6484
584.328	6539
584.376	7224
584.400	7276
584.431	7304
584.472	7189
584.486	7126
584.541	7007
584.545	7014
584.596	7000
584.617	7088
584.651	7582
584.689	8109
584.706	8268
584.761	7959
584.762	7963
584.816	8250
584.834	8002
584.871	8021
584.906	8297
584.926	8148
584.978	8018
584.980	8025
585.035	8058
585.051	8031
585.090	8256
585.123	8938
585.145	9350
585.195	9562
585.200	9593
585.254	10601
585.267	11040
585.309	12601
585.340	14093
585.364	15845
585.412	14338
585.419	13718
585.473	12289
585.484	12098
585.528	12229
585.556	12748
585.583	13925
585.628	17013
585.637	17856
585.692	28419
585.700	29812
585.747	41967
585.772	39040
585.801	29371
585.845	22083
585.856	19809
585.910	12766
585.917	11967
585.965	11996
585.989	11867
586.019	11568
586.061	10793
586.074	10678
586.128	11338
586.133	11451
586.183	13084
586.205	13523
586.237	14546
586.277	14347
586.292	13743
586.346	12423
586.349	12385
586.401	12187
586.421	12096
586.455	12504
586.493	13577
586.509	14253
586.564	16587
586.565	16790
586.618	29233
586.637	29132
586.672	28858
586.709	27684
586.727	22631
586.781	13091
586.781	13102
586.835	11980
586.853	11646
586.889	11698
586.925	11675
586.944	11514
586.996	11930
586.998	11968
587.052	11783
587.068	11998
587.106	12786
587.140	12822
587.161	12515
587.212	12947
587.215	13018
587.269	13181
587.284	13361
587.323	13677
587.356	13578
587.377	13700
587.427	14383
587.431	14401
587.485	14500
587.499	14427
587.539	14585
587.571	14834
587.593	15252
587.643	16115
587.648	16161
587.702	16113
587.715	16238
587.755	17498
587.786	17991
587.810	18192
587.858	18487
587.864	18534
587.917	19725
587.930	19904
587.971	21477
588.001	22651
588.025	23637
588.073	24726
588.079	24937
588.133	27326
588.145	27867
588.187	30319
588.217	31778
588.241	33754
588.288	38375
588.295	39143
588.348	45398
588.360	46740
588.402	53650
588.431	58504
588.456	62941
588.503	73570
588.510	75408
588.564	91236
588.575	94969
588.617	111363
588.646	124450
588.671	136929
588.718	166875
588.725	173001
588.778	232219
588.789	248779
588.832	350353
588.861	446409
588.886	618468
588.932	1031924
588.939	1137102
588.993	1839798
589.004	1913894
589.047	1611826
589.075	1459042
589.100	1063445
589.147	408988
589.154	387160
589.207	226127
589.218	194008
589.261	176681
589.290	167127
589.314	171409
589.361	186024
589.368	190843
589.421	241570
589.433	258457
589.475	393970
589.504	524161
589.528	769047
589.576	1251176
589.582	1304831
589.635	1478965
589.647	1527383
589.689	861637
589.718	433718
589.742	326046
589.790	114915
589.795	111179
589.849	76061
589.861	68478
589.902	62604
589.932	56803
589.955	53489
590.004	45824
590.009	44842
590.062	34652
590.075	32167
590.115	30163
590.146	28367
590.168	27618
590.218	25807
590.222	25743
590.275	24735
590.289	24328
590.328	23958
590.360	23521
590.381	23163
590.431	22168
590.435	22115
590.488	20676
590.503	20285
590.541	20678
590.574	20707
590.594	20396
590.645	19510
590.647	19517
590.700	18843
590.716	18574
590.753	18634
590.787	18600
590.806	18290
590.859	17386
590.859	17418
590.912	17115
590.930	17056
590.965	17080
591.001	17011
591.018	16990
591.071	16572
591.072	16532
591.124	17012
591.143	17264
591.177	17175
591.214	16740
591.230	17032
591.283	18166
591.285	18175
591.336	18452
591.356	18586
591.389	20168
591.427	21590
591.442	21173
591.495	19489
591.498	19337
591.547	17608
591.569	16716
591.600	16847
591.640	16925
591.653	16815
591.706	16237
591.711	16148
591.759	17426
591.782	18003
591.811	18385
591.853	18825
591.864	19036
591.917	19765
591.924	19836
591.969	18062
591.995	16982
592.022	17136
592.066	17227
592.075	17424
592.127	18502
592.137	18675
592.180	20253
592.208	21174
592.233	21472
592.279	21728
592.285	21349
592.338	17801
592.350	16947
592.390	16068
592.421	15356
592.443	15461
592.491	15581
592.495	15653
592.548	16208
592.562	16327
592.600	16146
592.633	15936
592.653	16009
592.704	16026
592.705	16126
592.775	16531
592.846	16627
592.916	17346
592.987	18661
593.058	20446
593.128	16312
593.199	16062
593.270	14750
593.341	15492
593.411	14722
593.482	16264
593.553	15534
593.623	14215
593.694	15449
593.764	15974
593.835	16673
593.906	15359
593.976	14693
594.047	14696
594.117	16306
594.188	19724
594.258	17374
594.329	14824
594.399	14892
594.470	15269
594.540	14780
594.611	14662
594.681	14698
594.751	15546
594.822	18136
594.892	22945
594.963	22324
595.033	17647
595.103	16274
595.174	16384
595.244	19285
595.314	29331
595.384	28948
595.455	15237
595.525	15379
595.595	14226
595.665	15479
595.736	15904
595.806	15348
595.876	15191
595.946	14314
596.016	14386
596.087	14326
596.157	15081
596.227	15329
596.297	15913
596.367	15636
596.437	17270
596.507	18256
596.577	25830
596.647	27283
596.717	17247
596.787	14638
596.857	15610
596.927	15574
596.997	15837
597.067	15288
597.137	16207
597.207	16862
597.277	15794
597.347	16184
597.417	15425
597.487	15668
597.557	17163
597.626	16771
597.696	17178
597.766	19087
597.836	22872
597.906	27787
597.975	17344
598.045	14985
598.115	14673
598.185	15243
598.254	16232
598.324	16712
598.394	19054
598.464	18261
598.533	18836
598.603	15946
598.672	15526
598.742	16425
598.812	16007
598.881	15885
598.951	15400
599.020	14614
599.090	14582
599.159	14234
599.229	14813
599.299	13982
599.368	14072
599.437	14715
599.507	14140
599.576	14343
599.646	14875
599.715	14703
599.785	14652
599.854	14133
599.924	16676
599.993	17925
600.062	16215
600.132	13690
600.201	14718
600.270	15267
600.340	17420
600.409	15987
600.478	15360
600.547	14671
600.617	14878
600.686	14812
600.755	14942
600.824	14902
600.894	17175
600.963	14346
601.032	13337
601.101	12599
601.170	12647
601.239	12189
601.308	15016
601.378	15142
601.447	13782
601.516	12657
601.585	12841
601.654	13696
601.723	15360
601.792	13098
601.861	13449
601.930	14475
601.999	16406
602.068	17841
602.137	14926
602.206	17410
602.275	15810
602.343	15490
602.412	20362
602.481	18316
602.550	12934
602.619	12662
602.688	12832
602.756	13668
602.825	12214
602.894	12265
602.963	11562
603.032	12375
603.100	12614
603.169	11860
603.238	11898
603.307	11827
603.375	12388
603.444	11749
603.513	12491
603.581	12246
603.650	12272
603.719	12516
603.787	12064
603.856	12870
603.924	12137
603.993	12336
604.061	12413
604.130	12452
604.198	13595
604.267	13580
604.335	12669
604.404	12725
604.472	12507
604.541	13071
604.609	12478
604.678	12624
604.746	12284
604.815	12569
604.883	13025
604.951	13765
605.020	12891
605.088	12562
605.156	13660
605.225	13245
605.293	13289
605.361	13288
605.429	13930
605.498	14700
605.566	14412
605.634	16421
605.702	14376
605.771	14181
605.839	13534
605.907	14412
605.975	14400
606.043	13612
606.111	14014
606.180	13981
606.248	14526
606.316	14623
606.384	16184
606.452	15851
606.520	19635
606.588	24273
606.656	15852
606.724	14380
606.792	13822
606.860	12632
606.928	12180
606.996	11573
607.064	12251
607.132	11981
607.200	12291
607.267	12407
607.335	13142
607.403	11506
607.471	11762
607.539	11716
607.607	12707
607.674	11547
607.742	11259
607.810	12511
607.878	14730
607.946	12433
608.013	11963
608.081	11937
608.149	12824
608.216	11837
608.284	12866
608.352	11922
608.419	12479
608.487	14245
608.555	18156
608.622	12633
608.690	11511
608.757	12512
608.825	12824
608.893	13135
608.960	12792
609.028	15386
609.095	17288
609.163	19553
609.230	13642
609.298	12586
609.365	12492
609.432	11888
609.500	11879
609.567	13237
609.635	14330
609.702	15220
609.769	15190
609.837	15386
609.904	15795
609.971	13773
610.039	14417
610.106	15712
610.173	22733
610.241	38588
610.308	73748
610.375	78734
610.442	41773
610.509	15846
610.577	13290
610.644	11829
610.711	12505
610.778	12484
610.845	12124
610.912	13008
610.980	13704
611.047	14307
611.114	15985
611.181	13453
611.248	11292
611.315	12960
611.382	12836
611.449	12325
611.516	13182
611.583	13019
611.650	13059
611.717	13639
611.784	13943
611.851	14505
611.918	15464
611.984	19126
612.051	21729
612.118	29238
612.185	53740
612.252	122388
612.319	46888
612.386	17347
612.452	16111
612.519	15507
612.586	16822
612.653	22191
612.719	16590
612.786	14645
612.853	13910
612.919	13103
612.986	13261
613.053	13311
613.120	12225
613.186	12197
613.253	13099
613.319	12962
613.386	13794
613.453	13783
613.519	14299
613.586	16770
613.652	25203
613.719	30779
613.785	25377
613.852	18031
613.918	14490
613.985	15377
614.051	18358
614.118	28314
614.184	63266
614.250	42209
614.317	15006
614.383	13197
614.449	13321
614.516	12769
614.582	14071
614.648	14676
614.715	13237
614.781	12247
614.847	13376
614.914	13146
614.980	14022
615.046	12890
615.112	11927
615.179	12888
615.245	12262
615.311	12474
615.377	14342
615.443	17574
615.509	16658
615.575	14018
615.642	14982
615.708	15431
615.774	16693
615.840	18479
615.906	20303
615.972	23899
616.038	30587
616.104	48953
616.170	75555
616.236	174678
616.302	96111
616.368	24765
616.434	20000
616.500	18646
616.565	16942
616.631	17964
616.697	19789
616.763	17397
616.829	18425
616.895	24350
616.961	36251
617.026	30210
617.092	17529
617.158	13815
617.224	13158
617.289	13703
617.355	14139
617.421	13454
617.487	13879
617.552	13320
617.618	12137
617.684	11481
617.749	12747
617.815	12176
617.880	12065
617.946	12171
618.012	10938
618.077	12544
618.143	11966
618.208	12141
618.274	11678
618.339	12989
618.405	13419
618.470	12463
618.536	12214
618.601	13274
618.667	13771
618.732	12394
618.798	12429
618.863	12766
618.928	12649
618.994	12849
619.059	14486
619.124	17530
619.190	25338
619.255	14963
619.320	12493
619.386	12416
619.451	11861
619.516	12367
619.581	11846
619.647	11097
619.712	11507
619.777	11067
619.842	11287
619.907	11475
619.972	12618
620.038	11355
620.103	11541
620.168	11324
620.233	11492
620.298	10699
620.363	10998
620.428	11376
620.493	11171
620.558	11387
620.623	10510
620.688	10823
620.753	11290
620.818	10880
620.883	11711
620.948	11532
621.013	11389
621.078	11334
621.143	11875
621.207	12089
621.272	12691
621.337	13474
621.402	13850
621.467	15234
621.532	19175
621.596	18252
621.661	14662
621.726	13352
621.791	13765
621.855	13408
621.920	16065
621.985	16051
622.049	17083
622.114	18466
622.179	17578
622.243	13922
622.308	14671
622.373	14746
622.437	15232
622.502	14509
622.566	14160
622.631	14610
622.695	13776
622.760	14815
622.824	15774
622.889	14875
622.953	16524
623.018	18668
623.082	29669
623.147	25413
623.211	14790
623.276	14984
623.340	14942
623.404	14190
623.469	13238
623.533	13591
623.597	12282
623.662	13801
623.726	12972
623.790	13506
623.854	12591
623.919	13930
623.983	13279
624.047	12838
624.111	14320
624.176	13351
624.240	13491
624.304	14835
624.368	15310
624.432	14040
624.496	15167
624.560	14893
624.625	17345
624.689	19927
624.753	13560
624.817	13200
624.881	13273
624.945	13013
625.009	13403
625.073	12909
625.137	13378
625.201	15420
625.265	20533
625.329	18720
625.393	14614
625.456	16139
625.520	15541
625.584	16096
625.648	18594
625.712	21755
625.776	33170
625.839	70557
625.903	71979
625.967	26295
626.031	17442
626.095	27942
626.158	41008
626.222	14757
626.286	11617
626.349	10305
626.413	10936
626.477	10750
626.540	12930
626.604	11225
626.668	11045
626.731	9358
626.795	9997
626.858	10424
626.922	11150
626.986	9968
627.049	9704
627.113	10368
627.176	10341
627.240	9669
627.303	9825
627.366	9345
627.430	10186
627.493	9555
627.557	10274
627.620	10453
627.684	10294
627.747	9629
627.810	9414
627.874	9577
627.937	9962
628.000	9553
628.064	10490
628.127	10000
628.190	8907
628.253	8901
628.317	8905
628.380	8813
628.443	8935
628.506	8406
628.569	9370
628.632	8207
628.696	9086
628.759	8054
628.822	8318
628.885	7930
628.948	6796
629.011	8021
629.074	8464
629.137	8473
629.200	8068
629.263	7587
629.326	8700
629.389	8013
629.452	7942
629.515	8638
629.578	8657
629.641	8035
629.704	9412
629.767	9344
629.830	9503
629.892	7443
629.955	8044
630.018	8752
630.081	9343
630.144	11470
630.207	14438
630.269	9714
630.332	9785
630.395	10713
630.458	8659
630.520	7585
630.583	7026
630.646	7109
630.708	7148
630.771	7685
630.834	7014
630.896	6552
630.959	6691
631.021	6471
631.084	7481
631.146	7105
631.209	7943
631.272	9215
631.334	7371
631.397	7325
631.459	7367
631.522	7566
631.584	8609
631.646	7871
631.709	7566
631.771	8889
631.834	11124
631.896	8190
631.958	6652
632.021	6184
632.083	6426
632.145	6931
632.208	6808
632.270	7196
632.332	6977
632.395	6933
632.457	6818
632.519	6126
632.581	6727
632.643	5976
632.706	6097
632.768	6162
632.830	6249
632.892	5681
632.954	6243
633.016	6012
633.078	6481
633.141	6042
633.203	6260
633.265	6048
633.327	6058
633.389	6508
633.451	6535
633.513	8687
633.575	10953
633.637	9110
633.698	9911
633.760	9725
633.822	6981
633.884	6571
633.946	6061
634.008	6144
634.070	5624
634.132	5861
634.193	6800
634.255	6434
634.317	6636
634.379	6449
634.441	6849
634.502	6149
634.564	7251
634.626	7425
634.687	8653
634.749	9526
634.811	7058
634.873	6055
634.934	5354
634.996	4667
635.057	5541
635.119	5024
635.181	6442
635.242	5580
635.304	5085
635.365	5699
635.427	5516
635.488	5326
635.550	6107
635.611	4882
635.673	4910
635.734	4481
635.796	5612
635.857	6287
635.918	6229
635.980	6166
636.041	5579
636.102	5689
636.164	6022
636.225	6298
636.286	6309
636.348	6461
636.409	5911
636.470	4992
636.531	4790
636.593	5549
636.654	6228
636.715	5695
636.776	4429
636.838	4893
636.899	4689
636.960	4618
637.021	5205
637.082	5090
637.143	7339
637.204	5729
637.265	4899
637.326	5148
637.387	4049
637.448	4678
637.509	4447
637.570	4057
637.631	4685
637.692	4245
637.753	4882
637.814	4023
637.875	4350
637.936	4298
637.997	4865
638.058	4099
638.119	5305
638.179	4453
638.240	4639
638.301	4865
638.362	4447
638.423	4385
638.483	4366
638.544	4356
638.605	4444
638.666	4355
638.726	4537
638.787	4437
638.848	4080
638.908	4020
638.969	4072
639.030	4252
639.090	4866
639.151	5074
639.211	4748
639.272	5716
639.332	8263
639.393	14109
639.453	7476
639.514	4992
639.574	4637
639.635	4426
639.695	4481
639.756	4786
639.816	4566
639.877	5493
639.937	7674
639.997	13851
640.058	19874
640.118	6599
640.178	4506
640.239	4771
640.299	3582
640.359	3686
640.420	3903
640.480	3994
640.540	4323
640.600	4580
640.661	4416
640.721	4371
640.781	5681
640.841	6837
640.901	4961
640.961	4368
641.021	4698
641.082	5301
641.142	6819
641.202	10724
641.262	6301
641.322	3253
641.382	4246
641.442	3911
641.502	4266
641.562	3943
641.622	4178
641.682	4172
641.742	3795
641.802	4554
641.861	4872
641.921	5441
641.981	5355
642.041	6972
642.101	6554
642.161	8037
642.221	6067
642.280	3507
642.340	3874
642.400	3094
642.460	3966
642.519	4064
642.579	3999
642.639	4246
642.698	4369
642.758	3180
642.818	4058
642.877	3709
642.937	4524
642.997	4220
643.056	5757
643.116	9066
643.175	6069
643.235	3770
643.294	3656
643.354	3728
643.414	3516
643.473	4104
643.532	5244
643.592	6571
643.651	8042
643.711	11513
643.770	15286
643.830	23668
643.889	45446
643.948	107224
644.008	32500
644.067	5787
644.126	4701
644.186	5024
644.245	4303
644.304	2900
644.363	4129
644.423	3878
644.482	3486
644.541	3395
644.600	4073
644.659	4259
644.719	3637
644.778	3734
644.837	5739
644.896	6735
644.955	9141
645.014	18781
645.073	9790
645.132	3872
645.191	4300
645.250	3882
645.309	3261
645.368	3315
645.427	4630
645.486	3706
645.545	5183
645.604	5335
645.663	3772
645.722	3411
645.781	3375
645.840	3876
645.898	4636
645.957	4819
646.016	6235
646.075	8893
646.134	12813
646.192	18850
646.251	40788
646.310	73032
646.369	14806
646.427	4381
646.486	3722
646.545	3368
646.603	3630
646.662	3293
646.721	3043
646.779	2617
646.838	2109
646.896	3435
646.955	3929
647.014	4192
647.072	5113
647.131	5984
647.189	11778
647.248	8270
647.306	2978
647.365	3483
647.423	3301
647.481	2933
647.540	3190
647.598	3539
647.657	3839
647.715	3087
647.773	2383
647.832	2768
647.890	2136
647.948	3317
648.007	3076
648.065	2961
648.123	2557
648.181	3750
648.240	3577
648.298	3559
648.356	3981
648.414	3851
648.472	3739
648.531	3797
648.589	3889
648.647	3395
648.705	3862
648.763	3185
648.821	4046
648.879	2676
648.937	4013
648.995	3555
649.053	3621
649.111	4181
649.169	6136
649.227	7700
649.285	9131
649.343	15783
649.401	36505
649.459	30168
649.516	21499
649.574	19028
649.632	11808
649.690	19784
649.748	26699
649.806	8222
649.863	6047
649.921	7772
649.979	8630
650.037	8128
650.094	2246
650.152	2592
650.210	2785
650.268	2795
650.325	2750
650.383	2800
650.440	2318
650.498	3043
650.556	3093
650.613	2269
650.671	2058
650.728	3357
650.786	3323
650.843	2289
650.901	2445
650.958	1713
651.016	2962
651.073	2640
651.131	2474
651.188	2217
651.246	3215
651.303	2011
651.360	2273
651.418	2246
651.475	2122
651.532	2467
651.590	2573
651.647	2039
651.704	1992
651.762	1929
651.819	2094
651.876	2011
651.933	2484
651.990	2766
652.048	1765
652.105	2449
652.162	2319
652.219	2226
652.276	2392
652.333	2029
652.390	1792
652.448	2611
652.505	2436
652.562	2375
652.619	3045
652.676	2931
652.733	2498
652.790	3320
652.847	1972
652.904	2663
652.961	1850
653.017	2376
653.074	2150
653.131	1351
653.188	1426
653.245	2776
653.302	2027
653.359	2167
653.415	2610
653.472	2187
653.529	2350
653.586	1928
653.642	1829
653.699	2563
653.756	1472
653.813	1561
653.869	1771
653.926	1431
653.983	1340
654.039	1465
654.096	2652
654.152	2817
654.209	3229
654.266	1598
654.322	1962
654.379	2945
654.435	2737
654.492	2804
654.548	3993
654.605	4727
654.661	9229
654.717	5672
654.774	2922
654.830	3106
654.887	3317
654.943	3223
655.000	2925
655.056	2522
655.112	2683
655.168	2485
655.225	3842
655.281	3764
655.337	3886
655.394	5075
655.450	7439
655.506	5798
655.562	5412
655.618	6936
655.675	7370
655.731	3936
655.787	3481
655.843	3732
655.899	4118
655.955	5261
656.011	4678
656.067	4849
656.123	6218
656.179	6335
656.235	8076
656.291	8671
656.347	7699
656.403	7746
656.459	6265
656.515	6591
656.571	5760
656.627	5505
656.683	4160
656.739	4012
656.795	3438
656.850	4067
656.906	3525
656.962	4742
657.018	4034
657.074	2990
657.129	2763
657.185	2638
657.241	3327
657.297	2593
657.352	3358
657.408	2303
657.464	2804
657.519	2587
657.575	2931
657.630	2172
657.686	2143
657.742	1946
657.797	2187
657.853	2082
657.908	2482
657.964	2570
658.019	2274
658.075	2629
658.130	2034
658.186	2238
658.241	1564
658.297	1507
658.352	1486
658.407	2866
658.463	1880
658.518	2218
658.573	1587
658.629	2172
658.684	2146
658.739	1661
658.795	1707
658.850	2066
658.905	1757
658.960	2239
659.016	2264
659.071	1867
659.126	1391
659.181	2395
659.236	3579
659.291	4879
659.346	7089
659.401	3754
659.457	3460
659.512	3471
659.567	2977
659.622	3576
659.677	2132
659.732	2210
659.787	1978
659.842	2138
659.897	2633
659.952	3846
660.007	2356
660.061	2612
660.116	2597
660.171	2454
660.226	2029
660.281	2428
660.336	2787
660.391	1577
660.445	1747
660.500	2266
660.555	1975
660.610	1519
660.664	2040
660.719	2232
660.774	2156
660.828	2444
660.883	2256
660.938	2053
660.992	2913
661.047	2092
661.101	1500
661.156	1922
661.211	2095
661.265	1525
661.320	2174
661.374	1792
661.429	1656
661.483	2099
661.538	2150
661.592	2176
661.647	1976
661.701	1677
661.755	1733
661.810	2530
661.864	2065
661.919	2117
661.973	2382
662.027	2528
662.081	1333
662.136	1779
662.190	1856
662.244	2404
662.299	1762
662.353	1825
662.407	2024
662.461	999
662.515	2625
662.569	1721
662.624	2766
662.678	2103
662.732	2125
662.786	1982
662.840	2358
662.894	1911
662.948	2914
663.002	2048
663.056	1577
663.110	1648
663.164	1753
663.218	2069
663.272	2599
663.326	2617
663.380	3033
663.434	2721
663.488	3372
663.542	2587
663.595	2963
663.649	2223
663.703	2865
663.757	1565
663.811	2064
663.864	1930
663.918	1945
663.972	2112
664.026	2270
664.079	2454
664.133	2257
664.187	1638
664.240	2535
664.294	1714
664.348	2052
664.401	2174
664.455	2264
664.508	1996
664.562	2437
664.615	3160
664.669	1876
664.722	2546
664.776	2477
664.829	2221
664.883	2489
664.936	2164
664.990	3086
665.043	2239
665.097	2247
665.150	2018
665.203	2757
665.257	2471
665.310	2626
665.363	2446
665.417	2920
665.470	2257
665.523	2323
665.576	2407
665.630	3071
665.683	2416
665.736	2298
665.789	2678
665.842	2479
665.895	2541
665.949	3356
666.002	2203
666.055	2316
666.108	2501
666.161	2674
666.214	2638
666.267	2012
666.320	2788
666.373	2975
666.426	3224
666.479	2421
666.532	2245
666.585	3284
666.638	3517
666.691	4352
666.744	3037
666.796	3763
666.849	3723
666.902	3420
666.955	2161
667.008	2442
667.060	1575
667.113	2531
667.166	2716
667.219	1928
667.271	2559
667.324	2294
667.377	1184
667.430	2572
667.482	2148
667.535	2886
667.587	3360
667.640	3614
667.693	3140
667.745	3791
667.798	5796
667.850	8366
667.903	4289
667.955	2857
668.008	2539
668.060	2772
668.113	3560
668.165	3274
668.218	3361
668.270	2771
668.322	2836
668.375	1916
668.427	2372
668.479	2863
668.532	3118
668.584	2870
668.636	2628
668.689	3075
668.741	2442
668.793	2729
668.845	2078
668.898	2412
668.950	2284
669.002	2771
669.054	2496
669.106	2736
669.158	2009
669.211	2622
669.263	3373
669.315	3260
669.367	2845
669.419	3476
669.471	4720
669.523	4640
669.575	5037
669.627	6190
669.679	6036
669.731	4959
669.783	3083
669.835	3860
669.886	4822
669.938	4662
669.990	3985
670.042	3629
670.094	4197
670.146	4622
670.197	5940
670.249	5803
670.301	8802
670.353	11677
670.404	16335
670.456	24664
670.508	36559
670.560	52766
670.611	76346
670.663	111036
670.715	167951
670.766	331209
670.818	780320
670.869	499543
670.921	76589
670.972	23053
671.024	15345
671.075	11712
671.127	9621
671.178	7628
671.230	6067
671.281	6444
671.333	6117
671.384	4957
671.436	4470
671.487	6514
671.538	5202
671.590	5211
671.641	6020
671.692	5706
671.744	6716
671.795	9198
671.846	8733
671.897	4722
671.949	3752
672.000	4209
672.051	3740
672.102	3472
672.153	3364
672.204	3428
672.256	3500
672.307	3152
672.358	3439
672.409	3300
672.460	3761
672.511	3555
672.562	2442
672.613	3836
672.664	3809
672.715	3816
672.766	3196
672.817	3313
672.868	3199
672.919	2831
672.970	2473
673.021	3375
673.071	3424
673.122	3523
673.173	3464
673.224	2621
673.275	2877
673.326	2479
673.376	3532
673.427	2327
673.478	3171
673.528	3451
673.579	2537
673.630	3251
673.680	2768
673.731	2550
673.782	1932
673.832	2297
673.883	2972
673.934	2779
673.984	3265
674.035	3154
674.085	2576
674.136	3465
674.186	2957
674.237	3765
674.287	3633
674.338	4390
674.388	4786
674.438	2700
674.489	2783
674.539	1995
674.589	2696
674.640	3012
674.690	3570
674.740	2089
674.791	3435
674.841	3140
674.891	2921
674.942	3212
674.992	3524
675.042	3436
675.092	2934
675.142	3079
675.193	2637
675.243	3275
675.293	3087
675.343	2582
675.393	2910
675.443	2482
675.493	2159
675.543	1826
675.593	2423
675.643	3182
675.693	2284
675.743	1970
675.793	2777
675.843	2516
675.893	3475
675.943	2623
675.993	2550
676.043	2762
676.093	2538
676.142	2142
676.192	1928
676.242	2556
676.292	2625
676.341	2398
676.391	1980
676.441	3324
676.491	2279
676.540	2536
676.590	2457
676.640	1959
676.689	2141
676.739	2448
676.789	1814
676.838	2508
676.888	1615
676.937	1847
676.987	2011
677.037	2831
677.086	1898
677.136	2066
677.185	2027
677.235	3039
677.284	1182
677.333	1401
677.383	1343
677.432	2379
677.482	2038
677.531	1920
677.580	2157
677.630	1647
677.679	1419
677.728	2009
677.778	1815
677.827	2154
677.876	1959
677.925	1778
677.975	2129
678.024	1578
678.073	1911
678.122	909
678.171	1479
678.220	2070
678.269	2164
678.319	3506
678.368	2542
678.417	2441
678.466	2040
678.515	3164
678.564	1719
678.613	2430
678.662	2514
678.711	2076
678.760	1349
678.809	2075
678.857	1630
678.906	2564
678.955	2668
679.004	2538
679.053	2397
679.102	2028
679.151	2293
679.199	2275
679.248	2357
679.297	1836
679.346	1881
679.394	2484
679.443	3140
679.492	2288
679.540	1130
679.589	2579
679.638	2110
679.686	1627
679.735	2198
679.784	1718
679.832	1545
679.881	2744
679.929	2102
679.978	2118
680.026	1699
680.075	1605
680.123	1929
680.172	1377
680.220	2107
680.268	1791
680.317	1525
680.365	1410
680.414	1514
680.462	2208
680.510	1906
680.559	1434
680.607	1642
680.655	1310
680.703	2144
680.752	1984
680.800	2499
680.848	933
680.896	924
680.945	1305
680.993	1752
681.041	1898
681.089	1775
681.137	2094
681.185	1939
681.233	1531
681.258	1376
681.281	1225
681.329	1432
681.377	1177
681.380	1219
681.425	1921
681.473	1257
681.502	1510
681.521	1675
681.569	1984
681.617	2103
681.624	2135
681.665	2312
681.713	2384
681.745	1992
681.761	1792
681.809	1955
681.857	1852
681.867	1701
681.904	1192
681.952	2171
681.989	1950
682.000	1872
682.048	2227
682.096	2285
682.111	2134
682.143	1815
682.191	1159
682.233	1927
682.239	2030
682.286	2050
682.334	1511
682.354	1548
682.382	1633
682.430	1791
682.476	1788
682.477	1783
682.525	2226
682.572	2184
682.598	1898
682.620	1655
682.667	2133
682.715	1839
682.720	1867
682.763	2052
682.810	2271
682.841	1615
682.857	1292
682.905	1883
682.952	2220
682.963	2291
683.000	2464
683.047	1660
683.085	1453
683.095	1412
683.142	2262
683.190	2107
683.206	1990
683.237	1710
683.284	2063
683.328	2018
683.332	2011
683.379	1829
683.426	2166
683.449	1752
683.473	1327
683.521	2402
683.568	1982
683.571	1966
683.615	1698
683.662	2213
683.693	1833
683.709	1636
683.757	1139
683.804	1615
683.814	1720
683.851	2045
683.898	2672
683.936	2879
683.945	2922
683.992	1852
684.039	1992
684.057	2033
684.086	2124
684.133	2297
684.179	2457
684.180	2457
684.227	2358
684.274	2173
684.300	2350
684.321	2478
684.368	2154
684.415	2011
684.422	2038
684.462	2158
684.509	2153
684.543	2049
684.556	2003
684.603	1853
684.649	1961
684.665	2059
684.696	2272
684.743	2224
684.786	1955
684.790	1930
684.837	2629
684.883	2076
684.908	2019
684.930	1969
684.977	2176
685.023	1988
685.029	2103
685.070	2956
685.117	2152
685.150	2291
685.164	2335
685.210	2085
685.257	2518
685.272	2595
685.303	2780
685.350	2508
685.393	2891
685.396	2914
685.443	2741
685.490	2871
685.514	2575
685.536	2355
685.583	3423
685.629	3020
685.636	3000
685.675	2778
685.722	2036
685.757	2611
685.768	2807
685.815	2685
685.861	2961
685.878	2962
685.908	2971
685.954	2962
686.000	2266
686.000	2253
686.047	2656
686.093	2827
686.121	3073
686.139	3251
686.185	3279
686.232	3212
686.242	3128
686.278	2777
686.324	2995
686.363	2688
686.370	2615
686.416	2169
686.463	2546
686.484	2452
686.509	2507
686.555	2728
686.601	2921
686.606	2909
686.647	2523
686.693	1784
686.727	1857
686.739	1921
686.785	2560
686.831	2017
686.848	2166
686.877	2470
686.923	1990
686.969	2385
686.969	2386
687.015	2363
687.061	2052
687.090	2372
687.107	2567
687.153	2317
687.199	2129
687.211	2092
687.245	2120
687.291	1972
687.332	2056
687.336	2053
687.382	2034
687.428	2820
687.453	2752
687.474	2743
687.520	2543
687.565	2520
687.574	2531
687.611	2361
687.657	2057
687.695	2591
687.702	2733
687.748	2020
687.794	2418
687.816	2361
687.839	2237
687.885	2621
687.931	2034
687.937	2064
687.976	2276
688.022	2567
688.058	2280
688.067	2224
688.113	2475
688.158	2421
688.179	2578
688.204	2728
688.249	2607
688.295	2539
688.300	2510
688.340	2156
688.386	2464
688.421	2309
688.431	2346
688.477	2547
688.522	2956
688.542	2832
688.567	2512
688.613	2542
688.658	2406
688.663	2411
688.703	2561
688.749	2499
688.784	2568
688.794	2590
688.839	2516
688.884	2650
688.905	2559
688.930	2445
688.975	2402
689.020	2672
689.026	2644
689.065	2507
689.110	2264
689.146	2593
689.155	2680
689.201	2933
689.246	2840
689.267	2747
689.291	2528
689.336	2352
689.381	2476
689.388	2449
689.426	2632
689.471	2712
689.509	3062
689.516	3076
689.561	2656
689.606	2211
689.630	2225
689.651	2292
689.696	2264
689.741	2276
689.750	2296
689.785	2487
689.830	2632
689.871	2696
689.875	2700
689.920	2728
689.965	2798
689.992	2636
690.010	2543
690.054	2838
690.099	2782
690.112	2734
690.144	2554
690.189	2479
690.233	2476
690.233	2479
690.278	2592
690.323	2548
690.354	2427
690.367	2486
690.412	2567
690.457	2681
690.474	2940
690.501	3034
690.546	2589
690.590	2271
690.595	2240
690.635	2509
690.680	2799
690.716	2913
690.724	2852
690.769	2796
690.813	2852
690.836	2817
690.857	2922
690.902	2725
690.946	2834
690.957	2896
690.991	3186
691.035	3191
691.077	3919
691.080	3999
691.124	5777
691.168	6304
691.198	6508
691.213	6288
691.257	5694
691.301	5547
691.318	5580
691.346	5299
691.390	4749
691.434	3742
691.439	3594
691.478	2853
691.522	3022
691.559	2683
691.567	2701
691.611	3191
691.655	3370
691.680	3429
691.699	3282
691.743	3030
691.787	2866
691.800	2790
691.831	2944
691.875	2763
691.919	2942
691.921	2956
691.964	3289
692.008	3201
692.041	2970
692.052	2994
692.096	3329
692.139	3464
692.162	3742
692.183	3825
692.227	3500
692.271	3138
692.282	3133
692.315	3290
692.359	3494
692.402	3488
692.403	3494
692.447	3708
692.490	3417
692.523	3526
692.534	3510
692.578	3190
692.622	3169
692.643	3052
692.666	3127
692.709	3394
692.753	3583
692.763	3588
692.797	3471
692.840	3330
692.884	3326
692.884	3333
692.928	3213
692.971	3343
693.004	3170
693.015	3143
693.059	3337
693.102	3529
693.124	3491
693.146	3365
693.189	3319
693.233	3159
693.245	3126
693.276	3238
693.320	3518
693.363	3713
693.365	3709
693.407	3530
693.450	3265
693.485	3186
693.493	3247
693.537	3555
693.580	3713
693.605	3836
693.624	3840
693.667	3941
693.710	3884
693.725	3940
693.753	4524
693.797	5251
693.840	6050
693.845	6255
693.883	8626
693.926	10499
693.966	11175
693.970	11086
694.013	10457
694.056	10305
694.086	10053
694.099	9346
694.142	7139
694.185	4971
694.206	3900
694.229	3876
694.272	3991
694.315	3909
694.326	3880
694.358	3872
694.401	4124
694.444	3898
694.446	3896
694.487	4073
694.530	4234
694.566	4297
694.573	4304
694.616	4170
694.659	4295
694.686	4230
694.702	4122
694.745	3875
694.787	3669
694.806	3495
694.830	3368
694.873	3227
694.916	3237
694.926	3172
694.959	3195
695.002	3288
695.044	3437
695.046	3441
695.087	3577
695.130	3556
695.166	3387
695.172	3397
695.215	3444
695.258	3766
695.286	3883
695.301	3834
695.343	3445
695.386	3445
695.406	3320
695.428	3415
695.471	3535
695.514	3679
695.526	3760
695.556	3802
695.599	3738
695.641	3691
695.646	3687
695.684	3720
695.726	3620
695.766	3437
695.769	3436
695.811	3465
695.854	3358
695.886	3441
695.896	3508
695.938	3516
695.981	3524
696.005	3607
696.023	3608
696.065	3416
696.108	3327
696.125	3315
696.150	3336
696.192	3255
696.235	3268
696.245	3238
696.277	3186
696.319	3190
696.361	3021
696.365	3016
696.404	3205
696.446	3232
696.485	3364
696.488	3381
696.530	3383
696.572	3328
696.604	3381
696.614	3445
696.656	3603
696.698	3990
696.724	4030
696.740	3969
696.783	3843
696.825	3878
696.844	3829
696.867	3796
696.909	3723
696.951	3599
696.964	3579
696.992	3753
697.034	4020
697.076	4109
697.083	4138
697.118	3983
697.160	3742
697.202	3466
697.203	3448
697.244	3228
697.286	3122
697.323	2967
697.327	3021
697.369	3381
697.411	3779
697.442	4090
697.453	4020
697.494	3601
697.536	3290
697.562	3071
697.578	3266
697.620	3765
697.661	4182
697.682	4414
697.703	4435
697.744	4392
697.786	4403
697.801	4401
697.828	4663
697.869	5026
697.911	5388
697.921	5456
697.952	5395
697.994	5294
698.035	5226
698.040	5204
698.077	5028
698.118	4785
698.160	4562
698.160	4548
698.201	4095
698.243	3581
698.279	3116
698.284	3190
698.325	3804
698.367	4434
698.399	4902
698.408	4847
698.449	4516
698.491	4200
698.518	3982
698.532	4026
698.573	4120
698.614	4207
698.638	4245
698.656	4112
698.697	3755
698.738	3430
698.757	3265
698.779	3514
698.820	3956
698.862	4405
698.877	4561
698.903	4338
698.944	3965
698.985	3583
698.996	3470
699.026	3670
699.067	3936
699.116	4243
699.235	4310
699.354	4198
699.474	3573
699.593	4241
699.713	4937
699.832	4937
699.951	4879
700.070	5760
700.190	4172
700.309	5845
700.428	5110
700.547	5970
700.667	6093
700.786	5628
700.905	4762
701.024	5059
701.143	5000
701.262	4081
701.381	4776
701.500	4188
701.619	4530
701.738	4666
701.857	3838
701.976	4393
702.095	4282
702.214	3988
702.333	4269
702.452	4891
702.571	3920
702.690	4492
702.809	3591
702.928	4321
703.047	3038
703.165	3979
703.284	3934
703.403	3845
703.522	3762
703.640	5973
703.759	5220
703.878	5056
703.997	7165
704.115	5019
704.234	4253
704.353	4275
704.471	2790
704.590	3688
704.708	3060
704.827	3247
704.946	2642
705.064	3074
705.183	3752
705.301	3922
705.420	4000
705.538	6164
705.656	5198
705.775	4677
705.893	4933
706.012	6678
706.130	8005
706.249	5386
706.367	4545
706.485	5573
706.604	5110
706.722	5728
706.840	4889
706.958	6747
707.077	5605
707.195	4582
707.313	3661
707.431	4804
707.549	4424
707.668	4185
707.786	4467
707.904	5461
708.022	4654
708.140	4731
708.258	3996
708.376	4838
708.494	4537
708.612	4527
708.730	5066
708.848	7004
708.966	7217
709.084	6593
709.202	6620
709.320	6034
709.438	6034
709.556	5836
709.674	5773
709.791	6090
709.909	5626
710.027	5986
710.145	4832
710.263	5561
710.380	5161
710.498	6352
710.616	5261
710.733	5485
710.851	5615
710.969	6479
711.086	5332
711.204	5400
711.322	5418
711.439	5186
711.557	4988
711.674	6212
711.792	4038
711.909	5862
712.027	5063
712.144	6021
712.262	4687
712.379	5159
712.497	5358
712.614	8866
712.732	7978
712.849	7348
712.966	6009
713.084	7403
713.201	9298
713.318	7223
713.436	7375
713.553	6263
713.670	6435
713.787	7522
713.905	7273
714.022	7603
714.139	6298
714.256	6139
714.373	6300
714.490	7437
714.608	7687
714.725	10438
714.842	29693
714.959	39595
715.076	7643
715.193	6166
715.310	6259
715.427	6507
715.544	5869
715.661	6284
715.778	5638
715.895	6483
716.011	6130
716.128	6408
716.245	6142
716.362	7176
716.479	7126
716.596	9133
716.713	6888
716.829	7943
716.946	6339
717.063	6234
717.180	5800
717.296	5875
717.413	5712
717.530	6043
717.646	5841
717.763	5968
717.880	5176
717.996	4877
718.113	5309
718.229	5846
718.346	5307
718.462	5811
718.579	5038
718.695	7519
718.812	12759
718.928	9511
719.045	6946
719.161	5702
719.277	5096
719.394	5058
719.510	5414
719.626	5415
719.743	4559
719.859	5911
719.975	5542
720.092	6162
720.208	9634
720.324	20227
720.440	7547
720.557	5311
720.673	5485
720.789	9411
720.905	12162
721.021	22871
721.137	11992
721.253	4405
721.369	4980
721.486	5168
721.602	5595
721.718	7976
721.834	5473
721.950	4583
722.066	4764
722.181	4552
722.297	4147
722.413	4916
722.529	4877
722.645	5170
722.761	4575
722.877	4762
722.993	4271
723.108	4636
723.224	4868
723.340	4571
723.456	4353
723.571	5323
723.687	4437
723.803	4794
723.918	3819
724.034	4263
724.150	3756
724.265	4397
724.381	3753
724.497	8659
724.612	13610
724.728	4894
724.843	3604
724.959	4045
725.074	4515
725.190	9864
725.305	12877
725.421	3908
725.536	4211
725.651	3380
725.767	3662
725.882	3157
725.997	2941
726.113	3802
726.228	4072
726.343	3258
726.459	2742
726.574	3067
726.689	3410
726.804	4021
726.920	3478
727.035	3568
727.150	3701
727.265	4040
727.380	3759
727.495	4276
727.610	4639
727.725	3877
727.841	3416
727.956	3792
728.071	4099
728.186	5646
728.301	3118
728.416	3381
728.531	3759
728.645	4245
728.760	3743
728.875	5012
728.990	8308
729.105	7902
729.220	4452
729.335	4388
729.449	3531
729.564	3115
729.679	3220
729.794	2613
729.908	3291
730.023	3482
730.138	2953
730.253	2771
730.367	2432
730.482	2784
730.596	2578
730.711	3345
730.826	3368
730.940	2969
731.055	2171
731.169	3426
731.284	2266
731.398	2112
731.513	2293
731.627	2854
731.742	2858
731.856	2731
731.970	3069
732.085	2756
732.199	2198
732.313	2953
732.428	2088
732.542	3527
732.656	9750
732.771	8807
732.885	2392
732.999	3020
733.113	3191
733.227	2960
733.342	2600
733.456	2042
733.570	2190
733.684	2853
733.798	2233
733.912	2372
734.026	1515
734.140	2383
734.254	1900
734.368	3471
734.482	4677
734.596	7529
734.710	2119
734.824	2735
734.938	2720
735.052	2076
735.166	1973
735.280	3326
735.393	2753
735.507	2501
735.621	2592
735.735	3865
735.849	6208
735.962	3894
736.076	2024
736.190	2438
736.303	2719
736.417	4199
736.531	5922
736.644	3335
736.758	1960
736.872	2335
736.985	2352
737.099	2218
737.212	2916
737.326	1657
737.439	1971
737.553	3416
737.666	2016
737.780	1451
737.893	1867
738.007	1783
738.120	1712
738.233	2145
738.347	2505
738.460	1953
738.573	1589
738.687	2353
738.800	2357
738.913	2322
739.026	3306
739.140	2109
739.253	1669
739.366	1886
739.479	1405
739.592	1865
739.705	1941
739.818	2434
739.932	2245
740.045	2029
740.158	1479
740.271	2147
740.384	1887
740.497	2074
740.610	3853
740.723	5627
740.836	4166
740.949	4568
741.062	4264
741.174	3777
741.287	3500
741.400	2644
741.513	2133
741.626	4749
741.739	6905
741.851	4355
741.964	2980
742.077	1939
742.189	2623
742.302	3592
742.415	8604
742.527	10167
742.640	3635
742.753	2487
742.865	1876
742.978	2026
743.090	1264
743.203	1929
743.316	1966
743.428	1930
743.541	843
743.653	1762
743.766	870
743.878	1885
743.990	1854
744.103	3516
744.215	4371
744.327	8149
744.440	4597
744.552	2289
744.664	4886
744.777	3033
744.889	1277
745.001	651
745.113	863
745.226	1040
745.338	1213
745.450	1480
745.562	951
745.674	1536
745.786	936
745.898	951
746.010	1212
746.122	1127
746.234	1484
746.347	1783
746.459	1516
746.570	743
746.682	1712
746.794	3340
746.906	9517
747.018	6891
747.130	2317
747.242	1811
747.354	1488
747.466	1564
747.577	1654
747.689	2276
747.801	910
747.913	1668
748.024	997
748.136	1016
748.248	1328
748.359	2145
748.471	846
748.583	2034
748.694	1021
748.806	1624
748.918	1549
749.029	2846
749.141	1437
749.252	1719
749.364	1802
749.475	1942
749.587	5851
749.698	4567
749.809	1361
749.921	1194
750.032	793
750.144	1173
750.255	482
750.366	1249
750.478	931
750.589	1111
750.700	1508
750.811	1253
750.923	1498
751.034	1857
751.145	5738
751.256	6713
751.367	1313
751.479	1344
751.590	-19
751.701	757
751.812	-366
751.923	1416
752.034	776
752.145	1588
752.256	1399
752.367	408
752.478	402
752.589	1347
752.700	854
752.811	1367
752.922	-48
753.032	836
753.143	1361
753.254	1803
753.365	611
753.476	170
753.586	869
753.697	934
753.808	496
753.919	911
754.029	946
754.140	687
754.251	698
754.361	576
754.472	667
754.582	1165
754.693	983
754.804	543
754.914	-14
755.025	901
755.135	244
755.246	1166
755.356	433
755.466	1619
755.577	296
755.687	28
755.798	1295
755.908	1184
756.018	462
756.129	676
756.239	456
756.349	783
756.460	-24
756.570	1104
756.680	157
756.790	975
756.900	1218
757.011	1938
757.121	1157
757.231	1105
757.341	889
757.451	657
757.561	375
757.671	629
757.781	338
757.891	1112
758.001	454
758.111	1292
758.221	870
758.331	645
758.441	1254
758.551	1564
758.661	1464
758.771	2132
758.880	524
758.990	1187
759.100	1170
759.210	1200
759.320	1760
759.429	846
759.539	882
759.649	1310
759.758	1027
759.868	1563
759.978	300
760.087	919
760.197	863
760.307	660
760.416	837
760.526	1419
760.635	1122
760.745	1782
760.854	750
760.964	1093
761.073	743
761.182	1003
761.292	1378
761.401	998
761.511	914
761.620	1865
761.729	1205
761.839	1361
761.948	1178
762.057	1733
762.166	1747
762.276	1842
762.385	1050
762.494	1975
762.603	812
762.712	2145
762.822	1084
762.931	1663
763.040	2392
763.149	1698
763.258	1117
763.367	1664
763.476	2123
763.585	2410
763.694	1675
763.803	1624
763.912	2163
764.021	1598
764.130	1777
764.238	2702
764.347	1629
764.456	2065
764.565	2288
764.674	2613
764.783	2969
764.891	3261
765.000	2804
765.109	3588
765.217	3413
765.326	3654
765.435	4553
765.543	5765
765.652	6992
765.761	8033
765.869	9545
765.978	14902
766.086	23221
766.195	43110
766.303	93159
766.412	231704
766.520	678247
766.629	871118
766.737	254903
766.846	69881
766.954	36312
767.062	24551
767.171	17204
767.279	13668
767.387	9811
767.496	7774
767.604	7052
767.712	6157
767.820	5429
767.928	5723
768.037	6478
768.145	5301
768.253	4716
768.361	5067
768.469	3962
768.577	3762
768.685	4363
768.793	3866
768.901	3655
769.009	4990
769.117	4907
769.225	5999
769.333	6260
769.441	10989
769.549	17951
769.657	37015
769.765	85986
769.873	256191
769.981	704500
770.088	376343
770.196	63503
770.304	24622
770.412	16895
770.519	12127
770.627	8137
770.735	6612
770.842	5273
770.950	4733
771.058	4348
771.165	4243
771.273	3539
771.380	3018
771.488	3131
771.595	2801
771.703	2762
771.810	2517
771.918	2070
772.025	2120
772.133	1887
772.240	2347
772.348	2191
772.455	2098
772.562	2026
772.670	2295
772.777	1706
772.884	1989
772.991	1887
773.099	2046
773.206	1940
773.313	2069
773.420	1616
773.528	1471
773.635	1330
773.742	1039
773.849	1440
773.956	1059
774.063	1504
774.170	859
774.277	899
774.384	1195
774.491	1480
774.598	2200
774.705	1605
774.812	2030
774.919	1843
775.026	1809
775.133	1010
775.239	1312
775.346	960
775.453	1435
775.560	819
775.667	2109
775.773	890
775.880	1316
775.987	1421
776.093	1324
776.200	811
776.307	930
776.413	1099
776.520	1100
776.627	1228
776.733	2066
776.840	971
776.946	1964
777.053	3172
777.159	6833
777.266	18607
777.372	16729
777.478	14972
777.585	17526
777.691	9267
777.798	2592
777.904	1763
778.010	1398
778.117	2299
778.223	2370
778.329	898
778.435	1299
778.542	1451
778.648	794
778.754	653
778.860	1154
778.966	1406
779.072	430
779.178	683
779.284	1321
779.391	1000
779.497	1431
779.603	1405
779.708	896
779.815	1677
779.920	3260
780.026	8460
780.132	26021
780.238	6783
780.344	778
780.450	773
780.556	1270
780.661	772
780.767	1353
780.873	121
780.979	1375
781.085	124
781.190	282
781.296	304
781.402	766
781.507	-221
781.613	1016
781.719	428
781.824	1093
781.930	42
782.035	1121
782.141	-342
782.246	780
782.352	262
782.457	1009
782.563	339
782.668	741
782.773	294
782.879	910
782.984	688
783.090	777
783.195	1279
783.300	1956
783.405	1683
783.511	1922
783.616	1429
783.721	1777
783.826	1785
783.932	695
784.037	1830
784.142	1403
784.247	666
784.352	1026
784.457	821
784.562	1213
784.667	419
784.772	852
784.877	969
784.982	1192
785.087	717
785.192	354
785.297	805
785.402	866
785.507	11
785.611	947
785.716	220
785.821	748
785.926	1083
786.031	435
786.135	161
786.240	1159
786.345	639
786.450	117
786.554	-197
786.659	957
786.763	252
786.868	698
786.973	131
787.077	394
787.182	250
787.286	522
787.391	-455
787.495	224
787.600	-301
787.704	562
787.809	-185
787.913	819
788.017	214
788.122	392
788.226	614
788.330	408
788.435	-121
788.539	323
788.643	654
788.747	777
788.852	-112
788.956	229
789.060	375
789.164	168
789.268	108
789.372	-103
789.476	-328
789.580	386
789.684	89
789.788	33
789.892	363
789.996	1002
790.100	45
790.204	-55
790.308	-296
790.412	374
790.516	151
790.620	43
790.724	373
790.828	370
790.931	-272
791.035	193
791.139	615
791.242	356
791.346	304
791.450	503
791.554	1037
791.657	109
791.761	464
791.864	633
791.968	768
792.072	1010
792.175	717
792.279	734
792.382	12
792.486	301
792.589	154
792.693	318
792.796	-412
792.899	154
793.003	471
793.106	1072
793.209	1161
793.313	707
793.416	935
793.519	1177
793.623	839
793.726	1529
793.829	2451
793.932	1588
794.035	197
794.138	1109
794.242	1069
794.345	1361
794.448	1174
794.551	3153
794.654	3464
794.757	5885
794.860	10792
794.963	3989
795.066	227
795.169	673
795.272	-247
795.375	647
795.477	403
795.580	497
795.683	-667
795.786	275
795.889	-542
795.991	93
796.094	-586
796.197	-100
796.300	262
796.402	-515
796.505	-607
796.608	51
796.710	-569
796.813	301
796.915	-829
797.018	-392
797.120	-495
797.223	120
797.326	-22
797.428	44
797.530	-18
797.633	-161
797.735	-224
797.838	-27
797.940	302
798.042	1417
798.145	-451
798.247	-1129
798.349	-1155
798.452	-99
798.554	-333
798.656	-352
798.758	-285
798.860	-60
798.962	-954
799.065	-153
799.167	-462
799.269	518
799.371	-616
799.473	284
799.575	-304
799.677	302
799.779	564
799.881	-686
799.983	1134
800.085	330
800.187	-49
800.289	94
800.390	-1050
800.492	-282
800.594	-124
800.696	-531
800.798	-348
800.899	-64
801.001	-674
801.103	-218
801.205	-170
801.306	-533
801.408	-684
801.509	349
801.611	-197
801.713	-1025
801.814	-794
801.916	-725
802.017	-706
802.119	239
802.220	-1094
802.322	-927
802.423	537
802.525	-131
802.626	84
802.727	-398
802.829	-282
802.930	-630
803.031	-82
803.133	-81
803.234	-859
803.335	107
803.436	-844
803.538	-828
803.639	-748
803.740	-670
803.841	-1082
803.942	-1036
804.043	-601
804.144	-345
804.245	-365
804.346	38
804.447	-591
804.548	-14
804.649	356
804.750	778
804.851	-575
804.952	214
805.053	-1167
805.154	-421
805.255	-572
805.355	-176
805.456	-343
805.557	-1156
805.658	-263
805.758	-122
805.859	-625
805.960	93
806.061	-1024
806.161	-435
806.262	-651
806.362	-832
806.463	-281
806.564	-634
806.664	-420
806.765	-62
806.865	-242
806.966	30
807.066	-919
807.166	-291
807.267	-1285
807.367	-773
807.468	-1462
807.568	-472
807.668	-572
807.769	-677
807.869	-343
807.969	-400
808.069	-803
808.170	-627
808.270	-696
808.370	-347
808.470	-212
808.570	529
808.670	-54
808.770	-490
808.870	-928
808.970	-396
809.070	-364
809.170	65
809.271	-341
809.370	114
809.470	-817
809.570	-729
809.670	-1263
809.770	-880
809.870	-339
809.970	-270
810.070	-471
810.169	-641
810.269	-1170
810.369	-667
810.469	-1216
810.568	-833
810.668	-851
810.768	-742
810.867	-1313
810.967	-129
811.066	-1175
811.166	-99
811.265	-1394
811.365	-240
811.464	-1105
811.564	-659
811.663	-340
811.763	-275
811.862	-1365
811.962	-926
812.061	-922
812.160	-664
812.260	-1233
812.359	-227
812.458	-1002
812.557	429
812.657	225
812.756	2190
812.855	-246
812.954	-787
813.053	-726
813.153	-683
813.252	-337
813.351	-277
813.450	-699
813.549	-112
813.648	-288
813.747	-698
813.846	-1222
813.945	-1163
814.044	-748
814.143	-215
814.242	-1033
814.341	-98
814.439	-721
814.538	-516
814.637	-700
814.736	-383
814.835	-774
814.933	-853
815.032	-1499
815.131	-375
815.229	-436
815.328	-604
815.427	-1356
815.525	-1074
815.624	-1164
815.722	-1108
815.821	-1227
815.919	-690
816.018	-1126
816.116	-136
816.215	-1100
816.313	-304
816.412	-976
816.510	-561
816.609	-804
816.707	-638
816.805	-1222
816.904	-105
817.002	-388
817.100	-288
817.198	-734
817.296	-136
817.395	-931
817.493	364
817.591	-837
817.689	-427
817.787	-286
817.885	479
817.983	-183
818.081	2443
818.179	5020
818.277	16348
818.375	45598
818.473	59995
818.571	13882
818.669	3188
818.767	1922
818.865	2935
818.963	1759
819.061	1530
819.158	2318
819.256	5727
819.354	13655
819.452	36857
819.549	101923
819.647	92977
819.745	13499
819.842	1883
819.940	1008
820.038	1201
820.135	172
820.233	184
820.330	395
820.428	-282
820.525	-707
820.623	32
820.720	-524
820.818	-571
820.915	-131
821.012	-36
821.110	511
821.207	-147
821.304	75
821.402	-241
821.499	211
821.596	1888
821.693	3510
821.791	3995
821.888	-82
821.985	687
822.082	1571
822.179	2743
822.276	337
822.373	2131
822.470	968
822.567	49
822.664	-547
822.761	-208
822.858	-1602
822.955	-865
823.052	-467
823.149	245
823.246	-1014
823.343	227
823.440	-1017
823.536	-909
823.633	-914
823.730	-294
823.827	-241
823.923	-537
824.020	-1102
824.117	-858
824.213	-800
824.310	1512
824.407	1076
824.503	-631
824.600	-531
824.696	-841
824.793	-1174
824.889	-895
824.986	-1037
825.082	-617
825.179	-871
825.275	-870
825.371	-1277
825.468	-329
825.564	-1076
825.660	-1110
825.757	-1361
825.853	-1038
825.949	-1176
826.045	-878
826.142	-1938
826.238	-354
826.334	-1189
826.430	-967
826.526	-1052
826.622	-1134
826.718	-885
826.814	-1086
826.910	-1183
827.006	-769
827.102	-1894
827.198	-144
827.294	-1364
827.390	-1666
827.486	-944
827.582	-585
827.678	-1460
827.774	-788
827.869	-1654
827.965	559
828.061	-1318
828.157	-1028
828.252	-1142
828.348	-1285
828.444	-965
828.539	-590
828.635	-1068
828.731	-582
828.826	-1286
828.922	-791
829.017	-1201
829.113	-979
829.208	-1244
829.304	-1162
829.399	-649
829.495	-829
829.590	-1256
829.685	-528
829.781	-1576
829.876	-763
829.971	-717
830.066	-712
830.162	-1344
830.257	-869
830.352	-1011
830.447	-1022
830.543	-869
830.638	-969
830.733	-305
830.828	-756
830.923	-866
831.018	-586
831.113	-881
831.208	-978
831.303	-1333
831.398	-1010
831.493	-1048
831.588	-964
831.683	-1526
831.778	-1520
831.873	-1439
831.967	-1444
832.062	-1045
832.157	-955
832.252	-1309
832.346	-939
832.441	-1351
832.536	-169
832.631	-618
832.725	1041
832.820	1343
832.914	-176
833.009	-1849
833.104	-340
833.198	-1081
833.293	-485
833.387	-1223
833.482	-428
833.576	-762
833.670	-276
833.765	-1260
833.859	-1083
833.954	-1449
834.048	-495
834.142	-673
834.237	-1303
834.331	-1489
834.425	-735
834.519	-1394
834.613	-1437
834.708	-1057
834.802	-761
834.896	-1922
834.990	-1377
835.084	-976
835.178	-1056
835.272	-793
835.366	-847
835.460	-1295
835.554	-802
835.648	-985
835.742	-1020
835.836	-954
835.930	-1208
836.024	-1241
836.117	-660
836.211	-1180
836.305	-241
836.399	-864
836.493	-229
836.586	-833
836.680	-997
836.774	-1144
836.867	-930
836.961	-1923
837.055	-1055
837.148	-1355
837.242	-1149
837.335	-1838
837.429	-932
837.522	-439
837.616	-360
837.709	-612
837.803	450
837.896	-416
837.989	-288
838.083	-949
838.176	-859
838.269	128
838.363	1105
838.456	-206
838.549	-418
838.642	-348
838.735	132
838.829	913
838.922	656
839.015	-914
839.108	-824
839.201	-1307
839.294	-1605
839.387	-587
839.480	-1618
839.573	-1568
839.666	-507
839.759	-510
839.852	-168
839.945	-1458
840.038	-679
840.131	-1441
840.223	-1262
840.316	-926
840.409	-1247
840.502	-1431
840.594	-583
840.687	-973
840.780	-913
840.873	-1071
840.965	-391
841.058	-1062
841.150	86
841.243	-547
841.336	650
841.428	-1553
841.521	-1190
841.613	-1851
841.706	-105
841.798	-1284
841.890	-1197
841.983	-1043
842.075	-1266
842.167	-1379
842.260	-1027
842.352	-799
842.444	-945
842.537	-851
842.629	226
842.721	1170
842.813	85
842.905	-1042
842.997	-421
843.090	-571
843.182	-626
843.274	-424
843.366	681
843.458	2255
843.550	6866
843.642	5971
843.734	51
843.826	-1708
843.918	-399
844.009	-676
844.101	-731
844.193	-1754
844.285	-785
844.377	-435
844.469	497
844.560	594
844.652	1968
844.744	3705
844.835	277
844.927	-998
845.019	-874
845.110	-810
845.202	-567
845.293	-997
845.385	-251
845.476	-1105
845.568	-189
845.659	-1246
845.751	-1195
845.842	-1516
845.934	-1097
846.025	-1625
846.116	-620
846.208	-1493
846.299	-1276
846.390	-1536
846.482	-828
846.573	-1167
846.664	-990
846.755	-1070
846.846	34
846.937	278
847.029	-192
847.120	-1777
847.211	-1406
847.302	-189
847.393	-694
847.484	-752
847.575	-1615
847.666	-1261
847.757	-1057
847.847	-1297
847.938	-608
848.029	-1630
848.120	-647
848.211	-1424
848.302	-1712
848.392	-1126
848.483	-556
848.574	-1195
848.664	-1193
848.755	-432
848.846	-1836
848.936	-1292
849.027	-1321
849.118	-1705
849.208	-765
849.299	-1921
849.389	-600
849.480	-1036
849.570	889
849.661	861
849.751	2064
849.841	5416
849.932	2120
850.022	-1271
850.112	-175
850.203	-1396
850.293	141
850.383	-1055
850.474	-1009
850.564	-1223
850.654	-1178
850.744	-1298
850.834	-1314
850.924	-713
851.014	-352
851.104	-1379
851.194	264
851.284	-1424
851.374	-170
851.464	-1111
851.554	-91
851.644	-1305
851.734	-687
851.824	-915
851.914	-470
852.004	-1069
852.094	-844
852.183	-944
852.273	-1107
852.363	-1156
852.452	-716
852.542	-586
852.632	-1168
852.721	-673
852.811	-496
852.901	-1123
852.990	-701
853.080	-1053
853.169	-914
853.259	-1062
853.348	-1034
853.438	-1335
853.527	-762
853.617	-817
853.706	-507
853.795	814
853.885	2888
853.974	6578
854.063	16284
854.152	21058
854.242	48215
854.331	25762
854.420	1429
854.509	-1223
854.598	-885
854.687	-741
854.777	-445
854.866	-571
854.955	-747
855.044	-1033
855.133	-838
855.222	-1407
855.311	-626
855.400	-299
855.488	-695
855.577	-411
855.666	-73
855.755	-394
855.844	-120
855.933	-1113
856.021	-715
856.110	-1288
856.199	-1404
856.288	-1336
856.376	-1078
856.465	-1448
856.554	-1044
856.642	-1310
856.731	-1145
856.819	-1084
856.908	-1127
856.996	-1380
857.085	-1064
857.173	-1386
857.262	-638
857.350	-1089
857.438	-1633
857.527	-893
857.615	-909
857.703	-805
857.792	-892
857.880	-1254
857.968	-1194
858.056	-1346
858.145	-1082
858.233	-1491
858.321	-1579
858.409	-1396
858.497	-1169
858.585	-1342
858.673	-1586
858.761	-1312
858.849	-842
858.937	-1383
859.025	-853
859.113	-1557
859.201	-635
859.289	-419
859.377	-318
859.465	-1173
859.552	-1365
859.640	-1134
859.728	-1424
859.816	-975
859.903	-1004
859.991	-1060
860.079	-1027
860.166	-1311
860.254	-1138
860.342	-1028
860.429	-839
860.517	-1949
860.604	-471
860.692	-1419
860.779	-1447
860.867	-1407
860.954	-964
861.042	-1715
861.129	-755
861.216	-698
861.304	-1246
861.391	-442
861.478	-705
861.565	-668
861.653	-490
861.740	-2164
861.827	-951
861.914	-1070
862.001	-1141
862.089	-1561
862.176	-1093
862.263	-1349
862.350	-1217
862.437	-1323
862.524	-1214
862.611	-1282
862.698	-681
862.785	-140
862.871	-802
862.958	446
863.045	-563
863.132	-542
863.219	-1316
863.306	-1311
863.392	-670
863.479	-930
863.566	-799
863.652	-1823
863.739	-686
863.826	-870
863.912	-1424
863.999	-1630
864.086	-830
864.172	-1362
864.259	-2069
864.345	-1138
864.432	-1060
864.518	-711
864.604	-1563
864.691	-812
864.777	-1085
864.863	-925
864.950	-974
865.036	-776
865.122	-245
865.209	-756
865.295	-403
865.381	-1192
865.467	-453
865.553	-733
865.639	-697
865.726	-539
865.812	578
865.898	2056
865.984	6587
866.070	8576
866.156	13872
866.242	25504
866.328	7837
866.414	-872
866.499	-936
866.585	-880
866.671	-1241
866.757	-1102
866.843	-893
866.928	-1377
867.014	-1501
867.100	-926
867.186	-854
867.271	-591
867.357	-960
867.442	-960
867.528	1548
867.614	-552
867.699	-710
867.785	105
867.870	907
867.956	520
868.041	3767
868.127	1613
868.212	600
868.297	1606
868.383	2519
868.468	397
868.553	844
868.639	1606
868.724	1148
868.809	1278
868.894	3076
868.979	451
869.065	-648
869.150	-1224
869.235	-713
869.320	-870
869.405	-1208
869.490	-806
869.575	-1309
869.660	-1397
869.745	-622
869.830	-1958
869.915	-1087
870.000	-998
870.085	-413
870.169	-877
870.254	-367
870.339	-771
870.424	-733
870.509	-1137
870.593	-1304
870.678	-1426
870.763	-597
870.847	-991
870.932	-1109
871.016	-982
871.101	-739
871.186	-314
871.270	-447
871.355	-1139
871.439	-502
871.523	-1471
871.608	-1007
871.692	-363
871.777	-945
871.861	-1156
871.945	-674
872.030	-1104
872.114	-926
872.198	-1786
872.282	-1145
872.367	-1012
872.451	-1034
872.535	-1769
872.619	-739
872.703	-1033
872.787	-1408
872.871	-529
872.955	-767
873.039	-1423
873.123	-1476
873.207	-1068
873.291	-757
873.375	-2214
873.459	-501
873.543	-1535
873.627	-637
873.711	-1607
873.794	-1310
873.878	-1017
873.962	-451
874.045	-1400
874.129	-614
874.137	-654
874.213	-1053
874.245	-714
874.296	-174
874.352	-687
874.380	-933
874.460	-1361
874.464	-1379
874.547	-1508
874.568	-1403
874.631	-1101
874.676	-945
874.714	-809
874.784	-613
874.798	-576
874.881	-1089
874.892	-1065
874.965	-872
874.999	-950
875.048	-1053
875.107	-980
875.131	-970
875.215	-458
875.215	-458
875.298	-773
875.323	-976
875.381	-1394
875.430	-1182
875.465	-1053
875.538	-1128
875.548	-1137
875.631	-482
875.646	-654
875.714	-1461
875.753	-1138
875.798	-774
875.861	-1090
875.881	-1204
875.964	-973
875.968	-988
876.047	-1247
876.076	-1110
876.130	-787
876.183	-1169
876.213	-1415
876.291	-901
876.296	-867
876.379	-1240
876.398	-1126
876.462	-756
876.506	-837
876.545	-833
876.613	-259
876.628	-154
876.711	-1290
876.721	-1202
876.794	-538
876.828	-459
876.877	-356
876.935	-282
876.960	-241
877.043	-211
877.043	-210
877.125	84
877.150	-4
877.208	-220
877.258	308
877.291	690
877.365	605
877.374	579
877.456	1191
877.472	1059
877.539	511
877.579	619
877.622	781
877.687	744
877.704	660
877.787	428
877.794	396
877.869	397
877.901	288
877.952	-63
878.008	-402
878.034	-470
878.115	-258
878.117	-252
878.199	-683
878.222	-531
878.282	-157
878.329	-411
878.364	-681
878.437	-413
878.447	-348
878.529	-781
878.544	-751
878.611	-660
878.651	-665
878.694	-630
878.758	-639
878.776	-626
878.858	-491
878.865	-486
878.941	-464
878.972	-294
879.023	-101
879.078	-451
879.105	-549
879.185	-814
879.187	-812
879.269	62
879.292	29
879.351	-430
879.399	-375
879.433	-265
879.506	-838
879.516	-894
879.598	-144
879.613	-258
879.680	-737
879.720	-222
879.762	189
879.827	-616
879.844	-751
879.926	-395
879.933	-360
880.007	-296
880.040	-383
880.089	-275
880.147	-458
880.171	-610
880.253	705
880.254	699
880.335	184
880.360	422
880.417	1184
880.467	1485
880.499	2467
880.574	5916
880.580	6093
880.662	7756
880.680	7571
880.744	3515
880.787	1161
880.825	430
880.893	-214
880.907	-198
880.989	-315
881.000	-270
881.070	-140
881.106	-478
881.152	-667
881.213	-54
881.233	61
881.315	-211
881.319	-225
881.396	-60
881.426	-102
881.478	-571
881.532	-553
881.559	-273
881.639	-359
881.641	-371
881.722	-405
881.745	-499
881.803	-496
881.852	-520
881.885	-479
881.958	-32
881.966	4
882.047	386
882.064	270
882.129	4
882.171	242
882.210	619
882.277	1048
882.291	1301
882.372	2993
882.383	3119
882.454	1219
882.489	468
882.535	380
882.596	-427
882.616	-563
882.697	-143
882.702	-143
882.778	-163
882.808	-229
882.859	-430
882.914	-440
882.940	-425
883.020	-396
883.021	-388
883.102	-202
883.127	-74
883.183	118
883.233	-108
883.264	-352
883.339	-251
883.345	-201
883.426	-166
883.445	-58
883.507	263
883.551	378
883.587	246
883.657	-23
883.668	24
883.749	87
883.763	193
883.830	709
883.869	688
883.910	233
883.975	-266
883.991	-264
884.072	-268
884.081	-288
884.152	-330
884.187	-284
884.233	-190
884.292	57
884.314	148
884.394	14
884.398	26
884.475	250
884.504	225
884.555	105
884.610	-18
884.636	77
884.716	29
884.716	32
884.797	-12
884.821	-151
884.877	-110
884.927	121
884.958	122
885.033	1
885.038	17
885.118	128
885.139	142
885.199	387
885.244	707
885.279	646
885.350	59
885.359	37
885.439	338
885.456	317
885.520	-16
885.561	-156
885.600	-65
885.667	33
885.680	-26
885.760	-361
885.773	-463
885.840	34
885.878	511
885.920	504
885.984	236
886.000	207
886.080	150
886.089	137
886.160	294
886.195	403
886.240	551
886.300	569
886.320	445
886.400	255
886.406	212
886.480	454
886.511	578
886.560	750
886.616	1086
886.640	1255
886.720	1664
886.722	1662
886.800	1116
886.827	973
886.879	846
886.932	441
886.959	238
887.038	50
887.039	69
887.119	883
887.143	1128
887.198	653
887.248	257
887.278	489
887.354	865
887.358	855
887.437	621
887.459	525
887.517	406
887.564	330
887.596	479
887.669	845
887.676	844
887.755	714
887.774	650
887.835	317
887.880	144
887.914	440
887.985	977
887.994	992
888.073	1006
888.090	1028
888.153	915
888.195	694
888.232	511
888.300	311
888.311	338
888.391	461
888.405	474
888.470	545
888.510	562
888.549	662
888.615	870
888.628	817
888.708	415
888.720	345
888.787	561
888.825	679
888.866	892
888.930	1210
888.945	1223
889.024	1202
889.035	1204
889.103	1024
889.140	876
889.182	1047
889.245	1297
889.261	1334
889.340	1451
889.349	1461
889.419	1344
889.454	1251
889.498	1002
889.559	666
889.577	741
889.656	1032
889.664	1056
889.735	813
889.768	690
889.814	789
889.873	911
889.978	1214
890.083	1716
890.187	728
890.292	1338
890.397	748
890.501	953
890.606	780
890.710	-37
890.815	1380
890.919	903
891.024	1290
891.128	1247
891.233	1011
891.337	78
891.442	1310
891.546	197
891.650	300
891.755	1198
891.859	1837
891.963	683
892.068	1643
892.172	1997
892.276	552
892.380	804
892.484	1190
892.589	1020
892.693	769
892.797	981
892.901	1051
893.005	455
893.109	464
893.213	1599
893.317	98
893.421	1479
893.525	1041
893.629	856
893.733	608
893.837	914
893.941	585
894.045	722
894.148	1039
894.252	1087
894.356	798
894.460	490
894.564	1276
894.667	639
894.771	588
894.875	666
894.978	1000
895.082	797
895.186	1196
895.289	1190
895.393	164
895.496	556
895.600	604
895.703	245
895.807	649
895.910	472
896.014	-182
896.117	1323
896.221	304
896.324	702
896.427	92
896.531	-200
896.634	315
896.737	-103
896.840	1044
896.944	271
897.047	695
897.150	820
897.253	604
897.356	169
897.460	349
897.563	856
897.666	56
897.769	490
897.872	293
897.975	787
898.078	398
898.181	844
898.284	996
898.387	848
898.490	741
898.593	1058
898.695	820
898.798	1082
898.901	1004
899.004	1605
899.107	433
899.209	408
899.312	-253
899.415	396
899.518	462
899.620	-184
899.723	908
899.826	990
899.928	3422
900.031	3705
900.133	322
900.236	369
900.338	689
900.441	665
900.543	914
900.646	180
900.748	614
900.851	82
900.953	385
901.055	1671
901.158	1609
901.260	1357
901.362	506
901.465	798
901.567	833
901.669	403
901.771	409
901.873	345
901.976	-219
902.078	326
902.180	791
902.282	-37
902.384	679
902.486	1023
902.588	163
902.690	1031
902.792	1750
902.894	1213
902.996	880
903.098	734
903.200	190
903.302	1311
903.404	872
903.505	122
903.607	282
903.709	1543
903.811	623
903.913	357
904.014	230
904.116	432
904.218	1563
904.319	559
904.421	671
904.523	1294
904.624	1164
904.726	826
904.827	885
904.929	752
905.030	1920
905.132	1270
905.233	534
905.335	814
905.436	-106
905.537	289
905.639	565
905.740	1402
905.841	76
905.943	241
906.044	886
906.145	1109
906.247	774
906.348	421
906.449	949
906.550	797
906.651	688
906.752	689
906.854	168
906.955	145
907.056	428
907.157	264
907.258	611
907.359	181
907.460	111
907.561	848
907.662	107
907.762	447
907.863	740
907.964	1226
908.065	690
908.166	782
908.267	411
908.367	565
908.468	558
908.569	475
908.670	813
908.770	1513
908.871	1436
908.971	1860
909.072	1204
909.173	1387
909.273	1186
909.374	300
909.474	1207
909.575	-53
909.675	410
909.776	475
909.876	319
909.977	630
910.077	295
910.177	441
910.278	496
910.378	136
910.478	828
910.579	555
910.679	509
910.779	-628
910.879	873
910.980	715
911.080	704
911.180	807
911.280	-204
911.380	291
911.480	-201
911.580	188
911.680	799
911.780	865
911.880	915
911.980	700
912.080	597
912.180	-112
912.280	775
912.380	606
912.480	-55
912.580	189
912.679	758
912.779	441
912.879	1148
912.979	-50
913.078	71
913.178	16
913.278	547
913.377	414
913.477	326
913.577	649
913.676	517
913.776	450
913.875	253
913.975	266
914.074	48
914.174	-751
914.273	29
914.373	863
914.472	382
914.572	-333
914.671	60
914.770	302
914.870	187
914.969	202
915.068	-270
915.167	294
915.267	351
915.366	40
915.465	334
915.564	1
915.663	-107
915.763	532
915.862	-456
915.961	856
916.060	389
916.159	-239
916.258	-67
916.357	72
916.456	144
916.555	177
916.654	380
916.752	902
916.851	-28
916.950	400
917.049	-645
917.148	-434
917.247	-81
917.345	283
917.444	-138
917.543	140
917.642	455
917.740	110
917.839	32
917.937	-100
918.036	776
918.135	733
918.233	658
918.332	795
918.430	164
918.529	-445
918.627	48
918.726	684
918.824	431
918.923	478
919.021	-114
919.119	436
919.218	-514
919.316	-102
919.414	128
919.512	-22
919.611	507
919.709	-49
919.807	523
919.905	90
920.003	901
920.102	61
920.200	-95
920.298	31
920.396	565
920.494	-21
920.592	250
920.690	995
920.788	-138
920.886	250
920.984	319
921.082	1028
921.180	375
921.277	359
921.375	-315
921.473	1260
921.571	-809
921.669	364
921.766	18
921.864	813
921.962	-282
922.060	559
922.157	47
922.255	-230
922.352	202
922.450	618
922.548	275
922.645	354
922.743	-150
922.840	344
922.938	-266
923.035	640
923.133	569
923.230	-788
923.327	556
923.425	1342
923.522	918
923.619	965
923.717	433
923.814	799
923.911	-53
924.008	1074
924.106	377
924.203	177
924.300	143
924.397	1284
924.494	594
924.591	749
924.688	44
924.786	572
924.883	463
924.979	-565
925.077	749
925.173	482
925.270	32
925.367	262
925.464	525
925.561	615
925.658	1107
925.755	777
925.852	1648
925.948	1243
926.045	831
926.142	971
926.239	1411
926.335	1774
926.432	1526
926.529	1693
926.625	1398
926.722	2014
926.818	1833
926.915	934
927.011	191
927.108	585
927.204	-76
927.301	279
927.397	542
927.494	287
927.590	686
927.687	379
927.783	590
927.879	794
927.976	-174
928.072	336
928.168	-235
928.264	289
928.361	93
928.457	543
928.553	986
928.649	580
928.745	355
928.841	252
928.937	251
929.033	718
929.129	-318
929.225	-74
929.321	229
929.417	744
929.513	630
929.609	219
929.705	50
929.801	309
929.897	-16
929.993	544
930.089	-260
930.184	434
930.280	-56
930.376	-207
930.471	-148
930.567	96
930.663	300
930.758	151
930.854	229
930.950	192
931.045	-444
931.141	-385
931.236	775
931.332	419
931.427	188
931.523	750
931.618	287
931.714	-344
931.809	195
931.905	-119
932.000	502
932.095	-164
932.191	72
932.286	-572
932.381	-305
932.476	-83
932.572	-207
932.667	100
932.762	-428
932.857	61
932.952	80
933.047	324
933.142	-630
933.237	880
933.332	322
933.427	279
933.522	-122
933.617	401
933.712	519
933.807	752
933.902	894
933.997	-24
934.092	509
934.187	59
934.282	330
934.376	148
934.471	218
934.566	103
934.661	250
934.755	589
934.850	80
934.945	252
935.039	405
935.134	754
935.228	236
935.323	98
935.417	317
935.512	-219
935.606	651
935.701	-385
935.795	-265
935.890	-320
935.984	-244
936.079	509
936.173	-774
936.267	155
936.362	157
936.456	-13
936.550	594
936.644	163
936.738	17
936.833	197
936.927	530
937.021	236
937.115	-175
937.209	-460
937.303	549
937.397	47
937.491	328
937.585	739
937.679	84
937.773	300
937.867	-301
937.961	351
938.055	336
938.149	628
938.243	-163
938.337	535
938.430	203
938.524	315
938.618	1100
938.712	2326
938.805	957
938.899	389
938.993	920
939.086	907
939.180	747
939.274	3102
939.367	2534
939.461	1594
939.554	-27
939.648	884
939.741	-558
939.835	494
939.928	9
940.022	133
940.115	213
940.208	33
940.302	9
940.395	351
940.488	-110
940.582	90
940.675	646
940.768	47
940.861	-217
940.954	301
941.048	861
941.141	1268
941.234	1835
941.327	4106
941.420	7890
941.513	5757
941.606	1908
941.699	1048
941.792	1531
941.885	445
941.978	-266
942.071	379
942.164	224
942.257	6
942.349	1215
942.442	94
942.535	304
942.628	647
942.721	238
942.813	-3
942.906	-52
942.999	163
943.091	-389
943.184	-85
943.277	-371
943.369	961
943.462	-133
943.554	-58
943.647	-115
943.739	268
943.832	-29
943.924	233
944.017	-223
944.109	398
944.201	-378
944.294	1168
944.386	101
944.478	148
944.571	-65
944.663	36
944.755	-57
944.847	-157
944.940	-132
945.032	287
945.124	-35
945.216	975
945.308	-277
945.400	554
945.492	19
945.584	437
945.676	195
945.768	97
945.860	618
945.952	-360
946.044	28
946.136	131
946.228	128
946.320	589
946.412	174
946.503	796
946.595	122
946.687	-289
946.779	-204
946.870	-396
946.962	39
947.054	582
947.145	-49
947.237	877
947.329	-389
947.420	679
947.512	-71
947.603	-124
947.695	-1018
947.786	210
947.878	-58
947.969	-283
948.061	-58
948.152	-593
948.243	295
948.335	-61
948.426	10
948.517	-702
948.609	334
948.700	205
948.791	-263
948.882	222
948.973	-101
949.065	-72
949.156	-492
949.247	242
949.338	-122
949.429	-2
949.520	-463
949.611	-567
949.702	-132
949.793	55
949.884	243
949.975	445
950.066	-431
950.157	281
950.247	681
950.338	453
950.429	-628
950.520	297
950.611	118
950.701	77
950.792	396
950.883	286
950.973	49
951.064	645
951.155	671
951.245	793
951.336	945
951.427	-96
951.517	-346
951.608	617
951.698	185
951.788	250
951.879	269
951.969	-581
952.060	-453
952.150	-290
952.240	-497
952.331	-774
952.421	-324
952.511	-622
952.602	-4
952.692	-735
952.782	-36
952.872	300
952.962	-691
953.052	-127
953.143	370
953.233	198
953.323	489
953.413	373
953.503	-86
953.593	-344
953.683	148
953.773	48
953.863	-365
953.953	280
954.042	318
954.132	-85
954.222	529
954.312	-123
954.402	-413
954.492	413
954.581	809
954.671	1737
954.761	-101
954.850	320
954.940	307
955.030	-13
955.119	-295
955.209	-187
955.298	-711
955.388	437
955.477	-539
955.567	153
955.656	172
955.746	86
955.835	-202
955.925	304
956.014	-135
956.103	214
956.193	454
956.282	393
956.371	-663
956.461	-632
956.550	-457
956.639	-782
956.728	-43
956.817	53
956.906	37
956.995	90
957.085	208
957.174	-158
957.263	-1029
957.352	-792
957.441	-273
957.530	272
957.619	-458
957.708	-317
957.796	-22
957.885	552
957.974	124
958.063	80
958.152	-387
958.241	-694
958.329	76
958.418	108
958.507	25
958.596	255
958.684	474
958.773	702
958.861	-144
958.950	345
959.039	188
959.127	671
959.216	342
959.304	912
959.393	464
959.481	-97
959.570	661
959.658	960
959.746	77
959.835	1024
959.923	1124
960.011	2714
960.100	1120
960.188	774
960.276	15
960.365	-643
960.453	-384
960.541	-333
960.629	-705
960.717	-427
960.805	-460
960.893	-233
960.981	-529
961.069	-163
961.158	6
961.245	164
961.333	-284
961.421	149
961.509	-398
961.597	-284
961.685	95
961.773	711
961.861	-251
961.949	403
962.036	65
962.124	-926
962.212	-350
962.299	319
962.387	-959
962.475	-82
962.562	205
962.650	185
962.738	100
962.825	-188
962.913	-749
963.000	353
963.088	-212
963.175	-519
963.263	-834
963.350	-227
963.438	373
963.525	456
963.612	567
963.700	1971
963.787	6272
963.874	12088
963.962	6573
964.049	281
964.136	-402
964.223	516
964.310	302
964.398	-782
964.485	-583
964.572	118
964.659	351
964.746	1401
964.833	677
964.920	445
965.007	-511
965.094	-458
965.181	-576
965.268	35
965.355	161
965.441	-60
965.528	-135
965.615	-166
965.702	-659
965.789	-93
965.875	11
965.962	-497
966.049	-397
966.136	-309
966.222	-794
966.309	-1148
966.395	-964
966.482	-702
966.569	-1410
966.655	-392
966.742	-1028
966.828	-310
966.915	-873
967.001	-53
967.087	-416
967.174	40
967.260	-8
967.347	-52
967.433	1481
967.519	4575
967.605	8268
967.692	2522
967.778	194
967.864	-520
967.950	-723
968.036	-10
968.123	-682
968.209	123
968.295	-790
968.381	-602
968.467	-207
968.553	-612
968.639	-277
968.725	302
968.811	258
968.897	567
968.983	223
969.069	-413
969.154	-1246
969.240	-1326
969.326	-384
969.412	-715
969.497	-901
969.583	-11
969.669	-1154
969.755	-72
969.840	-442
969.926	-138
970.012	-13
970.097	-804
970.183	393
970.268	-186
970.354	-295
970.439	442
970.525	2216
970.610	4461
970.696	1207
970.781	-462
970.866	-1476
970.952	-961
971.037	-1560
971.122	-151
971.208	-996
971.293	-1209
971.378	-494
971.463	-903
971.549	-1180
971.634	-539
971.719	-272
971.804	-42
971.889	-48
971.974	-112
972.059	-784
972.144	-857
972.229	-806
972.314	-559
972.399	-1039
972.484	-1064
972.569	-864
972.654	-900
972.739	56
972.824	1326
972.908	1731
972.993	667
973.078	-788
973.163	-731
973.247	-952
973.332	-1963
973.417	-612
973.501	-615
973.586	-920
973.671	-1056
973.755	-202
973.840	-774
973.924	279
974.009	-185
974.093	93
974.178	-807
974.262	45
974.346	1594
974.431	796
974.515	347
974.600	-577
974.684	-764
974.768	-1188
974.852	-755
974.937	-933
975.021	-1408
975.105	-796
975.189	-613
975.273	-1070
975.358	-557
975.442	-668
975.526	-1554
975.610	-1318
975.694	-1814
975.778	-436
975.862	-503
975.946	-1032
976.030	-758
976.114	-1409
976.198	-893
976.281	-1882
976.365	-702
976.449	-742
976.533	-702
976.617	-606
976.700	-1188
976.784	-1116
976.868	-852
976.951	-712
977.035	-488
977.119	21
977.202	-755
977.286	-1016
977.369	-708
977.453	-1136
977.536	-1118
977.620	-573
977.703	-789
977.787	-1171
977.870	-870
977.953	-577
978.037	-1285
978.120	-1083
978.203	-233
978.287	350
978.370	1176
978.453	587
978.536	-1022
978.620	-687
978.703	-472
978.786	-263
978.869	484
978.952	-690
979.035	-1511
979.118	-205
979.201	-1021
979.284	-872
979.367	-832
979.450	-638
979.533	-811
979.616	-676
979.699	-541
979.782	-1397
979.865	-1048
979.948	-860
980.030	-614
980.113	-1098
980.196	-1547
980.279	-1013
980.361	-1036
980.444	-412
980.526	-1345
980.609	-1280
980.692	-489
980.774	-2155
980.857	-608
980.939	-1454
981.022	-1051
981.104	-1882
981.187	-1407
981.269	-790
981.352	-993
981.434	-339
981.516	-581
981.599	-1787
981.681	-1554
981.763	-868
981.846	-629
981.928	-1425
982.010	-669
982.092	-1208
982.174	-664
982.256	-1834
982.339	-1398
982.421	-537
982.503	-731
982.585	-953
982.667	-1106
982.749	-876
982.831	-1160
982.913	-1323
982.995	-559
983.077	-1414
983.158	-791
983.240	-1335
983.322	-1207
983.404	-1853
983.486	-839
983.568	-1048
983.649	-1300
983.731	-1174
983.813	-1187
983.894	-1502
983.976	-1051
984.058	-1140
984.139	-194
984.221	-2588
984.302	-1019
984.384	-734
984.465	-903
984.547	-1374
984.628	-1543
984.710	-1616
984.791	-881
984.872	-1079
984.954	-804
985.035	-1325
985.116	-1299
985.198	-1147
985.279	-1092
985.360	-1692
985.441	-1287
985.522	-1596
985.604	-1459
985.685	-1433
985.766	-1373
985.847	24
985.928	-662
986.009	-804
986.090	-1423
986.171	-673
986.252	-1095
986.333	-934
986.414	-757
986.495	-1494
986.576	-789
986.656	-827
986.737	-620
986.818	-485
986.899	-786
986.980	-938
987.060	-1277
987.141	-872
987.222	-766
987.302	-1365
987.383	-629
987.464	-943
987.544	-855
987.625	-1114
987.705	-1789
987.786	-1320
987.866	-677
987.947	-662
988.027	-257
988.108	-1250
988.188	-952
988.268	-1078
988.349	-1631
988.429	-1837
988.509	-1182
988.589	-1321
988.670	-2217
988.750	-1269
988.830	-682
988.910	-769
988.990	-736
989.070	-1415
989.151	-1215
989.231	-1468
989.311	-134
989.391	-892
989.471	-908
989.551	-732
989.631	-975
989.711	-700
989.791	-1539
989.870	-496
989.950	-1500
990.030	-790
990.110	-1129
990.190	-1272
990.269	-952
990.349	-1167
990.429	-1072
990.509	-1606
990.588	-1323
990.668	-917
990.747	-905
990.827	-1620
990.907	-696
990.986	-423
991.066	-1097
991.145	-726
991.225	-1050
991.304	-961
991.383	-1071
991.463	-749
991.542	-853
991.622	-1296
991.701	-734
991.780	-1350
991.859	-1619
991.939	-1375
992.018	-898
992.097	-319
992.176	-1598
992.256	-1679
992.335	-1160
992.414	-838
992.493	-971
992.572	-1334
992.651	-787
992.730	-591
992.809	-1199
992.888	-1577
992.967	-765
993.046	-1155
993.125	-1427
993.203	-858
993.282	-1206
993.361	-1004
993.440	-1493
993.519	-1658
993.597	-403
993.676	-892
993.755	-1504
993.834	-1551
993.912	-1093
993.991	-1010
994.069	-1551
994.148	-1051
994.226	-698
994.305	-1349
994.384	-985
994.462	-1243
994.540	-1199
994.619	-1001
994.697	-896
994.776	-1929
994.854	-728
994.932	-1198
995.011	-485
995.089	-1434
995.167	-699
995.245	-959
995.324	-1511
995.402	-954
995.480	128
995.558	-1645
995.636	-1163
995.714	-1109
995.792	-268
995.870	-1169
995.948	-752
996.026	-1991
996.104	-1482
996.182	-832
996.260	-1554
996.338	35
996.416	-1009
996.494	-1543
996.572	-387
996.649	-901
996.727	-1308
996.805	-1363
996.883	-1207
996.960	-1423
997.038	-1099
997.116	-1462
997.193	-1707
997.271	-813
997.348	-1129
997.426	-806
997.504	-1903
997.581	-1615
997.658	-1313
997.736	-1300
997.813	-1441
997.891	-525
997.968	-1601
998.046	-898
998.123	-683
998.200	-1414
998.277	-1246
998.355	-721
998.432	-1237
998.509	-927
998.586	-700
998.663	-1622
998.741	-1304
998.818	-1288
998.895	-1272
998.972	-1303
999.049	-1089
999.126	-1960
999.203	-1068
999.280	-1517
999.357	-763
999.434	-1490
999.511	-1042
999.587	-1033
999.664	-459
999.741	-842
999.818	-846
999.895	-1070
999.971	-892
1000.048	-1869
1000.125	-1609
1000.202	-1342
1000.278	-627
1000.355	-1134
1000.431	-1361
1000.508	-759
1000.584	-1400
1000.661	-1306
1000.738	-419
1000.814	-1107
1000.890	-1157
1000.967	-1947
1001.043	-187
1001.120	-1267
1001.196	-1501
1001.272	-1403
1001.349	-1073
1001.425	-753
1001.501	-1043
1001.577	-1474
1001.654	-750
1001.730	-1560
1001.806	-811
1001.882	-1411
1001.958	-412
1002.034	-558
1002.110	-1503
1002.186	-1513
1002.262	-1302
1002.338	-1388
1002.414	-1820
1002.490	-302
1002.566	-857
1002.642	-1253
1002.718	-1172
1002.794	-1581
1002.870	-1836
1002.945	-1957
1003.021	-1626
1003.097	-1303
1003.173	-1344
1003.248	-1076
1003.324	-1385
1003.400	-1124
1003.475	-1475
1003.551	-1368
1003.626	-1230
1003.702	-1946
1003.777	-2014
1003.853	-1262
1003.928	-1808
1004.004	-1446
1004.079	-839
1004.155	-1737
1004.230	-1581
1004.305	-1024
1004.381	-1570
1004.456	-1325
1004.531	-123
1004.607	-1956
1004.682	-1633
1004.757	-1950
1004.832	-1289
1004.907	-927
1004.982	-524
1005.057	-1335
1005.133	-1131
1005.208	-1628
1005.283	-2188
1005.358	-1094
1005.433	-1564
1005.508	-1959
1005.583	-1312
1005.657	-1525
1005.732	-1593
1005.807	-1014
1005.882	-1211
1005.957	-1408
1006.032	-1527
1006.106	-1247
1006.181	-1167
1006.256	-1697
1006.331	-1678
1006.405	-1808
1006.480	-1489
1006.554	-1779
1006.629	-1184
1006.704	-2199
1006.778	-2036
1006.853	-877
1006.927	-1403
1007.002	-1450
1007.076	-1352
1007.150	-1276
1007.225	-1458
1007.299	-1144
1007.373	-1568
1007.448	-1599
1007.522	-1490
1007.596	-1140
1007.671	-1641
1007.745	-1371
1007.819	-1987
1007.893	-1579
1007.967	-1355
1008.041	-1906
1008.115	-2300
1008.190	-1566
1008.264	-1718
1008.338	-1653
1008.412	-1585
1008.486	-1542
1008.560	-916
1008.633	-1759
1008.707	-1851
1008.781	-1138
1008.855	-1296
1008.929	-1529
1009.003	-1320
1009.076	-1592
1009.150	-2126
1009.224	-1295
1009.298	-1234
1009.371	-1664
1009.445	-1187
1009.519	-1451
1009.592	-1454
1009.666	-1646
1009.739	-703
1009.813	-998
1009.886	-1246
1009.960	-1154
1010.033	-535
1010.107	-1121
1010.180	-1293
1010.253	-1641
1010.327	-1349
1010.400	-1333
1010.473	-813
1010.547	-1221
1010.620	-2304
1010.693	-1503
1010.766	-1619
1010.840	-1372
1010.913	-1554
1010.986	-1229
1011.059	-1436
1011.132	-1574
1011.205	-1142
1011.278	-1420
1011.351	-1144
1011.424	-1011
1011.497	-1362
1011.570	-566
1011.643	-469
1011.716	-1748
1011.789	-947
1011.862	-1033
1011.934	-800
1012.007	-1013
1012.080	-1414
1012.153	-1153
1012.225	-1523
1012.298	-1757
1012.371	-1300
1012.443	-1399
1012.516	-1479
1012.588	-1947
1012.661	-1786
1012.733	-1355
1012.806	-1259
1012.879	-999
1012.951	-1576
1013.023	-1350
1013.096	-828
1013.168	-1835
1013.241	-1308
1013.313	-2147
1013.385	-1501
1013.458	-1083
1013.530	-1418
1013.602	-955
1013.674	-1671
1013.746	-1756
1013.819	-1390
1013.891	-1300
1013.963	-1387
1014.035	-1357
1014.107	-992
1014.179	-1062
1014.251	-2023
1014.323	-1879
1014.395	-1016
1014.467	-1972
1014.539	-937
1014.611	-1046
1014.683	-1407
1014.754	-1510
1014.826	-1588
1014.898	-1386
1014.970	-1604
1015.042	-556
1015.113	-1021
1015.185	-1351
1015.257	-1154
1015.328	-1623
1015.400	-1629
1015.471	-704
1015.543	-1789
1015.615	-1338
1015.686	-1866
1015.757	-778
1015.829	-1062
1015.901	-1576
1015.972	-1816
1016.043	-1280
1016.115	-1388
1016.186	-1409
1016.257	-2145
1016.328	-1528
1016.400	-1268
1016.471	-1384
1016.542	-1412
1016.613	-1659
1016.685	-1371
1016.756	-1524
1016.827	-996
1016.898	-1857
1016.969	-1062
1017.040	-1785
1017.111	-2552
1017.182	-2054
1017.253	-1478
1017.324	-1088
1017.395	-1886
1017.466	-1927
1017.537	-1502
1017.608	-1645
1017.678	-1698
1017.749	-1656
1017.820	-1517
1017.891	-1371
1017.961	-1585
1018.032	-2336
1018.103	-1746
1018.173	-1794
1018.244	-841
1018.315	-1277
1018.385	-1323
1018.456	-1867
1018.526	-1350
1018.597	-2470
1018.667	-1901
1018.738	-1749
1018.808	-1331
1018.878	-2059
1018.949	-1600
1019.019	-1340
1019.089	-1696
1019.160	-1882
1019.230	-1693
1019.300	-1343
1019.371	-1144
1019.441	-1220
1019.511	-1079
1019.581	-1848
1019.651	-1913
1019.721	-1564
1019.791	-1113
1019.861	-1208
1019.931	-2061
1020.001	-1999
1020.071	-1565
1020.141	-2654
1020.211	-1460
1020.281	-1566
1020.351	-1551
1020.421	-1563
1020.491	-1207
1020.560	-1908
1020.630	-1903
1020.700	-1329
1020.770	-1903
1020.839	-1332
1020.909	-1708
1020.979	-1276
1021.048	-1730
1021.118	-1835
1021.187	-2015
1021.257	-1896
1021.326	-1655
1021.396	-1514
1021.465	-1959
1021.535	-1653
1021.604	-827
1021.674	-1756
1021.743	-1783
1021.812	-2314
1021.882	-1553
1021.951	-1416
1022.020	-1269
1022.089	-1226
1022.159	-1822
1022.228	-2071
1022.297	-1043
1022.366	-932
1022.435	-1989
1022.504	-2224
1022.573	-1902
1022.642	-1910
1022.711	-2457
1022.781	-1837
1022.849	-1832
1022.918	-2336
1022.987	-569
1023.056	-1677
1023.125	-777
1023.194	-1370
1023.263	-1184
1023.331	-1130
1023.400	-1657
1023.469	-1182
1023.538	-1955
1023.606	-976
1023.675	-1426
1023.744	-1449
1023.812	-1597
1023.881	-1659
1023.949	-1732
1024.018	-1680
1024.086	-2458
1024.155	-1458
1024.223	-1197
1024.292	-1628
1024.360	-1710
1024.429	-1304
1024.497	-1610
1024.565	-1104
1024.634	-2017
1024.702	-1746
1024.770	-1541
1024.838	-2096
1024.907	-1491
1024.975	-1437
1025.043	-905
1025.111	-2104
1025.179	-1002
1025.247	-1599
1025.315	-1933
1025.383	-1668
1025.451	-1633
1025.519	-1834
1025.587	-1239
1025.655	-1953
1025.723	-1201
1025.791	-1471
1025.859	-1384
1025.927	-1978
1025.995	-1810
1026.062	-1247
1026.130	-1671
1026.198	-2291
1026.266	-1503
1026.333	-1936
1026.401	-1875
1026.469	-1615
1026.536	-1745
1026.604	-2034
1026.671	-1887
1026.739	-1829
1026.806	-2119
1026.874	-1623
1026.941	-1676
1027.009	-2060
1027.076	-2125
1027.144	-1417
1027.211	-1819
1027.278	-1465
1027.345	-1137
1027.413	-1882
1027.480	-1765
1027.547	-1740
1027.614	-2251
1027.682	-1914
1027.749	-1708
1027.816	-1930
1027.883	-1922
1027.950	-2275
1028.017	-2099
1028.084	-1964
1028.151	-1740
1028.218	-2937
1028.285	-2071
1028.352	-2649
1028.419	-2405
1028.486	-1844
1028.553	-1796
1028.619	-1326
1028.686	-2453
1028.753	-2227
1028.820	-2494
1028.886	-1826
1028.953	-1436
1029.020	-1972
1029.086	-2731
1029.153	-2920
1029.220	-1464
1029.286	-2572
1029.353	-2068
1029.419	-1804
1029.486	-1623
1029.552	-1819
1029.619	-2095
1029.685	-1363
1029.751	-2139
1029.818	-1998
1029.884	-2314
1029.951	-1988
1030.017	-1745
1030.083	-2210
1030.149	-2341
1030.216	-2148
1030.282	-2024
1030.348	-2312
1030.414	-1795
1030.480	-2049
1030.546	-1447
1030.612	-1451
1030.678	-1932
1030.744	-2378
1030.810	-2234
1030.876	-2303
1030.942	-1757
1031.008	-2194
1031.074	-2119
1031.140	-1955
1031.206	-1588
1031.272	-2436
1031.337	-1719
1031.403	-1900
1031.469	-1899
1031.534	-1857
1031.600	-2439
1031.666	-2056
1031.731	-2586
1031.797	-1646
1031.863	-2717
1031.928	-1864
1031.994	-1825
1032.059	-1641
1032.125	-1927
1032.190	-2004
1032.256	-2875
1032.321	-2166
1032.386	-2193
1032.452	-1975
1032.517	-1980
1032.582	-2015
1032.647	-1498
1032.713	-1502
1032.778	-2564
1032.843	-2037
1032.908	-1871
1032.974	-2491
1033.039	-2641
1033.104	-2452
1033.169	-1933
1033.234	-2576
1033.299	-1949
1033.364	-2719
1033.429	-1127
1033.494	-1995
1033.559	-1525
1033.624	-1844
1033.688	-2122
1033.753	-2876
1033.818	-1957
1033.883	-2043
1033.948	-1326
1034.013	-2515
1034.077	-2143
1034.142	-1641
1034.207	-2385
1034.271	-1496
1034.336	-2185
1034.400	-1442
1034.465	-1758
1034.530	-1438
1034.594	-1534
1034.658	-1534
1034.723	-1797
1034.787	-1959
1034.852	-1903
1034.916	-2277
1034.981	-1976
1035.045	-2806
1035.109	-2131
1035.173	-1480
1035.238	-2115
1035.302	-2332
1035.366	-1782
1035.430	-2625
1035.495	-2256
1035.559	-1902
1035.623	-2382
1035.687	-2438
1035.751	-2718
1035.815	-2220
1035.879	-2316
1035.943	-2366
1036.007	-1620
1036.071	-2125
1036.135	-2647
1036.198	-2446
1036.262	-2413
1036.326	-2603
1036.390	-2311
1036.454	-1742
1036.517	-1702
1036.581	-2069
1036.645	-2051
1036.709	-2088
1036.772	-1040
1036.836	-1579
1036.900	-1754
1036.963	-2271
1037.026	-2493
1037.090	-2075
1037.154	-3030
1037.217	-2749
1037.280	-2202
1037.344	-2717
1037.407	-2092
1037.471	-2282
1037.534	-2207
1037.597	-1403
1037.661	-2082
1037.724	-2783
1037.787	-1893
1037.850	-2982
1037.913	-2175
1037.977	-2449
1038.040	-2015
1038.103	-2247
1038.166	-2669
1038.229	-2629
1038.292	-2916
1038.355	-2286
1038.418	-2388
1038.481	-1936
1038.544	-1827
1038.607	-1843
1038.670	-1891
1038.732	-1826
1038.795	-2463
1038.858	-2785
1038.921	-2394
1038.984	-2132
1039.046	-2038
1039.109	-2643
1039.172	-2708
1039.234	-2665
1039.297	-1940
1039.360	-3023
1039.422	-2537
1039.485	-2605
1039.547	-2432
1039.610	-2935
1039.672	-2741
1039.734	-2472
1039.797	-2465
1039.859	-2637
1039.922	-2351
1039.984	-1546
1040.046	-1985
1040.109	-1500
1040.171	-2924
1040.233	-2021
1040.295	-2074
1040.358	-2790
1040.420	-1745
1040.482	-2340
1040.544	-2668
1040.606	-2282
1040.668	-2521
1040.730	-1812
1040.792	-2444
1040.854	-2172
1040.916	-1589
1040.978	-1469
1041.040	-2086
1041.102	-2363
1041.164	-2132
1041.225	-1691
1041.287	-2289
1041.349	-1696
1041.411	-2464
1041.472	-2598
1041.534	-2478
1041.596	-2309
1041.657	-2478
1041.719	-2335
1041.781	-1942
1041.842	-2451
1041.904	-2928
1041.965	-2116
1042.027	-1707
1042.088	-2235
1042.150	-1726
1042.211	-2306
1042.272	-2257
1042.334	-2200
1042.395	-1792
1042.456	-2079
1042.518	-2049
1042.579	-1700
1042.640	-2268
1042.701	-2015
1042.763	-1935
1042.824	-2772
1042.885	-3082
1042.946	-2142
1043.007	-2242
1043.068	-2342
1043.129	-1239
1043.190	-1900
1043.251	-2165
1043.312	-1779
1043.373	-1760
1043.434	-1438
1043.495	-1902
1043.556	-2072
1043.616	-2308
1043.677	-2695
1043.738	-3184
1043.799	-2029
1043.859	-1601
1043.920	-2937
1043.981	-2003
1044.041	-1185
1044.102	-1975
1044.162	-2839
1044.223	-2023
1044.284	-1832
1044.344	-2588
1044.405	-2051
1044.465	-1843
1044.525	-3287
1044.586	-2383
1044.646	-2369
1044.707	-2170
1044.767	-2344
1044.827	-2295
1044.887	-2655
1044.948	-2000
1045.008	-2116
1045.068	-2628
1045.128	-2066
1045.188	-1422
1045.249	-2008
1045.309	-1564
1045.369	-1323
1045.429	-1756
1045.489	-1933
1045.549	-1370
1045.609	-1852
1045.669	-2325
1045.729	-2523
1045.789	-1665
1045.848	-1966
1045.908	-2734
1045.968	-1811
1046.028	-1663
1046.088	-1812
1046.147	-1308
1046.207	-2072
1046.267	-2050
1046.326	-2096
1046.386	-1639
1046.446	-1777
1046.505	-1226
1046.565	-1203
1046.624	-1138
1046.684	-1220
1046.743	-752
1046.803	-408
1046.862	-1311
1046.922	0
