'Start Wavelength	183.907
'End Wavelength	1046.922
'Gate Delay	5.000
'Gate Width (ms)	1.050
'Laser Output Level	0.000
'X Position	0.000
'Y Position	0.000
'Z Position	0.000
'Grid Point Number	1.000
'Shot Number	100.000
183.907	154.000
183.977	-362.000
184.047	677
184.116	691
184.186	597
184.256	324
184.325	443
184.395	202
184.465	506
184.534	818
184.604	-32
184.674	371
184.743	217
184.813	240
184.883	-536
184.952	51
185.022	117
185.092	721
185.161	429
185.231	1038
185.301	939
185.370	406
185.440	-44
185.509	570
185.579	597
185.649	332
185.718	486
185.788	1078
185.857	245
185.927	504
185.996	25
186.066	622
186.136	1229
186.205	962
186.275	678
186.344	285
186.414	102
186.483	295
186.553	1722
186.622	3072
186.692	1125
186.761	646
186.831	303
186.900	256
186.970	353
187.039	1440
187.109	1914
187.178	1027
187.248	643
187.317	1150
187.387	374
187.456	1415
187.526	1626
187.595	1252
187.664	-266
187.734	1110
187.803	685
187.873	1109
187.942	1609
188.012	866
188.081	1130
188.150	1059
188.220	2855
188.289	1631
188.358	1466
188.428	800
188.497	80
188.567	394
188.636	135
188.705	509
188.775	774
188.844	833
188.913	786
188.983	865
189.052	1003
189.121	323
189.191	652
189.260	1615
189.329	2122
189.399	1666
189.468	1112
189.537	574
189.606	982
189.676	449
189.745	1178
189.814	488
189.883	1170
189.953	816
190.022	2530
190.091	10249
190.161	9528
190.230	2374
190.299	1439
190.368	1033
190.437	1098
190.507	1168
190.576	309
190.645	316
190.714	544
190.783	595
190.853	1222
190.922	957
190.991	524
191.060	1257
191.129	625
191.198	936
191.268	1339
191.337	885
191.406	1264
191.475	1531
191.544	473
191.613	1054
191.682	1091
191.752	277
191.821	989
191.890	836
191.959	917
192.028	744
192.097	1267
192.166	1469
192.235	695
192.304	1119
192.373	1209
192.442	858
192.511	1084
192.580	430
192.650	1333
192.719	1279
192.788	1473
192.857	1211
192.926	1887
192.995	2139
193.064	3447
193.133	4693
193.202	5419
193.271	4033
193.340	3248
193.409	3726
193.478	3313
193.547	5974
193.615	8296
193.684	5405
193.753	3998
193.822	2813
193.891	1723
193.960	2410
194.029	1826
194.098	1130
194.167	2052
194.236	1740
194.305	1220
194.374	1439
194.443	1257
194.512	1659
194.580	1883
194.649	1809
194.718	1341
194.787	1549
194.856	1476
194.925	2090
194.994	931
195.062	1321
195.131	1875
195.200	1353
195.269	2291
195.338	1400
195.407	1545
195.475	2013
195.544	1338
195.613	1522
195.682	1557
195.751	1607
195.819	737
195.888	1612
195.957	1972
196.026	1604
196.094	1391
196.163	893
196.232	1283
196.301	603
196.369	1324
196.438	1758
196.507	1801
196.576	1690
196.644	1462
196.713	1373
196.782	1755
196.850	1888
196.919	1567
196.988	1831
197.056	1169
197.125	1258
197.194	2003
197.262	2050
197.331	2446
197.400	1400
197.468	1208
197.537	2134
197.606	2566
197.674	5628
197.743	10290
197.812	4113
197.880	12348
197.949	5048
198.017	10273
198.086	4927
198.155	3027
198.223	4589
198.292	13220
198.360	4973
198.429	3481
198.497	3181
198.566	8902
198.635	9992
198.703	4167
198.772	4226
198.840	16927
198.909	11402
198.977	5923
199.046	6071
199.114	3681
199.183	3707
199.251	2459
199.320	2192
199.388	1633
199.457	2251
199.525	2169
199.594	1772
199.662	1846
199.731	1483
199.799	2388
199.867	2433
199.936	2827
200.004	2464
200.073	2156
200.141	1704
200.210	1595
200.278	1879
200.346	1598
200.415	2492
200.483	2206
200.552	2063
200.620	1496
200.688	1941
200.757	1629
200.825	2218
200.893	1773
200.962	2183
201.030	1526
201.098	1422
201.167	2530
201.235	2047
201.303	2305
201.372	2716
201.440	1843
201.508	3125
201.577	2180
201.645	2510
201.713	1820
201.781	2250
201.850	1531
201.918	1640
201.986	1910
202.055	2788
202.123	1989
202.191	2256
202.259	2119
202.327	2559
202.396	2635
202.464	2131
202.532	2191
202.600	4274
202.669	2040
202.737	2168
202.805	2046
202.873	1921
202.941	2427
203.009	2177
203.078	2053
203.146	2786
203.214	2436
203.282	2565
203.350	2924
203.418	2447
203.487	2349
203.555	2774
203.623	2548
203.691	2945
203.759	2208
203.827	2061
203.895	2494
203.963	2217
204.031	3091
204.099	2978
204.168	2146
204.236	2932
204.304	2753
204.372	3124
204.440	2604
204.508	3288
204.576	3347
204.644	3632
204.712	2332
204.780	3297
204.848	3141
204.916	2472
204.984	2675
205.052	2105
205.120	3286
205.188	3421
205.256	2193
205.324	3534
205.392	2918
205.460	3752
205.528	4507
205.596	3433
205.664	4054
205.732	3856
205.799	18344
205.867	17693
205.935	5001
206.003	4352
206.071	3780
206.139	4019
206.207	3531
206.275	3257
206.343	3108
206.411	3243
206.478	3053
206.546	3993
206.614	4003
206.682	3425
206.750	3295
206.818	5845
206.885	4620
206.953	2700
207.021	3720
207.089	3400
207.157	3599
207.225	4456
207.292	3646
207.360	4348
207.428	3608
207.496	3221
207.563	4008
207.631	3519
207.699	2836
207.767	3176
207.834	3132
207.902	3411
207.970	3027
208.038	2424
208.105	3199
208.173	4383
208.241	4979
208.309	5625
208.376	3218
208.444	7250
208.512	4602
208.579	3603
208.647	5850
208.715	4217
208.782	4137
208.850	3730
208.918	3651
208.985	3952
209.053	3761
209.120	4230
209.188	3058
209.256	3389
209.323	2616
209.391	3764
209.459	4024
209.526	3893
209.594	3811
209.661	4019
209.729	3908
209.796	3697
209.864	3758
209.932	3482
209.999	3782
210.067	3640
210.134	3889
210.202	4424
210.269	4309
210.337	8161
210.404	5213
210.472	4382
210.539	3608
210.607	3726
210.674	4219
210.742	3913
210.809	3275
210.877	5341
210.944	4534
211.012	4248
211.079	4738
211.146	4078
211.214	5798
211.281	10837
211.349	7156
211.416	5179
211.484	4734
211.551	4649
211.618	4584
211.686	4367
211.753	4312
211.821	4793
211.888	4928
211.955	5094
212.023	4924
212.090	5508
212.157	5918
212.225	6514
212.292	13048
212.359	30619
212.427	77086
212.494	21550
212.561	9556
212.629	6633
212.696	5205
212.763	6126
212.831	5609
212.898	5494
212.965	4724
213.032	5210
213.100	5572
213.167	5794
213.234	5560
213.301	4996
213.369	4554
213.436	5211
213.503	5076
213.570	4951
213.638	4895
213.705	3631
213.772	3751
213.839	4456
213.906	4159
213.973	3809
214.041	3892
214.108	3664
214.175	4396
214.242	3845
214.309	3641
214.376	4882
214.444	4443
214.511	5952
214.578	5417
214.645	5537
214.712	5289
214.779	4783
214.846	5225
214.913	7106
214.980	7237
215.048	8606
215.115	6911
215.182	5470
215.249	5169
215.316	4300
215.383	4233
215.450	3943
215.517	3799
215.584	2934
215.651	2808
215.718	3356
215.785	3430
215.852	3175
215.919	3585
215.986	3190
216.053	3260
216.120	3083
216.187	2730
216.254	3107
216.321	3357
216.388	3708
216.455	3795
216.522	4590
216.589	4962
216.656	7528
216.722	7090
216.789	9430
216.856	10418
216.923	8307
216.990	6448
217.057	6330
217.124	5920
217.191	7770
217.258	9411
217.324	14916
217.391	17260
217.458	11399
217.525	7414
217.592	5647
217.659	4471
217.725	5578
217.792	6245
217.859	5445
217.926	3531
217.993	3312
218.059	4089
218.126	3804
218.193	2805
218.260	2341
218.327	2423
218.393	2764
218.460	2777
218.527	3061
218.594	3494
218.660	4217
218.727	4280
218.794	3621
218.860	2431
218.927	2451
218.994	2327
219.061	2262
219.127	2939
219.194	4305
219.261	2457
219.327	2349
219.394	2198
219.461	1808
219.527	2703
219.594	3502
219.661	3158
219.727	2879
219.794	4328
219.860	3456
219.927	3775
219.994	4549
220.060	6717
220.127	5895
220.193	3662
220.260	5662
220.326	10181
220.393	20052
220.460	26707
220.526	14518
220.593	8131
220.659	8663
220.726	12284
220.792	36743
220.859	25492
220.925	34576
220.992	48893
221.058	48987
221.125	42633
221.191	33675
221.258	10381
221.324	7205
221.391	5705
221.457	5270
221.524	5470
221.590	10007
221.657	45020
221.723	19784
221.789	30677
221.856	17673
221.922	7530
221.989	5616
222.055	3884
222.121	3641
222.188	4411
222.254	4031
222.321	3624
222.387	2395
222.453	2379
222.520	3052
222.586	2658
222.652	3121
222.719	1903
222.785	2133
222.851	2497
222.918	3410
222.984	2480
223.050	1873
223.116	2345
223.183	2729
223.249	2655
223.315	2266
223.382	1573
223.448	1782
223.514	1730
223.580	1488
223.647	1608
223.713	1756
223.779	1924
223.845	2153
223.911	1717
223.978	1059
224.044	1672
224.110	1771
224.176	2324
224.242	2524
224.309	1149
224.375	2610
224.441	2058
224.507	1407
224.573	1566
224.639	1612
224.705	1497
224.772	3224
224.838	2045
224.904	2014
224.970	1731
225.036	1722
225.102	2451
225.168	2427
225.234	2247
225.300	2628
225.366	2232
225.432	2170
225.499	2214
225.565	2321
225.631	2410
225.697	3059
225.763	4191
225.829	5181
225.895	4587
225.961	6983
226.027	5597
226.093	6521
226.159	7491
226.225	14391
226.291	44572
226.357	63404
226.423	22702
226.489	11934
226.554	8106
226.620	8495
226.686	9522
226.752	14366
226.818	34030
226.884	97876
226.950	63369
227.016	20346
227.082	11111
227.148	6904
227.214	6133
227.279	4562
227.345	4267
227.411	3869
227.477	4599
227.543	10157
227.609	6301
227.674	3655
227.740	3490
227.806	3436
227.872	2944
227.938	2955
228.003	3169
228.069	2832
228.135	2467
228.201	2361
228.267	2246
228.332	1879
228.398	2786
228.464	2725
228.530	1512
228.595	2118
228.661	2238
228.727	2248
228.792	2566
228.858	1741
228.924	1276
228.990	3593
229.055	2393
229.121	3797
229.187	1440
229.252	1650
229.318	1326
229.384	1780
229.449	1490
229.515	1117
229.581	1059
229.646	2369
229.712	1901
229.777	4035
229.843	3482
229.909	3384
229.974	2634
230.040	3231
230.105	2794
230.171	3233
230.236	7423
230.302	11764
230.368	5601
230.433	4328
230.499	2917
230.564	2468
230.630	2268
230.695	2522
230.761	2190
230.826	1823
230.892	3459
230.957	1962
231.023	2220
231.088	2168
231.154	1857
231.219	3215
231.284	3438
231.350	3186
231.415	2674
231.481	3102
231.546	1933
231.612	2282
231.677	1679
231.742	1851
231.808	2167
231.873	2178
231.939	1770
232.004	2956
232.069	2797
232.135	3818
232.200	2931
232.265	2372
232.331	1686
232.396	1987
232.461	1136
232.527	1260
232.592	1720
232.657	1736
232.723	4187
232.788	3110
232.853	1376
232.918	2477
232.984	1660
233.049	1919
233.114	4122
233.179	3711
233.245	8308
233.310	6766
233.375	2280
233.440	2578
233.506	3270
233.571	2649
233.636	2006
233.701	2614
233.766	5017
233.832	4663
233.897	1589
233.962	1579
234.027	2878
234.092	2461
234.157	2006
234.222	3505
234.288	8027
234.353	23555
234.418	13291
234.483	5950
234.548	3474
234.613	2490
234.678	3020
234.743	5051
234.808	19296
234.873	8101
234.938	3963
235.004	2808
235.069	2875
235.134	3259
235.199	3293
235.264	2734
235.329	2454
235.394	3691
235.459	4728
235.524	2197
235.589	3018
235.654	2928
235.719	2745
235.784	2968
235.849	3973
235.913	8498
235.978	9786
236.043	8758
236.108	4469
236.173	4402
236.238	5039
236.303	4394
236.368	4525
236.433	8873
236.498	13015
236.563	10967
236.627	30406
236.692	120880
236.757	65278
236.822	24225
236.887	16959
236.952	14606
237.017	12998
237.081	12651
237.146	20149
237.211	47771
237.276	134334
237.341	166988
237.405	52521
237.470	20124
237.535	13084
237.600	8811
237.664	7972
237.729	6106
237.794	14638
237.859	22823
237.923	11436
237.988	6079
238.053	9606
238.118	10030
238.182	48414
238.247	26574
238.312	10426
238.376	6657
238.441	5028
238.506	5121
238.570	3628
238.635	4774
238.700	3374
238.764	2828
238.829	13857
238.893	12145
238.958	4345
239.023	3253
239.087	2849
239.152	3353
239.216	2896
239.281	3274
239.346	2813
239.410	3692
239.475	5520
239.539	39511
239.604	21224
239.668	6085
239.733	3255
239.797	7002
239.862	16929
239.926	21000
239.991	6432
240.055	3919
240.120	2940
240.184	2457
240.249	2954
240.313	3146
240.378	3352
240.442	19577
240.507	25759
240.571	6851
240.635	12248
240.700	10668
240.764	3307
240.829	2275
240.893	1649
240.957	3667
241.022	18197
241.086	21734
241.151	6727
241.215	2753
241.279	6769
241.344	9276
241.408	4581
241.472	2859
241.537	4583
241.601	2852
241.665	2002
241.730	2297
241.794	3466
241.858	2206
241.922	2302
241.987	2744
242.051	2870
242.115	1854
242.179	2089
242.244	2350
242.308	2696
242.372	4147
242.436	4215
242.501	2826
242.565	2831
242.629	2777
242.693	2664
242.757	3058
242.822	3631
242.886	3953
242.950	3858
243.014	3328
243.078	3386
243.142	3339
243.206	3919
243.271	5887
243.335	6404
243.399	12361
243.463	85175
243.527	162111
243.591	32756
243.655	11513
243.719	6061
243.783	6825
243.847	15216
243.911	14913
243.975	7739
244.040	3461
244.104	4361
244.168	3630
244.232	3429
244.296	9388
244.360	11621
244.424	4904
244.488	4034
244.552	4888
244.615	2372
244.679	2886
244.743	2908
244.807	1651
244.871	2353
244.935	2642
244.999	1470
245.063	2449
245.127	3573
245.191	11220
245.255	6398
245.319	3059
245.383	2077
245.446	3800
245.510	1529
245.574	2444
245.638	2807
245.702	1768
245.766	3738
245.829	3954
245.893	3473
245.957	3376
246.021	3573
246.085	3585
246.149	4099
246.212	8392
246.276	11558
246.340	4347
246.404	3586
246.467	4081
246.531	4070
246.595	5613
246.659	4434
246.722	2593
246.786	2972
246.850	3869
246.913	3515
246.977	2276
247.041	3482
247.104	3916
247.168	2777
247.232	8940
247.295	18240
247.359	6361
247.423	3526
247.486	4853
247.550	3516
247.614	2596
247.677	3060
247.741	2761
247.804	2929
247.868	4372
247.932	9032
247.995	16452
248.059	5328
248.122	3284
248.186	5056
248.249	9068
248.313	39307
248.376	24113
248.440	15528
248.503	4800
248.567	5686
248.630	6475
248.694	6881
248.757	15973
248.821	37617
248.884	14570
248.948	18930
249.011	24919
249.075	46270
249.138	28762
249.202	9346
249.265	8031
249.328	14426
249.392	7036
249.455	4913
249.519	5227
249.582	5075
249.645	7671
249.709	6152
249.772	6506
249.835	6533
249.899	7808
249.962	6818
250.025	5872
250.089	15372
250.152	13364
250.215	8135
250.279	7374
250.342	9120
250.405	9545
250.468	9427
250.532	14551
250.595	27632
250.658	203518
250.721	208135
250.785	44997
250.848	22473
250.911	13666
250.974	12452
251.038	18233
251.101	25184
251.164	16024
251.227	16273
251.290	19997
251.354	45491
251.417	266178
251.480	153429
251.543	134931
251.606	468736
251.669	202607
251.732	62375
251.795	50583
251.859	83180
251.922	260694
251.985	84262
252.048	30822
252.111	20339
252.174	18360
252.237	31848
252.300	55902
252.363	137420
252.426	280515
252.489	69027
252.552	32645
252.615	22397
252.678	24802
252.741	50184
252.804	148290
252.867	297679
252.930	84809
252.993	32357
253.056	19803
253.119	15047
253.182	18116
253.245	39894
253.308	18270
253.371	13878
253.434	10797
253.497	10422
253.559	16267
253.622	9907
253.685	12470
253.748	7733
253.811	6622
253.874	12772
253.937	8566
254.000	6569
254.062	12628
254.125	14132
254.188	10504
254.251	6378
254.314	5860
254.376	8110
254.439	7185
254.502	6695
254.565	12370
254.628	14924
254.690	7308
254.753	4647
254.816	4944
254.878	5757
254.941	13832
255.004	10361
255.067	5395
255.129	3743
255.192	2978
255.255	2071
255.317	2966
255.380	2552
255.443	2601
255.505	2575
255.568	1668
255.631	2099
255.693	2845
255.756	2251
255.819	3692
255.881	2058
255.944	2297
256.006	3534
256.069	2662
256.132	3008
256.194	6417
256.257	17628
256.319	11378
256.382	8480
256.444	5731
256.507	4942
256.569	4444
256.632	7001
256.694	13228
256.757	69861
256.819	143925
256.882	37642
256.944	13787
257.007	9003
257.069	7675
257.132	7056
257.194	6246
257.257	5988
257.319	7361
257.381	11201
257.444	43251
257.506	223436
257.569	131614
257.631	40009
257.693	17731
257.756	11856
257.818	9604
257.880	6339
257.943	6079
258.005	4281
258.067	3609
258.130	3938
258.192	5137
258.254	8569
258.317	4725
258.379	4565
258.441	8054
258.503	7148
258.566	30442
258.628	24224
258.690	5542
258.753	5240
258.815	4698
258.877	3576
258.939	3216
259.001	3579
259.064	3180
259.126	4743
259.188	5936
259.250	5263
259.312	6244
259.375	11748
259.437	4885
259.499	3708
259.561	3267
259.623	4049
259.685	3190
259.747	5179
259.809	31776
259.872	43262
259.934	101940
259.996	41961
260.058	10259
260.120	5217
260.182	3903
260.244	3711
260.306	3059
260.368	4052
260.430	2749
260.492	4126
260.554	9844
260.616	7522
260.678	26386
260.740	30327
260.802	6817
260.864	4817
260.926	2588
260.988	3545
261.050	4301
261.112	7627
261.174	48378
261.236	26253
261.298	7590
261.359	20316
261.421	18272
261.483	4004
261.545	4675
261.607	2353
261.669	3427
261.731	11278
261.793	16727
261.854	3756
261.916	3705
261.978	2388
262.040	4257
262.102	3644
262.164	8172
262.225	4570
262.287	3556
262.349	4573
262.411	3977
262.472	3692
262.534	14368
262.596	18825
262.658	5870
262.719	3099
262.781	8748
262.843	21853
262.904	8898
262.966	8198
263.028	14402
263.090	115318
263.151	196287
263.213	37984
263.275	14270
263.336	8064
263.398	5232
263.459	4414
263.521	4137
263.583	5308
263.644	3443
263.706	3398
263.767	2108
263.829	2695
263.891	2292
263.952	2089
264.014	2089
264.075	2484
264.137	3180
264.198	2556
264.260	1422
264.321	1983
264.383	3250
264.444	4871
264.506	2620
264.567	1613
264.629	4007
264.690	2248
264.752	2993
264.813	2045
264.875	2046
264.936	2851
264.998	2476
265.059	3258
265.120	5409
265.182	13507
265.243	89503
265.305	46570
265.366	11453
265.427	6653
265.489	4180
265.550	2910
265.611	3381
265.673	2940
265.734	2977
265.795	3452
265.857	4820
265.918	6228
265.979	27255
266.040	151715
266.102	63397
266.163	16369
266.224	8521
266.286	5425
266.347	3586
266.408	3595
266.469	4425
266.530	2850
266.592	2206
266.653	4342
266.714	4035
266.775	1977
266.836	1925
266.898	2496
266.959	2333
267.020	2173
267.081	3432
267.142	2204
267.203	1459
267.264	770
267.326	2524
267.387	1012
267.448	1000
267.509	1477
267.570	1493
267.631	1131
267.692	952
267.753	2231
267.814	1021
267.875	3463
267.936	3176
267.997	2304
268.058	1844
268.119	1760
268.180	1546
268.241	636
268.302	1995
268.363	441
268.424	1563
268.485	2442
268.546	917
268.607	919
268.668	951
268.729	1320
268.790	1275
268.851	1438
268.912	2844
268.972	2486
269.033	1080
269.094	811
269.155	2073
269.216	1870
269.277	2324
269.338	1548
269.398	1866
269.459	1105
269.520	2571
269.581	1981
269.642	2264
269.702	612
269.763	1682
269.824	780
269.885	1531
269.945	1565
270.006	1734
270.067	1704
270.128	1567
270.188	728
270.249	713
270.310	922
270.370	2259
270.431	2386
270.492	1484
270.553	1169
270.613	2804
270.674	3846
270.734	891
270.795	1614
270.856	2016
270.916	792
270.977	1440
271.038	2194
271.098	1666
271.159	1943
271.219	2096
271.280	1754
271.340	1893
271.401	3882
271.462	8783
271.522	3071
271.583	2656
271.643	2276
271.704	1786
271.764	2056
271.825	4873
271.885	36015
271.946	33283
272.006	7937
272.066	21973
272.127	25827
272.187	6755
272.248	3762
272.308	5613
272.369	15829
272.429	5989
272.489	5006
272.550	2869
272.610	3357
272.671	1783
272.731	7267
272.791	8310
272.852	2051
272.912	2495
272.972	1634
273.033	1520
273.093	4033
273.153	1882
273.214	2308
273.274	2700
273.334	10739
273.394	12099
273.455	4359
273.515	5173
273.575	8680
273.635	4065
273.696	13971
273.756	19214
273.816	5632
273.876	5519
273.936	29941
273.997	31188
274.057	6609
274.117	4212
274.177	6143
274.237	25987
274.297	21989
274.358	18920
274.418	13301
274.478	6573
274.538	3855
274.598	7480
274.658	36462
274.718	34174
274.778	9358
274.838	6035
274.898	24608
274.958	52289
275.018	29761
275.078	11881
275.138	5268
275.198	2793
275.258	2814
275.318	5117
275.378	4483
275.438	4092
275.498	5096
275.558	37547
275.618	40476
275.678	10200
275.738	6061
275.798	3935
275.858	2028
275.918	2132
275.978	2618
276.038	2284
276.098	1715
276.157	3764
276.217	6653
276.277	2520
276.337	1633
276.397	1850
276.457	1856
276.517	1635
276.576	1866
276.636	1304
276.696	2145
276.756	7613
276.815	3274
276.875	3155
276.935	2493
276.995	1187
277.055	2307
277.114	1598
277.174	2633
277.234	4898
277.293	2012
277.353	1511
277.413	1338
277.472	2553
277.532	1748
277.592	2196
277.651	4640
277.711	5218
277.771	1639
277.830	7721
277.890	5273
277.950	8797
278.009	16719
278.069	5320
278.128	5479
278.188	4609
278.248	3167
278.307	6510
278.367	5003
278.426	3220
278.486	2153
278.545	2928
278.605	2257
278.664	1959
278.724	2335
278.783	11044
278.843	17324
278.902	4327
278.962	3214
279.021	4793
279.081	9112
279.140	5820
279.199	4152
279.259	5033
279.318	6797
279.378	8948
279.437	17195
279.496	68927
279.556	369426
279.615	164372
279.675	36635
279.734	21526
279.793	26586
279.853	26490
279.912	10502
279.971	8183
280.031	6920
280.090	13220
280.149	14900
280.208	33177
280.268	257683
280.327	150678
280.386	29864
280.445	17201
280.505	10188
280.564	7148
280.623	5976
280.682	6117
280.742	5971
280.801	2909
280.860	3223
280.919	2356
280.978	2095
281.037	2649
281.097	1811
281.156	3374
281.215	2143
281.274	2610
281.333	9347
281.392	4677
281.451	2684
281.510	2076
281.569	3082
281.628	7203
281.688	4542
281.747	3439
281.806	2437
281.865	1827
281.924	2100
281.983	1160
282.042	1394
282.101	1216
282.160	1611
282.219	1716
282.278	1461
282.337	3549
282.396	1740
282.454	1874
282.513	1337
282.572	5120
282.631	1778
282.690	1263
282.749	1011
282.808	1422
282.867	1280
282.926	1494
282.985	1005
283.043	596
283.102	1401
283.161	2132
283.220	4698
283.279	5906
283.338	1688
283.396	1113
283.455	1752
283.514	1157
283.573	1448
283.631	1713
283.690	2199
283.749	1060
283.808	2469
283.866	2947
283.925	1211
283.984	1305
284.043	2584
284.101	2717
284.160	1338
284.219	2430
284.277	1162
284.336	2393
284.395	7302
284.453	4192
284.512	2391
284.570	2580
284.629	1817
284.688	2444
284.746	1703
284.805	2442
284.863	2708
284.922	3482
284.981	2659
285.039	4793
285.098	8821
285.156	33461
285.215	165978
285.273	88873
285.332	23612
285.390	12445
285.449	6470
285.507	4893
285.566	4808
285.624	2872
285.683	3103
285.741	2549
285.799	2225
285.858	2921
285.916	1526
285.975	2070
286.033	1290
286.091	2326
286.150	1191
286.208	1332
286.267	1560
286.325	2522
286.383	3016
286.442	2075
286.500	914
286.558	2007
286.616	1772
286.675	1736
286.733	2068
286.791	1840
286.850	2456
286.908	1873
286.966	2627
287.024	1862
287.083	1822
287.141	1667
287.199	1950
287.257	3394
287.315	2564
287.374	3365
287.432	4160
287.490	3297
287.548	3399
287.606	2830
287.664	4715
287.723	4838
287.781	6405
287.839	8336
287.897	9134
287.955	15273
288.013	25894
288.071	63691
288.129	380813
288.187	722702
288.245	206478
288.303	75257
288.361	42372
288.419	26507
288.477	17793
288.535	13187
288.593	9414
288.651	8106
288.709	6151
288.767	4970
288.825	3415
288.883	4233
288.941	3915
288.999	3010
289.057	2702
289.115	2848
289.173	2815
289.231	1989
289.289	2395
289.346	2186
289.404	2579
289.462	2981
289.520	2364
289.578	1655
289.636	1927
289.694	1612
289.751	1685
289.809	1188
289.867	1302
289.925	2016
289.983	1479
290.040	1633
290.098	968
290.156	1591
290.214	1158
290.271	1130
290.329	1708
290.387	1268
290.444	570
290.502	1038
290.560	940
290.617	912
290.675	701
290.733	741
290.790	999
290.848	1535
290.906	1129
290.963	997
291.021	1655
291.078	114
291.136	525
291.194	2604
291.251	4098
291.309	1696
291.366	495
291.424	1383
291.481	534
291.539	913
291.596	1592
291.654	-297
291.711	1035
291.769	1941
291.826	1611
291.884	897
291.941	248
291.999	502
292.056	516
292.114	155
292.171	611
292.228	1305
292.286	837
292.343	1236
292.401	871
292.458	884
292.515	1117
292.573	932
292.630	1156
292.687	1962
292.745	927
292.802	1795
292.859	3882
292.917	6144
292.974	2265
293.031	1964
293.089	747
293.146	353
293.203	382
293.260	880
293.318	1938
293.375	528
293.432	184
293.489	440
293.546	923
293.604	3288
293.661	10889
293.718	17900
293.775	6146
293.832	2684
293.889	2761
293.947	3338
294.004	1506
294.061	1340
294.118	2213
294.175	4238
294.232	3475
294.289	975
294.346	1594
294.403	1969
294.460	1447
294.517	1330
294.574	560
294.631	1667
294.688	2163
294.745	6575
294.802	19328
294.859	10953
294.916	5164
294.973	3436
295.030	1745
295.087	1098
295.144	872
295.201	1453
295.258	1733
295.315	2190
295.372	9556
295.429	11023
295.486	3762
295.542	2411
295.599	4127
295.656	4355
295.713	5847
295.770	7429
295.827	3228
295.883	2249
295.940	1712
295.997	2424
296.054	1752
296.111	665
296.167	60
296.224	1421
296.281	903
296.338	1441
296.394	669
296.451	2169
296.508	5236
296.564	6233
296.621	7012
296.678	29383
296.734	25501
296.791	7216
296.848	4577
296.904	3252
296.961	6127
297.018	12069
297.074	7016
297.131	2937
297.187	3194
297.244	5093
297.301	24532
297.357	27630
297.414	7689
297.470	4540
297.527	2661
297.583	2342
297.640	1769
297.696	919
297.753	1542
297.809	1161
297.866	842
297.922	1018
297.979	1003
298.035	715
298.092	1827
298.148	6106
298.204	4792
298.261	3331
298.317	11739
298.374	26897
298.430	11380
298.486	6456
298.543	4888
298.599	4425
298.656	4679
298.712	15981
298.768	53030
298.824	28094
298.881	8566
298.937	4569
298.993	3785
299.050	1933
299.106	2038
299.162	1603
299.218	2203
299.275	2224
299.331	2708
299.387	7472
299.443	27274
299.500	21091
299.556	8286
299.612	4226
299.668	3536
299.724	7954
299.780	6430
299.837	3660
299.893	4478
299.949	13892
300.005	12316
300.061	18524
300.117	28500
300.173	10644
300.229	4730
300.285	5060
300.341	3342
300.397	2119
300.453	1361
300.510	1809
300.566	1992
300.622	5220
300.678	20169
300.734	18744
300.790	14491
300.845	15693
300.901	11494
300.957	13101
301.013	6099
301.069	2681
301.125	1809
301.181	1505
301.237	1513
301.293	1313
301.349	1275
301.405	1043
301.461	787
301.516	1839
301.572	1537
301.628	1804
301.684	1780
301.740	3194
301.796	4332
301.851	4860
301.907	6611
301.963	9303
302.019	33762
302.074	86145
302.130	63145
302.186	22899
302.242	10289
302.297	6290
302.353	5445
302.409	7005
302.464	4839
302.520	6221
302.576	15409
302.631	12477
302.687	5765
302.743	2557
302.798	1965
302.854	1882
302.910	2320
302.965	2396
303.021	3135
303.076	3341
303.132	3538
303.187	3474
303.243	2283
303.299	1771
303.354	1331
303.410	1634
303.465	1413
303.521	1734
303.576	1889
303.632	2895
303.687	8130
303.743	19701
303.798	11441
303.853	4715
303.909	2971
303.964	1955
304.020	2241
304.075	2308
304.130	2786
304.186	3876
304.241	3938
304.297	3742
304.352	2099
304.358	2061
304.407	1747
304.449	2424
304.463	2656
304.518	1201
304.539	1331
304.573	1543
304.629	2907
304.630	2964
304.684	5728
304.720	14918
304.739	19475
304.794	19072
304.811	16047
304.850	8939
304.902	4743
304.905	4487
304.960	4660
304.992	6658
305.015	7957
305.071	5555
305.083	4995
305.126	3101
305.173	2200
305.181	2073
305.236	2010
305.264	2016
305.292	1948
305.347	2039
305.354	2274
305.402	4127
305.445	7090
305.457	7808
305.512	6793
305.535	5786
305.567	4603
305.622	5499
305.626	5928
305.678	14253
305.716	23976
305.733	27111
305.788	17826
305.807	15463
305.843	12586
305.897	21935
305.898	22041
305.953	17357
305.988	11610
306.008	8542
306.063	4636
306.078	4203
306.118	3602
306.168	2443
306.173	2335
306.228	2481
306.259	2361
306.283	2391
306.338	3120
306.349	3653
306.393	5945
306.440	7685
306.448	7838
306.503	5867
306.530	5849
306.558	6766
306.613	12941
306.620	13100
306.668	12639
306.711	11993
306.723	11568
306.778	7493
306.801	5811
306.833	4309
306.888	3323
306.892	3270
306.943	2704
306.982	2669
306.997	2716
307.052	2945
307.072	2943
307.107	2988
307.162	3988
307.163	4000
307.217	5569
307.253	6556
307.272	6679
307.327	6595
307.343	5894
307.381	4853
307.434	5054
307.436	5119
307.491	8964
307.524	11315
307.546	11884
307.600	9454
307.614	8550
307.655	6446
307.704	6114
307.710	6245
307.765	7588
307.795	9928
307.819	11868
307.874	16361
307.885	16470
307.929	16656
307.975	18551
307.984	20583
308.038	37104
308.065	50004
308.093	103286
308.148	249229
308.156	280424
308.202	398134
308.246	402922
308.257	376862
308.312	163615
308.336	90727
308.366	60709
308.421	32967
308.426	30930
308.475	21572
308.517	17066
308.530	15837
308.585	12888
308.607	12121
308.639	11729
308.694	11917
308.697	12013
308.748	16079
308.787	21194
308.803	21772
308.857	17420
308.877	16281
308.912	16763
308.967	19688
308.967	19746
309.021	29354
309.058	37555
309.076	54034
309.130	111084
309.148	137813
309.185	316795
309.238	643642
309.239	644325
309.293	581856
309.328	445930
309.348	357517
309.402	138812
309.418	87313
309.457	57892
309.508	32166
309.511	31241
309.566	22035
309.598	18199
309.620	16623
309.674	14626
309.688	14234
309.729	12432
309.778	9646
309.783	9425
309.837	7764
309.868	7221
309.892	8023
309.946	10486
309.959	11260
310.001	11801
310.049	11290
310.055	10957
310.109	7184
310.139	5402
310.163	4660
310.218	3563
310.229	3380
310.272	3474
310.319	3610
310.326	3573
310.381	3341
310.409	3149
310.435	3185
310.489	3341
310.499	3407
310.543	3536
310.589	3581
310.598	3528
310.652	3329
310.679	3005
310.706	2622
310.760	2211
310.769	2135
310.814	2284
310.859	2518
310.868	2506
310.923	2347
310.948	2253
310.977	2418
311.031	2807
311.038	2881
311.085	2744
311.128	2269
311.139	2329
311.193	2897
311.218	3184
311.247	2852
311.301	2084
311.308	1977
311.356	1934
311.398	2014
311.410	2054
311.464	2220
311.488	2260
311.518	2193
311.572	2103
311.578	2091
311.626	1999
311.668	1915
311.680	2046
311.734	2600
311.758	2852
311.788	2703
311.842	2410
311.847	2375
311.896	2841
311.937	3284
311.950	3230
312.004	2935
312.027	2805
312.058	2540
312.112	2079
312.117	2034
312.165	2588
312.207	3067
312.297	2695
312.386	2178
312.476	2400
312.566	3437
312.656	2876
312.745	2351
312.835	2252
312.925	2247
313.015	3569
313.104	3083
313.194	2850
313.284	2417
313.374	3101
313.463	2715
313.553	2975
313.643	2523
313.732	2752
313.822	2366
313.912	3347
314.001	3068
314.091	3405
314.180	3072
314.270	3593
314.360	3616
314.449	3219
314.539	2847
314.628	3260
314.718	3214
314.808	3823
314.897	3420
314.987	4586
315.076	4328
315.166	5371
315.255	4343
315.345	5028
315.434	5384
315.524	5720
315.613	8487
315.703	17307
315.792	79322
315.881	301766
315.971	68667
316.060	11653
316.150	8464
316.239	7539
316.328	3886
316.418	3827
316.507	3635
316.597	4124
316.686	3508
316.775	5632
316.865	6731
316.954	3946
317.043	4066
317.133	4159
317.222	3956
317.311	5116
317.400	4018
317.490	7025
317.579	8344
317.668	13305
317.757	30617
317.847	163983
317.936	513413
318.025	105413
318.114	80921
318.203	25430
318.293	7076
318.382	6099
318.471	5455
318.560	5920
318.649	7892
318.738	3353
318.828	2300
318.917	2888
319.006	3713
319.095	8316
319.184	10425
319.273	5432
319.362	3154
319.451	2633
319.540	2507
319.629	4103
319.718	3797
319.807	2875
319.896	5811
319.985	13384
320.074	4739
320.163	2733
320.252	3830
320.341	2614
320.430	2384
320.519	3272
320.608	1960
320.697	2574
320.786	2419
320.875	3146
320.964	3757
321.053	4892
321.142	5760
321.230	5539
321.319	6325
321.408	9144
321.497	6108
321.586	5167
321.675	5573
321.764	4714
321.852	4085
321.941	5417
322.030	3935
322.119	4912
322.207	8753
322.296	8749
322.385	6234
322.474	8700
322.562	12813
322.651	6750
322.740	5330
322.829	7874
322.917	7530
323.006	3595
323.095	3889
323.183	4142
323.272	3968
323.361	10794
323.449	29132
323.538	9046
323.626	19376
323.715	9088
323.804	5093
323.892	16286
323.981	5842
324.069	3807
324.158	11495
324.246	6692
324.335	2597
324.424	3855
324.512	1673
324.601	3416
324.689	12733
324.778	17223
324.866	6315
324.954	2615
325.043	1812
325.131	3892
325.220	6874
325.308	7217
325.397	5349
325.485	2950
325.574	1159
325.662	1162
325.750	1552
325.839	1694
325.927	1085
326.015	1590
326.104	3454
326.192	4366
326.280	1807
326.369	1170
326.457	1880
326.545	3591
326.634	1455
326.722	948
326.810	1378
326.898	2036
326.987	1556
327.075	2367
327.163	4134
327.251	2989
327.340	8456
327.428	8788
327.516	2065
327.604	2441
327.692	2197
327.781	2593
327.869	3334
327.957	2004
328.045	1957
328.133	1873
328.221	1892
328.309	1582
328.397	1423
328.485	2068
328.574	3574
328.662	5948
328.750	4102
328.838	2055
328.926	1097
329.014	1673
329.102	1713
329.190	2905
329.278	940
329.366	980
329.454	1135
329.542	859
329.630	78
329.718	1056
329.806	1160
329.893	1295
329.981	1179
330.069	2963
330.157	20651
330.245	49565
330.333	16627
330.421	2512
330.509	2563
330.597	5809
330.684	2623
330.772	1877
330.860	2096
330.948	2153
331.036	1185
331.123	1530
331.211	1280
331.299	1429
331.387	2117
331.475	2769
331.562	1611
331.650	885
331.738	1084
331.825	1329
331.913	956
332.001	1571
332.089	1037
332.176	2886
332.264	7391
332.352	5019
332.439	779
332.527	1660
332.614	348
332.702	1920
332.790	1536
332.877	3906
332.965	5909
333.052	1110
333.140	890
333.228	2830
333.315	600
333.403	1717
333.490	4325
333.578	2766
333.665	2318
333.753	1638
333.840	924
333.928	2921
334.015	5027
334.103	9076
334.190	19147
334.278	5978
334.365	5872
334.452	6163
334.540	2400
334.627	3053
334.715	3105
334.802	9548
334.889	45222
334.977	44214
335.064	9811
335.151	3163
335.239	2519
335.326	3111
335.413	8744
335.501	7816
335.588	2256
335.675	2039
335.762	2669
335.850	3829
335.937	6402
336.024	17258
336.111	51707
336.199	26987
336.286	6923
336.373	3740
336.460	2007
336.547	2199
336.635	1929
336.722	2340
336.809	1192
336.896	1625
336.983	4394
337.070	10811
337.157	14608
337.245	22396
337.332	12594
337.419	2043
337.506	1014
337.593	1445
337.680	3268
337.767	5691
337.854	2196
337.941	2803
338.028	5563
338.115	2893
338.202	2002
338.289	6281
338.376	18937
338.463	4208
338.550	4840
338.637	4259
338.724	3020
338.811	5800
338.898	1051
338.984	1643
339.071	1292
339.158	2394
339.245	2642
339.332	2033
339.419	3347
339.506	3117
339.593	184
339.679	1263
339.766	934
339.853	1721
339.940	1963
340.027	1645
340.113	1172
340.200	1942
340.287	881
340.374	1236
340.460	1150
340.547	1246
340.634	2155
340.720	5410
340.807	2805
340.894	1681
340.980	1487
341.067	1013
341.154	1608
341.240	1569
341.327	2956
341.414	1297
341.500	806
341.587	1588
341.674	1128
341.760	2259
341.847	1211
341.933	1553
342.020	462
342.106	1267
342.193	815
342.279	1864
342.366	1137
342.452	2001
342.539	1536
342.625	2612
342.712	5504
342.798	1878
342.885	830
342.971	418
343.058	176
343.144	538
343.230	1302
343.317	1181
343.403	174
343.490	1716
343.576	616
343.662	1363
343.749	2382
343.835	2711
343.921	5330
344.008	42718
344.094	60721
344.180	8968
344.267	3191
344.353	10140
344.439	7857
344.525	3409
344.612	1150
344.698	1402
344.784	1259
344.870	1148
344.957	843
345.043	1276
345.129	447
345.215	2107
345.301	1485
345.387	460
345.474	714
345.560	985
345.646	1193
345.732	1405
345.818	858
345.904	934
345.990	737
346.076	1122
346.162	1768
346.249	1727
346.335	376
346.421	3970
346.507	7431
346.593	14059
346.679	2717
346.765	2146
346.851	2252
346.937	2041
347.023	1096
347.108	1366
347.194	844
347.280	1447
347.366	2180
347.452	10172
347.538	22810
347.624	12509
347.710	6622
347.796	1743
347.882	1311
347.967	1392
348.053	251
348.139	1488
348.225	849
348.311	1004
348.397	821
348.482	1989
348.568	1626
348.654	2195
348.740	5102
348.825	3328
348.911	2461
348.997	12810
349.083	16522
349.168	2099
349.254	1189
349.340	1302
349.425	514
349.511	1715
349.597	1425
349.682	3135
349.768	7241
349.854	3036
349.939	247
350.025	1335
350.110	1180
350.196	913
350.282	774
350.367	1626
350.453	2521
350.538	2102
350.624	706
350.709	1072
350.795	783
350.880	952
350.966	2073
351.051	1660
351.137	1022
351.222	1466
351.308	2312
351.393	5124
351.479	1238
351.564	785
351.649	1495
351.735	1683
351.820	1079
351.906	1028
351.991	1661
352.076	4886
352.162	5276
352.247	1854
352.332	1157
352.418	1156
352.503	2427
352.588	7555
352.673	5164
352.759	1710
352.844	792
352.929	711
353.014	1065
353.100	961
353.185	1479
353.270	2834
353.355	2171
353.441	1095
353.526	1314
353.611	2431
353.696	1805
353.781	2601
353.866	385
353.952	1747
354.037	2299
354.122	3989
354.207	3082
354.292	1912
354.377	1208
354.462	1322
354.547	1087
354.632	1217
354.717	1436
354.802	1475
354.887	846
354.972	1395
355.057	509
355.142	1517
355.227	1463
355.312	1756
355.397	3439
355.482	5666
355.567	3219
355.652	3203
355.737	2707
355.822	9606
355.907	5527
355.991	2150
356.076	414
356.161	1133
356.246	888
356.331	1898
356.416	5612
356.501	27733
356.585	20119
356.670	2004
356.755	3228
356.840	3993
356.924	27041
357.009	74583
357.094	20293
357.179	3093
357.263	1349
357.348	1933
357.433	1472
357.517	1614
357.602	1820
357.687	1597
357.771	2549
357.856	1841
357.941	3921
358.025	33504
358.110	115935
358.195	39446
358.279	3772
358.364	2227
358.448	6814
358.533	14452
358.617	9816
358.702	10642
358.787	3506
358.871	2167
358.956	1983
359.040	1456
359.125	1629
359.209	906
359.294	1188
359.378	1633
359.462	1404
359.547	1873
359.631	808
359.716	189
359.800	911
359.885	1673
359.969	353
360.053	1149
360.138	653
360.222	1068
360.306	1155
360.391	1588
360.475	2234
360.559	3592
360.644	5123
360.728	4423
360.812	17356
360.896	34888
360.981	8417
361.065	2489
361.149	1657
361.233	2112
361.318	1499
361.402	1293
361.486	1698
361.570	1031
361.654	1585
361.739	6329
361.823	28857
361.907	36830
361.991	4299
362.075	2869
362.159	3843
362.243	5679
362.327	12307
362.411	20989
362.495	6214
362.580	2391
362.664	2257
362.748	2427
362.832	4061
362.916	8797
363.000	39766
363.084	80877
363.168	55317
363.252	9178
363.336	3157
363.420	4710
363.503	10963
363.587	9349
363.671	2011
363.755	2449
363.839	3105
363.923	1656
364.007	2790
364.091	3618
364.175	7765
364.258	24978
364.342	45374
364.426	91402
364.510	40465
364.594	9301
364.677	11069
364.761	34072
364.845	19480
364.929	3706
365.013	2479
365.096	2394
365.180	2619
365.264	6591
365.347	15838
365.431	5306
365.515	804
365.598	700
365.682	1585
365.766	1317
365.849	1324
365.933	1037
366.017	1022
366.100	714
366.184	147
366.267	1617
366.351	-346
366.435	815
366.518	730
366.602	1185
366.685	1138
366.769	445
366.852	1798
366.936	2876
367.019	1402
367.103	1238
367.186	1827
367.270	989
367.353	428
367.436	2274
367.520	954
367.603	1179
367.687	1283
367.770	2600
367.853	2792
367.937	6944
368.020	8391
368.104	2393
368.187	1993
368.270	2296
368.353	1420
368.437	4495
368.520	10582
368.603	5757
368.687	7328
368.770	10310
368.853	2952
368.936	2356
369.020	1036
369.103	1331
369.186	113
369.269	1167
369.352	1324
369.436	2381
369.519	1836
369.602	628
369.685	1768
369.768	1279
369.851	934
369.934	1051
370.018	1430
370.101	1763
370.184	3058
370.267	1598
370.350	2047
370.433	6955
370.516	35352
370.599	93886
370.682	43210
370.765	10382
370.848	10249
370.931	14739
371.014	5374
371.097	609
371.180	1480
371.263	1028
371.346	-308
371.429	1716
371.511	670
371.594	1017
371.677	2089
371.760	3141
371.843	8156
371.926	50359
372.009	90146
372.091	21304
372.174	8847
372.257	17747
372.340	5479
372.423	2809
372.505	3246
372.588	1952
372.671	5650
372.754	14397
372.836	7063
372.919	4556
373.002	6044
373.085	2352
373.167	3452
373.250	8348
373.332	19939
373.415	60355
373.498	112272
373.580	60865
373.663	175582
373.746	178150
373.828	25256
373.911	6288
373.993	4777
374.076	8307
374.159	7226
374.241	6478
374.324	10746
374.406	11073
374.489	30394
374.571	58651
374.654	17248
374.736	13650
374.819	38146
374.901	66719
374.983	63593
375.066	10454
375.148	3494
375.231	8289
375.313	11159
375.395	4440
375.478	1740
375.560	2296
375.643	2918
375.725	15288
375.807	48290
375.890	31569
375.972	9447
376.054	5555
376.136	8006
376.219	4541
376.301	13703
376.383	29609
376.465	9836
376.548	4228
376.630	7806
376.712	21917
376.794	8722
376.877	1372
376.959	722
377.041	1440
377.123	686
377.205	1246
377.287	624
377.369	551
377.452	757
377.534	1242
377.616	1055
377.698	861
377.780	174
377.862	1251
377.944	442
378.026	840
378.108	525
378.190	1113
378.272	816
378.354	-11
378.436	724
378.518	1041
378.600	2467
378.682	3212
378.764	6676
378.846	5426
378.928	1825
379.010	1000
379.091	1151
379.173	1963
379.255	502
379.337	1450
379.419	4921
379.501	10294
379.583	3411
379.664	570
379.746	2206
379.828	7626
379.910	8787
379.991	8211
380.073	665
380.155	1544
380.237	1184
380.318	537
380.400	263
380.482	1328
380.564	1846
380.645	1601
380.727	1784
380.809	1326
380.890	1116
380.972	338
381.053	979
381.135	1813
381.217	2955
381.298	6784
381.380	2982
381.461	6371
381.543	25247
381.624	26615
381.706	3550
381.787	2223
381.869	4150
381.951	26619
382.032	75856
382.113	38478
382.195	3224
382.276	3188
382.358	8084
382.439	21856
382.521	35855
382.602	52292
382.684	18914
382.765	21436
382.846	15392
382.928	10875
383.009	5436
383.090	5229
383.172	18008
383.253	26370
383.334	16862
383.416	28827
383.497	12980
383.578	3670
383.659	4088
383.741	18461
383.822	41612
383.903	20110
383.984	14038
384.066	28708
384.147	15067
384.228	4570
384.309	2506
384.390	2002
384.471	2285
384.553	2457
384.634	1857
384.715	1833
384.796	1391
384.877	2343
384.958	7142
385.039	7394
385.120	1734
385.201	2617
385.282	2201
385.363	2818
385.444	2224
385.525	7685
385.606	19433
385.687	14788
385.768	3386
385.849	8998
385.930	41418
386.011	60016
386.092	12797
386.173	3481
386.254	3656
386.335	3815
386.416	1978
386.496	5664
386.577	6653
386.658	3064
386.739	1422
386.820	1943
386.901	1298
386.981	3181
387.062	2264
387.143	4772
387.224	9418
387.304	9006
387.385	5028
387.466	2590
387.547	4554
387.627	4579
387.708	7485
387.789	17770
387.869	18908
387.950	6891
388.031	2623
388.111	774
388.192	3010
388.273	4862
388.353	2641
388.434	3620
388.514	7991
388.595	27380
388.676	25287
388.756	9083
388.837	7010
388.917	4122
388.998	1336
389.078	2708
389.159	2499
389.239	2308
389.320	3151
389.400	1481
389.480	5122
389.561	8072
389.641	5462
389.722	3172
389.802	2524
389.883	6596
389.963	12760
390.043	8691
390.124	2410
390.204	5286
390.284	9794
390.365	9955
390.445	44194
390.525	163950
390.605	144661
390.686	19771
390.766	4938
390.846	3968
390.927	1960
391.007	3008
391.087	3314
391.167	2998
391.247	2399
391.328	5509
391.408	4946
391.488	4816
391.568	2115
391.648	4660
391.728	5075
391.808	6347
391.888	5431
391.969	8930
392.049	10650
392.129	9333
392.209	11133
392.289	17020
392.369	11959
392.449	11267
392.529	11099
392.609	13719
392.689	18498
392.769	25972
392.849	26925
392.929	32924
393.009	49262
393.089	69721
393.169	160243
393.248	659467
393.328	1980529
393.408	2013982
393.488	530868
393.568	122254
393.648	58566
393.728	36069
393.807	25468
393.887	22268
393.967	19926
394.047	19906
394.127	22079
394.206	48460
394.286	240112
394.366	819486
394.446	783962
394.525	154073
394.605	30197
394.685	18316
394.764	16539
394.844	18214
394.924	15634
395.003	9855
395.083	8325
395.163	9365
395.242	8462
395.322	9283
395.402	7699
395.481	11269
395.561	13123
395.640	24334
395.720	30826
395.799	28446
395.879	31866
395.958	68472
396.038	337979
396.117	1071877
396.197	1055533
396.276	239267
396.356	55750
396.435	37212
396.515	34863
396.594	50723
396.673	143773
396.753	670558
396.832	1688552
396.912	1133451
396.991	201358
397.070	54148
397.150	28313
397.229	22617
397.308	27185
397.388	32933
397.467	16962
397.546	9497
397.625	5687
397.705	8118
397.784	5858
397.863	5207
397.942	4638
398.022	4848
398.101	5694
398.180	9341
398.259	4957
398.338	3431
398.417	2234
398.497	2891
398.576	2472
398.655	2060
398.734	2167
398.813	1910
398.892	4485
398.971	8367
399.050	4360
399.129	774
399.208	1670
399.287	1832
399.366	1391
399.445	1572
399.524	1138
399.603	84
399.682	1625
399.761	5062
399.840	10994
399.919	7603
399.998	1642
400.077	409
400.156	-670
400.235	2622
400.313	768
400.392	318
400.471	4147
400.550	5258
400.629	156
400.708	1506
400.786	-289
400.865	1737
400.944	578
401.023	2108
401.102	320
401.180	812
401.259	137
401.338	627
401.416	276
401.495	170
401.574	1005
401.652	-10
401.731	339
401.810	437
401.888	26
401.967	148
402.046	-390
402.124	804
402.203	-258
402.281	1046
402.360	-21
402.438	2115
402.517	-454
402.596	319
402.674	-693
402.753	419
402.831	76
402.910	990
402.988	2368
403.066	5637
403.145	3541
403.223	3821
403.302	4615
403.380	4774
403.459	2720
403.537	1142
403.615	435
403.694	-361
403.772	336
403.850	738
403.929	-71
404.007	724
404.085	2162
404.164	-57
404.242	523
404.320	2458
404.398	3927
404.477	10251
404.555	34512
404.633	26405
404.711	3982
404.789	765
404.868	172
404.946	-573
405.024	-185
405.102	-285
405.180	20
405.258	-563
405.336	658
405.415	-301
405.493	469
405.571	1143
405.649	-547
405.727	-1448
405.805	879
405.883	322
405.961	250
406.039	576
406.117	-887
406.195	1206
406.273	6841
406.351	20930
406.429	10824
406.507	967
406.585	-1016
406.663	491
406.740	-297
406.818	-549
406.896	-700
406.974	1402
407.052	1304
407.130	12545
407.208	14049
407.285	2879
407.363	-235
407.441	443
407.519	233
407.596	4511
407.674	36973
407.752	124189
407.830	91842
407.907	10346
407.985	462
408.063	819
408.141	-195
408.218	710
408.296	-149
408.373	-135
408.451	75
408.529	73
408.606	-36
408.684	-183
408.762	-264
408.839	787
408.917	-448
408.994	109
409.072	-355
409.149	834
409.227	3283
409.304	4268
409.382	3845
409.459	5364
409.537	7316
409.614	4139
409.692	3040
409.769	4257
409.846	8230
409.924	8730
410.001	2893
410.079	1960
410.156	1664
410.233	1898
410.311	1928
410.388	1040
410.465	410
410.543	-209
410.620	658
410.697	703
410.775	577
410.852	132
410.929	1925
411.006	1827
411.083	404
411.161	381
411.238	-193
411.315	584
411.392	-291
411.469	723
411.547	-184
411.624	-480
411.701	-533
411.778	956
411.855	287
411.932	-549
412.009	-667
412.086	170
412.163	113
412.240	119
412.317	-179
412.394	69
412.471	-523
412.548	-390
412.625	-565
412.702	198
412.779	449
412.856	308
412.933	235
413.010	154
413.087	1817
413.164	3088
413.241	3037
413.318	-53
413.395	809
413.471	-144
413.548	-234
413.625	300
413.702	-790
413.779	-109
413.855	-997
413.932	-420
414.009	-1140
414.086	-532
414.162	-465
414.239	221
414.316	2727
414.393	6529
414.469	1410
414.546	-381
414.623	-910
414.699	-365
414.776	-688
414.853	-467
414.929	-790
415.006	-458
415.082	-1104
415.159	-487
415.236	74
415.312	-79
415.389	407
415.465	441
415.542	-804
415.618	-1354
415.695	224
415.771	-101
415.848	-1014
415.924	-45
416.000	-760
416.077	396
416.153	-428
416.230	-1340
416.306	-452
416.383	-291
416.459	-574
416.535	-577
416.612	-654
416.688	-654
416.764	-446
416.841	-1157
416.917	-667
416.993	215
417.069	-423
417.146	351
417.222	848
417.298	-379
417.374	-1210
417.451	-375
417.527	-1037
417.603	-1167
417.679	-812
417.755	106
417.831	-774
417.908	-64
417.984	-327
418.060	-629
418.136	221
418.212	-51
418.288	-368
418.364	-74
418.440	-1324
418.516	535
418.592	-436
418.668	1031
418.744	981
418.820	1070
418.896	-592
418.972	-764
419.048	-650
419.124	941
419.200	-1331
419.276	-359
419.352	-654
419.428	187
419.504	-540
419.579	-120
419.655	-500
419.731	-563
419.807	616
419.883	1544
419.959	522
420.034	179
420.110	-22
420.186	3829
420.262	3077
420.337	131
420.413	-503
420.489	364
420.565	670
420.640	-215
420.716	-67
420.792	-33
420.867	1078
420.943	-83
421.019	790
421.094	-90
421.170	1282
421.245	1576
421.321	1398
421.397	3681
421.472	24885
421.548	65446
421.623	37834
421.699	4843
421.774	2553
421.850	1247
421.925	3077
422.001	4095
422.076	3985
422.152	4781
422.227	6304
422.302	10954
422.378	17288
422.453	38203
422.529	129386
422.604	403888
422.679	649246
422.755	346766
422.830	87440
422.905	31284
422.981	15963
423.056	11583
423.131	7408
423.207	5802
423.282	3386
423.357	4308
423.432	3280
423.508	3395
423.583	2987
423.658	2432
423.733	1541
423.808	1784
423.883	1362
423.959	2553
424.034	3140
424.109	3135
424.184	655
424.259	198
424.334	110
424.409	706
424.484	-9
424.559	690
424.634	-570
424.709	699
424.784	117
424.859	861
424.934	418
425.009	2298
425.084	4017
425.159	521
425.234	104
425.309	-822
425.384	-37
425.459	-743
425.534	63
425.609	-250
425.683	-1475
425.758	199
425.833	347
425.908	1106
425.983	600
426.058	4493
426.132	1736
426.207	254
426.282	1081
426.357	-448
426.431	-790
426.506	69
426.581	-376
426.655	63
426.730	-395
426.805	-239
426.879	389
426.954	-771
427.029	283
427.103	7171
427.178	14620
427.253	5849
427.327	415
427.402	-772
427.476	72
427.551	-305
427.625	-956
427.700	144
427.774	-1655
427.849	456
427.923	-1041
427.998	66
428.072	-29
428.147	6416
428.221	40973
428.296	110673
428.370	55465
428.444	3689
428.519	731
428.593	428
428.667	1273
428.742	2692
428.816	13974
428.890	64642
428.965	89927
429.039	18120
429.113	1568
429.188	6
429.262	-533
429.336	1124
429.410	1453
429.485	1638
429.559	1026
429.633	1007
429.707	1190
429.781	11183
429.855	54654
429.930	73940
430.004	17504
430.078	11698
430.152	51025
430.226	173583
430.300	165889
430.374	20925
430.448	2985
430.522	3819
430.596	7906
430.670	24416
430.744	84249
430.818	91261
430.892	12824
430.966	510
431.040	870
431.114	-611
431.188	-229
431.262	-746
431.336	-777
431.410	999
431.484	728
431.557	1174
431.631	-620
431.705	3562
431.779	31520
431.853	102233
431.927	64918
432.000	5192
432.074	119
432.148	-498
432.222	-534
432.295	-259
432.369	-1025
432.443	231
432.516	6533
432.590	15505
432.664	4608
432.737	-865
432.811	-1386
432.885	-908
432.958	99
433.032	-844
433.106	-1185
433.179	-889
433.253	-286
433.326	-786
433.400	-453
433.473	-387
433.547	-1033
433.620	-1058
433.694	-1203
433.767	690
433.841	-1447
433.914	-618
433.988	-630
434.061	-121
434.134	-973
434.208	-536
434.281	-1266
434.355	-1228
434.428	-826
434.501	-80
434.575	-1229
434.648	-1310
434.721	-716
434.795	-768
434.868	-1117
434.941	-1037
435.014	-1371
435.088	-713
435.161	-790
435.234	-179
435.307	83
435.381	255
435.454	1938
435.527	4315
435.600	3629
435.673	1454
435.746	-352
435.819	-710
435.892	140
435.966	-411
436.039	-905
436.112	-82
436.185	-1038
436.258	-956
436.331	-1601
436.404	-745
436.477	-982
436.550	-249
436.623	-518
436.696	-526
436.769	-332
436.842	-672
436.915	-957
436.987	-139
437.060	-1028
437.133	-830
437.206	-1585
437.279	-420
437.352	-1286
437.425	-1687
437.498	-713
437.570	-597
437.643	-1356
437.716	-554
437.789	-1172
437.861	-921
437.934	-404
438.007	-677
438.080	-1487
438.152	-794
438.225	1212
438.298	13714
438.370	31172
438.443	10674
438.516	-190
438.588	-811
438.661	-1199
438.734	-307
438.806	-993
438.879	-842
438.951	-731
439.024	-1336
439.096	-858
439.169	-635
439.241	-1686
439.314	-2045
439.386	-1242
439.459	673
439.531	-1103
439.604	-581
439.676	-705
439.749	-1142
439.821	-1368
439.893	-613
439.966	-1091
440.038	-652
440.110	-1265
440.183	-939
440.255	-1158
440.327	1521
440.400	2753
440.472	12251
440.544	7051
440.617	221
440.689	547
440.761	-274
440.833	-299
440.905	-609
440.978	-1454
441.050	-1363
441.122	-1021
441.194	-997
441.266	-489
441.338	-549
441.411	-590
441.483	2840
441.555	3176
441.627	70
441.699	-495
441.771	-1104
441.843	-781
441.915	-26
441.987	-595
442.059	-941
442.131	-331
442.203	6
442.275	121
442.347	1909
442.419	7739
442.491	47988
442.563	96291
442.635	30856
442.706	3045
442.778	925
442.850	-179
442.922	-318
442.994	-176
443.066	-491
443.137	-336
443.209	282
443.281	2202
443.353	10546
443.425	64470
443.496	202149
443.568	167982
443.640	47892
443.711	5032
443.783	1083
443.855	-267
443.926	-88
443.998	-830
444.070	313
444.141	-1771
444.213	-305
444.285	166
444.356	28
444.428	-430
444.499	-141
444.571	-988
444.642	6
444.714	-631
444.785	-390
444.857	60
444.928	508
445.000	127
445.071	737
445.143	695
445.214	1678
445.285	5004
445.357	24631
445.428	144560
445.500	300688
445.571	152788
445.642	66300
445.714	14418
445.785	3279
445.856	-240
445.928	21
445.999	-460
446.070	91
446.141	-443
446.213	344
446.284	-693
446.355	-218
446.426	-935
446.497	-665
446.569	-766
446.640	-395
446.711	-1512
446.782	-1523
446.853	-1506
446.924	-220
446.995	-1283
447.066	-634
447.138	-588
447.209	-66
447.280	-1907
447.351	-585
447.422	-2479
447.493	-1425
447.564	-750
447.635	-1107
447.706	-1737
447.777	-962
447.847	-1427
447.918	-1431
447.989	-1326
448.060	-502
448.131	-475
448.202	-50
448.273	-956
448.344	-779
448.414	-1962
448.485	-1304
448.556	-1555
448.627	-984
448.698	-507
448.768	-825
448.839	-1878
448.910	-869
448.981	-926
449.051	-1246
449.122	-1394
449.193	-1368
449.263	-1695
449.334	-1238
449.405	-813
449.475	-210
449.546	-279
449.616	681
449.687	-847
449.758	-424
449.828	-905
449.899	-446
449.969	-1785
450.040	-982
450.110	-959
450.181	442
450.251	-1000
450.322	-1222
450.392	-1175
450.463	-2262
450.533	-1940
450.604	-882
450.674	-1652
450.744	-1114
450.815	-760
450.885	-836
450.955	-374
451.026	-1849
451.096	-1108
451.166	-1536
451.237	-292
451.307	711
451.377	-1409
451.447	-887
451.518	-1040
451.588	-1011
451.658	-748
451.728	-421
451.799	265
451.869	5
451.939	-896
452.009	-420
452.079	-1499
452.149	-431
452.219	-445
452.289	1004
452.360	-629
452.430	-706
452.500	-1369
452.570	117
452.640	2401
452.710	8284
452.780	6616
452.850	2359
452.920	578
452.990	-343
453.060	-698
453.129	-1030
453.199	-912
453.269	1519
453.339	3456
453.409	5425
453.479	5252
453.549	7197
453.619	6519
453.688	2889
453.758	34
453.828	-773
453.898	-405
453.968	-885
454.037	-980
454.087	-785
454.107	-720
454.168	-1044
454.177	-1112
454.247	-1411
454.249	-1381
454.316	-1164
454.330	-1146
454.386	-1182
454.411	-926
454.456	-571
454.492	26
454.525	546
454.574	384
454.595	306
454.655	-551
454.665	-711
454.734	182
454.736	196
454.804	-101
454.817	30
454.873	387
454.898	811
454.943	1554
454.979	492
455.013	-478
455.060	187
455.082	565
455.141	122
455.152	179
455.221	3454
455.222	3593
455.291	6334
455.303	8629
455.360	16918
455.384	25134
455.430	38153
455.465	26449
455.499	16737
455.546	6468
455.569	1616
455.627	1046
455.638	942
455.707	-154
455.708	-135
455.777	47
455.789	114
455.846	302
455.869	304
455.916	325
455.950	-63
455.985	-505
456.031	-227
456.054	-136
456.112	-366
456.124	-383
456.193	-335
456.193	-354
456.262	-5
456.274	36
456.332	192
456.355	260
456.401	176
456.436	5
456.470	-9
456.516	-242
456.540	-469
456.597	-290
456.609	-241
456.678	31
456.678	16
456.747	-470
456.759	-482
456.817	-539
456.840	-283
456.886	91
456.920	-11
456.955	-3
457.001	136
457.024	189
457.082	488
457.093	516
457.162	825
457.163	843
457.232	623
457.243	619
457.301	603
457.324	288
457.370	-69
457.405	348
457.439	722
457.485	413
457.508	333
457.566	1869
457.577	2277
457.646	3628
457.647	3672
457.715	6462
457.727	7207
457.784	12468
457.808	15991
457.853	16663
457.889	15500
457.922	16053
457.969	12525
457.991	12612
458.050	17355
458.060	17902
458.129	30410
458.130	30661
458.198	20375
458.211	16050
458.267	7481
458.292	5707
458.336	5422
458.372	6955
458.405	11117
458.453	17858
458.474	21523
458.533	36059
458.543	35206
458.611	38174
458.614	37715
458.680	18746
458.694	13761
458.749	4887
458.775	3989
458.818	2622
458.855	1601
458.887	1010
458.936	1302
458.955	1422
459.016	1291
459.024	1212
459.093	1066
459.097	1058
459.162	1330
459.177	1461
459.230	1650
459.257	1650
459.299	1678
459.338	1563
459.368	1514
459.418	1749
459.437	1700
459.499	1455
459.505	1463
459.574	1657
459.579	1693
459.643	1683
459.659	1690
459.711	1913
459.740	1813
459.780	1791
459.820	1904
459.849	1720
459.900	1887
459.917	2032
459.981	2025
459.986	1986
460.054	1891
460.061	1839
460.123	1589
460.141	1672
460.191	2333
460.222	2702
460.260	2572
460.302	2477
460.328	2638
460.382	2574
460.397	2905
460.462	4686
460.465	5170
460.534	16926
460.543	18474
460.602	34932
460.623	41410
460.671	62181
460.703	82622
460.739	63336
460.783	27583
460.808	23976
460.864	6974
460.876	4510
460.944	2221
460.945	2189
461.013	2185
461.024	2150
461.081	2554
461.104	2705
461.150	2345
461.184	1929
461.218	1873
461.264	2142
461.286	2079
461.345	1744
461.355	1866
461.423	2948
461.425	2969
461.491	2071
461.505	1942
461.559	2928
461.585	3356
461.628	3895
461.665	4339
461.696	3788
461.745	3460
461.764	3506
461.825	2809
461.832	2780
461.901	2268
461.905	2273
461.969	1955
461.985	1884
462.037	2459
462.065	2728
462.105	2766
462.145	2871
462.173	3167
462.225	3390
462.241	3322
462.305	3663
462.310	3630
462.378	2784
462.385	2662
462.446	2276
462.465	2262
462.514	2815
462.545	2883
462.582	2406
462.625	2290
462.650	2206
462.705	1700
462.718	1759
462.785	2404
462.786	2412
462.854	2607
462.865	2629
462.922	2773
462.945	2962
462.990	2950
463.025	2566
463.058	2481
463.104	2568
463.126	2404
463.184	2071
463.194	2170
463.262	2608
463.264	2625
463.330	2886
463.344	2954
463.398	3012
463.424	2944
463.466	2591
463.504	2385
463.533	2508
463.583	2585
463.601	2588
463.663	2529
463.669	2568
463.737	3205
463.743	3240
463.805	3871
463.823	4089
463.873	5227
463.903	5938
463.940	5074
463.982	4220
464.008	4157
464.062	3505
464.076	3460
464.142	3352
464.144	3334
464.211	2537
464.221	2443
464.279	3067
464.301	3183
464.347	3083
464.381	3186
464.414	3302
464.461	3374
464.482	3394
464.540	3275
464.550	3401
464.617	4397
464.620	4423
464.685	7080
464.699	7647
464.753	10524
464.779	11996
464.820	12049
464.859	12089
464.888	11171
464.938	9311
464.956	9064
465.018	8100
465.023	8128
465.091	8328
465.098	8338
465.158	8122
465.177	8059
465.226	8325
465.257	8414
465.293	8306
465.336	8234
465.361	8357
465.416	8493
465.428	8679
465.495	9633
465.496	9656
465.563	10350
465.575	10455
465.631	10539
465.654	10553
465.698	9205
465.734	8080
465.765	8068
465.813	7810
465.833	7888
465.893	8355
465.900	8399
465.968	8420
465.972	8418
466.035	7472
466.052	7164
466.102	7874
466.131	8247
466.170	8266
466.210	8276
466.237	8582
466.290	9161
466.304	9044
466.369	8332
466.372	8382
466.439	9404
466.449	9520
466.506	9988
466.528	10159
466.573	10890
466.607	11357
466.641	12293
466.687	13564
466.708	13506
466.766	13292
466.775	12974
466.842	10356
466.845	10209
466.909	9731
466.925	9604
466.977	10610
467.004	11123
467.044	12641
467.083	14102
467.111	16142
467.163	19897
467.178	19713
467.242	18738
467.245	18633
467.312	15690
467.321	15270
467.379	14294
467.400	13894
467.446	14391
467.480	14701
467.559	13097
467.638	12446
467.717	11983
467.796	12892
467.875	13054
467.955	12455
468.034	14558
468.113	17654
468.192	18276
468.271	14054
468.350	16465
468.429	20285
468.508	19629
468.588	13695
468.667	13073
468.746	13029
468.825	11457
468.904	10238
468.983	10817
469.062	12356
469.141	11895
469.220	9589
469.299	12574
469.378	14649
469.456	18873
469.535	15291
469.614	13231
469.693	13670
469.772	13053
469.851	14906
469.930	12750
470.009	12648
470.088	12680
470.166	11705
470.245	12328
470.324	11774
470.403	12527
470.482	10998
470.560	11827
470.639	11223
470.718	11671
470.797	10699
470.875	11742
470.954	12532
471.033	11421
471.111	10710
471.190	10161
471.269	11039
471.347	10931
471.426	10941
471.505	14259
471.583	15283
471.662	13983
471.740	12469
471.819	11061
471.898	12043
471.976	12115
472.055	11546
472.133	11741
472.212	12500
472.290	11104
472.369	9630
472.447	11334
472.526	10038
472.604	11140
472.683	10129
472.761	10107
472.839	9154
472.918	9912
472.996	9884
473.075	9708
473.153	9822
473.231	9315
473.310	9860
473.388	9397
473.466	10790
473.545	12759
473.623	12786
473.701	11827
473.780	11043
473.858	10651
473.936	11363
474.014	9891
474.093	10885
474.171	11129
474.249	11392
474.327	9525
474.405	8745
474.484	9298
474.562	8794
474.640	9910
474.718	9335
474.796	9599
474.874	9382
474.952	8568
475.030	8252
475.108	9296
475.187	10381
475.265	9436
475.343	10691
475.421	11406
475.499	9324
475.577	9300
475.655	9082
475.733	11611
475.811	11496
475.889	11385
475.966	8001
476.044	8127
476.122	7872
476.200	9597
476.278	7539
476.356	7446
476.434	7447
476.512	7910
476.590	8190
476.667	8058
476.745	6149
476.823	7685
476.901	8091
476.979	7955
477.056	7947
477.134	8572
477.212	8792
477.290	7426
477.367	6756
477.445	7190
477.523	5840
477.601	7692
477.678	6196
477.756	7258
477.834	6305
477.911	7391
477.989	6756
478.066	5785
478.144	7686
478.222	6534
478.299	7006
478.377	7502
478.454	6285
478.532	6012
478.609	6493
478.687	6555
478.764	6438
478.842	4638
478.919	5577
478.997	5278
479.074	6252
479.152	6445
479.229	6572
479.307	4819
479.384	6390
479.461	5691
479.539	5823
479.616	5924
479.694	4636
479.771	5739
479.848	5715
479.926	4057
480.003	5917
480.080	5877
480.157	5923
480.235	5195
480.312	5451
480.389	5687
480.467	5496
480.544	6978
480.621	4724
480.698	4867
480.775	5390
480.853	4465
480.930	5508
481.007	5510
481.084	6583
481.161	9056
481.238	4574
481.315	4987
481.392	4955
481.470	5501
481.547	5031
481.624	4752
481.701	3934
481.778	5139
481.855	5258
481.932	5909
482.009	6548
482.086	5297
482.163	5699
482.240	7600
482.317	8197
482.393	6090
482.470	5660
482.547	5082
482.624	4631
482.701	4879
482.778	4518
482.855	5209
482.932	5306
483.009	5099
483.085	5963
483.162	8188
483.239	5912
483.316	6140
483.393	6331
483.469	5905
483.546	4876
483.623	4918
483.699	4589
483.776	4692
483.853	5406
483.930	6967
484.006	12810
484.083	23776
484.160	46892
484.236	66638
484.313	40665
484.389	32182
484.466	30866
484.543	30493
484.619	30043
484.696	31788
484.772	28692
484.849	29009
484.925	26245
485.002	26760
485.078	26619
485.155	25838
485.231	24972
485.308	25568
485.384	24870
485.461	26305
485.537	26856
485.614	24711
485.690	22756
485.766	22599
485.843	22827
485.919	22511
485.995	23757
486.072	21251
486.148	20988
486.224	21397
486.301	20467
486.377	22099
486.453	22257
486.530	29379
486.606	40017
486.682	35565
486.758	30810
486.835	29542
486.911	28798
486.987	31834
487.063	30592
487.139	31096
487.215	30380
487.292	27132
487.368	25877
487.444	26088
487.520	31674
487.596	39290
487.672	80714
487.748	166987
487.824	147669
487.900	35071
487.976	25414
488.052	23148
488.128	21488
488.204	21759
488.280	20378
488.356	21081
488.432	24929
488.508	22994
488.584	18969
488.660	18489
488.736	18804
488.812	20625
488.888	23490
488.964	23907
489.039	27393
489.115	29463
489.191	21654
489.267	18358
489.343	17842
489.418	17510
489.494	17545
489.570	16694
489.646	16699
489.722	17568
489.797	16167
489.873	20014
489.949	21366
490.024	18634
490.100	14608
490.176	15919
490.251	14862
490.327	16461
490.403	13842
490.478	14205
490.554	13677
490.629	14844
490.705	12642
490.781	14478
490.856	12735
490.932	14318
491.007	13221
491.083	14379
491.158	12263
491.234	15083
491.309	15111
491.385	15272
491.460	11825
491.536	14318
491.611	10752
491.686	13444
491.762	12576
491.837	15740
491.913	20322
491.988	24086
492.063	21083
492.139	11092
492.214	12558
492.289	9291
492.365	10857
492.440	10580
492.515	10189
492.590	11861
492.666	8127
492.741	11095
492.816	10001
492.891	10299
492.967	9790
493.042	10044
493.117	11090
493.192	14904
493.267	38684
493.342	95238
493.418	75722
493.493	11431
493.568	7734
493.643	9967
493.718	8091
493.793	10517
493.868	9962
493.943	8277
494.018	8589
494.093	6859
494.168	8430
494.243	7439
494.318	5847
494.393	8269
494.468	6704
494.543	7067
494.618	7571
494.693	5538
494.768	6403
494.842	7033
494.917	6098
494.992	7515
495.067	5262
495.142	7118
495.217	6038
495.292	5746
495.366	6726
495.441	6366
495.516	7589
495.591	10283
495.665	21664
495.740	30634
495.815	9021
495.890	6499
495.964	4548
496.039	7624
496.114	7085
496.188	10695
496.263	7400
496.338	4719
496.412	6316
496.487	5915
496.561	6056
496.636	6619
496.710	5395
496.785	5887
496.860	6711
496.934	5055
497.009	5862
497.083	6153
497.158	5647
497.232	6664
497.307	6872
497.381	6646
497.455	7072
497.530	9568
497.604	7276
497.679	8568
497.753	12654
497.827	13770
497.902	13032
497.976	17871
498.050	35125
498.125	81560
498.199	41261
498.273	20354
498.348	15856
498.422	12752
498.496	9944
498.570	7501
498.645	8319
498.719	6177
498.793	6806
498.867	9175
498.941	14441
499.016	37888
499.090	55282
499.164	9619
499.238	4924
499.312	5163
499.386	7642
499.460	5291
499.534	4534
499.609	5962
499.683	5789
499.757	7903
499.831	20252
499.905	47444
499.979	17632
500.053	6960
500.127	7520
500.201	4578
500.275	4461
500.349	4582
500.422	5553
500.496	8077
500.570	13534
500.644	29055
500.718	28725
500.792	5617
500.866	4758
500.940	4596
501.013	4225
501.087	5132
501.161	6521
501.235	7883
501.309	17964
501.382	34966
501.456	15616
501.530	7972
501.603	8753
501.677	3523
501.751	3054
501.825	5767
501.898	9225
501.972	13553
502.046	5029
502.119	5115
502.193	9134
502.266	12145
502.340	5814
502.413	10360
502.487	10231
502.561	5034
502.634	4818
502.708	5351
502.781	3055
502.855	3599
502.928	2686
503.002	2826
503.075	2977
503.149	3391
503.222	3451
503.295	3272
503.369	4346
503.442	6739
503.516	15536
503.589	20174
503.662	8556
503.736	7519
503.809	13205
503.882	11131
503.956	21769
504.029	35797
504.102	85214
504.175	69683
504.249	13590
504.322	8467
504.395	4953
504.468	4260
504.542	3633
504.615	3916
504.688	3862
504.761	2800
504.834	4079
504.907	4874
504.980	3767
505.053	2891
505.127	2392
505.200	4911
505.273	3823
505.346	2550
505.419	2749
505.492	3806
505.565	3502
505.638	3487
505.711	2543
505.784	2483
505.857	1555
505.930	3068
506.003	1226
506.076	3653
506.149	2526
506.221	1956
506.294	3900
506.367	7482
506.440	14577
506.513	4229
506.586	3499
506.659	2863
506.731	2778
506.804	2673
506.877	2344
506.950	3101
507.022	3352
507.095	696
507.168	2228
507.241	2717
507.313	2419
507.386	2512
507.459	3584
507.531	2484
507.604	1827
507.677	2597
507.749	2570
507.822	8297
507.894	18079
507.967	17781
508.040	10955
508.112	9900
508.185	8155
508.257	6955
508.330	8459
508.402	7279
508.475	6909
508.547	6246
508.620	7271
508.692	7997
508.765	6873
508.837	6136
508.909	5927
508.982	6825
509.054	6881
509.127	6144
509.199	6631
509.271	5942
509.344	5910
509.416	6147
509.488	6180
509.560	5512
509.633	6550
509.705	6386
509.777	5902
509.849	6463
509.922	5443
509.994	6277
510.066	8380
510.138	13052
510.210	25556
510.283	17621
510.355	14097
510.427	11886
510.499	11332
510.571	10565
510.643	10897
510.715	12186
510.787	9758
510.859	11332
510.931	9596
511.003	11131
511.076	9954
511.148	8483
511.219	8893
511.291	10367
511.363	10124
511.435	8768
511.507	8235
511.579	9322
511.651	8971
511.723	8046
511.795	7017
511.867	7662
511.939	9097
512.010	9453
512.082	8437
512.154	8255
512.226	11155
512.298	21491
512.369	20283
512.441	16372
512.513	13756
512.585	11972
512.656	11508
512.728	11374
512.800	10650
512.871	10662
512.943	10067
513.015	9646
513.086	10108
513.158	10411
513.230	10107
513.301	11006
513.373	11183
513.444	8956
513.516	9057
513.588	8699
513.659	9443
513.731	9709
513.802	9046
513.874	12767
513.945	11736
514.016	8504
514.088	8679
514.159	10206
514.231	14738
514.302	19823
514.374	14462
514.445	12369
514.516	14019
514.588	11179
514.659	9910
514.730	11941
514.802	11973
514.873	11681
514.944	11906
515.016	10310
515.087	9737
515.158	11157
515.229	12481
515.301	12669
515.372	12511
515.443	9635
515.514	8917
515.585	8211
515.656	9646
515.728	8091
515.799	8512
515.870	8895
515.941	8704
516.012	11360
516.083	15516
516.154	13074
516.225	12253
516.296	11693
516.367	9948
516.438	10464
516.509	9991
516.580	12704
516.651	24194
516.722	36886
516.793	13591
516.864	11331
516.935	9622
517.006	11047
517.077	12602
517.148	22603
517.219	52935
517.289	39191
517.360	17977
517.431	9208
517.502	8453
517.573	8989
517.643	10441
517.714	12869
517.785	10887
517.856	10158
517.926	9718
517.997	10420
518.068	10304
518.138	12265
518.209	18204
518.280	53466
518.350	82133
518.421	18914
518.492	11706
518.562	12883
518.633	15197
518.703	23304
518.774	65180
518.845	147046
518.915	70006
518.986	16778
519.056	14402
519.127	17037
519.197	20055
519.268	22797
519.338	11706
519.408	8650
519.479	7671
519.549	6886
519.620	8204
519.690	7710
519.760	7156
519.831	7199
519.901	5982
519.971	6707
520.042	6174
520.112	5957
520.182	7341
520.253	7731
520.323	6255
520.393	7140
520.463	7712
520.534	4001
520.604	8240
520.674	6604
520.744	6241
520.814	7130
520.885	7947
520.955	14380
521.025	21406
521.095	7183
521.165	7162
521.235	5930
521.305	4518
521.375	6242
521.445	6272
521.515	5334
521.585	6963
521.655	4372
521.725	7478
521.795	6566
521.865	4452
521.935	7874
522.005	4969
522.075	5285
522.145	5550
522.215	5075
522.285	5038
522.355	6897
522.424	8451
522.494	6644
522.564	7550
522.634	11365
522.704	15382
522.774	5503
522.843	4947
522.913	4621
522.983	5810
523.053	4027
523.122	4763
523.192	6375
523.262	11594
523.331	6724
523.401	4640
523.471	4369
523.540	5099
523.610	3256
523.680	4276
523.749	4749
523.819	5771
523.888	3892
523.958	3344
524.027	4739
524.097	4135
524.166	4057
524.236	3706
524.305	4992
524.375	3964
524.444	4174
524.514	5503
524.583	4179
524.653	4518
524.722	4494
524.791	3443
524.861	5320
524.930	3639
524.999	3806
525.069	5449
525.138	4205
525.207	3799
525.277	4779
525.346	4251
525.415	5321
525.484	5497
525.554	5651
525.623	7589
525.692	8428
525.761	8207
525.830	9178
525.900	13581
525.969	23767
526.038	47787
526.107	142098
526.176	261502
526.245	111252
526.314	58382
526.383	166173
526.452	166451
526.522	364030
526.591	127327
526.660	21433
526.729	18529
526.797	28803
526.867	73344
526.935	283145
527.004	622526
527.073	126563
527.142	12454
527.211	7754
527.280	7350
527.349	5526
527.418	3459
527.487	5343
527.555	2771
527.624	2724
527.693	2277
527.762	3360
527.831	2176
527.899	3576
527.968	3223
528.037	2257
528.106	3876
528.174	5135
528.243	4015
528.312	5225
528.380	3137
528.449	2021
528.518	3079
528.586	1226
528.655	2253
528.723	3101
528.792	2171
528.861	2269
528.929	317
528.998	3618
529.066	1713
529.135	1410
529.203	1354
529.272	1640
529.340	2018
529.409	2890
529.477	825
529.545	1422
529.614	3410
529.682	1617
529.751	1856
529.819	4962
529.887	1842
529.956	1699
530.024	2668
530.092	1278
530.161	2934
530.229	3147
530.297	1465
530.365	1917
530.434	1392
530.502	1872
530.570	1956
530.638	416
530.707	2726
530.775	3288
530.843	2148
530.911	1809
530.979	2231
531.047	1523
531.115	1664
531.183	1701
531.252	1678
531.320	1327
531.388	903
531.456	2970
531.524	986
531.592	2601
531.660	3419
531.728	2132
531.796	1111
531.864	1902
531.932	2643
532.000	1742
532.067	2219
532.135	1065
532.203	2838
532.271	2449
532.339	4588
532.407	6920
532.475	3799
532.542	3310
532.610	2535
532.678	4357
532.746	20655
532.814	18564
532.881	3934
532.949	2861
533.017	2055
533.084	1987
533.152	2523
533.220	2373
533.287	1728
533.355	1840
533.423	1661
533.490	2220
533.558	2481
533.625	3977
533.693	3518
533.761	3389
533.828	3567
533.896	2241
533.963	5002
534.031	5121
534.098	5073
534.166	3619
534.233	2931
534.300	4682
534.368	3611
534.435	3527
534.503	4763
534.570	5212
534.637	4744
534.705	7125
534.772	13485
534.840	41410
534.907	162320
534.974	72403
535.041	6441
535.109	4713
535.176	3514
535.243	2891
535.310	3980
535.378	2852
535.445	2971
535.512	3875
535.579	3258
535.646	2850
535.714	6208
535.781	7182
535.848	4970
535.915	4477
535.982	3913
536.049	3400
536.116	4927
536.183	3449
536.250	3325
536.317	3663
536.384	4901
536.451	5647
536.518	5101
536.585	2856
536.652	6719
536.719	6339
536.786	3755
536.853	4499
536.920	6202
536.987	6544
537.053	7228
537.120	18406
537.187	7867
537.254	4417
537.321	3260
537.388	4982
537.454	3859
537.521	3817
537.588	4592
537.654	7491
537.721	7677
537.788	6677
537.855	5102
537.921	5143
537.988	4660
538.055	5348
538.121	4324
538.188	4715
538.254	6255
538.321	6921
538.388	5415
538.454	4436
538.521	4889
538.587	4553
538.654	3915
538.720	4014
538.787	4732
538.853	5432
538.920	3544
538.986	4704
539.053	4136
539.119	4705
539.185	3382
539.252	6272
539.318	6355
539.385	8951
539.451	6533
539.517	6965
539.583	7367
539.650	9746
539.716	10759
539.782	5324
539.849	3592
539.915	5338
539.981	5108
540.047	4913
540.114	3833
540.180	6392
540.246	5045
540.312	6574
540.378	8622
540.444	8253
540.510	10466
540.576	11560
540.643	4528
540.709	4187
540.775	5324
540.841	5424
540.907	9139
540.973	10163
541.039	8052
541.105	7242
541.171	6042
541.237	5658
541.303	6742
541.369	7844
541.435	7608
541.500	7460
541.566	4123
541.632	4857
541.698	4220
541.764	5326
541.830	4424
541.896	4451
541.961	5566
542.027	5067
542.093	6441
542.159	6678
542.224	6506
542.290	8735
542.356	7444
542.421	7854
542.487	6126
542.553	6230
542.618	5783
542.684	4613
542.750	4826
542.815	6009
542.881	8004
542.947	13295
543.012	7083
543.078	4336
543.143	4790
543.209	6040
543.274	4543
543.340	7058
543.405	9246
543.471	7512
543.536	5772
543.602	6353
543.667	3701
543.732	6521
543.798	5392
543.863	6731
543.928	5137
543.994	5851
544.059	5145
544.124	6296
544.190	5802
544.255	6023
544.320	5461
544.386	5534
544.451	6996
544.516	6641
544.581	6555
544.646	13988
544.712	11027
544.777	7731
544.842	6210
544.907	5538
544.972	5692
545.037	6476
545.102	6751
545.168	7348
545.233	7607
545.298	8073
545.363	7752
545.428	8508
545.493	12024
545.558	10522
545.623	8101
545.688	6491
545.753	7389
545.818	7821
545.883	8421
545.947	7689
546.012	8109
546.077	7633
546.142	9298
546.207	8817
546.272	10084
546.337	9420
546.401	10785
546.466	10299
546.531	9187
546.596	11239
546.661	10193
546.725	11725
546.790	10822
546.855	11744
546.919	11715
546.984	14045
547.049	13827
547.113	16914
547.178	17563
547.243	21537
547.307	24110
547.372	25575
547.436	25060
547.501	27967
547.565	26751
547.630	26443
547.695	23979
547.759	26241
547.823	24390
547.888	26044
547.952	26991
548.017	30025
548.081	29536
548.146	28913
548.210	29223
548.274	30898
548.339	28964
548.403	26500
548.468	24703
548.532	25882
548.596	25800
548.660	26533
548.725	30226
548.789	30375
548.853	28289
548.917	28218
548.982	26214
549.046	23972
549.110	21452
549.174	24567
549.238	28273
549.303	29082
549.367	30428
549.431	27994
549.495	26234
549.559	27645
549.623	34170
549.687	33685
549.751	36119
549.815	41696
549.879	39917
549.943	37905
550.007	40938
550.071	37937
550.135	34906
550.199	32892
550.263	31934
550.327	32125
550.391	35161
550.455	36114
550.519	38002
550.582	42806
550.646	46419
550.710	44989
550.774	44757
550.838	45994
550.901	48376
550.965	50452
551.029	51228
551.093	57462
551.156	66004
551.220	89667
551.284	91146
551.347	56451
551.411	50288
551.475	49063
551.538	48119
551.602	41863
551.666	40151
551.729	37186
551.793	37983
551.856	36395
551.920	36003
551.983	36258
552.047	35127
552.110	36824
552.174	36897
552.237	36784
552.301	32417
552.364	32574
552.428	30646
552.491	32979
552.554	32158
552.618	32716
552.681	33404
552.745	32710
552.808	35821
552.871	35128
552.934	33390
552.998	32348
553.061	31558
553.124	29084
553.187	31034
553.251	32509
553.314	32859
553.377	34192
553.440	42520
553.503	65464
553.567	51923
553.630	34084
553.693	32165
553.756	31916
553.819	30732
553.882	29757
553.945	31140
554.008	31557
554.071	29883
554.134	30911
554.197	26435
554.260	27251
554.323	28902
554.386	30230
554.449	30870
554.512	29731
554.575	27842
554.638	27894
554.701	28075
554.764	27867
554.827	26161
554.889	24788
554.952	23653
555.015	22277
555.078	22813
555.141	24472
555.203	23686
555.266	23433
555.329	23296
555.391	22800
555.454	21450
555.517	21730
555.580	20648
555.642	20271
555.705	20315
555.768	20434
555.830	19745
555.893	17210
555.955	17428
556.018	17881
556.080	16544
556.143	19034
556.206	16971
556.268	17274
556.330	17558
556.393	17051
556.455	17385
556.518	15922
556.580	15579
556.643	14429
556.705	14244
556.767	13435
556.830	14255
556.892	14701
556.955	14162
557.017	13942
557.079	12745
557.142	12769
557.204	13126
557.266	15850
557.328	12452
557.391	11327
557.453	10428
557.515	12039
557.577	12178
557.639	12757
557.701	12688
557.764	11795
557.826	12785
557.888	15421
557.950	15836
558.012	20587
558.074	37538
558.136	121315
558.198	135472
558.260	24810
558.322	17101
558.384	18674
558.446	22230
558.508	25610
558.570	31732
558.632	43378
558.694	71787
558.756	181400
558.818	673112
558.880	699112
558.942	151295
559.003	153820
559.065	38159
559.127	25830
559.189	28546
559.251	40834
559.312	91643
559.374	319927
559.436	528143
559.498	87468
559.559	24867
559.621	26757
559.683	42862
559.744	108755
559.806	368834
559.868	205962
559.929	27414
559.991	33645
560.052	93645
560.114	163807
560.176	63328
560.237	134222
560.299	90559
560.360	11117
560.422	6781
560.483	6936
560.545	6220
560.606	6570
560.667	5777
560.729	4942
560.790	4773
560.852	5086
560.913	4836
560.974	4545
561.036	4260
561.097	4387
561.158	4225
561.220	5041
561.281	4873
561.342	4134
561.403	5473
561.465	5928
561.526	8859
561.587	7280
561.648	3424
561.709	3956
561.771	3671
561.832	3228
561.893	2955
561.954	3716
562.015	3453
562.076	3467
562.137	3941
562.198	3500
562.259	3918
562.320	3591
562.381	4374
562.442	4116
562.503	3552
562.564	4164
562.625	3506
562.686	4062
562.747	2708
562.808	3250
562.869	3653
562.930	4314
562.991	2780
563.051	3730
563.112	2933
563.173	3339
563.234	2197
563.294	3316
563.355	2859
563.416	2985
563.477	2989
563.537	2878
563.598	3467
563.659	3421
563.720	2686
563.780	3813
563.841	2787
563.901	2837
563.962	2742
564.023	3337
564.083	3200
564.144	3289
564.204	2707
564.265	2453
564.325	3272
564.386	4956
564.446	3229
564.507	2534
564.567	3227
564.628	2662
564.688	2568
564.749	1839
564.809	3067
564.869	3382
564.930	1884
564.990	3259
565.050	2390
565.111	3029
565.171	2446
565.231	2818
565.292	3323
565.352	2633
565.412	3113
565.472	2372
565.532	2722
565.593	2090
565.653	1905
565.713	2586
565.773	3138
565.833	3401
565.893	3933
565.953	2628
566.013	2336
566.074	3259
566.134	4407
566.194	3903
566.254	4113
566.314	3381
566.374	2414
566.434	2946
566.494	4001
566.554	3325
566.614	3654
566.673	3498
566.733	3595
566.793	4202
566.853	3413
566.913	3654
566.973	3815
567.033	3761
567.092	3622
567.152	3345
567.212	3867
567.272	4625
567.331	4117
567.391	4287
567.451	5157
567.511	5904
567.570	4508
567.630	4019
567.690	4371
567.749	4646
567.809	4408
567.868	5586
567.928	6198
567.988	6242
568.047	8976
568.107	12391
568.166	21405
568.226	39286
568.285	38513
568.345	21865
568.404	15868
568.464	14087
568.523	11816
568.582	13020
568.642	17286
568.701	30465
568.761	57618
568.820	77594
568.879	45369
568.939	25305
568.998	15937
569.057	11451
569.116	9237
569.176	7814
569.235	5894
569.294	6181
569.353	4440
569.413	4792
569.472	4119
569.531	3887
569.590	3040
569.649	3587
569.708	3360
569.767	4237
569.827	3843
569.886	2597
569.945	2635
570.004	3300
570.063	2930
570.122	3267
570.181	2518
570.240	3106
570.299	3445
570.358	3581
570.417	3368
570.475	2360
570.534	3023
570.593	3707
570.652	2998
570.711	3203
570.770	3460
570.829	4424
570.887	2572
570.946	3533
571.005	2135
571.064	2632
571.122	2852
571.181	2118
571.240	1816
571.299	3018
571.357	2417
571.416	2693
571.475	2018
571.533	2957
571.592	3258
571.650	2320
571.709	1930
571.768	3344
571.826	2962
571.885	2526
571.943	2186
572.002	2099
572.060	2973
572.119	2329
572.177	2679
572.236	2014
572.294	1443
572.352	2573
572.411	3035
572.469	1190
572.528	2206
572.586	2225
572.644	1909
572.703	2164
572.761	1292
572.819	2251
572.877	2489
572.936	1813
572.994	2231
573.052	1903
573.110	1776
573.169	2489
573.227	1890
573.285	1990
573.343	2179
573.401	2506
573.459	2440
573.517	2636
573.576	2688
573.634	2385
573.692	1815
573.750	2350
573.808	2305
573.866	1923
573.924	2461
573.982	1917
574.040	1791
574.098	2663
574.155	1493
574.213	2450
574.271	1962
574.329	2531
574.387	2001
574.445	1779
574.503	1611
574.560	1259
574.618	2262
574.676	1917
574.734	684
574.792	1704
574.849	1276
574.907	1340
574.965	2037
575.022	1129
575.080	800
575.138	1229
575.195	2015
575.253	1093
575.311	1676
575.368	1845
575.426	1424
575.483	2812
575.541	2005
575.598	1537
575.656	1213
575.713	1860
575.771	2384
575.828	1281
575.886	1405
575.943	2023
576.001	1239
576.058	1365
576.115	1197
576.173	1747
576.230	1673
576.287	2048
576.345	1810
576.402	2017
576.459	1588
576.517	1082
576.574	1267
576.631	1749
576.688	1739
576.746	1205
576.803	1616
576.860	1850
576.917	2171
576.974	1630
577.031	747
577.089	857
577.146	1781
577.203	1208
577.260	1568
577.317	1947
577.374	1486
577.431	1497
577.488	1064
577.545	930
577.602	1453
577.659	1165
577.716	1482
577.773	1483
577.830	1194
577.886	1610
577.943	879
578.000	2117
578.057	793
578.114	2386
578.171	2444
578.227	1307
578.284	523
578.341	1783
578.398	1499
578.454	1526
578.511	1135
578.568	1333
578.625	526
578.681	1434
578.738	1597
578.794	1587
578.851	1448
578.908	1350
578.964	1202
579.021	1257
579.077	629
579.134	993
579.190	1736
579.247	1876
579.303	1731
579.360	1162
579.416	1161
579.473	1609
579.529	121
579.586	1954
579.642	946
579.698	1730
579.755	2198
579.811	1923
579.867	1314
579.924	1372
579.980	700
580.036	1184
580.093	876
580.149	1648
580.205	1423
580.261	1542
580.317	1907
580.374	1590
580.430	1699
580.486	1998
580.542	762
580.598	2529
580.619	2136
580.654	1456
580.692	912
580.710	640
580.765	1390
580.767	1413
580.823	1393
580.838	1422
580.879	1503
580.911	1619
580.935	1694
580.984	1547
580.991	1528
581.047	2169
581.057	2028
581.103	1422
581.130	1653
581.159	1892
581.203	1699
581.215	1642
581.270	1855
581.276	1802
581.326	1314
581.349	1438
581.382	1598
581.422	1145
581.438	956
581.494	1547
581.494	1540
581.550	1004
581.567	1162
581.606	1426
581.640	1372
581.661	1368
581.713	1450
581.717	1454
581.773	1316
581.786	1309
581.829	1291
581.859	1472
581.885	1617
581.932	1554
581.940	1536
581.996	925
582.004	948
582.052	1157
582.077	1114
582.107	954
582.150	1452
582.163	1654
582.219	1557
582.223	1583
582.274	1762
582.296	1767
582.330	1830
582.368	1958
582.386	2014
582.441	1142
582.441	1140
582.497	1591
582.514	1593
582.552	1665
582.587	1910
582.608	2043
582.659	1375
582.663	1306
582.719	1993
582.732	1754
582.774	1200
582.805	1349
582.830	1466
582.877	1634
582.885	1647
582.941	2110
582.950	1970
582.996	1375
583.023	1700
583.052	2047
583.095	1786
583.107	1714
583.162	2134
583.168	2087
583.218	1586
583.240	1935
583.273	2432
583.313	2241
583.328	2193
583.384	2001
583.385	2014
583.439	2162
583.458	2056
583.494	2059
583.531	1812
583.549	1651
583.603	1786
583.605	1791
583.660	2054
583.676	2234
583.715	2636
583.748	2653
583.770	2639
583.820	2121
583.825	2077
583.881	2388
583.893	2230
583.936	1723
583.965	1645
583.991	1513
584.038	2030
584.046	2147
584.101	1573
584.110	1727
584.156	2491
584.183	2352
584.211	2161
584.255	2663
584.266	2812
584.321	2338
584.328	2438
584.376	3339
584.400	3260
584.431	2932
584.472	2484
584.486	2404
584.541	3233
584.545	3232
584.596	2892
584.617	2664
584.651	2676
584.689	3286
584.706	3368
584.761	3172
584.762	3170
584.816	3553
584.834	3634
584.871	3577
584.906	3682
584.926	3752
584.978	3623
584.980	3627
585.035	4581
585.051	4904
585.090	5762
585.123	6031
585.145	6254
585.195	6691
585.200	6763
585.254	8206
585.267	8831
585.309	11401
585.340	12808
585.364	13517
585.412	13862
585.419	13886
585.473	16821
585.484	18055
585.528	24901
585.556	32795
585.583	44743
585.628	77190
585.637	89435
585.692	213284
585.700	217347
585.747	225445
585.772	197873
585.801	108271
585.845	33154
585.856	28097
585.910	11753
585.917	10010
585.965	8458
585.989	7585
586.019	6986
586.061	6477
586.074	6505
586.128	6344
586.133	6358
586.183	6198
586.205	6262
586.237	6714
586.277	6468
586.292	6325
586.346	6426
586.349	6432
586.401	6476
586.421	6377
586.455	6283
586.493	6581
586.509	6872
586.564	7185
586.565	7199
586.618	8572
586.637	8876
586.672	9142
586.709	9996
586.727	10437
586.781	10450
586.781	10455
586.835	8276
586.853	7901
586.889	7578
586.925	7276
586.944	7271
586.996	7247
586.998	7256
587.052	7814
587.068	7818
587.106	7972
587.140	7989
587.161	8123
587.212	8665
587.215	8689
587.269	8807
587.284	8882
587.323	9075
587.356	9180
587.377	9471
587.427	10227
587.431	10275
587.485	10690
587.499	10827
587.539	11327
587.571	11826
587.593	12335
587.643	12816
587.648	12923
587.702	14592
587.715	14911
587.755	15232
587.786	15541
587.810	16096
587.858	17235
587.864	17385
587.917	18893
587.930	19196
587.971	20760
588.001	21924
588.025	23223
588.073	26132
588.079	26570
588.133	30174
588.145	30971
588.187	34051
588.217	36303
588.241	39079
588.288	44855
588.295	45761
588.348	53241
588.360	54884
588.402	62560
588.431	68366
588.456	74245
588.503	85870
588.510	87848
588.564	105727
588.575	109843
588.617	131168
588.646	148743
588.671	168318
588.718	214148
588.725	225967
588.778	335367
588.789	363295
588.832	573082
588.861	737904
588.886	975940
588.932	1386319
588.939	1415166
588.993	1526644
589.004	1531651
589.047	1152256
589.075	897536
589.100	691093
589.147	351717
589.154	337088
589.207	236596
589.218	217064
589.261	202040
589.290	195752
589.314	205115
589.361	232468
589.368	244203
589.421	357933
589.433	387905
589.475	647248
589.504	838468
589.528	1052091
589.576	1383450
589.582	1352857
589.635	973638
589.647	895060
589.689	516477
589.718	269782
589.742	216506
589.790	116380
589.795	112921
589.849	81086
589.861	73954
589.902	61748
589.932	52703
589.955	48816
590.004	41056
590.009	40617
590.062	35174
590.075	33811
590.115	30979
590.146	28746
590.168	27797
590.218	25470
590.222	25326
590.275	23140
590.289	22481
590.328	21619
590.360	20983
590.381	20605
590.431	19570
590.435	19543
590.488	18396
590.503	18069
590.541	17979
590.574	17724
590.594	17314
590.645	16410
590.647	16445
590.700	16197
590.716	16172
590.753	15384
590.787	14524
590.806	14761
590.859	15414
590.859	15437
590.912	14523
590.930	14330
590.965	14772
591.001	14987
591.018	14725
591.071	13795
591.072	13752
591.124	13921
591.143	13929
591.177	13774
591.214	13660
591.230	13761
591.283	13889
591.285	13856
591.336	13287
591.356	13076
591.389	13409
591.427	13623
591.442	13423
591.495	12578
591.498	12487
591.547	12125
591.569	11948
591.600	11894
591.640	11662
591.653	11980
591.706	13321
591.711	13430
591.759	12916
591.782	12567
591.811	12637
591.853	12712
591.864	12822
591.917	13246
591.924	13266
591.969	13225
591.995	13141
592.022	12958
592.066	12604
592.075	12650
592.127	12730
592.137	12722
592.180	13531
592.208	13970
592.233	13827
592.279	13487
592.285	13513
592.338	13445
592.350	13398
592.390	13549
592.421	13607
592.443	13368
592.491	12751
592.495	12822
592.548	13452
592.562	13597
592.600	13292
592.633	12991
592.653	13073
592.704	13154
592.705	13241
592.775	13860
592.846	13803
592.916	14155
592.987	14179
593.058	14770
593.128	14091
593.199	13338
593.270	14247
593.341	13527
593.411	14437
593.482	14578
593.553	15967
593.623	15198
593.694	15724
593.764	16016
593.835	15579
593.906	15094
593.976	15695
594.047	15731
594.117	17175
594.188	17127
594.258	17794
594.329	17244
594.399	17569
594.470	17630
594.540	18842
594.611	17955
594.681	18543
594.751	18933
594.822	22138
594.892	22984
594.963	22476
595.033	21395
595.103	22467
595.174	21079
595.244	22883
595.314	23937
595.384	23420
595.455	23128
595.525	24142
595.595	24892
595.665	24916
595.736	24690
595.806	25070
595.876	25499
595.946	26105
596.016	27200
596.087	27605
596.157	26640
596.227	27116
596.297	28647
596.367	29730
596.437	32215
596.507	33754
596.577	33279
596.647	32838
596.717	35181
596.787	36015
596.857	35260
596.927	35476
596.997	36259
597.067	36622
597.137	37956
597.207	37993
597.277	37080
597.347	35871
597.417	34873
597.487	34540
597.557	35776
597.626	36013
597.696	35339
597.766	37421
597.836	35502
597.906	33027
597.975	32267
598.045	31962
598.115	33287
598.185	35376
598.254	40429
598.324	43799
598.394	46076
598.464	44180
598.533	43206
598.603	40079
598.672	37896
598.742	39601
598.812	39134
598.881	40470
598.951	41216
599.020	40321
599.090	41483
599.159	43839
599.229	42549
599.299	39612
599.368	41829
599.437	40709
599.507	37262
599.576	36021
599.646	36008
599.715	35692
599.785	35381
599.854	33937
599.924	32972
599.993	33400
600.062	33173
600.132	32988
600.201	35154
600.270	42146
600.340	44581
600.409	44505
600.478	42907
600.547	44628
600.617	40705
600.686	31440
600.755	27808
600.824	26754
600.894	26108
600.963	26075
601.032	24894
601.101	23727
601.170	23363
601.239	22629
601.308	21786
601.378	21842
601.447	22082
601.516	21288
601.585	22560
601.654	22205
601.723	22334
601.792	23166
601.861	24015
601.930	26206
601.999	25087
602.068	25774
602.137	25956
602.206	26594
602.275	25950
602.343	27514
602.412	26584
602.481	27368
602.550	26450
602.619	28362
602.688	27718
602.756	28664
602.825	29501
602.894	30026
602.963	29889
603.032	31343
603.100	30724
603.169	30934
603.238	31838
603.307	31607
603.375	32436
603.444	32437
603.513	33265
603.581	34164
603.650	34284
603.719	34554
603.787	34646
603.856	36843
603.924	37020
603.993	38611
604.061	40374
604.130	41237
604.198	43748
604.267	44617
604.335	45025
604.404	44911
604.472	45023
604.541	47173
604.609	46554
604.678	48444
604.746	46681
604.815	48478
604.883	49392
604.951	49578
605.020	49932
605.088	51663
605.156	52629
605.225	54074
605.293	54484
605.361	54082
605.429	55266
605.498	57270
605.566	57781
605.634	61552
605.702	63627
605.771	65076
605.839	64882
605.907	66072
605.975	61454
606.043	59587
606.111	60533
606.180	60020
606.248	59630
606.316	60505
606.384	59036
606.452	59022
606.520	60496
606.588	63590
606.656	63759
606.724	63159
606.792	59237
606.860	54696
606.928	48462
606.996	46217
607.064	45353
607.132	46235
607.200	47849
607.267	51140
607.335	51946
607.403	53190
607.471	52436
607.539	47870
607.607	50089
607.674	44547
607.742	43563
607.810	43661
607.878	43852
607.946	44297
608.013	46837
608.081	47489
608.149	47919
608.216	48600
608.284	52731
608.352	52128
608.419	51251
608.487	50613
608.555	48717
608.622	50616
608.690	52372
608.757	59476
608.825	61267
608.893	59658
608.960	56620
609.028	53167
609.095	53521
609.163	53938
609.230	48471
609.298	43129
609.365	45257
609.432	49431
609.500	51950
609.567	60408
609.635	69504
609.702	75430
609.769	73954
609.837	59302
609.904	48933
609.971	50979
610.039	58029
610.106	76216
610.173	145839
610.241	373272
610.308	271419
610.375	67735
610.442	52604
610.509	49239
610.577	48769
610.644	48971
610.711	50888
610.778	52279
610.845	54071
610.912	58685
610.980	60665
611.047	63740
611.114	61123
611.181	57867
611.248	57192
611.315	60003
611.382	62387
611.449	65228
611.516	66717
611.583	66150
611.650	66438
611.717	67290
611.784	70333
611.851	73847
611.918	83350
611.984	100973
612.051	147718
612.118	312816
612.185	850241
612.252	722699
612.319	130958
612.386	91296
612.452	83270
612.519	78472
612.586	73932
612.653	74335
612.719	77022
612.786	76319
612.853	69050
612.919	66715
612.986	70050
613.053	63840
613.120	59416
613.186	56562
613.253	57995
613.319	57004
613.386	58784
613.453	58801
613.519	58383
613.586	58689
613.652	59466
613.719	58290
613.785	59960
613.852	61414
613.918	60499
613.985	63219
614.051	71372
614.118	92944
614.184	101316
614.250	63418
614.317	61093
614.383	60072
614.449	59917
614.516	61017
614.582	61411
614.648	60473
614.715	59293
614.781	57683
614.847	55194
614.914	57161
614.980	56287
615.046	55376
615.112	56781
615.179	58328
615.245	59505
615.311	60295
615.377	65321
615.443	69738
615.509	61254
615.575	64828
615.642	63849
615.708	65457
615.774	69887
615.840	78517
615.906	90591
615.972	121109
616.038	192601
616.104	405179
616.170	1042892
616.236	1224473
616.302	209921
616.368	125255
616.434	88512
616.500	77663
616.565	83768
616.631	111298
616.697	90337
616.763	88693
616.829	130165
616.895	257662
616.961	279751
617.026	105886
617.092	64457
617.158	59636
617.224	59129
617.289	54113
617.355	50888
617.421	49693
617.487	49994
617.552	47771
617.618	45567
617.684	45777
617.749	48210
617.815	44782
617.880	42805
617.946	43001
618.012	43527
618.077	45209
618.143	42322
618.208	42950
618.274	45649
618.339	47612
618.405	37886
618.470	37704
618.536	37769
618.601	35948
618.667	34501
618.732	32077
618.798	31766
618.863	31553
618.928	30541
618.994	31246
619.059	30738
619.124	32698
619.190	30865
619.255	30164
619.320	30628
619.386	31150
619.451	29147
619.516	29263
619.581	29517
619.647	30242
619.712	31012
619.777	28817
619.842	28916
619.907	29894
619.972	30295
620.038	31345
620.103	27589
620.168	28553
620.233	29748
620.298	28687
620.363	28750
620.428	31311
620.493	31137
620.558	32890
620.623	31701
620.688	32331
620.753	32206
620.818	32904
620.883	32463
620.948	32788
621.013	32597
621.078	31850
621.143	30813
621.207	33995
621.272	30782
621.337	30993
621.402	30692
621.467	30740
621.532	29585
621.596	30621
621.661	28723
621.726	29517
621.791	28173
621.855	29080
621.920	28738
621.985	29563
622.049	30642
622.114	31649
622.179	29910
622.243	30300
622.308	32262
622.373	34203
622.437	34203
622.502	31738
622.566	30587
622.631	29511
622.695	31702
622.760	31309
622.824	31347
622.889	30443
622.953	30942
623.018	34338
623.082	35477
623.147	33437
623.211	32166
623.276	32890
623.340	30613
623.404	29981
623.469	30418
623.533	29936
623.597	29135
623.662	29807
623.726	26815
623.790	24352
623.854	22425
623.919	24625
623.983	25050
624.047	25029
624.111	25486
624.176	26211
624.240	27546
624.304	27726
624.368	26677
624.432	26926
624.496	26088
624.560	29554
624.625	29738
624.689	30582
624.753	31132
624.817	30374
624.881	28686
624.945	26326
625.009	22740
625.073	24728
625.137	24769
625.201	28208
625.265	27300
625.329	27027
625.393	26216
625.456	27227
625.520	27719
625.584	28070
625.648	29297
625.712	30711
625.776	32748
625.839	33055
625.903	25296
625.967	21300
626.031	23622
626.095	29211
626.158	26906
626.222	20961
626.286	19040
626.349	18101
626.413	15688
626.477	15983
626.540	15839
626.604	16067
626.668	15558
626.731	16097
626.795	15112
626.858	15970
626.922	15280
626.986	15985
627.049	14778
627.113	16633
627.176	16062
627.240	15265
627.303	15037
627.366	16347
627.430	16053
627.493	15864
627.557	14058
627.620	16244
627.684	15957
627.747	17528
627.810	15141
627.874	14090
627.937	12514
628.000	15296
628.064	13591
628.127	11835
628.190	11025
628.253	11851
628.317	10319
628.380	10766
628.443	10372
628.506	9886
628.569	9767
628.632	9568
628.696	9724
628.759	9448
628.822	8814
628.885	7848
628.948	8523
629.011	9042
629.074	8777
629.137	8705
629.200	7017
629.263	8410
629.326	7348
629.389	7910
629.452	7431
629.515	7570
629.578	7075
629.641	8129
629.704	6856
629.767	8012
629.830	7545
629.892	7400
629.955	6067
630.018	8709
630.081	6916
630.144	7668
630.207	6650
630.269	6797
630.332	6837
630.395	7731
630.458	7423
630.520	6293
630.583	7207
630.646	6980
630.708	7215
630.771	6338
630.834	7233
630.896	7681
630.959	7791
631.021	6873
631.084	6860
631.146	8624
631.209	6926
631.272	7257
631.334	7827
631.397	8293
631.459	7542
631.522	8974
631.584	8653
631.646	9888
631.709	11061
631.771	11454
631.834	10864
631.896	10233
631.958	8210
632.021	8706
632.083	7138
632.145	7710
632.208	7413
632.270	8051
632.332	7459
632.395	6467
632.457	7363
632.519	7058
632.581	7011
632.643	6282
632.706	7621
632.768	6886
632.830	7447
632.892	6898
632.954	6946
633.016	7485
633.078	6655
633.141	6930
633.203	6504
633.265	8105
633.327	6520
633.389	7047
633.451	6863
633.513	7401
633.575	7155
633.637	7956
633.698	8069
633.760	7399
633.822	8042
633.884	8746
633.946	8066
634.008	9060
634.070	10093
634.132	10964
634.193	11513
634.255	14120
634.317	14082
634.379	14665
634.441	11251
634.502	11677
634.564	9841
634.626	10903
634.687	12958
634.749	9510
634.811	7558
634.873	6710
634.934	7236
634.996	7782
635.057	6062
635.119	7005
635.181	8020
635.242	7888
635.304	5931
635.365	9663
635.427	7035
635.488	7041
635.550	6751
635.611	7788
635.673	6348
635.734	8219
635.796	9097
635.857	10512
635.918	10798
635.980	12979
636.041	13307
636.102	14380
636.164	15617
636.225	15591
636.286	12332
636.348	11651
636.409	9230
636.470	7372
636.531	7842
636.593	7363
636.654	7140
636.715	6566
636.776	5769
636.838	6823
636.899	7008
636.960	5900
637.021	6157
637.082	7751
637.143	8101
637.204	5927
637.265	5697
637.326	5209
637.387	5405
637.448	5419
637.509	5108
637.570	6283
637.631	5882
637.692	4789
637.753	4087
637.814	4605
637.875	4839
637.936	5570
637.997	4336
638.058	5173
638.119	5180
638.179	4620
638.240	3942
638.301	5658
638.362	3824
638.423	4682
638.483	4171
638.544	3815
638.605	4980
638.666	3761
638.726	4534
638.787	5659
638.848	4605
638.908	5183
638.969	3391
639.030	5272
639.090	3456
639.151	3596
639.211	4210
639.272	5706
639.332	4919
639.393	4801
639.453	4120
639.514	4881
639.574	5119
639.635	3343
639.695	3740
639.756	2953
639.816	3775
639.877	3338
639.937	4662
639.997	5375
640.058	3633
640.118	4504
640.178	4344
640.239	3848
640.299	3616
640.359	4180
640.420	4031
640.480	5860
640.540	5802
640.600	7609
640.661	4807
640.721	4224
640.781	6978
640.841	6637
640.901	5418
640.961	4886
641.021	4057
641.082	4505
641.142	4234
641.202	4357
641.262	2015
641.322	4995
641.382	3331
641.442	4505
641.502	3707
641.562	4144
641.622	3354
641.682	4291
641.742	5489
641.802	4339
641.861	4106
641.921	3967
641.981	4457
642.041	4339
642.101	3053
642.161	2781
642.221	2822
642.280	2901
642.340	3374
642.400	3180
642.460	3608
642.519	3421
642.579	2440
642.639	4388
642.698	1688
642.758	4999
642.818	3634
642.877	3284
642.937	3597
642.997	3985
643.056	4319
643.116	3640
643.175	4531
643.235	3667
643.294	5320
643.354	6514
643.414	6142
643.473	10059
643.532	13221
643.592	21645
643.651	36193
643.711	64727
643.770	122555
643.830	276392
643.889	819702
643.948	327801
644.008	30253
644.067	14894
644.126	10800
644.186	7533
644.245	6474
644.304	4996
644.363	5915
644.423	5304
644.482	5396
644.541	5339
644.600	4846
644.659	7726
644.719	9451
644.778	16554
644.837	26431
644.896	53996
644.955	150664
645.014	83883
645.073	10530
645.132	6704
645.191	6043
645.250	5425
645.309	5907
645.368	5969
645.427	7941
645.486	11663
645.545	28796
645.604	11905
645.663	5014
645.722	6079
645.781	6962
645.840	8787
645.898	12478
645.957	19719
646.016	30304
646.075	57441
646.134	111559
646.192	266108
646.251	626970
646.310	140983
646.369	18410
646.427	12319
646.486	8424
646.545	6714
646.603	5473
646.662	4533
646.721	3924
646.779	4593
646.838	3895
646.896	7457
646.955	8467
647.014	15388
647.072	27141
647.131	83622
647.189	72189
647.248	7598
647.306	5369
647.365	4752
647.423	1350
647.481	4115
647.540	1599
647.598	2853
647.657	2414
647.715	3974
647.773	2289
647.832	3097
647.890	1382
647.948	2168
648.007	2554
648.065	2263
648.123	2214
648.181	4242
648.240	2904
648.298	2476
648.356	2330
648.414	3330
648.472	2663
648.531	3168
648.589	2599
648.647	2408
648.705	3140
648.763	3287
648.821	3559
648.879	2874
648.937	4827
648.995	6316
649.053	8102
649.111	13824
649.169	23646
649.227	40666
649.285	78349
649.343	255572
649.401	223692
649.459	22391
649.516	10671
649.574	9667
649.632	16168
649.690	28031
649.748	11063
649.806	11517
649.863	21505
649.921	53906
649.979	63654
650.037	8959
650.094	2407
650.152	3567
650.210	2134
650.268	3500
650.325	2530
650.383	3190
650.440	1522
650.498	2857
650.556	1603
650.613	841
650.671	1548
650.728	1831
650.786	1465
650.843	2042
650.901	1373
650.958	1991
651.016	1874
651.073	1746
651.131	1000
651.188	870
651.246	1265
651.303	581
651.360	1413
651.418	1192
651.475	1583
651.532	206
651.590	1527
651.647	525
651.704	532
651.762	1632
651.819	1061
651.876	930
651.933	463
651.990	2007
652.048	368
652.105	467
652.162	1352
652.219	689
652.276	1170
652.333	1072
652.390	-349
652.448	691
652.505	533
652.562	792
652.619	407
652.676	2162
652.733	3024
652.790	792
652.847	-637
652.904	1599
652.961	110
653.017	666
653.074	1394
653.131	1559
653.188	709
653.245	913
653.302	860
653.359	277
653.415	1535
653.472	-192
653.529	121
653.586	447
653.642	348
653.699	1848
653.756	47
653.813	574
653.869	1658
653.926	394
653.983	296
654.039	1944
654.096	645
654.152	1414
654.209	-438
654.266	1348
654.322	91
654.379	656
654.435	963
654.492	992
654.548	1039
654.605	1383
654.661	1284
654.717	877
654.774	672
654.830	584
654.887	514
654.943	1488
655.000	1214
655.056	2629
655.112	1794
655.168	316
655.225	1258
655.281	1471
655.337	361
655.394	1681
655.450	1490
655.506	1484
655.562	943
655.618	3039
655.675	1143
655.731	3028
655.787	2435
655.843	3381
655.899	2438
655.955	3757
656.011	4775
656.067	4230
656.123	6147
656.179	8181
656.235	9539
656.291	7400
656.347	8020
656.403	5913
656.459	4255
656.515	4298
656.571	2329
656.627	2950
656.683	847
656.739	2502
656.795	1540
656.850	1824
656.906	2427
656.962	3412
657.018	1168
657.074	1351
657.129	1876
657.185	2713
657.241	5318
657.297	6223
657.352	1880
657.408	485
657.464	1353
657.519	350
657.575	-167
657.630	841
657.686	469
657.742	-709
657.797	734
657.853	454
657.908	1263
657.964	62
658.019	308
658.075	670
658.130	197
658.186	-189
658.241	294
658.297	337
658.352	-140
658.407	1132
658.463	17
658.518	902
658.573	-425
658.629	-26
658.684	222
658.739	1173
658.795	-440
658.850	541
658.905	-425
658.960	735
659.016	-673
659.071	80
659.126	-330
659.181	423
659.236	458
659.291	2012
659.346	-197
659.401	1022
659.457	870
659.512	863
659.567	1059
659.622	261
659.677	-612
659.732	-139
659.787	331
659.842	178
659.897	180
659.952	501
660.007	368
660.061	826
660.116	-560
660.171	-78
660.226	-186
660.281	702
660.336	-55
660.391	531
660.445	-352
660.500	-243
660.555	526
660.610	71
660.664	616
660.719	-39
660.774	493
660.828	634
660.883	625
660.938	809
660.992	-616
661.047	73
661.101	-619
661.156	303
661.211	-1710
661.265	469
661.320	-487
661.374	449
661.429	-42
661.483	933
661.538	-459
661.592	-268
661.647	-324
661.701	401
661.755	731
661.810	-308
661.864	-553
661.919	94
661.973	512
662.027	251
662.081	-828
662.136	-677
662.190	402
662.244	989
662.299	-112
662.353	126
662.407	-219
662.461	413
662.515	116
662.569	-520
662.624	715
662.678	-435
662.732	58
662.786	103
662.840	699
662.894	517
662.948	117
663.002	-709
663.056	260
663.110	240
663.164	-430
663.218	749
663.272	166
663.326	178
663.380	19
663.434	-260
663.488	-807
663.542	143
663.595	-268
663.649	-688
663.703	780
663.757	-78
663.811	-1362
663.864	92
663.918	-552
663.972	-543
664.026	-78
664.079	-612
664.133	-22
664.187	-273
664.240	-213
664.294	758
664.348	161
664.401	880
664.455	348
664.508	-31
664.562	-104
664.615	719
664.669	-935
664.722	143
664.776	-682
664.829	366
664.883	-479
664.936	-495
664.990	712
665.043	169
665.097	-286
665.150	750
665.203	-882
665.257	65
665.310	231
665.363	-40
665.417	-427
665.470	-209
665.523	-80
665.576	492
665.630	682
665.683	-313
665.736	-56
665.789	-374
665.842	-240
665.895	378
665.949	-145
666.002	30
666.055	412
666.108	596
666.161	-372
666.214	249
666.267	77
666.320	137
666.373	355
666.426	652
666.479	-555
666.532	637
666.585	100
666.638	509
666.691	-878
666.744	468
666.796	-159
666.849	348
666.902	988
666.955	241
667.008	-925
667.060	551
667.113	-241
667.166	133
667.219	-668
667.271	-122
667.324	-838
667.377	300
667.430	125
667.482	60
667.535	214
667.587	194
667.640	-484
667.693	-901
667.745	-350
667.798	67
667.850	-195
667.903	125
667.955	-184
668.008	553
668.060	142
668.113	-403
668.165	55
668.218	690
668.270	-158
668.322	-163
668.375	-479
668.427	966
668.479	-787
668.532	197
668.584	-137
668.636	95
668.689	168
668.741	126
668.793	454
668.845	-1068
668.898	944
668.950	-942
669.002	-256
669.054	-490
669.106	-521
669.158	355
669.211	-469
669.263	108
669.315	294
669.367	897
669.419	845
669.471	1745
669.523	1643
669.575	5807
669.627	4038
669.679	1887
669.731	427
669.783	1101
669.835	2921
669.886	2808
669.938	549
669.990	647
670.042	-124
670.094	415
670.146	-894
670.197	-69
670.249	-271
670.301	278
670.353	135
670.404	1374
670.456	539
670.508	829
670.560	1963
670.611	5060
670.663	7062
670.715	17655
670.766	42215
670.818	23103
670.869	2412
670.921	482
670.972	708
671.024	-86
671.075	-88
671.127	167
671.178	-590
671.230	-175
671.281	387
671.333	-46
671.384	542
671.436	1517
671.487	2128
671.538	3244
671.590	5189
671.641	10439
671.692	17495
671.744	44378
671.795	40109
671.846	9929
671.897	3227
671.949	1434
672.000	993
672.051	76
672.102	201
672.153	-407
672.204	-390
672.256	298
672.307	-272
672.358	56
672.409	94
672.460	187
672.511	-547
672.562	-873
672.613	-764
672.664	-489
672.715	180
672.766	-848
672.817	-605
672.868	-480
672.919	-344
672.970	-859
673.021	-761
673.071	-708
673.122	78
673.173	-258
673.224	-393
673.275	131
673.326	-1000
673.376	162
673.427	-1049
673.478	-399
673.528	-604
673.579	-510
673.630	-257
673.680	-92
673.731	-1459
673.782	-349
673.832	237
673.883	239
673.934	-1056
673.984	-447
674.035	-684
674.085	-127
674.136	-395
674.186	-1105
674.237	199
674.287	-312
674.338	249
674.388	-212
674.438	-690
674.489	92
674.539	-730
674.589	-236
674.640	6
674.690	-388
674.740	-1334
674.791	-43
674.841	-843
674.891	117
674.942	-933
674.992	-857
675.042	-801
675.092	-399
675.142	-1225
675.193	-300
675.243	-1158
675.293	-430
675.343	-1692
675.393	-370
675.443	-434
675.493	-1150
675.543	-1014
675.593	-196
675.643	-1240
675.693	-761
675.743	-1024
675.793	317
675.843	-986
675.893	-1032
675.943	-483
675.993	-398
676.043	-102
676.093	165
676.142	-1110
676.192	-721
676.242	-1582
676.292	-894
676.341	-1385
676.391	-750
676.441	-1134
676.491	-1053
676.540	-826
676.590	-267
676.640	-876
676.689	-763
676.739	-1364
676.789	-1180
676.838	-784
676.888	-858
676.937	-1641
676.987	-975
677.037	-1212
677.086	-1369
677.136	-870
677.185	-1069
677.235	-1388
677.284	-1094
677.333	-887
677.383	-1693
677.432	-582
677.482	-663
677.531	-1472
677.580	-903
677.630	-1536
677.679	-942
677.728	-1193
677.778	-1166
677.827	-963
677.876	-923
677.925	-1645
677.975	-263
678.024	-1295
678.073	-616
678.122	-1046
678.171	-901
678.220	-603
678.269	-634
678.319	-487
678.368	-227
678.417	-498
678.466	-680
678.515	-770
678.564	-1161
678.613	-793
678.662	-1140
678.711	-473
678.760	-1065
678.809	-1098
678.857	-1351
678.906	-815
678.955	-675
679.004	-159
679.053	-315
679.102	-1004
679.151	-822
679.199	-1237
679.248	-1017
679.297	-1571
679.346	-549
679.394	-1634
679.443	-839
679.492	-1330
679.540	-1266
679.589	-1379
679.638	-1006
679.686	-825
679.735	-435
679.784	-1680
679.832	-319
679.881	-1282
679.929	-363
679.978	-1000
680.026	-1040
680.075	-1210
680.123	-477
680.172	-1287
680.220	-1324
680.268	-1580
680.317	-1006
680.365	-1773
680.414	-915
680.462	-1117
680.510	-561
680.559	-1793
680.607	-1043
680.655	-1056
680.703	-1115
680.752	-1487
680.800	-1139
680.848	-1110
680.896	-947
680.945	-899
680.993	-1380
681.041	-1115
681.089	-735
681.137	-1005
681.185	-1444
681.233	-1579
681.258	-1410
681.281	-1257
681.329	-546
681.377	-1363
681.380	-1320
681.425	-621
681.473	127
681.502	-500
681.521	-951
681.569	-369
681.617	-1699
681.624	-1486
681.665	-147
681.713	-990
681.745	-626
681.761	-460
681.809	-1067
681.857	-998
681.867	-1120
681.904	-1580
681.952	-693
681.989	-751
682.000	-779
682.048	-706
682.096	-998
682.111	-977
682.143	-926
682.191	-1483
682.233	-607
682.239	-483
682.286	-1033
682.334	-815
682.354	-1248
682.382	-1843
682.430	-1393
682.476	-1338
682.477	-1342
682.525	-708
682.572	-989
682.598	-801
682.620	-657
682.667	-603
682.715	-202
682.720	-234
682.763	-610
682.810	-932
682.841	-846
682.857	-803
682.905	-1147
682.952	-458
682.963	-501
683.000	-692
683.047	-772
683.085	-654
683.095	-618
683.142	-601
683.190	-733
683.206	-717
683.237	-712
683.284	-551
683.328	-72
683.332	-33
683.379	-874
683.426	-489
683.449	-486
683.473	-504
683.521	-1010
683.568	-638
683.571	-629
683.615	-600
683.662	-927
683.693	-1053
683.709	-1128
683.757	-554
683.804	-922
683.814	-889
683.851	-807
683.898	-575
683.936	-397
683.945	-333
683.992	-50
684.039	-631
684.057	-644
684.086	-790
684.133	-106
684.179	-842
684.180	-864
684.227	35
684.274	-527
684.300	-606
684.321	-716
684.368	-652
684.415	-702
684.422	-694
684.462	-631
684.509	-424
684.543	-546
684.556	-622
684.603	-556
684.649	-948
684.665	-683
684.696	-63
684.743	-671
684.786	170
684.790	230
684.837	-357
684.883	18
684.908	-248
684.930	-476
684.977	-613
685.023	-324
685.029	-356
685.070	-665
685.117	-441
685.150	-128
685.164	3
685.210	-152
685.257	-276
685.272	-154
685.303	112
685.350	-51
685.393	-386
685.396	-418
685.443	26
685.490	-350
685.514	-421
685.536	-509
685.583	112
685.629	213
685.636	39
685.675	-1028
685.722	-365
685.757	-309
685.768	-258
685.815	-403
685.861	234
685.878	157
685.908	-44
685.954	-386
686.000	138
686.000	146
686.047	-163
686.093	277
686.121	-342
686.139	-754
686.185	483
686.232	260
686.242	143
686.278	-326
686.324	282
686.363	494
686.370	546
686.416	-484
686.463	128
686.484	171
686.509	181
686.555	487
686.601	-6
686.606	33
686.647	310
686.693	-230
686.727	110
686.739	270
686.785	-451
686.831	-14
686.848	68
686.877	191
686.923	584
686.969	258
686.969	255
687.015	302
687.061	-347
687.090	-236
687.107	-124
687.153	-120
687.199	82
687.211	168
687.245	423
687.291	234
687.332	324
687.336	324
687.382	438
687.428	204
687.453	337
687.474	446
687.520	35
687.565	309
687.574	253
687.611	248
687.657	927
687.695	542
687.702	443
687.748	942
687.794	1264
687.816	1384
687.839	1417
687.885	834
687.931	811
687.937	774
687.976	666
688.022	724
688.058	360
688.067	276
688.113	904
688.158	170
688.179	158
688.204	132
688.249	201
688.295	446
688.300	370
688.340	-65
688.386	719
688.421	349
688.431	204
688.477	888
688.522	450
688.542	442
688.567	577
688.613	618
688.658	420
688.663	442
688.703	512
688.749	962
688.784	664
688.794	561
688.839	599
688.884	516
688.905	600
688.930	822
688.975	752
689.020	606
689.026	625
689.065	596
689.110	611
689.146	566
689.155	601
689.201	1257
689.246	1034
689.267	1014
689.291	857
689.336	700
689.381	801
689.388	718
689.426	400
689.471	941
689.509	428
689.516	354
689.561	773
689.606	453
689.630	849
689.651	1073
689.696	463
689.741	643
689.750	601
689.785	600
689.830	381
689.871	585
689.875	619
689.920	557
689.965	691
689.992	601
690.010	480
690.054	424
690.099	625
690.112	551
690.144	418
690.189	644
690.233	288
690.233	290
690.278	911
690.323	438
690.354	708
690.367	856
690.412	928
690.457	1047
690.474	1205
690.501	1244
690.546	851
690.590	588
690.595	536
690.635	525
690.680	949
690.716	1302
690.724	1308
690.769	978
690.813	758
690.836	706
690.857	862
690.902	1179
690.946	1316
690.957	1368
690.991	1416
691.035	1602
691.077	1773
691.080	1794
691.124	1709
691.168	2155
691.198	1973
691.213	1687
691.257	1487
691.301	908
691.318	796
691.346	944
691.390	623
691.434	891
691.439	880
691.478	821
691.522	1007
691.559	1267
691.567	1329
691.611	1432
691.655	1275
691.680	1370
691.699	1417
691.743	1564
691.787	1472
691.800	1406
691.831	1085
691.875	1136
691.919	738
691.921	715
691.964	328
692.008	289
692.041	436
692.052	570
692.096	1084
692.139	1304
692.162	1361
692.183	1244
692.227	1379
692.271	1061
692.282	1099
692.315	1347
692.359	1252
692.402	1519
692.403	1525
692.447	1170
692.490	1041
692.523	895
692.534	956
692.578	1333
692.622	1609
692.643	1769
692.666	1612
692.709	1262
692.753	913
692.763	809
692.797	991
692.840	1268
692.884	1531
692.884	1539
692.928	1561
692.971	1744
693.004	1864
693.015	1839
693.059	1707
693.102	1786
693.124	1484
693.146	1284
693.189	1454
693.233	1460
693.245	1517
693.276	1752
693.320	1703
693.363	1686
693.365	1690
693.407	1728
693.450	1472
693.485	1216
693.493	1228
693.537	1350
693.580	1595
693.605	1494
693.624	1368
693.667	1257
693.710	1805
693.725	1724
693.753	2026
693.797	2653
693.840	3481
693.845	3551
693.883	3527
693.926	3273
693.966	3358
693.970	3322
694.013	2706
694.056	2256
694.086	1684
694.099	1629
694.142	1574
694.185	1513
694.206	1587
694.229	1733
694.272	1686
694.315	1785
694.326	1787
694.358	1713
694.401	1962
694.444	1896
694.446	1884
694.487	1960
694.530	1766
694.566	2232
694.573	2278
694.616	1776
694.659	1765
694.686	1598
694.702	1602
694.745	1705
694.787	1584
694.806	1671
694.830	1690
694.873	1402
694.916	1374
694.926	1262
694.959	1118
695.002	1460
695.044	1612
695.046	1609
695.087	1579
695.130	1264
695.166	1435
695.172	1488
695.215	1389
695.258	1648
695.286	1565
695.301	1582
695.343	1865
695.386	2243
695.406	2256
695.428	2187
695.471	2283
695.514	2201
695.526	2182
695.556	2105
695.599	2121
695.641	1999
695.646	1981
695.684	2105
695.726	2295
695.766	2411
695.769	2407
695.811	2244
695.854	1937
695.886	1696
695.896	1694
695.938	1889
695.981	2013
696.005	2011
696.023	2173
696.065	2572
696.108	3027
696.125	3148
696.150	3071
696.192	3061
696.235	3014
696.245	2963
696.277	2938
696.319	3050
696.361	3254
696.365	3232
696.404	2848
696.446	2758
696.485	2527
696.488	2552
696.530	2634
696.572	2894
696.604	3044
696.614	3084
696.656	3126
696.698	3266
696.724	3322
696.740	3333
696.783	3346
696.825	3404
696.844	3417
696.867	3258
696.909	2822
696.951	2457
696.964	2331
696.992	2461
697.034	2694
697.076	2732
697.083	2764
697.118	3159
697.160	3515
697.202	3952
697.203	3949
697.244	3445
697.286	3037
697.323	2471
697.327	2509
697.369	2871
697.411	3272
697.442	3571
697.453	3522
697.494	3218
697.536	2920
697.562	2743
697.578	2933
697.620	3386
697.661	3820
697.682	4032
697.703	3941
697.744	3721
697.786	3569
697.801	3452
697.828	3425
697.869	3446
697.911	3458
697.921	3457
697.952	3517
697.994	3475
698.035	3530
698.040	3521
698.077	3606
698.118	3679
698.160	3716
698.160	3702
698.201	3729
698.243	3719
698.279	3723
698.284	3731
698.325	3660
698.367	3633
698.399	3545
698.408	3552
698.449	3548
698.491	3574
698.518	3561
698.532	3688
698.573	4033
698.614	4398
698.638	4586
698.656	4542
698.697	4411
698.738	4274
698.757	4202
698.779	4108
698.820	3889
698.862	3672
698.877	3579
698.903	3685
698.944	3846
698.985	3997
698.996	4027
699.026	4043
699.067	4051
699.116	4048
699.235	3911
699.354	4004
699.474	3790
699.593	4290
699.713	3885
699.832	4814
699.951	4985
700.070	4904
700.190	4154
700.309	3774
700.428	4242
700.547	3811
700.667	4077
700.786	4584
700.905	4336
701.024	4758
701.143	3438
701.262	4175
701.381	4359
701.500	3689
701.619	4120
701.738	3579
701.857	4347
701.976	3801
702.095	3325
702.214	3705
702.333	3826
702.452	3886
702.571	3740
702.690	3917
702.809	3621
702.928	3199
703.047	3321
703.165	3649
703.284	3200
703.403	3878
703.522	3374
703.640	3921
703.759	3847
703.878	3317
703.997	2746
704.115	3541
704.234	3962
704.353	3568
704.471	2761
704.590	2227
704.708	2897
704.827	2964
704.946	3158
705.064	2307
705.183	3682
705.301	3323
705.420	3218
705.538	3853
705.656	2649
705.775	2798
705.893	5170
706.012	6045
706.130	2668
706.249	3611
706.367	3124
706.485	3079
706.604	3464
706.722	3432
706.840	3864
706.958	5476
707.077	4889
707.195	3429
707.313	2868
707.431	2569
707.549	2484
707.668	2794
707.786	3495
707.904	2935
708.022	2672
708.140	2829
708.258	2603
708.376	3426
708.494	2372
708.612	2992
708.730	3079
708.848	2995
708.966	3290
709.084	3463
709.202	3218
709.320	3268
709.438	2456
709.556	2046
709.674	3186
709.791	2427
709.909	2567
710.027	2872
710.145	2700
710.263	2356
710.380	3071
710.498	3243
710.616	2615
710.733	1570
710.851	2325
710.969	2382
711.086	2184
711.204	2753
711.322	2182
711.439	1811
711.557	2597
711.674	2966
711.792	2056
711.909	2350
712.027	2376
712.144	2618
712.262	2415
712.379	2295
712.497	2630
712.614	3076
712.732	2576
712.849	2159
712.966	2500
713.084	3365
713.201	2138
713.318	2145
713.436	2513
713.553	2545
713.670	3219
713.787	3240
713.905	2333
714.022	2777
714.139	2867
714.256	3948
714.373	6522
714.490	12905
714.608	31333
714.725	159848
714.842	301986
714.959	21603
715.076	5015
715.193	3573
715.310	3676
715.427	3143
715.544	2415
715.661	3205
715.778	2462
715.895	2915
716.011	1893
716.128	2515
716.245	2363
716.362	2937
716.479	2435
716.596	3336
716.713	3226
716.829	3239
716.946	2148
717.063	1890
717.180	1382
717.296	1730
717.413	1714
717.530	2890
717.646	2244
717.763	1823
717.880	1144
717.996	1508
718.113	1891
718.229	1611
718.346	1802
718.462	1488
718.579	2225
718.695	2735
718.812	2075
718.928	2302
719.045	1931
719.161	1431
719.277	1218
719.394	2740
719.510	2849
719.626	2750
719.743	3166
719.859	4496
719.975	9251
720.092	37688
720.208	132613
720.324	28057
720.440	3249
720.557	2016
720.673	2031
720.789	2729
720.905	3835
721.021	2761
721.137	1017
721.253	1625
721.369	1344
721.486	1651
721.602	1233
721.718	1748
721.834	1541
721.950	1169
722.066	1057
722.181	1508
722.297	1277
722.413	2907
722.529	1428
722.645	1824
722.761	1812
722.877	1484
722.993	1650
723.108	1799
723.224	1717
723.340	1798
723.456	1796
723.571	1572
723.687	1361
723.803	1186
723.918	1480
724.034	1760
724.150	853
724.265	2138
724.381	1095
724.497	2674
724.612	238
724.728	221
724.843	1095
724.959	1842
725.074	1863
725.190	3395
725.305	1328
725.421	1912
725.536	1041
725.651	1701
725.767	1416
725.882	2298
725.997	894
726.113	1257
726.228	1450
726.343	1342
726.459	1697
726.574	1343
726.689	1020
726.804	1392
726.920	544
727.035	1469
727.150	1499
727.265	2146
727.380	1544
727.495	1768
727.610	1669
727.725	840
727.841	869
727.956	2403
728.071	3435
728.186	777
728.301	1055
728.416	1479
728.531	1238
728.645	1085
728.760	1491
728.875	2618
728.990	2877
729.105	1459
729.220	1475
729.335	909
729.449	1168
729.564	663
729.679	524
729.794	1326
729.908	1226
730.023	1623
730.138	1202
730.253	1272
730.367	1366
730.482	1376
730.596	2104
730.711	1724
730.826	2197
730.940	1946
731.055	1782
731.169	616
731.284	1163
731.398	2214
731.513	1819
731.627	2338
731.742	1822
731.856	2204
731.970	2012
732.085	2120
732.199	3682
732.313	5180
732.428	13486
732.542	56363
732.656	60117
732.771	6934
732.885	3174
732.999	2358
733.113	2823
733.227	2560
733.342	2780
733.456	2710
733.570	2381
733.684	2351
733.798	2074
733.912	1874
734.026	2396
734.140	2419
734.254	1965
734.368	2599
734.482	2695
734.596	2106
734.710	2843
734.824	2492
734.938	1945
735.052	2051
735.166	1690
735.280	2430
735.393	2796
735.507	2231
735.621	2070
735.735	3088
735.849	3075
735.962	2517
736.076	2272
736.190	2749
736.303	1771
736.417	2845
736.531	2606
736.644	3103
736.758	2786
736.872	2231
736.985	2305
737.099	2799
737.212	2347
737.326	2511
737.439	2516
737.553	1824
737.666	2753
737.780	2237
737.893	1814
738.007	1967
738.120	2141
738.233	2234
738.347	2253
738.460	2547
738.573	1911
738.687	1562
738.800	2097
738.913	1929
739.026	2350
739.140	1806
739.253	1830
739.366	1361
739.479	1627
739.592	1495
739.705	1615
739.818	2224
739.932	2192
740.045	1789
740.158	2091
740.271	1231
740.384	1999
740.497	2108
740.610	3299
740.723	2532
740.836	2633
740.949	2618
741.062	1696
741.174	2467
741.287	2409
741.400	2018
741.513	1151
741.626	2813
741.739	2108
741.851	1181
741.964	1822
742.077	2173
742.189	3205
742.302	5137
742.415	6812
742.527	2398
742.640	1900
742.753	1703
742.865	1623
742.978	2023
743.090	975
743.203	2015
743.316	1256
743.428	845
743.541	801
743.653	962
743.766	1132
743.878	2200
743.990	2261
744.103	3836
744.215	10251
744.327	5610
744.440	2088
744.552	1981
744.664	979
744.777	1365
744.889	1130
745.001	1979
745.113	1076
745.226	771
745.338	1182
745.450	1411
745.562	1007
745.674	494
745.786	1618
745.898	1540
746.010	837
746.122	1322
746.234	1518
746.347	1109
746.459	1538
746.570	1268
746.682	4410
746.794	13239
746.906	11959
747.018	1830
747.130	1960
747.242	555
747.354	1608
747.466	1318
747.577	1490
747.689	1391
747.801	490
747.913	1125
748.024	685
748.136	1268
748.248	654
748.359	1481
748.471	942
748.583	744
748.694	507
748.806	1798
748.918	713
749.029	522
749.141	708
749.252	1905
749.364	692
749.475	1528
749.587	730
749.698	370
749.809	763
749.921	1282
750.032	756
750.144	949
750.255	299
750.366	433
750.478	711
750.589	740
750.700	696
750.811	1442
750.923	1033
751.034	1042
751.145	2351
751.256	500
751.367	622
751.479	1401
751.590	333
751.701	410
751.812	-235
751.923	914
752.034	860
752.145	1528
752.256	298
752.367	402
752.478	691
752.589	952
752.700	-48
752.811	387
752.922	833
753.032	371
753.143	958
753.254	837
753.365	1608
753.476	306
753.586	664
753.697	775
753.808	-101
753.919	452
754.029	736
754.140	1036
754.251	193
754.361	1175
754.472	-463
754.582	809
754.693	655
754.804	1642
754.914	694
755.025	820
755.135	379
755.246	608
755.356	82
755.466	967
755.577	1268
755.687	1118
755.798	882
755.908	992
756.018	1096
756.129	679
756.239	14
756.349	978
756.460	740
756.570	1077
756.680	522
756.790	787
756.900	1008
757.011	1202
757.121	473
757.231	-507
757.341	742
757.451	1135
757.561	1146
757.671	774
757.781	607
757.891	1148
758.001	385
758.111	904
758.221	1058
758.331	1154
758.441	541
758.551	681
758.661	253
758.771	1158
758.880	906
758.990	1313
759.100	1181
759.210	1559
759.320	1066
759.429	598
759.539	119
759.649	549
759.758	451
759.868	1130
759.978	1146
760.087	1318
760.197	1067
760.307	2036
760.416	1418
760.526	479
760.635	989
760.745	1253
760.854	1280
760.964	2273
761.073	1210
761.182	1693
761.292	1508
761.401	1488
761.511	994
761.620	1141
761.729	272
761.839	747
761.948	1119
762.057	607
762.166	770
762.276	725
762.385	1064
762.494	1423
762.603	884
762.712	666
762.822	573
762.931	1156
763.040	644
763.149	1263
763.258	244
763.367	1428
763.476	728
763.585	1023
763.694	904
763.803	1056
763.912	724
764.021	925
764.130	1371
764.238	1177
764.347	767
764.456	829
764.565	1400
764.674	1688
764.783	832
764.891	1259
765.000	1380
765.109	1160
765.217	1597
765.326	902
765.435	1341
765.543	2882
765.652	1793
765.761	2840
765.869	5094
765.978	6509
766.086	12485
766.195	27686
766.303	74848
766.412	269259
766.520	326348
766.629	61157
766.737	14777
766.846	7486
766.954	6284
767.062	5025
767.171	3612
767.279	2661
767.387	1625
767.496	2856
767.604	1813
767.712	1172
767.820	1310
767.928	1377
768.037	1872
768.145	1943
768.253	1857
768.361	1312
768.469	884
768.577	844
768.685	662
768.793	1418
768.901	1441
769.009	2139
769.117	1591
769.225	994
769.333	2692
769.441	5246
769.549	10829
769.657	27181
769.765	94563
769.873	286000
769.981	113865
770.088	13771
770.196	5089
770.304	4354
770.412	3719
770.519	2225
770.627	1651
770.735	1040
770.842	1712
770.950	963
771.058	947
771.165	1078
771.273	656
771.380	955
771.488	810
771.595	1397
771.703	1774
771.810	1785
771.918	1476
772.025	1633
772.133	1242
772.240	1659
772.348	2015
772.455	1820
772.562	1784
772.670	1843
772.777	897
772.884	1702
772.991	1972
773.099	1979
773.206	2070
773.313	1266
773.420	1660
773.528	1372
773.635	858
773.742	1660
773.849	1091
773.956	827
774.063	762
774.170	1407
774.277	1412
774.384	1251
774.491	1608
774.598	815
774.705	633
774.812	1240
774.919	1950
775.026	1286
775.133	1100
775.239	1856
775.346	838
775.453	1136
775.560	525
775.667	1086
775.773	438
775.880	1512
775.987	1203
776.093	1202
776.200	1672
776.307	825
776.413	1581
776.520	1406
776.627	2004
776.733	1173
776.840	1358
776.946	4239
777.053	7425
777.159	24464
777.266	23140
777.372	17481
777.478	24355
777.585	13772
777.691	3379
777.798	1406
777.904	1844
778.010	1006
778.117	1701
778.223	1313
778.329	1094
778.435	1102
778.542	1669
778.648	732
778.754	1334
778.860	788
778.966	858
779.072	1000
779.178	735
779.284	899
779.391	69
779.497	672
779.603	1594
779.708	-120
779.815	1212
779.920	2484
780.026	6023
780.132	1729
780.238	985
780.344	25
780.450	28
780.556	165
780.661	263
780.767	1699
780.873	299
780.979	1060
781.085	847
781.190	387
781.296	187
781.402	690
781.507	-298
781.613	683
781.719	898
781.824	477
781.930	920
782.035	149
782.141	1601
782.246	536
782.352	142
782.457	1383
782.563	360
782.668	872
782.773	598
782.879	466
782.984	1225
783.090	831
783.195	1139
783.300	1381
783.405	995
783.511	206
783.616	1212
783.721	931
783.826	1946
783.932	856
784.037	1193
784.142	1053
784.247	1334
784.352	987
784.457	1083
784.562	930
784.667	976
784.772	822
784.877	75
784.982	1292
785.087	814
785.192	456
785.297	130
785.402	867
785.507	-286
785.611	1138
785.716	509
785.821	807
785.926	848
786.031	384
786.135	435
786.240	800
786.345	421
786.450	727
786.554	21
786.659	-50
786.763	-93
786.868	784
786.973	44
787.077	183
787.182	180
787.286	944
787.391	385
787.495	-313
787.600	-137
787.704	-85
787.809	-189
787.913	-216
788.017	95
788.122	697
788.226	391
788.330	-191
788.435	721
788.539	316
788.643	-204
788.747	-564
788.852	-600
788.956	-419
789.060	-119
789.164	625
789.268	-279
789.372	614
789.476	507
789.580	-336
789.684	101
789.788	589
789.892	472
789.996	1000
790.100	407
790.204	121
790.308	787
790.412	420
790.516	-8
790.620	-204
790.724	1137
790.828	347
790.931	-438
791.035	597
791.139	397
791.242	-107
791.346	1138
791.450	579
791.554	-305
791.657	-61
791.761	1065
791.864	783
791.968	456
792.072	546
792.175	261
792.279	103
792.382	119
792.486	705
792.589	534
792.693	87
792.796	-496
792.899	769
793.003	422
793.106	113
793.209	-145
793.313	946
793.416	-573
793.519	1101
793.623	270
793.726	754
793.829	519
793.932	-339
794.035	575
794.138	294
794.242	-68
794.345	233
794.448	-37
794.551	-217
794.654	2682
794.757	3926
794.860	938
794.963	290
795.066	602
795.169	587
795.272	-560
795.375	601
795.477	-385
795.580	-346
795.683	-1597
795.786	902
795.889	-935
795.991	19
796.094	63
796.197	-613
796.300	614
796.402	717
796.505	-580
796.608	-412
796.710	212
796.813	-177
796.915	336
797.018	165
797.120	-572
797.223	-662
797.326	455
797.428	545
797.530	-333
797.633	-739
797.735	-429
797.838	-384
797.940	-83
798.042	-311
798.145	-382
798.247	344
798.349	-744
798.452	-258
798.554	-118
798.656	-850
798.758	358
798.860	54
798.962	-678
799.065	-39
799.167	-965
799.269	419
799.371	428
799.473	356
799.575	-589
799.677	-91
799.779	1478
799.881	-988
799.983	-103
800.085	117
800.187	-797
800.289	-658
800.390	-453
800.492	-167
800.594	-746
800.696	-586
800.798	-143
800.899	-118
801.001	135
801.103	-454
801.205	-881
801.306	-195
801.408	-498
801.509	-1315
801.611	-372
801.713	111
801.814	-1073
801.916	-875
802.017	-389
802.119	-721
802.220	-109
802.322	-1325
802.423	318
802.525	-1347
802.626	-709
802.727	-704
802.829	-641
802.930	-1463
803.031	-149
803.133	-648
803.234	266
803.335	-349
803.436	-786
803.538	-790
803.639	-1405
803.740	-394
803.841	-940
803.942	277
804.043	-617
804.144	-693
804.245	-629
804.346	-672
804.447	-1059
804.548	-476
804.649	-198
804.750	194
804.851	-767
804.952	-242
805.053	-101
805.154	-666
805.255	-92
805.355	-717
805.456	-970
805.557	-578
805.658	-1079
805.758	262
805.859	-945
805.960	-1142
806.061	-1563
806.161	-636
806.262	-626
806.362	-277
806.463	-779
806.564	-999
806.664	-1203
806.765	-939
806.865	227
806.966	21
807.066	-218
807.166	-376
807.267	-494
807.367	-613
807.468	-811
807.568	-1750
807.668	51
807.769	-508
807.869	-1009
807.969	-454
808.069	-496
808.170	-1035
808.270	-392
808.370	-27
808.470	-623
808.570	-1260
808.670	-336
808.770	-5
808.870	-353
808.970	-336
809.070	-605
809.170	-1734
809.271	-462
809.370	-841
809.470	-330
809.570	-545
809.670	-460
809.770	-490
809.870	-829
809.970	-663
810.070	-878
810.169	-41
810.269	-1279
810.369	500
810.469	-329
810.568	-449
810.668	-985
810.768	-630
810.867	-288
810.967	-976
811.066	-698
811.166	-862
811.265	-103
811.365	-839
811.464	-855
811.564	-146
811.663	-1135
811.763	-1037
811.862	-454
811.962	-268
812.061	-1185
812.160	-679
812.260	-809
812.359	-674
812.458	-803
812.557	-404
812.657	-1535
812.756	-234
812.855	-1042
812.954	-459
813.053	100
813.153	-729
813.252	-923
813.351	-486
813.450	-262
813.549	-57
813.648	-1222
813.747	-889
813.846	321
813.945	-412
814.044	-325
814.143	-445
814.242	-69
814.341	-1221
814.439	-648
814.538	-657
814.637	-539
814.736	355
814.835	-374
814.933	-101
815.032	441
815.131	552
815.229	247
815.328	1155
815.427	-223
815.525	340
815.624	172
815.722	218
815.821	277
815.919	185
816.018	331
816.116	356
816.215	377
816.313	654
816.412	298
816.510	682
816.609	1118
816.707	758
816.805	801
816.904	133
817.002	482
817.100	1510
817.198	889
817.296	796
817.395	-677
817.493	1632
817.591	252
817.689	1271
817.787	1498
817.885	2449
817.983	5470
818.081	13811
818.179	38430
818.277	105141
818.375	115695
818.473	22363
818.571	7101
818.669	4391
818.767	7045
818.865	5984
818.963	4776
819.061	6577
819.158	12705
819.256	32287
819.354	77841
819.452	217756
819.549	161102
819.647	23799
819.745	5839
819.842	4658
819.940	3345
820.038	2391
820.135	2086
820.233	2095
820.330	1338
820.428	839
820.525	1689
820.623	1285
820.720	533
820.818	1180
820.915	601
821.012	1025
821.110	1336
821.207	964
821.304	1048
821.402	1213
821.499	3543
821.596	8709
821.693	8074
821.791	2018
821.888	304
821.985	290
822.082	343
822.179	2020
822.276	3453
822.373	2988
822.470	556
822.567	243
822.664	-345
822.761	-131
822.858	-331
822.955	193
823.052	-117
823.149	38
823.246	-397
823.343	293
823.440	-18
823.536	-243
823.633	-644
823.730	-69
823.827	86
823.923	-1433
824.020	1230
824.117	1048
824.213	2534
824.310	2742
824.407	-532
824.503	501
824.600	41
824.696	-726
824.793	530
824.889	-23
824.986	523
825.082	-506
825.179	371
825.275	-633
825.371	-707
825.468	-516
825.564	-915
825.660	342
825.757	-566
825.853	-79
825.949	-1294
826.045	-1039
826.142	-672
826.238	-594
826.334	84
826.430	-1128
826.526	-167
826.622	-575
826.718	-612
826.814	-1558
826.910	-270
827.006	-612
827.102	-1032
827.198	-452
827.294	-799
827.390	-210
827.486	-404
827.582	-1903
827.678	-1351
827.774	-345
827.869	-1789
827.965	138
828.061	-1769
828.157	-795
828.252	504
828.348	-934
828.444	-594
828.539	-1176
828.635	46
828.731	-941
828.826	-1183
828.922	-915
829.017	-814
829.113	-300
829.208	-1341
829.304	-1282
829.399	-86
829.495	-1332
829.590	-209
829.685	-1144
829.781	-794
829.876	471
829.971	-979
830.066	-1009
830.162	-365
830.257	-1264
830.352	-1023
830.447	-635
830.543	-518
830.638	-1496
830.733	-7
830.828	-1521
830.923	-94
831.018	-757
831.113	-390
831.208	-1499
831.303	-541
831.398	-1250
831.493	-467
831.588	39
831.683	-826
831.778	-832
831.873	-1289
831.967	-24
832.062	-1638
832.157	-1031
832.252	-343
832.346	-377
832.441	-81
832.536	-972
832.631	-505
832.725	-337
832.820	-1505
832.914	-723
833.009	-1127
833.104	-1134
833.198	-1122
833.293	-1455
833.387	-835
833.482	-326
833.576	-1685
833.670	-870
833.765	-873
833.859	-1179
833.954	-567
834.048	-788
834.142	-865
834.237	-724
834.331	-1148
834.425	-1277
834.519	-1451
834.613	343
834.708	-735
834.802	-738
834.896	-1174
834.990	-806
835.084	-763
835.178	-821
835.272	-782
835.366	-570
835.460	-312
835.554	-1552
835.648	-265
835.742	-1163
835.836	-770
835.930	-1512
836.024	-148
836.117	-877
836.211	-409
836.305	-561
836.399	-1199
836.493	-732
836.586	164
836.680	-1129
836.774	-967
836.867	-103
836.961	-828
837.055	-673
837.148	-1018
837.242	-859
837.335	-773
837.429	-797
837.522	-898
837.616	-1456
837.709	-568
837.803	-935
837.896	-967
837.989	-1171
838.083	-274
838.176	-877
838.269	-1074
838.363	-303
838.456	-1501
838.549	-699
838.642	-502
838.735	-322
838.829	-370
838.922	-1201
839.015	-732
839.108	-1276
839.201	-80
839.294	-397
839.387	-1279
839.480	-971
839.573	-1096
839.666	-189
839.759	-1572
839.852	-569
839.945	-356
840.038	-941
840.131	-1564
840.223	-358
840.316	-982
840.409	-903
840.502	-949
840.594	-179
840.687	-1736
840.780	-625
840.873	-892
840.965	-849
841.058	-305
841.150	-566
841.243	-972
841.336	-551
841.428	-934
841.521	-1183
841.613	-1094
841.706	-1190
841.798	-1066
841.890	-597
841.983	-1276
842.075	-735
842.167	-980
842.260	-1078
842.352	-352
842.444	-585
842.537	-326
842.629	-359
842.721	-434
842.813	-238
842.905	-972
842.997	-67
843.090	-1185
843.182	-556
843.274	-1224
843.366	-388
843.458	-875
843.550	-1
843.642	-848
843.734	-580
843.826	-974
843.918	291
844.009	-487
844.101	-861
844.193	-998
844.285	-966
844.377	940
844.469	2171
844.560	4915
844.652	7865
844.744	3100
844.835	168
844.927	-896
845.019	41
845.110	-776
845.202	-1724
845.293	-1554
845.385	-757
845.476	-866
845.568	-487
845.659	-491
845.751	-55
845.842	-1242
845.934	-1431
846.025	-1606
846.116	-205
846.208	-1084
846.299	-1305
846.390	-1360
846.482	-745
846.573	-858
846.664	-1593
846.755	-1056
846.846	-485
846.937	-1416
847.029	-1355
847.120	-1209
847.211	-784
847.302	-1064
847.393	-1769
847.484	-771
847.575	-1161
847.666	-1099
847.757	-889
847.847	-1224
847.938	-850
848.029	-884
848.120	-1099
848.211	-1256
848.302	-689
848.392	-1278
848.483	-359
848.574	-1010
848.664	-1325
848.755	-914
848.846	-615
848.936	-1294
849.027	-393
849.118	-787
849.208	-1098
849.299	220
849.389	1712
849.480	4786
849.570	11957
849.661	21285
849.751	48610
849.841	28076
849.932	2191
850.022	-412
850.112	-293
850.203	-561
850.293	-225
850.383	-698
850.474	-1275
850.564	-1526
850.654	-1309
850.744	-666
850.834	-641
850.924	-1094
851.014	-1293
851.104	-897
851.194	-1928
851.284	-1520
851.374	-1103
851.464	-1535
851.554	-1111
851.644	-1624
851.734	-1168
851.824	-1310
851.914	-1132
852.004	-1229
852.094	-1053
852.183	-671
852.273	-23
852.363	-762
852.452	-676
852.542	-902
852.632	-1931
852.721	-1072
852.811	-1529
852.901	-1082
852.990	-553
853.080	-547
853.169	-196
853.259	-386
853.348	-1188
853.438	-220
853.527	1543
853.617	2156
853.706	7489
853.795	15980
853.885	38966
853.974	82614
854.063	134065
854.152	280076
854.242	161512
854.331	20026
854.420	3799
854.509	2232
854.598	2015
854.687	435
854.777	19
854.866	476
854.955	455
855.044	-363
855.133	72
855.222	-444
855.311	-637
855.400	-407
855.488	-791
855.577	-997
855.666	-847
855.755	156
855.844	-100
855.933	-782
856.021	-513
856.110	-799
856.199	-1328
856.288	-1198
856.376	-1197
856.465	-2117
856.554	-1137
856.642	-1257
856.731	-339
856.819	-912
856.908	-960
856.996	-1009
857.085	-1440
857.173	-1764
857.262	-410
857.350	-1084
857.438	-1499
857.527	-1247
857.615	-1428
857.703	-884
857.792	-1531
857.880	-1394
857.968	-1277
858.056	-1008
858.145	-1126
858.233	-1230
858.321	-1160
858.409	-532
858.497	-1287
858.585	-1253
858.673	-610
858.761	-1132
858.849	-1213
858.937	-1217
859.025	-984
859.113	-1061
859.201	-1041
859.289	647
859.377	-193
859.465	-552
859.552	-916
859.640	-1856
859.728	-1016
859.816	-885
859.903	-453
859.991	-1448
860.079	-1130
860.166	-854
860.254	-1182
860.342	-623
860.429	-1357
860.517	-1212
860.604	-480
860.692	-718
860.779	-1592
860.867	-1408
860.954	-1742
861.042	-1251
861.129	-1014
861.216	-872
861.304	-1746
861.391	-1228
861.478	-1827
861.565	-1150
861.653	-624
861.740	-1680
861.827	-701
861.914	-355
862.001	-1507
862.089	-1192
862.176	-986
862.263	-784
862.350	-799
862.437	-1087
862.524	-815
862.611	-470
862.698	-92
862.785	1313
862.871	3024
862.958	1558
863.045	-1324
863.132	-1393
863.219	-335
863.306	-1197
863.392	-1703
863.479	-1297
863.566	-984
863.652	-614
863.739	-1627
863.826	-1130
863.912	-441
863.999	-1660
864.086	-789
864.172	-1108
864.259	-1481
864.345	-992
864.432	-1243
864.518	-864
864.604	-1823
864.691	-977
864.777	188
864.863	-7
864.950	429
865.036	-1170
865.122	325
865.209	1122
865.295	670
865.381	857
865.467	2143
865.553	3000
865.639	3626
865.726	8539
865.812	18685
865.898	39308
865.984	62169
866.070	101926
866.156	172217
866.242	63376
866.328	7839
866.414	1410
866.499	1715
866.585	917
866.671	1236
866.757	843
866.843	528
866.928	201
867.014	202
867.100	496
867.186	-328
867.271	55
867.357	239
867.442	53
867.528	505
867.614	495
867.699	1841
867.785	4141
867.870	5386
867.956	9022
868.041	6831
868.127	3214
868.212	4655
868.297	5146
868.383	2895
868.468	775
868.553	2082
868.639	941
868.724	111
868.809	516
868.894	725
868.979	-649
869.065	-523
869.150	-1000
869.235	-547
869.320	-278
869.405	-494
869.490	-327
869.575	-604
869.660	-1197
869.745	-629
869.830	-724
869.915	142
870.000	619
870.085	-719
870.169	166
870.254	1715
870.339	381
870.424	-326
870.509	-897
870.593	-62
870.678	-637
870.763	-452
870.847	-107
870.932	-545
871.016	-516
871.101	1258
871.186	-276
871.270	92
871.355	-303
871.439	46
871.523	-166
871.608	-56
871.692	-1031
871.777	1545
871.861	445
871.945	-375
872.030	-749
872.114	-702
872.198	-1255
872.282	-1030
872.367	-1023
872.451	-279
872.535	-1482
872.619	-429
872.703	-1036
872.787	-500
872.871	-133
872.955	-481
873.039	-1316
873.123	-894
873.207	38
873.291	-976
873.375	-1379
873.459	-425
873.543	-1522
873.627	-1095
873.711	-1394
873.794	-782
873.878	-1929
873.962	-1401
874.045	-855
874.129	-799
874.137	-781
874.213	-605
874.245	-732
874.296	-939
874.352	-1630
874.380	-1966
874.460	-1641
874.464	-1630
874.547	-739
874.568	-820
874.631	-1041
874.676	-1168
874.714	-1272
874.784	-773
874.798	-678
874.881	249
874.892	114
874.965	-818
874.999	-868
875.048	-925
875.107	-597
875.131	-483
875.215	-906
875.215	-907
875.298	-1535
875.323	-1311
875.381	-811
875.430	-1104
875.465	-1288
875.538	-1115
875.548	-1095
875.631	-1175
875.646	-1213
875.714	-1385
875.753	-1311
875.798	-1186
875.861	-808
875.881	-724
875.964	99
875.968	64
876.047	-564
876.076	-844
876.130	-1280
876.183	-1568
876.213	-1750
876.291	-1004
876.296	-954
876.379	-795
876.398	-770
876.462	-602
876.506	-844
876.545	-1127
876.613	-896
876.628	-832
876.711	-251
876.721	-236
876.794	-46
876.828	-181
876.877	-520
876.935	-200
876.960	18
877.043	185
877.043	183
877.125	-302
877.150	107
877.208	1218
877.258	1428
877.291	1523
877.365	1380
877.374	1333
877.456	1009
877.472	925
877.539	667
877.579	462
877.622	289
877.687	1107
877.704	1314
877.787	474
877.794	426
877.869	39
877.901	167
877.952	195
878.008	-821
878.034	-1153
878.115	-579
878.117	-571
878.199	-431
878.222	-431
878.282	-361
878.329	-287
878.364	-219
878.437	-104
878.447	-91
878.529	-956
878.544	-845
878.611	-315
878.651	-431
878.694	-480
878.758	-254
878.776	-228
878.858	-362
878.865	-376
878.941	-400
878.972	-250
879.023	-173
879.078	-847
879.105	-1102
879.185	-742
879.187	-729
879.269	-692
879.292	-739
879.351	-886
879.399	-619
879.433	-510
879.506	-444
879.516	-397
879.598	-524
879.613	-381
879.680	-70
879.720	-333
879.762	-493
879.827	-687
879.844	-754
879.926	-349
879.933	-412
880.007	-627
880.040	-440
880.089	-508
880.147	-766
880.171	-708
880.253	-62
880.254	-62
880.335	-98
880.360	-310
880.417	-406
880.467	-210
880.499	-121
880.574	43
880.580	27
880.662	-179
880.680	-187
880.744	-100
880.787	-222
880.825	-196
880.893	-264
880.907	-339
880.989	-389
881.000	-423
881.070	-370
881.106	-319
881.152	-139
881.213	-134
881.233	-235
881.315	-250
881.319	-243
881.396	329
881.426	126
881.478	-324
881.532	-5
881.559	-66
881.639	-842
881.641	-838
881.722	-645
881.745	-507
881.803	-134
881.852	130
881.885	116
881.958	-82
881.966	-57
882.047	351
882.064	350
882.129	43
882.171	-109
882.210	-242
882.277	-181
882.291	-142
882.372	-225
882.383	-271
882.454	-393
882.489	-180
882.535	21
882.596	-219
882.616	-366
882.697	-470
882.702	-485
882.778	-406
882.808	-455
882.859	-461
882.914	12
882.940	327
883.020	-221
883.021	-227
883.102	-486
883.127	-533
883.183	137
883.233	308
883.264	97
883.339	-26
883.345	-10
883.426	-258
883.445	-147
883.507	36
883.551	-289
883.587	-411
883.657	-277
883.668	-232
883.749	237
883.763	213
883.830	-337
883.869	-405
883.910	-210
883.975	-94
883.991	-34
884.072	531
884.081	567
884.152	526
884.187	359
884.233	122
884.292	-3
884.314	83
884.394	335
884.398	355
884.475	40
884.504	-209
884.555	-204
884.610	-113
884.636	-63
884.716	139
884.716	143
884.797	35
884.821	-34
884.877	-66
884.927	22
884.958	-25
885.033	-250
885.038	-258
885.118	-539
885.139	-514
885.199	-23
885.244	159
885.279	159
885.350	148
885.359	144
885.439	301
885.456	232
885.520	3
885.561	57
885.600	-49
885.667	-478
885.680	-396
885.760	349
885.773	444
885.840	-93
885.878	-392
885.920	-109
885.984	239
886.000	156
886.080	-204
886.089	-260
886.160	-60
886.195	77
886.240	14
886.300	1
886.320	-62
886.400	-518
886.406	-547
886.480	269
886.511	595
886.560	556
886.616	566
886.640	542
886.720	271
886.722	260
886.800	29
886.827	-29
886.879	-39
886.932	-131
886.959	58
887.038	730
887.039	734
887.119	454
887.143	387
887.198	389
887.248	269
887.278	266
887.354	313
887.358	315
887.437	318
887.459	306
887.517	552
887.564	708
887.596	543
887.669	104
887.676	64
887.755	-412
887.774	-539
887.835	72
887.880	530
887.914	413
887.985	164
887.994	174
888.073	255
888.090	227
888.153	-27
888.195	-91
888.232	178
888.300	607
888.311	592
888.391	393
888.405	358
888.470	242
888.510	156
888.549	135
888.615	155
888.628	255
888.708	722
888.720	798
888.787	307
888.825	-5
888.866	42
888.930	178
888.945	245
889.024	507
889.035	537
889.103	382
889.140	322
889.182	401
889.245	464
889.261	425
889.340	238
889.349	212
889.419	51
889.454	-29
889.498	91
889.559	256
889.577	297
889.656	467
889.664	483
889.735	515
889.768	527
889.814	264
889.873	-86
889.978	389
890.083	946
890.187	166
890.292	282
890.397	414
890.501	568
890.606	-227
890.710	261
890.815	753
890.919	743
891.024	522
891.128	1468
891.233	1033
891.337	1011
891.442	684
891.546	360
891.650	155
891.755	238
891.859	515
891.963	1036
892.068	113
892.172	697
892.276	148
892.380	784
892.484	670
892.589	1240
892.693	2544
892.797	947
892.901	391
893.005	392
893.109	369
893.213	1239
893.317	807
893.421	38
893.525	-298
893.629	-10
893.733	748
893.837	232
893.941	14
894.045	679
894.148	115
894.252	106
894.356	-41
894.460	933
894.564	344
894.667	-22
894.771	205
894.875	235
894.978	526
895.082	-162
895.186	137
895.289	141
895.393	44
895.496	819
895.600	227
895.703	1054
895.807	369
895.910	-502
896.014	-260
896.117	1041
896.221	1276
896.324	238
896.427	509
896.531	709
896.634	256
896.737	869
896.840	234
896.944	254
897.047	-22
897.150	-226
897.253	-392
897.356	244
897.460	-164
897.563	334
897.666	-348
897.769	291
897.872	540
897.975	439
898.078	488
898.181	-362
898.284	-22
898.387	315
898.490	-92
898.593	403
898.695	-466
898.798	-2
898.901	214
899.004	139
899.107	151
899.209	-31
899.312	227
899.415	517
899.518	100
899.620	-357
899.723	528
899.826	403
899.928	786
900.031	180
900.133	-20
900.236	88
900.338	-407
900.441	-111
900.543	93
900.646	86
900.748	-708
900.851	862
900.953	777
901.055	211
901.158	549
901.260	210
901.362	-239
901.465	74
901.567	72
901.669	587
901.771	-573
901.873	381
901.976	541
902.078	-140
902.180	-125
902.282	-109
902.384	-101
902.486	337
902.588	611
902.690	-42
902.792	291
902.894	252
902.996	1059
903.098	156
903.200	-209
903.302	-544
903.404	77
903.505	-304
903.607	646
903.709	422
903.811	320
903.913	-43
904.014	-143
904.116	-604
904.218	410
904.319	182
904.421	536
904.523	1851
904.624	875
904.726	597
904.827	22
904.929	684
905.030	582
905.132	468
905.233	205
905.335	-184
905.436	613
905.537	220
905.639	-67
905.740	-620
905.841	418
905.943	126
906.044	958
906.145	624
906.247	143
906.348	-427
906.449	-129
906.550	934
906.651	-62
906.752	-16
906.854	-335
906.955	-616
907.056	-367
907.157	108
907.258	-491
907.359	-467
907.460	-171
907.561	-525
907.662	373
907.762	492
907.863	-151
907.964	-8
908.065	442
908.166	-268
908.267	-402
908.367	-221
908.468	-769
908.569	-456
908.670	1109
908.770	-28
908.871	729
908.971	-178
909.072	-237
909.173	-359
909.273	-1015
909.374	250
909.474	349
909.575	139
909.675	77
909.776	117
909.876	-306
909.977	180
910.077	520
910.177	156
910.278	-900
910.378	248
910.478	-440
910.579	166
910.679	19
910.779	-457
910.879	294
910.980	140
911.080	203
911.180	150
911.280	-421
911.380	-713
911.480	11
911.580	28
911.680	-90
911.780	-415
911.880	-113
911.980	-511
912.080	163
912.180	-68
912.280	263
912.380	267
912.480	-60
912.580	-3
912.679	-166
912.779	319
912.879	193
912.979	-438
913.078	-194
913.178	-296
913.278	-186
913.377	101
913.477	-111
913.577	-15
913.676	653
913.776	-694
913.875	-135
913.975	377
914.074	245
914.174	-468
914.273	-504
914.373	610
914.472	-214
914.572	319
914.671	-382
914.770	-315
914.870	-1335
914.969	-52
915.068	-302
915.167	361
915.267	3
915.366	2
915.465	-788
915.564	-588
915.663	705
915.763	200
915.862	-300
915.961	-20
916.060	-740
916.159	311
916.258	-17
916.357	-744
916.456	-25
916.555	-888
916.654	-104
916.752	-434
916.851	282
916.950	-256
917.049	-498
917.148	-435
917.247	-301
917.345	173
917.444	229
917.543	177
917.642	-679
917.740	-604
917.839	495
917.937	-143
918.036	106
918.135	-248
918.233	-18
918.332	346
918.430	81
918.529	223
918.627	-272
918.726	196
918.824	8
918.923	176
919.021	-336
919.119	-129
919.218	-828
919.316	66
919.414	125
919.512	-508
919.611	84
919.709	-177
919.807	32
919.905	-38
920.003	40
920.102	199
920.200	54
920.298	-212
920.396	-659
920.494	35
920.592	-519
920.690	272
920.788	422
920.886	-278
920.984	-287
921.082	-661
921.180	230
921.277	-590
921.375	638
921.473	503
921.571	-142
921.669	-153
921.766	-168
921.864	443
921.962	696
922.060	163
922.157	167
922.255	566
922.352	334
922.450	-107
922.548	816
922.645	872
922.743	1111
922.840	1574
922.938	2241
923.035	2822
923.133	1347
923.230	1676
923.327	2402
923.425	3064
923.522	2313
923.619	1572
923.717	1518
923.814	1484
923.911	1893
924.008	1740
924.106	1453
924.203	1696
924.300	1334
924.397	2015
924.494	1887
924.591	2673
924.688	1470
924.786	1943
924.883	1354
924.979	2207
925.077	1457
925.173	1010
925.270	1437
925.367	1044
925.464	1584
925.561	2344
925.658	2615
925.755	1343
925.852	2566
925.948	1570
926.045	2893
926.142	3241
926.239	3799
926.335	2454
926.432	3046
926.529	2879
926.625	3897
926.722	3026
926.818	1519
926.915	2057
927.011	1571
927.108	1184
927.204	1314
927.301	1261
927.397	1064
927.494	1466
927.590	870
927.687	980
927.783	1789
927.879	2206
927.976	2308
928.072	846
928.168	1342
928.264	1156
928.361	1665
928.457	1394
928.553	735
928.649	921
928.745	1229
928.841	2027
928.937	1748
929.033	1437
929.129	495
929.225	1880
929.321	1629
929.417	1397
929.513	914
929.609	1159
929.705	675
929.801	2021
929.897	729
929.993	1009
930.089	1242
930.184	1298
930.280	1508
930.376	1091
930.471	735
930.567	1103
930.663	1089
930.758	1047
930.854	717
930.950	1201
931.045	457
931.141	1187
931.236	1160
931.332	1375
931.427	814
931.523	927
931.618	1510
931.714	761
931.809	1232
931.905	1372
932.000	308
932.095	287
932.191	783
932.286	1234
932.381	1225
932.476	194
932.572	1047
932.667	90
932.762	670
932.857	865
932.952	1010
933.047	535
933.142	550
933.237	1007
933.332	837
933.427	1763
933.522	691
933.617	480
933.712	-17
933.807	1266
933.902	1001
933.997	1827
934.092	577
934.187	-166
934.282	1343
934.376	635
934.471	932
934.566	878
934.661	-79
934.755	650
934.850	1170
934.945	1025
935.039	806
935.134	392
935.228	385
935.323	922
935.417	526
935.512	426
935.606	-132
935.701	366
935.795	1160
935.890	238
935.984	651
936.079	545
936.173	247
936.267	926
936.362	158
936.456	293
936.550	736
936.644	784
936.738	-130
936.833	533
936.927	378
937.021	953
937.115	1124
937.209	455
937.303	458
937.397	765
937.491	450
937.585	644
937.679	628
937.773	723
937.867	-198
937.961	-115
938.055	327
938.149	856
938.243	53
938.337	230
938.430	-183
938.524	613
938.618	2398
938.712	2785
938.805	937
938.899	368
938.993	1288
939.086	2086
939.180	1889
939.274	4454
939.367	2973
939.461	1108
939.554	429
939.648	-21
939.741	545
939.835	436
939.928	646
940.022	302
940.115	356
940.208	645
940.302	204
940.395	862
940.488	967
940.582	675
940.675	142
940.768	129
940.861	-8
940.954	1021
941.048	255
941.141	-70
941.234	1289
941.327	1985
941.420	2475
941.513	984
941.606	425
941.699	795
941.792	257
941.885	-172
941.978	539
942.071	402
942.164	-198
942.257	-306
942.349	-30
942.442	637
942.535	-464
942.628	-404
942.721	64
942.813	-601
942.906	-139
942.999	492
943.091	-486
943.184	-41
943.277	-562
943.369	-43
943.462	325
943.554	178
943.647	490
943.739	-379
943.832	-403
943.924	-300
944.017	448
944.109	-662
944.201	-230
944.294	158
944.386	292
944.478	-580
944.571	-694
944.663	-523
944.755	733
944.847	-334
944.940	-5
945.032	-903
945.124	63
945.216	489
945.308	4
945.400	-324
945.492	-468
945.584	537
945.676	-139
945.768	435
945.860	277
945.952	311
946.044	939
946.136	252
946.228	-454
946.320	-941
946.412	410
946.503	361
946.595	724
946.687	318
946.779	-239
946.870	-963
946.962	-640
947.054	635
947.145	267
947.237	-447
947.329	-23
947.420	-264
947.512	197
947.603	-740
947.695	-205
947.786	154
947.878	2
947.969	-85
948.061	-438
948.152	-242
948.243	-543
948.335	717
948.426	610
948.517	-398
948.609	-449
948.700	-587
948.791	-64
948.882	100
948.973	-868
949.065	-595
949.156	-214
949.247	-710
949.338	-130
949.429	-312
949.520	-258
949.611	-518
949.702	443
949.793	18
949.884	262
949.975	-265
950.066	-812
950.157	17
950.247	366
950.338	-314
950.429	44
950.520	-696
950.611	-432
950.701	-716
950.792	98
950.883	-36
950.973	-97
951.064	-248
951.155	-312
951.245	561
951.336	49
951.427	-459
951.517	288
951.608	-247
951.698	-653
951.788	-655
951.879	-766
951.969	-553
952.060	-670
952.150	134
952.240	383
952.331	-793
952.421	783
952.511	-1267
952.602	-696
952.692	-1161
952.782	-96
952.872	-173
952.962	-227
953.052	-1111
953.143	-464
953.233	-505
953.323	467
953.413	-494
953.503	-465
953.593	-933
953.683	-234
953.773	-488
953.863	-409
953.953	-569
954.042	361
954.132	-177
954.222	378
954.312	-650
954.402	-617
954.492	49
954.581	-189
954.671	-743
954.761	-457
954.850	270
954.940	-1238
955.030	-772
955.119	-773
955.209	-705
955.298	-804
955.388	579
955.477	-2
955.567	-197
955.656	-872
955.746	-248
955.835	264
955.925	-1022
956.014	61
956.103	-295
956.193	-319
956.282	-138
956.371	-436
956.461	-100
956.550	-125
956.639	-585
956.728	-226
956.817	-434
956.906	-929
956.995	-572
957.085	-771
957.174	-950
957.263	-550
957.352	-137
957.441	407
957.530	-124
957.619	-911
957.708	-1611
957.796	-383
957.885	-675
957.974	-507
958.063	-194
958.152	-301
958.241	288
958.329	-613
958.418	-776
958.507	-1117
958.596	152
958.684	-618
958.773	-586
958.861	-1304
958.950	-581
959.039	-253
959.127	-330
959.216	-524
959.304	-1321
959.393	-563
959.481	-643
959.570	-998
959.658	-917
959.746	-887
959.835	-221
959.923	-564
960.011	-302
960.100	-614
960.188	-904
960.276	-1171
960.365	-1120
960.453	-1505
960.541	-1004
960.629	-926
960.717	-1152
960.805	-408
960.893	-342
960.981	-413
961.069	-237
961.158	-341
961.245	-65
961.333	-393
961.421	-68
961.509	-507
961.597	-887
961.685	190
961.773	-640
961.861	-813
961.949	-248
962.036	-907
962.124	-805
962.212	-1191
962.299	-1555
962.387	-753
962.475	-500
962.562	-1630
962.650	102
962.738	-574
962.825	-923
962.913	-113
963.000	-560
963.088	-783
963.175	-489
963.263	-246
963.350	-1544
963.438	-272
963.525	-733
963.612	-146
963.700	-760
963.787	798
963.874	-879
963.962	-835
964.049	-973
964.136	-971
964.223	-311
964.310	-762
964.398	-388
964.485	-925
964.572	128
964.659	-578
964.746	-1212
964.833	-377
964.920	-1083
965.007	-282
965.094	-877
965.181	-1088
965.268	-750
965.355	-289
965.441	-584
965.528	-1402
965.615	-629
965.702	-395
965.789	-1518
965.875	-587
965.962	-804
966.049	-772
966.136	-283
966.222	-583
966.309	-574
966.395	-1166
966.482	-351
966.569	-504
966.655	-1198
966.742	-861
966.828	-894
966.915	-858
967.001	-477
967.087	-1033
967.174	-1501
967.260	-724
967.347	-879
967.433	-344
967.519	71
967.605	-659
967.692	-779
967.778	-814
967.864	-716
967.950	-940
968.036	-941
968.123	-357
968.209	-755
968.295	-1135
968.381	-27
968.467	-974
968.553	-1023
968.639	-454
968.725	-1131
968.811	-124
968.897	-519
968.983	-891
969.069	-950
969.154	-45
969.240	-241
969.326	-1375
969.412	-824
969.497	-1190
969.583	-960
969.669	-407
969.755	-950
969.840	791
969.926	140
970.012	-693
970.097	380
970.183	-384
970.268	-1003
970.354	-951
970.439	-1187
970.525	-1111
970.610	-1198
970.696	-811
970.781	-352
970.866	-960
970.952	-967
971.037	-976
971.122	-667
971.208	-209
971.293	-1792
971.378	-1503
971.463	-862
971.549	-993
971.634	-581
971.719	-811
971.804	-1054
971.889	-571
971.974	-1182
972.059	-854
972.144	-617
972.229	-1349
972.314	-1230
972.399	-706
972.484	-1004
972.569	-234
972.654	-928
972.739	4
972.824	21
972.908	-878
972.993	-1028
973.078	-1408
973.163	-821
973.247	-778
973.332	-1080
973.417	-55
973.501	-1599
973.586	-553
973.671	-1236
973.755	-592
973.840	-1044
973.924	-564
974.009	-249
974.093	-969
974.178	-145
974.262	-635
974.346	-1396
974.431	-422
974.515	-1447
974.600	-1294
974.684	-852
974.768	-910
974.852	-221
974.937	-705
975.021	-174
975.105	-1192
975.189	-619
975.273	-998
975.358	-794
975.442	-1323
975.526	-1282
975.610	-1241
975.694	-1216
975.778	-660
975.862	-1280
975.946	-2393
976.030	834
976.114	-990
976.198	-452
976.281	-1201
976.365	-537
976.449	-1008
976.533	-973
976.617	-1217
976.700	-414
976.784	-801
976.868	-1083
976.951	-1191
977.035	-1135
977.119	-822
977.202	-971
977.286	174
977.369	-797
977.453	-655
977.536	-1008
977.620	-498
977.703	-440
977.787	-871
977.870	-343
977.953	-752
978.037	-1514
978.120	-249
978.203	-984
978.287	-548
978.370	-1013
978.453	-802
978.536	-1193
978.620	350
978.703	-831
978.786	-1019
978.869	-1441
978.952	-991
979.035	-209
979.118	-559
979.201	-1532
979.284	180
979.367	-2013
979.450	-715
979.533	-1594
979.616	-869
979.699	-798
979.782	-1138
979.865	-1350
979.948	-276
980.030	-717
980.113	-806
980.196	-1089
980.279	-180
980.361	-1494
980.444	-1199
980.526	-682
980.609	-370
980.692	-780
980.774	-1026
980.857	-821
980.939	-620
981.022	-922
981.104	-1289
981.187	-1067
981.269	-825
981.352	-1097
981.434	-1026
981.516	-1002
981.599	170
981.681	-408
981.763	-1128
981.846	-566
981.928	-610
982.010	-1396
982.092	141
982.174	-165
982.256	-282
982.339	-963
982.421	-540
982.503	-638
982.585	-1466
982.667	-502
982.749	-1748
982.831	-463
982.913	-1666
982.995	-694
983.077	-1407
983.158	-69
983.240	-1033
983.322	-40
983.404	-227
983.486	-1425
983.568	-680
983.649	-777
983.731	-368
983.813	91
983.894	-865
983.976	-1200
984.058	-336
984.139	313
984.221	-1397
984.302	-775
984.384	-413
984.465	-1029
984.547	-498
984.628	-1074
984.710	-504
984.791	-483
984.872	-1454
984.954	-1098
985.035	-895
985.116	-1652
985.198	-798
985.279	-333
985.360	-1224
985.441	-1139
985.522	-379
985.604	-1118
985.685	-2098
985.766	477
985.847	-647
985.928	-1423
986.009	-1123
986.090	-1108
986.171	-38
986.252	-949
986.333	-937
986.414	-612
986.495	-319
986.576	-454
986.656	-690
986.737	-1403
986.818	-590
986.899	-1099
986.980	-526
987.060	-321
987.141	-1132
987.222	-680
987.302	-944
987.383	-747
987.464	-705
987.544	225
987.625	-665
987.705	-666
987.786	-630
987.866	16
987.947	-757
988.027	-425
988.108	-213
988.188	-397
988.268	-268
988.349	-168
988.429	-554
988.509	-113
988.589	-214
988.670	-1416
988.750	97
988.830	-822
988.910	313
988.990	3
989.070	305
989.151	-656
989.231	-1057
989.311	-468
989.391	-496
989.471	-984
989.551	-739
989.631	-490
989.711	-629
989.791	-1242
989.870	-707
989.950	59
990.030	-1135
990.110	-786
990.190	-1051
990.269	-760
990.349	-790
990.429	-1059
990.509	-340
990.588	-1557
990.668	-565
990.747	-1105
990.827	-479
990.907	-574
990.986	-1046
991.066	-534
991.145	-868
991.225	-466
991.304	-1557
991.383	-57
991.463	-1405
991.542	-330
991.622	-37
991.701	-763
991.780	-675
991.859	-1704
991.939	-896
992.018	-784
992.097	-902
992.176	-951
992.256	-886
992.335	-680
992.414	-376
992.493	-1022
992.572	-994
992.651	346
992.730	-1363
992.809	-382
992.888	-660
992.967	-1465
993.046	-787
993.125	-1564
993.203	-927
993.282	-1202
993.361	-398
993.440	-1375
993.519	-1213
993.597	-576
993.676	-1121
993.755	-560
993.834	-736
993.912	-970
993.991	-142
994.069	-1549
994.148	-873
994.226	-1251
994.305	-846
994.384	-889
994.462	115
994.540	-1501
994.619	-1120
994.697	-357
994.776	-671
994.854	-439
994.932	-1230
995.011	-520
995.089	-1426
995.167	-963
995.245	-981
995.324	-1859
995.402	-734
995.480	-1086
995.558	-1196
995.636	-2140
995.714	-1598
995.792	-650
995.870	-549
995.948	-904
996.026	-689
996.104	-1197
996.182	-456
996.260	-1602
996.338	-1407
996.416	-2043
996.494	-356
996.572	-702
996.649	-725
996.727	-1434
996.805	-1303
996.883	-1148
996.960	-1281
997.038	-662
997.116	-1349
997.193	-1354
997.271	-95
997.348	-1145
997.426	-582
997.504	-1649
997.581	-517
997.658	-723
997.736	-1609
997.813	-1151
997.891	-1078
997.968	-986
998.046	-824
998.123	-1346
998.200	-682
998.277	-1804
998.355	0
998.432	-1825
998.509	-877
998.586	-850
998.663	-1985
998.741	-1104
998.818	-1565
998.895	-1492
998.972	-591
999.049	-1279
999.126	-1248
999.203	-407
999.280	-1458
999.357	-1518
999.434	-850
999.511	-723
999.587	-567
999.664	-1218
999.741	-1011
999.818	-815
999.895	-1476
999.971	-1333
1000.048	-2064
1000.125	-236
1000.202	-2239
1000.278	-769
1000.355	-618
1000.431	-1204
1000.508	-1937
1000.584	-1058
1000.661	-1339
1000.738	-1359
1000.814	-1234
1000.890	-637
1000.967	-715
1001.043	-93
1001.120	-1397
1001.196	-1118
1001.272	-1327
1001.349	-1367
1001.425	-1324
1001.501	-1561
1001.577	-962
1001.654	-1131
1001.730	-1063
1001.806	-1387
1001.882	-1310
1001.958	-550
1002.034	-1440
1002.110	-904
1002.186	-1600
1002.262	-1561
1002.338	-919
1002.414	-753
1002.490	-1452
1002.566	-2221
1002.642	-574
1002.718	-112
1002.794	-648
1002.870	-1364
1002.945	-1762
1003.021	-1173
1003.097	-1764
1003.173	-1209
1003.248	-1085
1003.324	-1846
1003.400	-486
1003.475	-1598
1003.551	-393
1003.626	-1136
1003.702	-2307
1003.777	-1589
1003.853	-1502
1003.928	-2362
1004.004	-1091
1004.079	-560
1004.155	-1267
1004.230	-1963
1004.305	-761
1004.381	-825
1004.456	-831
1004.531	-1701
1004.607	-890
1004.682	-1552
1004.757	-792
1004.832	-1260
1004.907	-1878
1004.982	-779
1005.057	-879
1005.133	-1232
1005.208	-783
1005.283	-983
1005.358	-1313
1005.433	-1747
1005.508	-486
1005.583	-1456
1005.657	-1144
1005.732	-291
1005.807	-719
1005.882	-1841
1005.957	-1541
1006.032	-1235
1006.106	-1278
1006.181	-1733
1006.256	-1193
1006.331	-1626
1006.405	-1143
1006.480	-1345
1006.554	-970
1006.629	-1146
1006.704	-991
1006.778	-1927
1006.853	-1334
1006.927	-1475
1007.002	-1861
1007.076	-1223
1007.150	-1581
1007.225	-1794
1007.299	-1541
1007.373	-2114
1007.448	-1621
1007.522	-878
1007.596	-1490
1007.671	-2495
1007.745	-1137
1007.819	-1347
1007.893	-1624
1007.967	-1389
1008.041	-1624
1008.115	-511
1008.190	-1912
1008.264	-1164
1008.338	-1426
1008.412	-1644
1008.486	-1018
1008.560	-1331
1008.633	-1640
1008.707	-1364
1008.781	-1610
1008.855	-1134
1008.929	-1394
1009.003	-2102
1009.076	-2511
1009.150	-1370
1009.224	-1532
1009.298	-1149
1009.371	-1473
1009.445	-1166
1009.519	-1159
1009.592	-1697
1009.666	-863
1009.739	-1434
1009.813	-1313
1009.886	-907
1009.960	-2507
1010.033	-1241
1010.107	-1438
1010.180	-1952
1010.253	-1544
1010.327	-1919
1010.400	-1523
1010.473	-1593
1010.547	-420
1010.620	-1673
1010.693	-1403
1010.766	-1539
1010.840	-922
1010.913	-1629
1010.986	-1823
1011.059	-1479
1011.132	-1896
1011.205	-621
1011.278	-719
1011.351	-2268
1011.424	-928
1011.497	-1881
1011.570	-2183
1011.643	-1943
1011.716	-1495
1011.789	-1020
1011.862	-1327
1011.934	-1248
1012.007	-2171
1012.080	-1374
1012.153	-1477
1012.225	-1451
1012.298	-954
1012.371	-1534
1012.443	-1219
1012.516	-2803
1012.588	-1016
1012.661	-2026
1012.733	-2175
1012.806	-1491
1012.879	-1896
1012.951	-1781
1013.023	-1329
1013.096	-791
1013.168	-2119
1013.241	-1730
1013.313	-1826
1013.385	-1584
1013.458	-1548
1013.530	-1482
1013.602	-1855
1013.674	-448
1013.746	-2021
1013.819	-1595
1013.891	-1536
1013.963	-2044
1014.035	-2028
1014.107	-1218
1014.179	-1728
1014.251	-1348
1014.323	-1578
1014.395	-1778
1014.467	-916
1014.539	-1915
1014.611	-1498
1014.683	-1728
1014.754	-1534
1014.826	-1940
1014.898	-725
1014.970	-2250
1015.042	-906
1015.113	-1877
1015.185	-1877
1015.257	-2151
1015.328	-1715
1015.400	-2031
1015.471	-1624
1015.543	-2114
1015.615	-1743
1015.686	-1797
1015.757	-1996
1015.829	-949
1015.901	-1226
1015.972	-1597
1016.043	-1180
1016.115	-1598
1016.186	-1844
1016.257	-1905
1016.328	-1209
1016.400	-1265
1016.471	-1751
1016.542	-2031
1016.613	-714
1016.685	-1547
1016.756	-1053
1016.827	-1314
1016.898	-2640
1016.969	-987
1017.040	-1347
1017.111	-1862
1017.182	-2322
1017.253	-1856
1017.324	-1720
1017.395	-1811
1017.466	-941
1017.537	-1348
1017.608	-1963
1017.678	-1005
1017.749	-1327
1017.820	-2108
1017.891	-1423
1017.961	-1696
1018.032	-2000
1018.103	-2181
1018.173	-1699
1018.244	-1679
1018.315	-2004
1018.385	-1279
1018.456	-1943
1018.526	-2307
1018.597	-1843
1018.667	-1163
1018.738	-1303
1018.808	-2226
1018.878	-1494
1018.949	-1986
1019.019	-1739
1019.089	-1387
1019.160	-1440
1019.230	-2197
1019.300	-2341
1019.371	-2052
1019.441	-1552
1019.511	-1830
1019.581	-2122
1019.651	-2057
1019.721	-1629
1019.791	-2682
1019.861	-1645
1019.931	-363
1020.001	-1730
1020.071	-1474
1020.141	-2630
1020.211	-1535
1020.281	-1548
1020.351	-1336
1020.421	-1197
1020.491	-1642
1020.560	-713
1020.630	-1462
1020.700	-1754
1020.770	-1721
1020.839	-1876
1020.909	-1619
1020.979	-2475
1021.048	-1824
1021.118	-1638
1021.187	-2382
1021.257	-1465
1021.326	-2155
1021.396	-1388
1021.465	-1361
1021.535	-2294
1021.604	-2080
1021.674	-1873
1021.743	-1570
1021.812	-1440
1021.882	-2705
1021.951	-1426
1022.020	-1855
1022.089	-1699
1022.159	-1468
1022.228	-1158
1022.297	-1725
1022.366	-1992
1022.435	-1776
1022.504	-2192
1022.573	-2003
1022.642	-1257
1022.711	-2456
1022.781	-1883
1022.849	-1476
1022.918	-2622
1022.987	-1633
1023.056	-2253
1023.125	-1671
1023.194	-1730
1023.263	-2365
1023.331	-734
1023.400	-1669
1023.469	-1512
1023.538	-1320
1023.606	-1408
1023.675	-1313
1023.744	-1965
1023.812	-2319
1023.881	-2034
1023.949	-1731
1024.018	-2003
1024.086	-1322
1024.155	-1575
1024.223	-2283
1024.292	-2096
1024.360	-1720
1024.429	-1632
1024.497	-2629
1024.565	-1965
1024.634	-1660
1024.702	-2329
1024.770	-1205
1024.838	-2399
1024.907	-1534
1024.975	-2375
1025.043	-951
1025.111	-1987
1025.179	-1824
1025.247	-1919
1025.315	-1836
1025.383	-2009
1025.451	-2641
1025.519	-2086
1025.587	-2059
1025.655	-1144
1025.723	-1649
1025.791	-1090
1025.859	-1080
1025.927	-1431
1025.995	-2104
1026.062	-1487
1026.130	-2089
1026.198	-1972
1026.266	-2171
1026.333	-1955
1026.401	-1264
1026.469	-1374
1026.536	-1315
1026.604	-2541
1026.671	-1892
1026.739	-1666
1026.806	-1460
1026.874	-2205
1026.941	-2081
1027.009	-2544
1027.076	-2719
1027.144	-939
1027.211	-2112
1027.278	-1775
1027.345	-1377
1027.413	-1996
1027.480	-1989
1027.547	-1783
1027.614	-2251
1027.682	-1448
1027.749	-2415
1027.816	-1794
1027.883	-1027
1027.950	-2259
1028.017	-2521
1028.084	-1587
1028.151	-2795
1028.218	-1605
1028.285	-1940
1028.352	-1661
1028.419	-1778
1028.486	-2434
1028.553	-1967
1028.619	-1864
1028.686	-2345
1028.753	-1424
1028.820	-2161
1028.886	-1494
1028.953	-2219
1029.020	-2402
1029.086	-1950
1029.153	-2049
1029.220	-2083
1029.286	-1849
1029.353	-1602
1029.419	-2258
1029.486	-1796
1029.552	-1766
1029.619	-2503
1029.685	-2180
1029.751	-1226
1029.818	-1702
1029.884	-2666
1029.951	-1778
1030.017	-2049
1030.083	-1508
1030.149	-2246
1030.216	-1989
1030.282	-1882
1030.348	-2477
1030.414	-2134
1030.480	-2031
1030.546	-1739
1030.612	-1344
1030.678	-2344
1030.744	-2249
1030.810	-2606
1030.876	-1921
1030.942	-2104
1031.008	-1640
1031.074	-1574
1031.140	-2016
1031.206	-1581
1031.272	-1657
1031.337	-2679
1031.403	-1508
1031.469	-1802
1031.534	-2006
1031.600	-1837
1031.666	-1846
1031.731	-2301
1031.797	-2373
1031.863	-2478
1031.928	-2065
1031.994	-1509
1032.059	-1800
1032.125	-1958
1032.190	-1404
1032.256	-2371
1032.321	-1875
1032.386	-2040
1032.452	-1142
1032.517	-2482
1032.582	-1118
1032.647	-1364
1032.713	-1903
1032.778	-1594
1032.843	-1779
1032.908	-1748
1032.974	-1989
1033.039	-2316
1033.104	-1734
1033.169	-1864
1033.234	-2344
1033.299	-1259
1033.364	-1836
1033.429	-2227
1033.494	-2064
1033.559	-2316
1033.624	-2159
1033.688	-1672
1033.753	-1763
1033.818	-1087
1033.883	-1711
1033.948	-1828
1034.013	-1582
1034.077	-2047
1034.142	-883
1034.207	-2437
1034.271	-917
1034.336	-1054
1034.400	-687
1034.465	-2192
1034.530	-1604
1034.594	-2338
1034.658	-2094
1034.723	-1844
1034.787	-2528
1034.852	-1904
1034.916	-1267
1034.981	-1671
1035.045	-2106
1035.109	-1345
1035.173	-2013
1035.238	-2619
1035.302	-1583
1035.366	-1776
1035.430	-1707
1035.495	-1737
1035.559	-2087
1035.623	-1924
1035.687	-1686
1035.751	-2600
1035.815	-2062
1035.879	-1752
1035.943	-1498
1036.007	-1546
1036.071	-1956
1036.135	-2079
1036.198	-1200
1036.262	-2427
1036.326	-2095
1036.390	-1826
1036.454	-1502
1036.517	-2777
1036.581	-2226
1036.645	-1886
1036.709	-2342
1036.772	-1812
1036.836	-1660
1036.900	-1969
1036.963	-1581
1037.026	-2178
1037.090	-2031
1037.154	-1886
1037.217	-2074
1037.280	-2369
1037.344	-1960
1037.407	-2281
1037.471	-2682
1037.534	-2332
1037.597	-2050
1037.661	-2070
1037.724	-2340
1037.787	-1695
1037.850	-1397
1037.913	-1837
1037.977	-1658
1038.040	-2745
1038.103	-2121
1038.166	-2127
1038.229	-1484
1038.292	-1666
1038.355	-2175
1038.418	-1619
1038.481	-960
1038.544	-2108
1038.607	-1510
1038.670	-2307
1038.732	-1600
1038.795	-2828
1038.858	-2381
1038.921	-1223
1038.984	-2583
1039.046	-2569
1039.109	-2918
1039.172	-2058
1039.234	-2285
1039.297	-2050
1039.360	-1787
1039.422	-1879
1039.485	-2256
1039.547	-2138
1039.610	-1265
1039.672	-1856
1039.734	-2142
1039.797	-1304
1039.859	-2298
1039.922	-1838
1039.984	-2205
1040.046	-2084
1040.109	-2142
1040.171	-2331
1040.233	-2134
1040.295	-1546
1040.358	-2289
1040.420	-1681
1040.482	-1963
1040.544	-1608
1040.606	-1506
1040.668	-1875
1040.730	-2185
1040.792	-1767
1040.854	-2910
1040.916	-2336
1040.978	-1814
1041.040	-2489
1041.102	-2180
1041.164	-1644
1041.225	-1736
1041.287	-2383
1041.349	-2749
1041.411	-2605
1041.472	-1348
1041.534	-2543
1041.596	-1834
1041.657	-2375
1041.719	-2046
1041.781	-1318
1041.842	-2141
1041.904	-1664
1041.965	-1803
1042.027	-2843
1042.088	-1589
1042.150	-2242
1042.211	-2185
1042.272	-1994
1042.334	-1623
1042.395	-2992
1042.456	-2568
1042.518	-2045
1042.579	-1917
1042.640	-1800
1042.701	-2085
1042.763	-2542
1042.824	-2855
1042.885	-1845
1042.946	-2391
1043.007	-1842
1043.068	-1551
1043.129	-2025
1043.190	-1960
1043.251	-2093
1043.312	-1663
1043.373	-1555
1043.434	-1571
1043.495	-2152
1043.556	-1872
1043.616	-2396
1043.677	-1975
1043.738	-2158
1043.799	-2124
1043.859	-2589
1043.920	-2527
1043.981	-1717
1044.041	-2940
1044.102	-2232
1044.162	-2015
1044.223	-2671
1044.284	-2261
1044.344	-2572
1044.405	-2104
1044.465	-2295
1044.525	-2236
1044.586	-1935
1044.646	-2284
1044.707	-2206
1044.767	-1610
1044.827	-1858
1044.887	-1717
1044.948	-1628
1045.008	-1705
1045.068	-2509
1045.128	-1764
1045.188	-2011
1045.249	-2479
1045.309	-1924
1045.369	-2317
1045.429	-1664
1045.489	-1260
1045.549	-2296
1045.609	-1387
1045.669	-1634
1045.729	-1447
1045.789	-2099
1045.848	-2108
1045.908	-1148
1045.968	-2297
1046.028	-1363
1046.088	-1559
1046.147	-1563
1046.207	-1787
1046.267	-2435
1046.326	-1327
1046.386	-1117
1046.446	-1402
1046.505	-1617
1046.565	-1270
1046.624	-333
1046.684	-1292
1046.743	-538
1046.803	-936
1046.862	-260
1046.922	0
