'Start Wavelength	183.907
'End Wavelength	1046.922
'Gate Delay	5.000
'Gate Width (ms)	1.050
'Laser Output Level	0.000
'X Position	0.000
'Y Position	0.000
'Z Position	0.000
'Grid Point Number	1.000
'Shot Number	100.000
183.907	193.000
183.977	37.000
184.047	482
184.116	558
184.186	76
184.256	-261
184.325	-572
184.395	-249
184.465	-49
184.534	182
184.604	-518
184.674	234
184.743	150
184.813	1106
184.883	271
184.952	607
185.022	10
185.092	1111
185.161	42
185.231	435
185.301	8
185.370	-172
185.440	611
185.509	-292
185.579	-709
185.649	555
185.718	326
185.788	817
185.857	785
185.927	-39
185.996	3
186.066	40
186.136	192
186.205	27
186.275	647
186.344	224
186.414	596
186.483	749
186.553	1611
186.622	762
186.692	1436
186.761	989
186.831	1040
186.900	576
186.970	363
187.039	1340
187.109	572
187.178	180
187.248	-185
187.317	796
187.387	633
187.456	805
187.526	183
187.595	1103
187.664	404
187.734	632
187.803	484
187.873	658
187.942	468
188.012	656
188.081	626
188.150	652
188.220	832
188.289	1454
188.358	949
188.428	666
188.497	87
188.567	772
188.636	275
188.705	777
188.775	680
188.844	718
188.913	912
188.983	966
189.052	578
189.121	-104
189.191	30
189.260	785
189.329	1138
189.399	796
189.468	671
189.537	214
189.606	789
189.676	714
189.745	671
189.814	510
189.883	450
189.953	856
190.022	700
190.091	805
190.161	196
190.230	626
190.299	521
190.368	-441
190.437	410
190.507	282
190.576	305
190.645	642
190.714	815
190.783	-469
190.853	337
190.922	1210
190.991	295
191.060	986
191.129	438
191.198	103
191.268	124
191.337	13
191.406	491
191.475	507
191.544	747
191.613	1021
191.682	91
191.752	-6
191.821	233
191.890	573
191.959	93
192.028	37
192.097	633
192.166	826
192.235	-50
192.304	740
192.373	160
192.442	199
192.511	101
192.580	503
192.650	245
192.719	-64
192.788	-187
192.857	649
192.926	335
192.995	309
193.064	15
193.133	762
193.202	155
193.271	559
193.340	-51
193.409	340
193.478	292
193.547	488
193.615	603
193.684	863
193.753	782
193.822	897
193.891	-307
193.960	263
194.029	-430
194.098	-91
194.167	215
194.236	353
194.305	161
194.374	600
194.443	4
194.512	738
194.580	267
194.649	1237
194.718	169
194.787	704
194.856	248
194.925	1301
194.994	132
195.062	1
195.131	424
195.200	147
195.269	307
195.338	146
195.407	247
195.475	391
195.544	-58
195.613	292
195.682	647
195.751	807
195.819	-211
195.888	873
195.957	766
196.026	613
196.094	-26
196.163	501
196.232	934
196.301	801
196.369	90
196.438	146
196.507	451
196.576	313
196.644	498
196.713	523
196.782	-355
196.850	302
196.919	-59
196.988	254
197.056	-143
197.125	271
197.194	-141
197.262	-363
197.331	-126
197.400	548
197.468	204
197.537	218
197.606	242
197.674	343
197.743	454
197.812	53
197.880	312
197.949	-422
198.017	359
198.086	729
198.155	75
198.223	342
198.292	529
198.360	366
198.429	157
198.497	623
198.566	200
198.635	1118
198.703	844
198.772	622
198.840	896
198.909	1339
198.977	52
199.046	460
199.114	499
199.183	-23
199.251	317
199.320	1175
199.388	4
199.457	-272
199.525	135
199.594	513
199.662	-160
199.731	179
199.799	315
199.867	313
199.936	258
200.004	618
200.073	717
200.141	171
200.210	936
200.278	912
200.346	797
200.415	1531
200.483	495
200.552	1930
200.620	611
200.688	301
200.757	198
200.825	-316
200.893	540
200.962	315
201.030	-69
201.098	-639
201.167	51
201.235	-160
201.303	151
201.372	949
201.440	930
201.508	471
201.577	515
201.645	711
201.713	115
201.781	413
201.850	425
201.918	805
201.986	104
202.055	999
202.123	63
202.191	206
202.259	999
202.327	547
202.396	374
202.464	919
202.532	364
202.600	1829
202.669	555
202.737	465
202.805	165
202.873	1302
202.941	623
203.009	686
203.078	47
203.146	563
203.214	511
203.282	-426
203.350	623
203.418	154
203.487	718
203.555	-28
203.623	353
203.691	774
203.759	239
203.827	62
203.895	1023
203.963	220
204.031	948
204.099	1005
204.168	139
204.236	1145
204.304	519
204.372	583
204.440	331
204.508	225
204.576	-776
204.644	498
204.712	-8
204.780	527
204.848	197
204.916	197
204.984	-299
205.052	297
205.120	448
205.188	184
205.256	-174
205.324	-357
205.392	782
205.460	79
205.528	483
205.596	322
205.664	-78
205.732	-39
205.799	651
205.867	428
205.935	-19
206.003	90
206.071	-290
206.139	535
206.207	-286
206.275	1127
206.343	202
206.411	183
206.478	405
206.546	280
206.614	-226
206.682	815
206.750	1048
206.818	1225
206.885	1121
206.953	137
207.021	805
207.089	1372
207.157	58
207.225	294
207.292	-178
207.360	1458
207.428	-183
207.496	-87
207.563	-177
207.631	944
207.699	-181
207.767	341
207.834	208
207.902	-237
207.970	439
208.038	656
208.105	398
208.173	862
208.241	155
208.309	799
208.376	-137
208.444	781
208.512	-107
208.579	199
208.647	1132
208.715	1681
208.782	-169
208.850	476
208.918	-40
208.985	683
209.053	-76
209.120	269
209.188	-673
209.256	536
209.323	119
209.391	16
209.459	899
209.526	1252
209.594	586
209.661	407
209.729	682
209.796	877
209.864	782
209.932	214
209.999	1175
210.067	870
210.134	492
210.202	596
210.269	487
210.337	2590
210.404	320
210.472	1056
210.539	349
210.607	619
210.674	-115
210.742	432
210.809	-91
210.877	251
210.944	-38
211.012	305
211.079	935
211.146	986
211.214	2051
211.281	3295
211.349	1682
211.416	708
211.484	1175
211.551	274
211.618	341
211.686	643
211.753	694
211.821	912
211.888	827
211.955	1175
212.023	552
212.090	189
212.157	474
212.225	663
212.292	725
212.359	1302
212.427	2771
212.494	462
212.561	715
212.629	78
212.696	117
212.763	1234
212.831	511
212.898	899
212.965	-117
213.032	670
213.100	-396
213.167	614
213.234	355
213.301	241
213.369	-103
213.436	265
213.503	487
213.570	328
213.638	-160
213.705	-273
213.772	-63
213.839	0
213.906	-59
213.973	521
214.041	-278
214.108	709
214.175	-474
214.242	765
214.309	552
214.376	1088
214.444	196
214.511	903
214.578	264
214.645	801
214.712	822
214.779	315
214.846	1124
214.913	996
214.980	1837
215.048	3099
215.115	2564
215.182	1814
215.249	758
215.316	1320
215.383	649
215.450	168
215.517	235
215.584	164
215.651	340
215.718	513
215.785	758
215.852	240
215.919	54
215.986	473
216.053	-413
216.120	-51
216.187	-106
216.254	-105
216.321	-428
216.388	334
216.455	467
216.522	131
216.589	551
216.656	1279
216.722	124
216.789	438
216.856	76
216.923	664
216.990	492
217.057	1033
217.124	297
217.191	282
217.258	567
217.324	142
217.391	414
217.458	327
217.525	-162
217.592	1225
217.659	-952
217.725	230
217.792	-110
217.859	1224
217.926	59
217.993	9
218.059	914
218.126	402
218.193	820
218.260	437
218.327	-208
218.393	54
218.460	125
218.527	-191
218.594	360
218.660	904
218.727	-71
218.794	283
218.860	-39
218.927	678
218.994	-171
219.061	-329
219.127	-528
219.194	972
219.261	504
219.327	74
219.394	-228
219.461	527
219.527	829
219.594	517
219.661	150
219.727	-363
219.794	1237
219.860	736
219.927	2607
219.994	5955
220.060	5569
220.127	6891
220.193	3609
220.260	1877
220.326	1040
220.393	1345
220.460	527
220.526	46
220.593	-271
220.659	1365
220.726	512
220.792	2338
220.859	1677
220.925	2289
220.992	182
221.058	2577
221.125	1986
221.191	644
221.258	183
221.324	1084
221.391	129
221.457	-158
221.524	92
221.590	1356
221.657	2591
221.723	370
221.789	866
221.856	686
221.922	443
221.989	1112
222.055	729
222.121	754
222.188	1447
222.254	937
222.321	1389
222.387	647
222.453	573
222.520	784
222.586	692
222.652	686
222.719	-251
222.785	60
222.851	212
222.918	411
222.984	-195
223.050	299
223.116	-576
223.183	158
223.249	-431
223.315	-685
223.382	-154
223.448	182
223.514	-310
223.580	-895
223.647	-122
223.713	-234
223.779	-376
223.845	400
223.911	19
223.978	-355
224.044	-258
224.110	-163
224.176	-374
224.242	-488
224.309	-63
224.375	430
224.441	290
224.507	-457
224.573	-426
224.639	335
224.705	-395
224.772	519
224.838	-785
224.904	69
224.970	292
225.036	-231
225.102	-255
225.168	902
225.234	352
225.300	546
225.366	-420
225.432	457
225.499	-27
225.565	246
225.631	462
225.697	622
225.763	459
225.829	366
225.895	-135
225.961	630
226.027	325
226.093	667
226.159	883
226.225	2231
226.291	2269
226.357	2392
226.423	1896
226.489	1486
226.554	99
226.620	80
226.686	1338
226.752	1463
226.818	1689
226.884	4419
226.950	2226
227.016	1412
227.082	2088
227.148	875
227.214	1552
227.279	1512
227.345	2090
227.411	4841
227.477	8662
227.543	10662
227.609	13078
227.674	8624
227.740	4367
227.806	2341
227.872	1308
227.938	1659
228.003	754
228.069	1016
228.135	661
228.201	942
228.267	-136
228.332	521
228.398	-140
228.464	711
228.530	78
228.595	85
228.661	-625
228.727	16
228.792	102
228.858	465
228.924	165
228.990	798
229.055	-284
229.121	828
229.187	-444
229.252	551
229.318	185
229.384	272
229.449	-448
229.515	114
229.581	-877
229.646	1064
229.712	-387
229.777	792
229.843	221
229.909	703
229.974	560
230.040	777
230.105	131
230.171	-394
230.236	-426
230.302	298
230.368	-742
230.433	-276
230.499	-88
230.564	1105
230.630	-345
230.695	205
230.761	82
230.826	-870
230.892	152
230.957	31
231.023	-44
231.088	-78
231.154	332
231.219	751
231.284	-690
231.350	734
231.415	629
231.481	94
231.546	-427
231.612	278
231.677	212
231.742	-901
231.808	-53
231.873	-366
231.939	-977
232.004	989
232.069	-678
232.135	-143
232.200	-894
232.265	29
232.331	-982
232.396	-149
232.461	543
232.527	248
232.592	-2
232.657	1201
232.723	-361
232.788	-4
232.853	265
232.918	1078
232.984	668
233.049	-247
233.114	205
233.179	700
233.245	1402
233.310	560
233.375	-557
233.440	214
233.506	285
233.571	-148
233.636	-186
233.701	383
233.766	454
233.832	325
233.897	137
233.962	-150
234.027	-134
234.092	252
234.157	1168
234.222	1026
234.288	463
234.353	391
234.418	593
234.483	534
234.548	258
234.613	-28
234.678	274
234.743	-935
234.808	936
234.873	-436
234.938	710
235.004	-189
235.069	-521
235.134	-652
235.199	465
235.264	721
235.329	-749
235.394	640
235.459	270
235.524	-329
235.589	163
235.654	-652
235.719	-318
235.784	35
235.849	-296
235.913	913
235.978	-60
236.043	27
236.108	125
236.173	-465
236.238	181
236.303	260
236.368	-762
236.433	-9
236.498	72
236.563	734
236.627	1695
236.692	6162
236.757	3130
236.822	1153
236.887	296
236.952	920
237.017	136
237.081	712
237.146	64
237.211	2056
237.276	7645
237.341	8991
237.405	1706
237.470	737
237.535	259
237.600	149
237.664	145
237.729	-189
237.794	-674
237.859	470
237.923	165
237.988	486
238.053	579
238.118	38
238.182	239
238.247	894
238.312	-37
238.376	986
238.441	-996
238.506	990
238.570	-371
238.635	438
238.700	12
238.764	281
238.829	317
238.893	-80
238.958	249
239.023	531
239.087	849
239.152	1612
239.216	662
239.281	717
239.346	747
239.410	378
239.475	1092
239.539	2581
239.604	2002
239.668	3923
239.733	6992
239.797	16569
239.862	22251
239.926	16951
239.991	8156
240.055	4364
240.120	2855
240.184	1006
240.249	1052
240.313	974
240.378	455
240.442	1058
240.507	982
240.571	679
240.635	436
240.700	-252
240.764	578
240.829	1066
240.893	-326
240.957	-236
241.022	547
241.086	1221
241.151	240
241.215	-551
241.279	755
241.344	3
241.408	192
241.472	57
241.537	-451
241.601	862
241.665	-65
241.730	-349
241.794	410
241.858	-258
241.922	109
241.987	24
242.051	31
242.115	284
242.179	574
242.244	-384
242.308	749
242.372	474
242.436	-306
242.501	841
242.565	-241
242.629	6
242.693	219
242.757	523
242.822	-522
242.886	1422
242.950	-3
243.014	124
243.078	105
243.142	52
243.206	-595
243.271	355
243.335	-459
243.399	970
243.463	2188
243.527	6221
243.591	589
243.655	461
243.719	-616
243.783	278
243.847	1015
243.911	250
243.975	950
244.040	-564
244.104	1173
244.168	496
244.232	-1037
244.296	57
244.360	363
244.424	-226
244.488	190
244.552	627
244.615	-394
244.679	86
244.743	-556
244.807	-411
244.871	6
244.935	36
244.999	-1346
245.063	369
245.127	930
245.191	267
245.255	-3
245.319	110
245.383	-1323
245.446	1431
245.510	-706
245.574	500
245.638	-342
245.702	330
245.766	1122
245.829	409
245.893	-326
245.957	-458
246.021	269
246.085	148
246.149	312
246.212	1685
246.276	1417
246.340	980
246.404	250
246.467	471
246.531	-637
246.595	1077
246.659	477
246.722	74
246.786	29
246.850	484
246.913	283
246.977	547
247.041	84
247.104	706
247.168	143
247.232	1051
247.295	2655
247.359	1038
247.423	869
247.486	456
247.550	827
247.614	326
247.677	396
247.741	750
247.804	746
247.868	2766
247.932	1846
247.995	3195
248.059	131
248.122	-743
248.186	995
248.249	1281
248.313	5958
248.376	3882
248.440	2219
248.503	129
248.567	1269
248.630	351
248.694	34
248.757	2159
248.821	4457
248.884	2011
248.948	1820
249.011	3535
249.075	5883
249.138	3937
249.202	1137
249.265	492
249.328	723
249.392	-39
249.455	174
249.519	779
249.582	1047
249.645	1502
249.709	848
249.772	263
249.835	1023
249.899	919
249.962	1222
250.025	234
250.089	2222
250.152	1922
250.215	1171
250.279	327
250.342	918
250.405	678
250.468	181
250.532	1019
250.595	2027
250.658	11421
250.721	11379
250.785	2054
250.848	2519
250.911	606
250.974	767
251.038	1730
251.101	2144
251.164	1634
251.227	1108
251.290	1641
251.354	3422
251.417	15651
251.480	7818
251.543	8492
251.606	26972
251.669	9549
251.732	2919
251.795	4349
251.859	5443
251.922	14963
251.985	4120
252.048	1966
252.111	413
252.174	317
252.237	3323
252.300	6375
252.363	8942
252.426	16967
252.489	3419
252.552	2061
252.615	915
252.678	1553
252.741	5087
252.804	9159
252.867	16978
252.930	6180
252.993	2078
253.056	1865
253.119	1372
253.182	979
253.245	977
253.308	1726
253.371	-250
253.434	699
253.497	1883
253.559	2673
253.622	1212
253.685	1446
253.748	566
253.811	932
253.874	1643
253.937	407
254.000	973
254.062	2418
254.125	2437
254.188	1728
254.251	1844
254.314	1099
254.376	618
254.439	1035
254.502	795
254.565	2071
254.628	2477
254.690	1040
254.753	468
254.816	590
254.878	1202
254.941	2793
255.004	658
255.067	999
255.129	302
255.192	1284
255.255	-156
255.317	1087
255.380	340
255.443	1399
255.505	2243
255.568	59
255.631	125
255.693	2614
255.756	535
255.819	3599
255.881	1603
255.944	1259
256.006	67
256.069	-107
256.132	350
256.194	1167
256.257	1029
256.319	1471
256.382	3831
256.444	4579
256.507	3272
256.569	1554
256.632	752
256.694	809
256.757	4263
256.819	8003
256.882	1527
256.944	1493
257.007	637
257.069	661
257.132	335
257.194	1488
257.257	-222
257.319	276
257.381	1143
257.444	2904
257.506	14428
257.569	8410
257.631	2871
257.693	1291
257.756	481
257.818	1044
257.880	700
257.943	1037
258.005	182
258.067	445
258.130	872
258.192	879
258.254	537
258.317	1010
258.379	601
258.441	2042
258.503	1857
258.566	993
258.628	1270
258.690	1253
258.753	1070
258.815	1746
258.877	903
258.939	381
259.001	626
259.064	1269
259.126	1016
259.188	641
259.250	880
259.312	1000
259.375	1323
259.437	1023
259.499	754
259.561	813
259.623	1165
259.685	204
259.747	1097
259.809	1929
259.872	1828
259.934	3866
259.996	3131
260.058	990
260.120	780
260.182	1304
260.244	1279
260.306	779
260.368	947
260.430	452
260.492	892
260.554	2321
260.616	1168
260.678	2236
260.740	1541
260.802	447
260.864	1345
260.926	570
260.988	1645
261.050	1344
261.112	1153
261.174	2952
261.236	1509
261.298	1113
261.359	1427
261.421	2264
261.483	587
261.545	1785
261.607	840
261.669	747
261.731	1714
261.793	1817
261.854	-170
261.916	1602
261.978	879
262.040	1032
262.102	1321
262.164	1111
262.225	570
262.287	1107
262.349	591
262.411	1559
262.472	1852
262.534	1227
262.596	1312
262.658	2068
262.719	20
262.781	2053
262.843	643
262.904	2016
262.966	1323
263.028	1180
263.090	3746
263.151	5977
263.213	2624
263.275	1374
263.336	1799
263.398	1168
263.459	1022
263.521	1610
263.583	1897
263.644	2152
263.706	1021
263.767	1243
263.829	1502
263.891	1084
263.952	1424
264.014	316
264.075	1894
264.137	1933
264.198	1714
264.260	1238
264.321	1089
264.383	1835
264.444	2279
264.506	1364
264.567	1359
264.629	2170
264.690	1273
264.752	2096
264.813	1993
264.875	563
264.936	1490
264.998	2186
265.059	2598
265.120	2414
265.182	1721
265.243	4931
265.305	3112
265.366	2434
265.427	1529
265.489	2545
265.550	767
265.611	1954
265.673	1513
265.734	1967
265.795	1242
265.857	1677
265.918	861
265.979	2787
266.040	8388
266.102	4739
266.163	1994
266.224	792
266.286	1457
266.347	955
266.408	1262
266.469	2128
266.530	1670
266.592	1737
266.653	2361
266.714	1721
266.775	1901
266.836	1403
266.898	1608
266.959	1239
267.020	669
267.081	1642
267.142	1281
267.203	1604
267.264	785
267.326	2569
267.387	984
267.448	880
267.509	1672
267.570	1062
267.631	725
267.692	699
267.753	1539
267.814	981
267.875	1522
267.936	1789
267.997	1842
268.058	1703
268.119	691
268.180	1938
268.241	1048
268.302	1548
268.363	801
268.424	1380
268.485	1127
268.546	845
268.607	1266
268.668	1264
268.729	939
268.790	571
268.851	1456
268.912	1514
268.972	1262
269.033	1501
269.094	950
269.155	1268
269.216	1422
269.277	1354
269.338	1096
269.398	1731
269.459	805
269.520	1132
269.581	1172
269.642	1733
269.702	1214
269.763	1460
269.824	1356
269.885	1572
269.945	1811
270.006	1747
270.067	1059
270.128	1453
270.188	1631
270.249	1761
270.310	1050
270.370	1393
270.431	1519
270.492	1438
270.553	1078
270.613	1348
270.674	1625
270.734	1497
270.795	1326
270.856	1966
270.916	936
270.977	1798
271.038	1461
271.098	2006
271.159	946
271.219	1766
271.280	1638
271.340	2645
271.401	1198
271.462	1636
271.522	2337
271.583	1784
271.643	1266
271.704	1294
271.764	1719
271.825	2830
271.885	8106
271.946	6787
272.006	2616
272.066	6745
272.127	10457
272.187	15087
272.248	5428
272.308	4684
272.369	5336
272.429	2504
272.489	2217
272.550	2263
272.610	2147
272.671	1819
272.731	3177
272.791	1992
272.852	1773
272.912	2170
272.972	1621
273.033	2389
273.093	1960
273.153	2674
273.214	2243
273.274	2144
273.334	3827
273.394	4597
273.455	2599
273.515	3197
273.575	3092
273.635	3501
273.696	3864
273.756	4920
273.816	2600
273.876	2555
273.936	3158
273.997	3252
274.057	2219
274.117	2405
274.177	2973
274.237	7541
274.297	4754
274.358	3852
274.418	4017
274.478	3157
274.538	1867
274.598	1962
274.658	3470
274.718	2574
274.778	1940
274.838	2358
274.898	2204
274.958	4182
275.018	6260
275.078	4076
275.138	2832
275.198	1967
275.258	2513
275.318	2560
275.378	2097
275.438	2553
275.498	2352
275.558	3776
275.618	4630
275.678	3755
275.738	4365
275.798	3465
275.858	2430
275.918	2513
275.978	2336
276.038	3071
276.098	2865
276.157	3190
276.217	4141
276.277	3358
276.337	2065
276.397	3244
276.457	3489
276.517	3229
276.576	2796
276.636	2470
276.696	2445
276.756	4218
276.815	3481
276.875	3109
276.935	2368
276.995	3821
277.055	4430
277.114	3945
277.174	2552
277.234	3412
277.293	2686
277.353	2511
277.413	1739
277.472	2624
277.532	2287
277.592	3999
277.651	14132
277.711	12937
277.771	7102
277.830	19140
277.890	9231
277.950	16827
278.009	27855
278.069	10210
278.128	16402
278.188	13536
278.248	9175
278.307	21414
278.367	8888
278.426	4679
278.486	4192
278.545	3884
278.605	3432
278.664	3437
278.724	2422
278.783	4950
278.843	5943
278.902	3908
278.962	3519
279.021	4178
279.081	5588
279.140	4098
279.199	3149
279.259	5145
279.318	5332
279.378	6943
279.437	9874
279.496	31017
279.556	82388
279.615	40336
279.675	13373
279.734	9786
279.793	11501
279.853	13044
279.912	6534
279.971	5331
280.031	4539
280.090	9024
280.149	11175
280.208	15502
280.268	61510
280.327	35009
280.386	10959
280.445	7709
280.505	5134
280.564	4787
280.623	4115
280.682	4108
280.742	3800
280.801	3743
280.860	2788
280.919	4276
280.978	2515
281.037	3418
281.097	2608
281.156	3311
281.215	2901
281.274	3778
281.333	5322
281.392	4010
281.451	3155
281.510	2635
281.569	2873
281.628	3102
281.688	3000
281.747	2989
281.806	3196
281.865	3096
281.924	2517
281.983	3308
282.042	2128
282.101	3016
282.160	3603
282.219	2412
282.278	2661
282.337	3326
282.396	2987
282.454	3126
282.513	2654
282.572	4572
282.631	3222
282.690	3167
282.749	3260
282.808	3463
282.867	2832
282.926	3131
282.985	3018
283.043	2986
283.102	3793
283.161	3140
283.220	3893
283.279	3554
283.338	2747
283.396	3629
283.455	3308
283.514	3610
283.573	3486
283.631	3143
283.690	3316
283.749	3347
283.808	3429
283.866	4091
283.925	2595
283.984	4123
284.043	3599
284.101	4465
284.160	3412
284.219	5105
284.277	3100
284.336	4528
284.395	5837
284.453	4784
284.512	5080
284.570	4931
284.629	5450
284.688	5496
284.746	5843
284.805	7255
284.863	8818
284.922	10967
284.981	13693
285.039	20193
285.098	36697
285.156	79599
285.215	98813
285.273	95966
285.332	57581
285.390	32938
285.449	21586
285.507	15232
285.566	11858
285.624	8948
285.683	8087
285.741	7086
285.799	5745
285.858	6096
285.916	5073
285.975	5456
286.033	3891
286.091	4833
286.150	3835
286.208	4928
286.267	4699
286.325	4253
286.383	4597
286.442	5112
286.500	3395
286.558	4455
286.616	3657
286.675	4495
286.733	3461
286.791	3691
286.850	3591
286.908	3476
286.966	3978
287.024	4066
287.083	3648
287.141	4145
287.199	3746
287.257	4143
287.315	3324
287.374	3682
287.432	3286
287.490	3937
287.548	3427
287.606	3176
287.664	3856
287.723	4027
287.781	4255
287.839	4350
287.897	3802
287.955	4410
288.013	4331
288.071	8140
288.129	29013
288.187	49059
288.245	15194
288.303	7863
288.361	5609
288.419	5041
288.477	4547
288.535	4627
288.593	3742
288.651	3272
288.709	3114
288.767	3301
288.825	3052
288.883	3850
288.941	3252
288.999	4154
289.057	4020
289.115	3460
289.173	3612
289.231	4009
289.289	2550
289.346	3764
289.404	4572
289.462	3660
289.520	3611
289.578	3256
289.636	3185
289.694	3823
289.751	3507
289.809	4350
289.867	3744
289.925	4045
289.983	3656
290.040	4243
290.098	3725
290.156	3640
290.214	3594
290.271	3818
290.329	3889
290.387	4098
290.444	3437
290.502	2921
290.560	3307
290.617	3574
290.675	2922
290.733	4372
290.790	3996
290.848	4862
290.906	3136
290.963	3302
291.021	3468
291.078	3795
291.136	4160
291.194	4542
291.251	4245
291.309	4043
291.366	4161
291.424	3344
291.481	3510
291.539	3903
291.596	4504
291.654	3444
291.711	4262
291.769	4242
291.826	4660
291.884	3183
291.941	2992
291.999	5171
292.056	3371
292.114	3588
292.171	4345
292.228	5590
292.286	4357
292.343	4117
292.401	3725
292.458	3882
292.515	4503
292.573	4703
292.630	4476
292.687	4239
292.745	3298
292.802	4534
292.859	4133
292.917	4798
292.974	3822
293.031	3918
293.089	3453
293.146	4197
293.203	3711
293.260	3319
293.318	3591
293.375	3824
293.432	3553
293.489	3969
293.546	3872
293.604	4400
293.661	6504
293.718	7583
293.775	5153
293.832	5726
293.889	4171
293.947	4528
294.004	3498
294.061	4342
294.118	4039
294.175	5836
294.232	4671
294.289	4491
294.346	5376
294.403	4929
294.460	4144
294.517	4038
294.574	3879
294.631	4451
294.688	4753
294.745	6162
294.802	7953
294.859	6469
294.916	4110
294.973	3543
295.030	3458
295.087	4092
295.144	3955
295.201	4285
295.258	3763
295.315	3797
295.372	5406
295.429	5526
295.486	4174
295.542	3798
295.599	4775
295.656	5268
295.713	4230
295.770	5194
295.827	3709
295.883	4203
295.940	3132
295.997	3635
296.054	3237
296.111	3534
296.167	3979
296.224	3380
296.281	3390
296.338	3456
296.394	3041
296.451	4177
296.508	4236
296.564	4666
296.621	4900
296.678	9555
296.734	8880
296.791	5204
296.848	4268
296.904	4674
296.961	4077
297.018	6359
297.074	4528
297.131	4717
297.187	3439
297.244	4922
297.301	9347
297.357	9846
297.414	4419
297.470	5365
297.527	3137
297.583	4193
297.640	4352
297.696	4285
297.753	3615
297.809	3427
297.866	2718
297.922	3569
297.979	2863
298.035	3784
298.092	3780
298.148	5856
298.204	3850
298.261	4353
298.317	6913
298.374	8836
298.430	5503
298.486	4496
298.543	3251
298.599	3979
298.656	4660
298.712	4384
298.768	5162
298.824	4682
298.881	4188
298.937	4186
298.993	3433
299.050	4357
299.106	3358
299.162	3634
299.218	4739
299.275	5080
299.331	4988
299.387	7983
299.443	18711
299.500	34685
299.556	19334
299.612	11530
299.668	15095
299.724	35669
299.780	25860
299.837	12552
299.893	12901
299.949	29991
300.005	28102
300.061	31406
300.117	33217
300.173	14964
300.229	8314
300.285	6969
300.341	6829
300.397	5783
300.453	5769
300.510	6254
300.566	8875
300.622	20170
300.678	52500
300.734	40739
300.790	20102
300.845	18363
300.901	32355
300.957	30593
301.013	13535
301.069	8411
301.125	7083
301.181	6461
301.237	5419
301.293	4965
301.349	4625
301.405	3858
301.461	4537
301.516	4608
301.572	4366
301.628	3977
301.684	3655
301.740	4691
301.796	4807
301.851	4481
301.907	4001
301.963	6434
302.019	10153
302.074	20061
302.130	14945
302.186	7773
302.242	5717
302.297	5014
302.353	4263
302.409	4378
302.464	4689
302.520	4950
302.576	6103
302.631	7143
302.687	3699
302.743	4077
302.798	3613
302.854	4146
302.910	3932
302.965	3579
303.021	3311
303.076	3616
303.132	3783
303.187	3977
303.243	3911
303.299	3904
303.354	3570
303.410	3730
303.465	2945
303.521	3959
303.576	3163
303.632	4705
303.687	4848
303.743	7803
303.798	5892
303.853	4588
303.909	4004
303.964	3380
304.020	3845
304.075	3875
304.130	3652
304.186	4942
304.241	5388
304.297	4408
304.352	3939
304.358	3939
304.407	3940
304.449	4115
304.463	4174
304.518	3403
304.539	3657
304.573	4058
304.629	4360
304.630	4363
304.684	4606
304.720	6356
304.739	7201
304.794	7149
304.811	6412
304.850	4695
304.902	4225
304.905	4195
304.960	3331
304.992	3413
305.015	3489
305.071	3795
305.083	3641
305.126	3061
305.173	3724
305.181	3841
305.236	3546
305.264	4025
305.292	4481
305.347	3396
305.354	3434
305.402	3788
305.445	3777
305.457	3740
305.512	4131
305.535	3721
305.567	3252
305.622	3906
305.626	3957
305.678	4772
305.716	5944
305.733	6413
305.788	5454
305.807	5494
305.843	5725
305.897	7478
305.898	7496
305.953	6625
305.988	5307
306.008	4617
306.063	3683
306.078	3613
306.118	3765
306.168	3950
306.173	3941
306.228	3101
306.259	3648
306.283	4100
306.338	3341
306.349	3422
306.393	3855
306.440	3544
306.448	3466
306.503	3871
306.530	3650
306.558	3556
306.613	4056
306.620	4159
306.668	5011
306.711	5798
306.723	5857
306.778	4682
306.801	4494
306.833	4434
306.888	4202
306.892	4171
306.943	3741
306.982	3370
306.997	3336
307.052	4495
307.072	4199
307.107	3426
307.162	3548
307.163	3542
307.217	3683
307.253	4249
307.272	4436
307.327	3782
307.343	3782
307.381	4131
307.434	4740
307.436	4761
307.491	4360
307.524	4546
307.546	4756
307.600	5244
307.614	5140
307.655	4439
307.704	4375
307.710	4430
307.765	4601
307.795	4867
307.819	5006
307.874	5199
307.885	5299
307.929	5747
307.975	5579
307.984	5717
308.038	7565
308.065	8739
308.093	14755
308.148	31629
308.156	35447
308.202	52399
308.246	54433
308.257	50912
308.312	23784
308.336	14463
308.366	10964
308.421	7270
308.426	7038
308.475	6201
308.517	5730
308.530	5609
308.585	5384
308.607	5171
308.639	4998
308.694	5256
308.697	5268
308.748	5798
308.787	6230
308.803	6286
308.857	5654
308.877	5766
308.912	6150
308.967	6140
308.967	6146
309.021	9041
309.058	10735
309.076	12418
309.130	19219
309.148	22192
309.185	46777
309.238	91620
309.239	91827
309.293	88428
309.328	73813
309.348	60926
309.402	28696
309.418	20519
309.457	16190
309.508	12584
309.511	12523
309.566	12590
309.598	13040
309.620	14732
309.674	20198
309.688	21443
309.729	21211
309.778	19155
309.783	18767
309.837	14152
309.868	11582
309.892	10942
309.946	9835
309.959	9647
310.001	9532
310.049	9242
310.055	9094
310.109	7868
310.139	7060
310.163	6754
310.218	6282
310.229	6160
310.272	5967
310.319	5912
310.326	5867
310.381	5231
310.409	5118
310.435	5389
310.489	5602
310.499	5669
310.543	5650
310.589	5418
310.598	5498
310.652	6041
310.679	6326
310.706	6073
310.760	5593
310.769	5459
310.814	6100
310.859	7015
310.868	6994
310.923	6504
310.948	6275
310.977	6415
311.031	6835
311.038	6863
311.085	6501
311.128	5998
311.139	6070
311.193	6524
311.218	6676
311.247	6613
311.301	6595
311.308	6558
311.356	6249
311.398	5988
311.410	6007
311.464	6012
311.488	6012
311.518	6164
311.572	6432
311.578	6441
311.626	6661
311.668	6862
311.680	6935
311.734	7172
311.758	7242
311.788	7144
311.842	6975
311.847	6941
311.896	7291
311.937	7555
311.950	7399
312.004	6659
312.027	6312
312.058	6388
312.112	6516
312.117	6512
312.165	6782
312.207	6986
312.297	7253
312.386	7673
312.476	6820
312.566	7838
312.656	7983
312.745	8117
312.835	8319
312.925	8731
313.015	8002
313.104	9194
313.194	10006
313.284	8532
313.374	11178
313.463	10344
313.553	11867
313.643	11978
313.732	13033
313.822	12805
313.912	13961
314.001	14211
314.091	15131
314.180	15857
314.270	16163
314.360	14616
314.449	15415
314.539	14780
314.628	15647
314.718	15448
314.808	16518
314.897	17699
314.987	19228
315.076	18352
315.166	18470
315.255	17333
315.345	17037
315.434	17401
315.524	18924
315.613	21267
315.703	29348
315.792	92307
315.881	298636
315.971	97581
316.060	27103
316.150	18729
316.239	17117
316.328	17690
316.418	18939
316.507	20790
316.597	23578
316.686	23720
316.775	21221
316.865	19593
316.954	17979
317.043	15929
317.133	14878
317.222	14054
317.311	14352
317.400	13230
317.490	15220
317.579	17887
317.668	22608
317.757	40972
317.847	153618
317.936	402026
318.025	138471
318.114	140308
318.203	59595
318.293	23292
318.382	30693
318.471	32720
318.560	26577
318.649	23038
318.738	16410
318.828	13408
318.917	10628
319.006	11149
319.095	11754
319.184	14130
319.273	12488
319.362	10275
319.451	10183
319.540	10092
319.629	10663
319.718	11569
319.807	11746
319.896	12549
319.985	17490
320.074	12651
320.163	11382
320.252	13086
320.341	13504
320.430	13794
320.519	15888
320.608	15892
320.697	19981
320.786	20980
320.875	23955
320.964	26584
321.053	27479
321.142	28503
321.230	32424
321.319	34348
321.408	37406
321.497	36451
321.586	32709
321.675	29455
321.764	28293
321.852	29303
321.941	30062
322.030	30758
322.119	33264
322.207	37755
322.296	41826
322.385	44409
322.474	49217
322.562	48441
322.651	38222
322.740	32029
322.829	29214
322.917	25794
323.006	23384
323.095	22165
323.183	20523
323.272	19350
323.361	18834
323.449	19106
323.538	16642
323.626	17606
323.715	16273
323.804	13979
323.892	15732
323.981	12762
324.069	12784
324.158	13334
324.246	13007
324.335	12210
324.424	12913
324.512	11866
324.601	12474
324.689	11307
324.778	12738
324.866	11167
324.954	11256
325.043	10038
325.131	10332
325.220	10927
325.308	11606
325.397	10878
325.485	10101
325.574	9985
325.662	10744
325.750	9370
325.839	9937
325.927	8742
326.015	9524
326.104	9727
326.192	9432
326.280	9123
326.369	9266
326.457	9664
326.545	10151
326.634	9325
326.722	9977
326.810	10860
326.898	12904
326.987	13229
327.075	12530
327.163	11596
327.251	11471
327.340	12339
327.428	17751
327.516	20928
327.604	16671
327.692	13800
327.781	11121
327.869	10039
327.957	9089
328.045	9069
328.133	7469
328.221	7826
328.309	8162
328.397	8529
328.485	10167
328.574	17662
328.662	26098
328.750	18446
328.838	12760
328.926	10603
329.014	9829
329.102	8451
329.190	9599
329.278	7928
329.366	8596
329.454	6796
329.542	8041
329.630	7178
329.718	8132
329.806	7251
329.893	7684
329.981	7591
330.069	8871
330.157	9804
330.245	13398
330.333	9883
330.421	8502
330.509	7445
330.597	9170
330.684	8650
330.772	8377
330.860	7658
330.948	7980
331.036	7648
331.123	8149
331.211	7988
331.299	8174
331.387	8184
331.475	9390
331.562	8221
331.650	8905
331.738	8745
331.825	9371
331.913	8906
332.001	8103
332.089	8881
332.176	8778
332.264	9267
332.352	9227
332.439	9088
332.527	9912
332.614	8833
332.702	9099
332.790	9595
332.877	9789
332.965	11716
333.052	11654
333.140	11749
333.228	17917
333.315	13274
333.403	12305
333.490	13482
333.578	15112
333.665	23580
333.753	19285
333.840	16796
333.928	19979
334.015	23093
334.103	29279
334.190	40951
334.278	48273
334.365	59729
334.452	59162
334.540	47091
334.627	50246
334.715	60068
334.802	82553
334.889	115222
334.977	131038
335.064	87949
335.151	54294
335.239	40963
335.326	35543
335.413	36496
335.501	38289
335.588	38904
335.675	45286
335.762	55455
335.850	74038
335.937	99585
336.024	143844
336.111	186527
336.199	156693
336.286	89183
336.373	56630
336.460	39891
336.547	32212
336.635	26823
336.722	23049
336.809	20205
336.896	19451
336.983	19323
337.070	20905
337.157	22154
337.245	20211
337.332	18539
337.419	17023
337.506	16978
337.593	16151
337.680	15669
337.767	16451
337.854	13682
337.941	12846
338.028	13080
338.115	13479
338.202	13948
338.289	15502
338.376	13969
338.463	12608
338.550	13122
338.637	12187
338.724	10398
338.811	11925
338.898	10661
338.984	9853
339.071	9896
339.158	10161
339.245	10441
339.332	10512
339.419	10626
339.506	10987
339.593	10283
339.679	10782
339.766	10592
339.853	10266
339.940	10146
340.027	10004
340.113	9525
340.200	9359
340.287	9339
340.374	8805
340.460	8661
340.547	9247
340.634	8769
340.720	10656
340.807	9223
340.894	9954
340.980	8788
341.067	10011
341.154	10179
341.240	9583
341.327	10346
341.414	10279
341.500	9456
341.587	9585
341.674	9726
341.760	10748
341.847	8933
341.933	9453
342.020	8838
342.106	9052
342.193	8926
342.279	9459
342.366	9069
342.452	8885
342.539	8333
342.625	9076
342.712	9551
342.798	8780
342.885	8563
342.971	9329
343.058	8632
343.144	9370
343.230	9512
343.317	9027
343.403	7622
343.490	9286
343.576	8504
343.662	9561
343.749	8669
343.835	9260
343.921	9565
344.008	18294
344.094	28524
344.180	11348
344.267	8650
344.353	10876
344.439	10107
344.525	8732
344.612	9503
344.698	8780
344.784	7980
344.870	8667
344.957	8353
345.043	9412
345.129	9418
345.215	9300
345.301	8331
345.387	8069
345.474	8452
345.560	8226
345.646	7800
345.732	8565
345.818	8607
345.904	9180
345.990	8051
346.076	9292
346.162	8463
346.249	9415
346.335	8456
346.421	9513
346.507	10090
346.593	13380
346.679	9151
346.765	12727
346.851	21676
346.937	18809
347.023	12874
347.108	10886
347.194	8764
347.280	10876
347.366	14981
347.452	38182
347.538	51708
347.624	26220
347.710	15220
347.796	11273
347.882	10139
347.967	10310
348.053	10080
348.139	9873
348.225	9943
348.311	9415
348.397	9416
348.482	11021
348.568	11897
348.654	19916
348.740	55389
348.825	68495
348.911	29600
348.997	18443
349.083	18148
349.168	11899
349.254	10248
349.340	10409
349.425	10013
349.511	10676
349.597	10625
349.682	10614
349.768	11392
349.854	10757
349.939	9436
350.025	9173
350.110	9424
350.196	9754
350.282	9122
350.367	10177
350.453	9359
350.538	9073
350.624	9259
350.709	9689
350.795	9271
350.880	9323
350.966	9646
351.051	9608
351.137	9068
351.222	9966
351.308	9029
351.393	10255
351.479	9443
351.564	9704
351.649	8829
351.735	9089
351.820	8731
351.906	8630
351.991	8198
352.076	10163
352.162	10110
352.247	8976
352.332	8724
352.418	9072
352.503	8859
352.588	11663
352.673	9789
352.759	9089
352.844	8444
352.929	8510
353.014	8186
353.100	9551
353.185	9770
353.270	9498
353.355	8156
353.441	9310
353.526	8463
353.611	8697
353.696	8548
353.781	9536
353.866	8748
353.952	10147
354.037	8909
354.122	10239
354.207	9324
354.292	9451
354.377	9036
354.462	9410
354.547	8740
354.632	8897
354.717	9204
354.802	9222
354.887	9510
354.972	9520
355.057	9033
355.142	9285
355.227	9816
355.312	9819
355.397	8432
355.482	10358
355.567	9685
355.652	9516
355.737	9752
355.822	12722
355.907	10896
355.991	10202
356.076	8826
356.161	9767
356.246	9620
356.331	10073
356.416	10836
356.501	17966
356.585	17245
356.670	10523
356.755	10942
356.840	11081
356.924	16684
357.009	31270
357.094	17613
357.179	9777
357.263	9726
357.348	10797
357.433	9881
357.517	10561
357.602	10711
357.687	10624
357.771	11053
357.856	12173
357.941	11863
358.025	18018
358.110	41395
358.195	24568
358.279	11740
358.364	12263
358.448	13979
358.533	16686
358.617	14333
358.702	14469
358.787	11034
358.871	11341
358.956	11467
359.040	11828
359.125	11121
359.209	11421
359.294	13795
359.378	23698
359.462	21023
359.547	11846
359.631	11273
359.716	10711
359.800	10518
359.885	10774
359.969	10265
360.053	10894
360.138	10089
360.222	11263
360.306	10290
360.391	11555
360.475	12207
360.559	13137
360.644	12895
360.728	12663
360.812	16223
360.896	24127
360.981	15113
361.065	13625
361.149	13628
361.233	13852
361.318	13059
361.402	14594
361.486	15844
361.570	15447
361.654	16791
361.739	19336
361.823	26697
361.907	33505
361.991	26988
362.075	33299
362.159	46169
362.243	86641
362.327	172139
362.411	208674
362.495	100461
362.580	57177
362.664	54851
362.748	68145
362.832	103503
362.916	199391
363.000	384228
363.084	433842
363.168	208569
363.252	87081
363.336	53471
363.420	43309
363.503	40142
363.587	38409
363.671	34431
363.755	36093
363.839	39901
363.923	47039
364.007	58507
364.091	82234
364.175	130783
364.258	247890
364.342	465255
364.426	597689
364.510	366344
364.594	153255
364.677	80681
364.761	58811
364.845	43162
364.929	31564
365.013	26245
365.096	24022
365.180	20812
365.264	21035
365.347	24638
365.431	19863
365.515	17029
365.598	16088
365.682	16557
365.766	15259
365.849	15589
365.933	15462
366.017	15627
366.100	16436
366.184	15640
366.267	16521
366.351	15763
366.435	15563
366.518	15137
366.602	15450
366.685	14920
366.769	15334
366.852	14853
366.936	14993
367.019	14617
367.103	15367
367.186	14529
367.270	15622
367.353	15529
367.436	17777
367.520	17445
367.603	17889
367.687	16444
367.770	16238
367.853	16703
367.937	16832
368.020	16479
368.104	14769
368.187	13768
368.270	13726
368.353	13123
368.437	13758
368.520	13648
368.603	13704
368.687	12104
368.770	14524
368.853	12118
368.936	12881
369.020	11643
369.103	11294
369.186	11401
369.269	10877
369.352	11142
369.436	12059
369.519	11106
369.602	11066
369.685	10771
369.768	11299
369.851	10782
369.934	10917
370.018	10339
370.101	10916
370.184	12665
370.267	12167
370.350	12965
370.433	17940
370.516	52525
370.599	160709
370.682	95839
370.765	22956
370.848	15664
370.931	16095
371.014	13091
371.097	11311
371.180	11281
371.263	12125
371.346	10208
371.429	11591
371.511	10851
371.594	10884
371.677	10441
371.760	12143
371.843	11819
371.926	22833
372.009	37109
372.091	19667
372.174	12632
372.257	17462
372.340	13981
372.423	13607
372.505	13436
372.588	12406
372.671	13342
372.754	15921
372.836	14024
372.919	13746
373.002	15037
373.085	13939
373.167	14222
373.250	14687
373.332	18511
373.415	28529
373.498	50829
373.580	61843
373.663	205494
373.746	228051
373.828	50721
373.911	22259
373.993	18100
374.076	19034
374.159	19419
374.241	17642
374.324	18625
374.406	18814
374.489	22796
374.571	33694
374.654	22589
374.736	20525
374.819	26589
374.901	34270
374.983	37023
375.066	21365
375.148	19319
375.231	22404
375.313	24285
375.395	21149
375.478	20194
375.560	19539
375.643	18947
375.725	21378
375.807	29456
375.890	27450
375.972	16379
376.054	17533
376.136	15882
376.219	15340
376.301	17391
376.383	22224
376.465	16904
376.548	13866
376.630	15210
376.712	18284
376.794	15693
376.877	12387
376.959	12154
377.041	12278
377.123	11509
377.205	11939
377.287	12003
377.369	12749
377.452	12555
377.534	12081
377.616	11526
377.698	12282
377.780	11898
377.862	12142
377.944	12169
378.026	11422
378.108	11053
378.190	11863
378.272	11305
378.354	11248
378.436	10969
378.518	11713
378.600	12510
378.682	11984
378.764	13045
378.846	13528
378.928	11399
379.010	11272
379.091	11726
379.173	12095
379.255	11785
379.337	10617
379.419	11824
379.501	15266
379.583	11966
379.664	12077
379.746	11776
379.828	13583
379.910	12758
379.991	14221
380.073	11258
380.155	12000
380.237	10813
380.318	11971
380.400	10899
380.482	11750
380.564	11667
380.645	12279
380.727	12338
380.809	12336
380.890	12025
380.972	11949
381.053	12488
381.135	12398
381.217	11982
381.298	13560
381.380	13010
381.461	12248
381.543	19613
381.624	22234
381.706	13596
381.787	13720
381.869	12948
381.951	18803
382.032	31537
382.113	27990
382.195	15578
382.276	15382
382.358	16237
382.439	21083
382.521	25519
382.602	32488
382.684	23833
382.765	30750
382.846	54637
382.928	94148
383.009	66374
383.090	62455
383.172	153909
383.253	203387
383.334	78644
383.416	39495
383.497	32283
383.578	32592
383.659	56119
383.741	158248
383.822	304530
383.903	176883
383.984	51364
384.066	38654
384.147	29476
384.228	28840
384.309	29706
384.390	31742
384.471	30557
384.553	27992
384.634	25042
384.715	24156
384.796	21815
384.877	22109
384.958	23816
385.039	24240
385.120	21438
385.201	20667
385.282	21559
385.363	24103
385.444	26615
385.525	27420
385.606	31197
385.687	31501
385.768	27337
385.849	27067
385.930	34858
386.011	43923
386.092	32527
386.173	28991
386.254	26822
386.335	25673
386.416	26429
386.496	27068
386.577	27226
386.658	27304
386.739	26391
386.820	27938
386.901	27418
386.981	32300
387.062	35390
387.143	39278
387.224	38085
387.304	41644
387.385	40763
387.466	41231
387.547	43544
387.627	44613
387.708	46692
387.789	47857
387.869	45137
387.950	40862
388.031	38090
388.111	34719
388.192	37543
388.273	39253
388.353	35222
388.434	27504
388.514	25616
388.595	29551
388.676	30297
388.756	25138
388.837	23601
388.917	22213
388.998	20876
389.078	22045
389.159	21796
389.239	20829
389.320	21623
389.400	19851
389.480	21236
389.561	23184
389.641	23173
389.722	21151
389.802	21174
389.883	22193
389.963	24540
390.043	23392
390.124	20326
390.204	22158
390.284	23818
390.365	22018
390.445	22806
390.525	28421
390.605	26945
390.686	24211
390.766	23549
390.846	24597
390.927	23798
391.007	24966
391.087	25381
391.167	25228
391.247	25174
391.328	28282
391.408	28765
391.488	30012
391.568	29881
391.648	32229
391.728	34764
391.808	36743
391.888	36768
391.969	41811
392.049	43697
392.129	47657
392.209	50227
392.289	58452
392.369	60522
392.449	66248
392.529	72321
392.609	82443
392.689	96578
392.769	115978
392.849	141977
392.929	182903
393.009	246671
393.089	356696
393.169	573696
393.248	896457
393.328	1114404
393.408	1083905
393.488	904945
393.568	573547
393.648	349264
393.728	232086
393.807	164509
393.887	126880
393.967	101857
394.047	83358
394.127	71092
394.206	67044
394.286	76536
394.366	140860
394.446	150709
394.525	64672
394.605	46011
394.685	43222
394.764	46024
394.844	73762
394.924	95190
395.003	57349
395.083	39655
395.163	36750
395.242	34507
395.322	35376
395.402	34650
395.481	39498
395.561	49523
395.640	104821
395.720	190070
395.799	129516
395.879	63033
395.958	54858
396.038	79631
396.117	178783
396.197	210046
396.276	104829
396.356	93782
396.435	117192
396.515	160985
396.594	244880
396.673	438567
396.753	779772
396.832	1034826
396.912	937971
396.991	579175
397.070	304144
397.150	182505
397.229	142206
397.308	189456
397.388	289400
397.467	189147
397.546	80012
397.625	55231
397.705	48421
397.784	40428
397.863	36857
397.942	34083
398.022	31809
398.101	29458
398.180	31133
398.259	26997
398.338	25319
398.417	23662
398.497	22944
398.576	21241
398.655	21181
398.734	20794
398.813	20187
398.892	19705
398.971	21772
399.050	19735
399.129	17154
399.208	16214
399.287	16335
399.366	15198
399.445	15987
399.524	15419
399.603	15095
399.682	14809
399.761	15696
399.840	18540
399.919	17955
399.998	14185
400.077	13480
400.156	12492
400.235	14478
400.313	12331
400.392	12900
400.471	13545
400.550	12657
400.629	11813
400.708	11423
400.786	10223
400.865	11584
400.944	11137
401.023	12991
401.102	9859
401.180	11356
401.259	10665
401.338	11298
401.416	10239
401.495	10164
401.574	10788
401.652	10455
401.731	10586
401.810	10061
401.888	9420
401.967	9584
402.046	10072
402.124	9851
402.203	10002
402.281	10081
402.360	9590
402.438	10333
402.517	8351
402.596	10150
402.674	9315
402.753	9425
402.831	8966
402.910	10526
402.988	11075
403.066	16072
403.145	15314
403.223	13458
403.302	15381
403.380	15487
403.459	15971
403.537	14796
403.615	13042
403.694	13671
403.772	12866
403.850	12318
403.929	11605
404.007	11996
404.085	12450
404.164	12456
404.242	11487
404.320	13259
404.398	15059
404.477	15865
404.555	20999
404.633	20502
404.711	14725
404.789	12431
404.868	9781
404.946	10112
405.024	10000
405.102	9074
405.180	8116
405.258	8012
405.336	9254
405.415	8503
405.493	9829
405.571	9935
405.649	9317
405.727	9965
405.805	12145
405.883	12788
405.961	10796
406.039	10710
406.117	8378
406.195	10807
406.273	10081
406.351	14792
406.429	12137
406.507	9071
406.585	7608
406.663	8848
406.740	8832
406.818	8520
406.896	8117
406.974	10095
407.052	8821
407.130	12332
407.208	13648
407.285	10918
407.363	9309
407.441	9983
407.519	10401
407.596	13032
407.674	28680
407.752	82870
407.830	73509
407.907	18296
407.985	9226
408.063	10353
408.141	8705
408.218	9727
408.296	8825
408.373	10052
408.451	11150
408.529	11445
408.606	11652
408.684	13726
408.762	13828
408.839	14524
408.917	15492
408.994	17950
409.072	18892
409.149	24800
409.227	36498
409.304	51084
409.382	59406
409.459	70428
409.537	82242
409.614	84107
409.692	73505
409.769	70131
409.846	85888
409.924	98396
410.001	86613
410.079	70138
410.156	52470
410.233	42695
410.311	34069
410.388	29399
410.465	26202
410.543	24685
410.620	21695
410.697	20491
410.775	20329
410.852	19015
410.929	20933
411.006	20683
411.083	19153
411.161	18527
411.238	17303
411.315	16476
411.392	15686
411.469	15168
411.547	13950
411.624	12760
411.701	12913
411.778	13237
411.855	11799
411.932	11249
412.009	10960
412.086	10556
412.163	11138
412.240	10585
412.317	9817
412.394	9996
412.471	9649
412.548	8951
412.625	9283
412.702	8749
412.779	8723
412.856	9127
412.933	8731
413.010	8588
413.087	9222
413.164	7964
413.241	9463
413.318	8025
413.395	8066
413.471	8068
413.548	7586
413.625	8135
413.702	6288
413.779	7520
413.855	6450
413.932	6740
414.009	6136
414.086	7381
414.162	7233
414.239	7887
414.316	8096
414.393	9037
414.469	6721
414.546	6201
414.623	6691
414.699	7132
414.776	6470
414.853	7044
414.929	6824
415.006	6400
415.082	7089
415.159	7796
415.236	6896
415.312	7446
415.389	6573
415.465	6963
415.542	6574
415.618	6447
415.695	6811
415.771	5656
415.848	6064
415.924	6346
416.000	6140
416.077	7555
416.153	6189
416.230	5846
416.306	6401
416.383	5800
416.459	7092
416.535	6012
416.612	6517
416.688	7351
416.764	6410
416.841	5709
416.917	6903
416.993	5954
417.069	6218
417.146	6568
417.222	6487
417.298	6755
417.374	6325
417.451	7311
417.527	6122
417.603	7180
417.679	6599
417.755	7140
417.831	6154
417.908	7487
417.984	6633
418.060	6656
418.136	7813
418.212	7462
418.288	7648
418.364	7906
418.440	6373
418.516	7493
418.592	7421
418.668	8337
418.744	7344
418.820	7520
418.896	7484
418.972	7920
419.048	7738
419.124	9181
419.200	7092
419.276	9412
419.352	7439
419.428	9281
419.504	8331
419.579	9857
419.655	9772
419.731	10479
419.807	10789
419.883	11116
419.959	11333
420.034	13000
420.110	12030
420.186	13922
420.262	13696
420.337	13365
420.413	13998
420.489	15706
420.565	16986
420.640	16849
420.716	17475
420.792	17918
420.867	20387
420.943	20487
421.019	22277
421.094	23396
421.170	26170
421.245	27425
421.321	29848
421.397	34791
421.472	49781
421.548	79823
421.623	71203
421.699	52914
421.774	56897
421.850	64414
421.925	76321
422.001	88106
422.076	108385
422.152	134673
422.227	171116
422.302	226564
422.378	301524
422.453	394587
422.529	433533
422.604	336525
422.679	205942
422.755	303636
422.830	442288
422.905	410873
422.981	325459
423.056	250954
423.131	192725
423.207	151478
423.282	121381
423.357	100612
423.432	83713
423.508	72530
423.583	62520
423.658	56042
423.733	49300
423.808	47215
423.883	45405
423.959	47968
424.034	52390
424.109	49104
424.184	38506
424.259	32222
424.334	28280
424.409	24710
424.484	22698
424.559	21344
424.634	19428
424.709	18141
424.784	16767
424.859	16458
424.934	15084
425.009	16406
425.084	15704
425.159	14130
425.234	13197
425.309	12548
425.384	12713
425.459	12384
425.534	11426
425.609	11761
425.683	11288
425.758	10970
425.833	10879
425.908	11281
425.983	9365
426.058	11527
426.132	9861
426.207	9941
426.282	10393
426.357	9118
426.431	8406
426.506	9423
426.581	8812
426.655	9274
426.730	7235
426.805	7611
426.879	8256
426.954	7771
427.029	7474
427.103	8594
427.178	11265
427.253	9801
427.327	7737
427.402	7245
427.476	7705
427.551	7626
427.625	8214
427.700	8505
427.774	7585
427.849	9221
427.923	10123
427.998	11148
428.072	14622
428.147	31339
428.221	103429
428.296	251015
428.370	180905
428.444	42250
428.519	16687
428.593	14453
428.667	14402
428.742	19383
428.816	49361
428.890	161374
428.965	246642
429.039	92615
429.113	21955
429.188	13070
429.262	10460
429.336	10753
429.410	9870
429.485	9954
429.559	11233
429.633	13186
429.707	17302
429.781	45329
429.855	151820
429.930	223840
430.004	92071
430.078	58782
430.152	139035
430.226	331881
430.300	353057
430.374	131781
430.448	42615
430.522	27329
430.596	28596
430.670	68939
430.744	195958
430.818	228471
430.892	68308
430.966	17439
431.040	11053
431.114	8783
431.188	8013
431.262	8123
431.336	7739
431.410	8669
431.484	8031
431.557	9523
431.631	12207
431.705	25165
431.779	87922
431.853	238803
431.927	200058
432.000	47273
432.074	13689
432.148	9161
432.222	6696
432.295	6479
432.369	4736
432.443	3948
432.516	5922
432.590	8710
432.664	6163
432.737	3920
432.811	3373
432.885	3703
432.958	3645
433.032	3027
433.106	3877
433.179	4009
433.253	2799
433.326	3493
433.400	3774
433.473	4101
433.547	3720
433.620	3940
433.694	3825
433.767	5642
433.841	4756
433.914	5279
433.988	5228
434.061	5959
434.134	4720
434.208	5173
434.281	3432
434.355	4323
434.428	4600
434.501	5195
434.575	4414
434.648	4369
434.721	3943
434.795	4725
434.868	5623
434.941	5319
435.014	5704
435.088	7659
435.161	8328
435.234	9585
435.307	11619
435.381	14799
435.454	21723
435.527	33449
435.600	40633
435.673	37748
435.746	32182
435.819	26126
435.892	20998
435.966	17170
436.039	13758
436.112	12732
436.185	9368
436.258	8932
436.331	6769
436.404	7292
436.477	6163
436.550	6627
436.623	6298
436.696	5219
436.769	5074
436.842	4870
436.915	4003
436.987	4562
437.060	4265
437.133	4839
437.206	4125
437.279	3708
437.352	3272
437.425	3644
437.498	4041
437.570	3587
437.643	2921
437.716	3457
437.789	3207
437.861	3557
437.934	2126
438.007	3899
438.080	2448
438.152	3801
438.225	3483
438.298	6375
438.370	12160
438.443	8409
438.516	3941
438.588	3609
438.661	3072
438.734	3343
438.806	3218
438.879	3874
438.951	3080
439.024	3266
439.096	2774
439.169	3274
439.241	2454
439.314	3681
439.386	2997
439.459	3711
439.531	2690
439.604	3495
439.676	3708
439.749	3146
439.821	2819
439.893	3404
439.966	3414
440.038	3537
440.110	3327
440.183	3598
440.255	2838
440.327	4227
440.400	5112
440.472	7213
440.544	6694
440.617	4651
440.689	4951
440.761	4019
440.833	3339
440.905	4762
440.978	3434
441.050	4048
441.122	5292
441.194	3517
441.266	4448
441.338	5299
441.411	5129
441.483	6281
441.555	6141
441.627	5919
441.699	5938
441.771	5873
441.843	6342
441.915	7139
441.987	7235
442.059	8624
442.131	10728
442.203	13352
442.275	17853
442.347	31252
442.419	73133
442.491	226108
442.563	401652
442.635	233944
442.706	65875
442.778	29370
442.850	20841
442.922	18596
442.994	18803
443.066	20968
443.137	25371
443.209	33897
443.281	53992
443.353	111873
443.425	275452
443.496	535184
443.568	579451
443.640	337669
443.711	117250
443.783	49812
443.855	30308
443.926	22227
443.998	17040
444.070	15478
444.141	13429
444.213	12006
444.285	11388
444.356	11747
444.428	11722
444.499	11396
444.571	10712
444.642	13500
444.714	12452
444.785	13733
444.857	15097
444.928	17995
445.000	21126
445.071	27163
445.143	35921
445.214	55314
445.285	96511
445.357	203422
445.428	432032
445.500	602326
445.571	586319
445.642	453871
445.714	214571
445.785	80801
445.856	41569
445.928	28673
445.999	20665
446.070	17137
446.141	14190
446.213	11799
446.284	8625
446.355	8954
446.426	8312
446.497	7454
446.569	5528
446.640	5831
446.711	5991
446.782	5283
446.853	4585
446.924	3914
446.995	4467
447.066	3822
447.138	3872
447.209	4192
447.280	2582
447.351	2975
447.422	2639
447.493	3083
447.564	2585
447.635	2311
447.706	2498
447.777	2639
447.847	2273
447.918	1467
447.989	1866
448.060	2524
448.131	2329
448.202	2000
448.273	1534
448.344	2814
448.414	2519
448.485	2028
448.556	2193
448.627	1942
448.698	2945
448.768	2476
448.839	1151
448.910	2000
448.981	1906
449.051	1840
449.122	1605
449.193	1755
449.263	2224
449.334	1661
449.405	2339
449.475	3148
449.546	2736
449.616	3758
449.687	3291
449.758	3457
449.828	2535
449.899	1870
449.969	1808
450.040	2085
450.110	1554
450.181	1232
450.251	1516
450.322	1718
450.392	1260
450.463	1718
450.533	1877
450.604	2556
450.674	2882
450.744	4608
450.815	5633
450.885	5663
450.955	6067
451.026	6617
451.096	5242
451.166	5508
451.237	6042
451.307	8704
451.377	6732
451.447	5630
451.518	4182
451.588	3489
451.658	2971
451.728	2873
451.799	2992
451.869	3929
451.939	2893
452.009	2937
452.079	3064
452.149	2763
452.219	3309
452.289	4514
452.360	5406
452.430	6838
452.500	8854
452.570	15933
452.640	33718
452.710	74048
452.780	96418
452.850	64521
452.920	33151
452.990	19043
453.060	13687
453.129	8462
453.199	6336
453.269	6404
453.339	6681
453.409	6983
453.479	5943
453.549	6198
453.619	6484
453.688	3875
453.758	2781
453.828	2427
453.898	2120
453.968	1872
454.037	1625
454.087	2128
454.107	2320
454.168	1705
454.177	1597
454.247	1897
454.249	1912
454.316	1895
454.330	1982
454.386	2270
454.411	1850
454.456	1040
454.492	1619
454.525	2120
454.574	1887
454.595	1763
454.655	1581
454.665	1519
454.734	1801
454.736	1854
454.804	3109
454.817	3045
454.873	2646
454.898	2613
454.943	2506
454.979	2078
455.013	1674
455.060	2329
455.082	2616
455.141	1505
455.152	1294
455.221	3007
455.222	3038
455.291	3173
455.303	3357
455.360	3834
455.384	4905
455.430	6505
455.465	5343
455.499	4426
455.546	2949
455.569	2234
455.627	3301
455.638	3477
455.707	1977
455.708	1998
455.777	2449
455.789	2446
455.846	2260
455.869	2568
455.916	3138
455.950	2654
455.985	2152
456.031	2369
456.054	2485
456.112	3105
456.124	3174
456.193	3109
456.193	3086
456.262	2926
456.274	3119
456.332	4080
456.355	3678
456.401	2591
456.436	3083
456.470	3676
456.516	3481
456.540	3318
456.597	3650
456.609	3698
456.678	3174
456.678	3148
456.747	3846
456.759	3732
456.817	2948
456.840	3299
456.886	4165
456.920	4378
456.955	4470
457.001	4673
457.024	4730
457.082	5239
457.093	5284
457.162	4855
457.163	4882
457.232	6160
457.243	6228
457.301	6701
457.324	6740
457.370	6661
457.405	7666
457.439	8843
457.485	9588
457.508	10428
457.566	14333
457.577	16143
457.646	27343
457.647	27594
457.715	53429
457.727	59676
457.784	93537
457.808	120003
457.853	143454
457.889	167854
457.922	187999
457.969	153923
457.991	151974
458.050	153619
458.060	153378
458.129	228082
458.130	230803
458.198	240129
458.211	219232
458.267	161240
458.292	124310
458.336	86653
458.372	83597
458.405	96554
458.453	131901
458.474	152323
458.533	238476
458.543	239464
458.611	319410
458.614	320445
458.680	259140
458.694	218552
458.749	120786
458.775	89524
458.818	48781
458.855	36174
458.887	27354
458.936	21864
458.955	19959
459.016	15713
459.024	15198
459.093	12723
459.097	12617
459.162	10792
459.177	10582
459.230	10252
459.257	10035
459.299	9293
459.338	8968
459.368	9088
459.418	8973
459.437	8591
459.499	7738
459.505	7746
459.574	7429
459.579	7503
459.643	7690
459.659	7490
459.711	7203
459.740	7431
459.780	7606
459.820	7268
459.849	7096
459.900	7548
459.917	7536
459.981	7041
459.986	7026
460.054	7082
460.061	7061
460.123	6284
460.141	6209
460.191	6579
460.222	6587
460.260	6341
460.302	6565
460.328	7164
460.382	7824
460.397	8097
460.462	9977
460.465	10464
460.534	21421
460.543	22942
460.602	39129
460.623	45580
460.671	64886
460.703	84696
460.739	68727
460.783	42939
460.808	42081
460.864	17302
460.876	13491
460.944	6906
460.945	6829
461.013	6584
461.024	6492
461.081	6196
461.104	6345
461.150	6338
461.184	6334
461.218	6973
461.264	7766
461.286	7493
461.345	6723
461.355	6731
461.423	6653
461.425	6646
461.491	6174
461.505	6163
461.559	6201
461.585	6231
461.628	6521
461.665	7034
461.696	7122
461.745	6980
461.764	7020
461.825	6996
461.832	6945
461.901	6444
461.905	6448
461.969	6744
461.985	6692
462.037	6880
462.065	7171
462.105	7030
462.145	6295
462.173	6298
462.225	7093
462.241	7154
462.305	6935
462.310	6943
462.378	7521
462.385	7499
462.446	7278
462.465	7479
462.514	7533
462.545	7318
462.582	7085
462.625	6587
462.650	6397
462.705	6219
462.718	6299
462.785	6871
462.786	6877
462.854	6606
462.865	6668
462.922	6933
462.945	6893
462.990	6883
463.025	6878
463.058	6925
463.104	6860
463.126	6675
463.184	6577
463.194	6735
463.262	7304
463.264	7329
463.330	6833
463.344	6658
463.398	6831
463.424	7005
463.466	6789
463.504	6548
463.533	6661
463.583	6862
463.601	6853
463.663	6595
463.669	6620
463.737	7329
463.743	7340
463.805	7408
463.823	7533
463.873	7925
463.903	7893
463.940	7372
463.982	7172
464.008	7231
464.062	6865
464.076	6879
464.142	7280
464.144	7282
464.211	6860
464.221	6827
464.279	7190
464.301	7201
464.347	7018
464.381	7079
464.414	7099
464.461	6992
464.482	7109
464.540	7310
464.550	7275
464.617	6900
464.620	6879
464.685	6700
464.699	6671
464.753	7114
464.779	7298
464.820	7087
464.859	6941
464.888	7024
464.938	7104
464.956	7237
465.018	7428
465.023	7471
465.091	8426
465.098	8461
465.158	7952
465.177	7832
465.226	7722
465.257	7617
465.293	7685
465.336	7660
465.361	7492
465.416	7142
465.428	7265
465.495	7994
465.496	8008
465.563	8020
465.575	8066
465.631	8190
465.654	8166
465.698	8186
465.734	8124
465.765	7955
465.813	7717
465.833	7622
465.893	7326
465.900	7391
465.968	7761
465.972	7776
466.035	8328
466.052	8458
466.102	8089
466.131	7874
466.170	8194
466.210	8422
466.237	8367
466.290	8340
466.304	8371
466.369	8315
466.372	8312
466.439	7749
466.449	7661
466.506	8361
466.528	8594
466.573	9209
466.607	9650
466.641	9874
466.687	10164
466.708	10236
466.766	10335
466.775	10198
466.842	9032
466.845	8960
466.909	9392
466.925	9472
466.977	9297
467.004	9187
467.044	9757
467.083	10299
467.111	10528
467.163	10883
467.178	10727
467.242	9988
467.245	10027
467.312	10472
467.321	10513
467.379	10746
467.400	10800
467.446	11344
467.480	11699
467.559	11529
467.638	11898
467.717	11717
467.796	13277
467.875	14688
467.955	15574
468.034	19152
468.113	22369
468.192	30470
468.271	36999
468.350	51619
468.429	61666
468.508	56507
468.588	33670
468.667	23150
468.746	18490
468.825	16097
468.904	14054
468.983	14283
469.062	12681
469.141	13464
469.220	11580
469.299	12117
469.378	10633
469.456	11940
469.535	10273
469.614	10854
469.693	10664
469.772	11367
469.851	10744
469.930	10324
470.009	10482
470.088	12090
470.166	12871
470.245	14532
470.324	14276
470.403	14008
470.482	12070
470.560	11465
470.639	10937
470.718	11427
470.797	10151
470.875	9644
470.954	10040
471.033	9982
471.111	9742
471.190	10124
471.269	9613
471.347	10341
471.426	9721
471.505	10130
471.583	10293
471.662	9656
471.740	9796
471.819	10076
471.898	9942
471.976	9224
472.055	10021
472.133	11219
472.212	12015
472.290	9487
472.369	8944
472.447	9217
472.526	8929
472.604	10475
472.683	10110
472.761	10463
472.839	10555
472.918	10860
472.996	10634
473.075	11509
473.153	11040
473.231	11751
473.310	10973
473.388	11399
473.466	10203
473.545	12073
473.623	11253
473.701	11444
473.780	11490
473.858	10823
473.936	12504
474.014	12274
474.093	12590
474.171	13326
474.249	11277
474.327	10795
474.405	11380
474.484	12706
474.562	11591
474.640	10706
474.718	10492
474.796	10978
474.874	10677
474.952	9941
475.030	9887
475.108	11193
475.187	10055
475.265	10454
475.343	10987
475.421	10505
475.499	10596
475.577	10112
475.655	10327
475.733	10502
475.811	11062
475.889	10648
475.966	10652
476.044	10189
476.122	9589
476.200	9939
476.278	9631
476.356	9342
476.434	9007
476.512	10425
476.590	9666
476.667	10205
476.745	8980
476.823	10284
476.901	10099
476.979	9467
477.056	9907
477.134	9398
477.212	9179
477.290	10387
477.367	9277
477.445	9622
477.523	8405
477.601	9517
477.678	10357
477.756	9307
477.834	9630
477.911	8481
477.989	9469
478.066	8777
478.144	10331
478.222	9924
478.299	11137
478.377	10968
478.454	10082
478.532	9580
478.609	9265
478.687	9799
478.764	9630
478.842	9807
478.919	9295
478.997	9442
479.074	9684
479.152	10301
479.229	9873
479.307	9704
479.384	10234
479.461	9268
479.539	9420
479.616	10196
479.694	9873
479.771	11141
479.848	9609
479.926	9009
480.003	11001
480.080	8799
480.157	9731
480.235	11115
480.312	11802
480.389	11763
480.467	12707
480.544	13686
480.621	14181
480.698	14228
480.775	12814
480.853	12214
480.930	12642
481.007	14118
481.084	16024
481.161	19673
481.238	13233
481.315	12302
481.392	12158
481.470	13289
481.547	13330
481.624	13064
481.701	13819
481.778	14700
481.855	15521
481.932	16972
482.009	19086
482.086	20474
482.163	23485
482.240	25068
482.317	23143
482.393	20955
482.470	20751
482.547	19875
482.624	18299
482.701	18608
482.778	17993
482.855	18279
482.932	19282
483.009	20742
483.085	24824
483.162	28476
483.239	28649
483.316	27622
483.393	26039
483.469	21802
483.546	20352
483.623	18417
483.699	16539
483.776	16301
483.853	14690
483.930	15866
484.006	15348
484.083	18252
484.160	17350
484.236	18494
484.313	18021
484.389	21141
484.466	24577
484.543	31556
484.619	36857
484.696	33557
484.772	21856
484.849	19060
484.925	16612
485.002	16320
485.078	14540
485.155	13471
485.231	13413
485.308	13302
485.384	13146
485.461	13519
485.537	13768
485.614	11953
485.690	11484
485.766	12696
485.843	12395
485.919	12626
485.995	12474
486.072	12709
486.148	11432
486.224	12873
486.301	11839
486.377	12916
486.453	12545
486.530	12909
486.606	13686
486.682	13684
486.758	15273
486.835	16907
486.911	16796
486.987	19202
487.063	21552
487.139	24584
487.215	30547
487.292	32393
487.368	37128
487.444	51490
487.520	81777
487.596	159816
487.672	405067
487.748	895474
487.824	1013799
487.900	356613
487.976	126131
488.052	68666
488.128	45177
488.204	33118
488.280	27759
488.356	23391
488.432	22423
488.508	19415
488.584	16769
488.660	16187
488.736	15162
488.812	13870
488.888	13980
488.964	14223
489.039	14647
489.115	15523
489.191	14597
489.267	13228
489.343	12026
489.418	11427
489.494	11882
489.570	11548
489.646	12660
489.722	12271
489.797	12843
489.873	14095
489.949	13500
490.024	13224
490.100	12426
490.176	13582
490.251	12237
490.327	13048
490.403	12104
490.478	12701
490.554	12390
490.629	11965
490.705	11858
490.781	12123
490.856	11791
490.932	11587
491.007	11350
491.083	11192
491.158	10611
491.234	10696
491.309	11794
491.385	10793
491.460	9990
491.536	10347
491.611	9268
491.686	9713
491.762	10012
491.837	11162
491.913	11820
491.988	12224
492.063	11533
492.139	10212
492.214	9761
492.289	9559
492.365	8654
492.440	8891
492.515	8283
492.590	9351
492.666	8958
492.741	8955
492.816	9707
492.891	9988
492.967	9889
493.042	9196
493.117	9359
493.192	10023
493.267	12764
493.342	20555
493.418	18070
493.493	8482
493.568	9058
493.643	9054
493.718	8088
493.793	8598
493.868	8742
493.943	8982
494.018	8671
494.093	8462
494.168	8731
494.243	8397
494.318	8096
494.393	8458
494.468	8095
494.543	8148
494.618	7731
494.693	8593
494.768	6668
494.842	8052
494.917	9033
494.992	8732
495.067	8082
495.142	8324
495.217	8772
495.292	8462
495.366	7611
495.441	8114
495.516	8979
495.591	9056
495.665	11532
495.740	14302
495.815	8980
495.890	8612
495.964	7737
496.039	9777
496.114	11901
496.188	16554
496.263	11422
496.338	8186
496.412	7875
496.487	8473
496.561	7795
496.636	8120
496.710	8915
496.785	9407
496.860	8153
496.934	7530
497.009	7562
497.083	8264
497.158	7708
497.232	8605
497.307	7827
497.381	8075
497.455	8745
497.530	8780
497.604	8168
497.679	8451
497.753	9438
497.827	9353
497.902	8068
497.976	9751
498.050	15940
498.125	28039
498.199	19438
498.273	9349
498.348	8623
498.422	8448
498.496	8812
498.570	9117
498.645	8286
498.719	8503
498.793	9127
498.867	10127
498.941	10568
499.016	17865
499.090	24709
499.164	11681
499.238	9822
499.312	10068
499.386	9171
499.460	10035
499.534	9912
499.609	10761
499.683	10038
499.757	10401
499.831	13720
499.905	20457
499.979	13687
500.053	9722
500.127	9856
500.201	9732
500.275	8591
500.349	9455
500.422	9905
500.496	9659
500.570	12586
500.644	17990
500.718	18311
500.792	10957
500.866	10606
500.940	10705
501.013	11027
501.087	10759
501.161	11605
501.235	11140
501.309	15160
501.382	19155
501.456	14908
501.530	10551
501.603	11405
501.677	9680
501.751	9658
501.825	10797
501.898	11458
501.972	13323
502.046	9698
502.119	10250
502.193	10904
502.266	12741
502.340	9709
502.413	12211
502.487	11493
502.561	10726
502.634	11641
502.708	11905
502.781	11079
502.855	10885
502.928	10304
503.002	10470
503.075	10597
503.149	11305
503.222	12155
503.295	12878
503.369	13968
503.442	15424
503.516	20223
503.589	25123
503.662	25648
503.736	31800
503.809	42640
503.882	61935
503.956	113980
504.029	253597
504.102	541789
504.175	561453
504.249	235011
504.322	104494
504.395	57652
504.468	38868
504.542	27834
504.615	22031
504.688	18991
504.761	15701
504.834	14716
504.907	12911
504.980	12200
505.053	11491
505.127	9400
505.200	11609
505.273	10293
505.346	10079
505.419	9718
505.492	10055
505.565	9055
505.638	8867
505.711	7343
505.784	8107
505.857	7427
505.930	8731
506.003	5742
506.076	8659
506.149	7269
506.221	7217
506.294	7864
506.367	8349
506.440	10642
506.513	7460
506.586	6882
506.659	6687
506.731	6646
506.804	6583
506.877	6531
506.950	6803
507.022	6752
507.095	6464
507.168	7069
507.241	7509
507.313	6413
507.386	5320
507.459	6981
507.531	6018
507.604	5880
507.677	6846
507.749	5201
507.822	7141
507.894	6390
507.967	7206
508.040	6266
508.112	7034
508.185	6348
508.257	6189
508.330	7321
508.402	7555
508.475	5889
508.547	6773
508.620	7060
508.692	7259
508.765	5919
508.837	5415
508.909	6284
508.982	5891
509.054	5915
509.127	6105
509.199	5663
509.271	6027
509.344	5774
509.416	5925
509.488	5569
509.560	6447
509.633	6138
509.705	6938
509.777	5889
509.849	6441
509.922	5178
509.994	6773
510.066	6435
510.138	5590
510.210	7802
510.283	5888
510.355	6189
510.427	6663
510.499	5150
510.571	5556
510.643	5717
510.715	6637
510.787	4853
510.859	6864
510.931	5922
511.003	6538
511.076	6575
511.148	5393
511.219	5124
511.291	6557
511.363	6961
511.435	6549
511.507	5843
511.579	6654
511.651	6367
511.723	6018
511.795	5996
511.867	6201
511.939	5830
512.010	5979
512.082	6095
512.154	6771
512.226	7051
512.298	6995
512.369	6594
512.441	7233
512.513	6962
512.585	6119
512.656	7022
512.728	6323
512.800	5963
512.871	5624
512.943	6911
513.015	6101
513.086	7185
513.158	6779
513.230	5881
513.301	6527
513.373	6735
513.444	5492
513.516	6205
513.588	7349
513.659	6707
513.731	6969
513.802	6049
513.874	6998
513.945	6754
514.016	6224
514.088	7022
514.159	6015
514.231	6836
514.302	6099
514.374	6523
514.445	5742
514.516	8711
514.588	6594
514.659	6228
514.730	7412
514.802	7639
514.873	5282
514.944	8131
515.016	6727
515.087	6645
515.158	6884
515.229	7752
515.301	6368
515.372	8601
515.443	7119
515.514	7410
515.585	8211
515.656	7605
515.728	8143
515.799	6747
515.870	7637
515.941	7917
516.012	7888
516.083	8463
516.154	8869
516.225	8841
516.296	10137
516.367	9958
516.438	10668
516.509	14056
516.580	23496
516.651	67760
516.722	123797
516.793	33166
516.864	14337
516.935	15436
517.006	17713
517.077	28425
517.148	77538
517.219	257477
517.289	214609
517.360	31749
517.431	15944
517.502	13009
517.573	13475
517.643	13217
517.714	14052
517.785	15706
517.856	16358
517.926	19606
517.997	23099
518.068	27536
518.138	38914
518.209	77389
518.280	249893
518.350	470835
518.421	135351
518.492	67320
518.562	85441
518.633	130193
518.703	237894
518.774	517799
518.845	908410
518.915	586156
518.986	211269
519.056	101109
519.127	64846
519.197	47098
519.268	36969
519.338	27482
519.408	22439
519.479	19243
519.549	17017
519.620	15815
519.690	13922
519.760	13267
519.831	11863
519.901	11796
519.971	10862
520.042	10360
520.112	9466
520.182	10219
520.253	9860
520.323	9009
520.393	9125
520.463	10653
520.534	6842
520.604	11022
520.674	9196
520.744	8908
520.814	9856
520.885	8771
520.955	10687
521.025	13617
521.095	9455
521.165	9359
521.235	8165
521.305	7847
521.375	8570
521.445	9667
521.515	8647
521.585	9432
521.655	8056
521.725	8582
521.795	8416
521.865	7424
521.935	9718
522.005	8442
522.075	8763
522.145	10112
522.215	9171
522.285	8727
522.355	8956
522.424	10354
522.494	9689
522.564	9686
522.634	9678
522.704	11731
522.774	9266
522.843	9073
522.913	9999
522.983	8951
523.053	8752
523.122	9345
523.192	9423
523.262	10182
523.331	9796
523.401	10141
523.471	10000
523.540	10413
523.610	9645
523.680	10693
523.749	11117
523.819	12349
523.888	12170
523.958	12148
524.027	11698
524.097	10403
524.166	11520
524.236	10191
524.305	11764
524.375	10152
524.444	10566
524.514	11642
524.583	11449
524.653	11061
524.722	11974
524.791	12251
524.861	13233
524.930	12781
524.999	14028
525.069	14718
525.138	14346
525.207	15164
525.277	17680
525.346	18553
525.415	20415
525.484	23262
525.554	27621
525.623	33674
525.692	40228
525.761	47950
525.830	61919
525.900	89717
525.969	175659
526.038	342951
526.107	804201
526.176	1367766
526.245	802960
526.314	413115
526.383	921056
526.452	950080
526.522	1314129
526.591	738174
526.660	182629
526.729	125967
526.797	155424
526.867	297806
526.935	839071
527.004	1520459
527.073	705750
527.142	165420
527.211	77594
527.280	52328
527.349	37489
527.418	28714
527.487	25439
527.555	21343
527.624	19176
527.693	18232
527.762	16585
527.831	15513
527.899	15462
527.968	14281
528.037	12786
528.106	13465
528.174	13311
528.243	13569
528.312	12900
528.380	11398
528.449	10538
528.518	12042
528.586	10336
528.655	12612
528.723	11249
528.792	10513
528.861	10999
528.929	9669
528.998	11339
529.066	11043
529.135	11498
529.203	10544
529.272	11980
529.340	12650
529.409	11990
529.477	10789
529.545	11045
529.614	12320
529.682	12410
529.751	11222
529.819	14605
529.887	12986
529.956	12537
530.024	12597
530.092	12356
530.161	12443
530.229	12915
530.297	12518
530.365	13617
530.434	12271
530.502	12912
530.570	12469
530.638	10367
530.707	12234
530.775	12389
530.843	12263
530.911	13136
530.979	12810
531.047	12919
531.115	13141
531.183	12973
531.252	12078
531.320	12577
531.388	12465
531.456	13395
531.524	12307
531.592	14674
531.660	14667
531.728	14022
531.796	12115
531.864	14044
531.932	12793
532.000	13204
532.067	13611
532.135	14764
532.203	16381
532.271	16622
532.339	16919
532.407	16706
532.475	16220
532.542	16982
532.610	17158
532.678	15177
532.746	20744
532.814	21206
532.881	16405
532.949	15411
533.017	16503
533.084	14687
533.152	15457
533.220	15983
533.287	14310
533.355	15181
533.423	15764
533.490	16489
533.558	16282
533.625	16897
533.693	15358
533.761	16215
533.828	16466
533.896	15359
533.963	18215
534.031	19923
534.098	23977
534.166	24183
534.233	24619
534.300	27292
534.368	27617
534.435	26945
534.503	30486
534.570	33948
534.637	40485
534.705	52856
534.772	88442
534.840	243942
534.907	796988
534.974	489923
535.041	73112
535.109	36469
535.176	29168
535.243	27123
535.310	25216
535.378	23671
535.445	24465
535.512	24463
535.579	23847
535.646	22308
535.714	24057
535.781	25363
535.848	26417
535.915	23506
535.982	24063
536.049	22869
536.116	24085
536.183	21778
536.250	21961
536.317	21945
536.384	24865
536.451	25431
536.518	24665
536.585	22577
536.652	24556
536.719	25159
536.786	22710
536.853	23641
536.920	25731
536.987	23271
537.053	23163
537.120	28307
537.187	27197
537.254	26354
537.321	26034
537.388	27129
537.454	25361
537.521	25278
537.588	25460
537.654	26681
537.721	27157
537.788	27708
537.855	25828
537.921	26104
537.988	24155
538.055	23978
538.121	22176
538.188	21860
538.254	21854
538.321	22603
538.388	25523
538.454	28623
538.521	27857
538.587	28776
538.654	25617
538.720	26923
538.787	26656
538.853	25594
538.920	23866
538.986	23070
539.053	22436
539.119	24450
539.185	23536
539.252	26246
539.318	27604
539.385	29233
539.451	25744
539.517	25966
539.583	25583
539.650	26369
539.716	25705
539.782	24569
539.849	24132
539.915	25239
539.981	24479
540.047	24589
540.114	24461
540.180	26630
540.246	28207
540.312	27899
540.378	27722
540.444	28130
540.510	29379
540.576	27356
540.643	24363
540.709	24800
540.775	25567
540.841	24765
540.907	24151
540.973	24768
541.039	25295
541.105	26691
541.171	28536
541.237	27426
541.303	26780
541.369	28722
541.435	27145
541.500	25953
541.566	23871
541.632	24509
541.698	24675
541.764	26956
541.830	25223
541.896	25153
541.961	25683
542.027	26532
542.093	28122
542.159	27905
542.224	25848
542.290	26222
542.356	24724
542.421	25651
542.487	23261
542.553	25194
542.618	25011
542.684	25407
542.750	25670
542.815	26978
542.881	26702
542.947	28731
543.012	27552
543.078	24802
543.143	23991
543.209	24979
543.274	23947
543.340	25922
543.405	27330
543.471	27187
543.536	26820
543.602	26932
543.667	25467
543.732	27592
543.798	26768
543.863	27927
543.928	27772
543.994	26824
544.059	28217
544.124	28656
544.190	27515
544.255	29545
544.320	28842
544.386	28285
544.451	29155
544.516	28934
544.581	28451
544.646	31013
544.712	31642
544.777	30779
544.842	30630
544.907	30790
544.972	30533
545.037	32524
545.102	33947
545.168	33454
545.233	32781
545.298	34042
545.363	34007
545.428	35116
545.493	36003
545.558	36302
545.623	35348
545.688	36040
545.753	37533
545.818	39152
545.883	41863
545.947	41170
546.012	43309
546.077	44762
546.142	48357
546.207	48762
546.272	52534
546.337	52008
546.401	56311
546.466	57134
546.531	60030
546.596	63979
546.661	64710
546.725	68969
546.790	74536
546.855	81035
546.919	89762
546.984	97847
547.049	107313
547.113	122347
547.178	134596
547.243	153132
547.307	179776
547.372	188361
547.436	190038
547.501	205121
547.565	209566
547.630	189473
547.695	189221
547.759	188631
547.823	193524
547.888	196304
547.952	202947
548.017	213258
548.081	214491
548.146	209587
548.210	221566
548.274	233695
548.339	218956
548.403	201005
548.468	192983
548.532	193693
548.596	197376
548.660	203177
548.725	225210
548.789	234831
548.853	220191
548.917	214531
548.982	200412
549.046	182557
549.110	168967
549.174	187215
549.238	216618
549.303	230695
549.367	229139
549.431	210930
549.495	204176
549.559	212142
549.623	253145
549.687	252782
549.751	266744
549.815	309033
549.879	297425
549.943	295649
550.007	306482
550.071	290428
550.135	264778
550.199	259169
550.263	248543
550.327	242037
550.391	256730
550.455	283658
550.519	292463
550.582	319379
550.646	353754
550.710	348532
550.774	350629
550.838	360888
550.901	375648
550.965	404337
551.029	435062
551.093	484126
551.156	548483
551.220	623746
551.284	588670
551.347	451127
551.411	387956
551.475	369601
551.538	370574
551.602	336113
551.666	320140
551.729	299647
551.793	296898
551.856	290967
551.920	285961
551.983	284829
552.047	282663
552.110	283943
552.174	290589
552.237	286362
552.301	264975
552.364	255030
552.428	252167
552.491	265250
552.554	263833
552.618	261850
552.681	264261
552.745	256606
552.808	272815
552.871	279107
552.934	271932
552.998	259465
553.061	253422
553.124	243507
553.187	249944
553.251	254545
553.314	253515
553.377	260317
553.440	279285
553.503	282968
553.567	276057
553.630	267635
553.693	267215
553.756	265833
553.819	255830
553.882	247937
553.945	251742
554.008	252521
554.071	258626
554.134	253471
554.197	235070
554.260	231438
554.323	238511
554.386	245300
554.449	254364
554.512	249335
554.575	241430
554.638	238639
554.701	238837
554.764	233033
554.827	224611
554.889	214695
554.952	203751
555.015	204102
555.078	209244
555.141	209252
555.203	201820
555.266	204334
555.329	201484
555.391	192773
555.454	192526
555.517	188187
555.580	181164
555.642	174448
555.705	170755
555.768	170322
555.830	162041
555.893	155328
555.955	152827
556.018	151677
556.080	154769
556.143	157721
556.206	151987
556.268	149792
556.330	144659
556.393	141911
556.455	140390
556.518	136281
556.580	131705
556.643	129520
556.705	125769
556.767	125131
556.830	122671
556.892	119721
556.955	117954
557.017	114452
557.079	115521
557.142	113240
557.204	115936
557.266	116391
557.328	104206
557.391	98082
557.453	97320
557.515	98680
557.577	99823
557.639	100395
557.701	101127
557.764	101202
557.826	105601
557.888	111746
557.950	120203
558.012	148192
558.074	239191
558.136	609390
558.198	793254
558.260	221240
558.322	125006
558.384	120135
558.446	127933
558.508	139524
558.570	162277
558.632	203908
558.694	307627
558.756	610652
558.818	1399387
558.880	1534120
558.942	935014
559.003	925751
559.065	330556
559.127	182345
559.189	175079
559.251	217057
559.312	374754
559.374	923943
559.436	1387333
559.498	553911
559.559	212973
559.621	182361
559.683	238617
559.744	465547
559.806	1153058
559.868	903306
559.929	269175
559.991	243047
560.052	505324
560.114	912285
560.176	467527
560.237	717639
560.299	619495
560.360	130487
560.422	70023
560.483	59897
560.545	55089
560.606	51361
560.667	49766
560.729	47124
560.790	43840
560.852	42575
560.913	41611
560.974	39769
561.036	39369
561.097	39796
561.158	38888
561.220	38061
561.281	35639
561.342	34523
561.403	37125
561.465	35292
561.526	35569
561.587	34513
561.648	32805
561.709	32132
561.771	31665
561.832	30660
561.893	30811
561.954	31116
562.015	30616
562.076	29831
562.137	29432
562.198	29017
562.259	29556
562.320	30137
562.381	30565
562.442	29131
562.503	28704
562.564	28858
562.625	27624
562.686	27399
562.747	27783
562.808	27601
562.869	26439
562.930	27054
562.991	25212
563.051	26533
563.112	26021
563.173	25687
563.234	24924
563.294	24643
563.355	24453
563.416	24852
563.477	25045
563.537	24579
563.598	23748
563.659	23525
563.720	23021
563.780	24111
563.841	23538
563.901	24441
563.962	23706
564.023	23231
564.083	23382
564.144	21833
564.204	22557
564.265	22579
564.325	22668
564.386	23126
564.446	22078
564.507	21339
564.567	22060
564.628	21658
564.688	20707
564.749	21246
564.809	21445
564.869	21316
564.930	21183
564.990	21532
565.050	21027
565.111	20785
565.171	20532
565.231	20986
565.292	22366
565.352	20689
565.412	20476
565.472	20959
565.532	19955
565.593	20037
565.653	20284
565.713	21379
565.773	20676
565.833	21949
565.893	21707
565.953	20002
566.013	18659
566.074	19020
566.134	18790
566.194	19789
566.254	18684
566.314	19345
566.374	18574
566.434	19076
566.494	18407
566.554	19113
566.614	19572
566.673	20327
566.733	21005
566.793	21303
566.853	20281
566.913	20945
566.973	20094
567.033	20970
567.092	18764
567.152	20763
567.212	20343
567.272	21000
567.331	21457
567.391	20699
567.451	22513
567.511	22970
567.570	21673
567.630	20057
567.690	20052
567.749	21008
567.809	20947
567.868	21069
567.928	19949
567.988	21204
568.047	20241
568.107	20775
568.166	21391
568.226	21866
568.285	22252
568.345	22767
568.404	21934
568.464	21675
568.523	21080
568.582	22302
568.642	21735
568.701	21390
568.761	22792
568.820	22845
568.879	22351
568.939	22592
568.998	21347
569.057	21175
569.116	20487
569.176	20935
569.235	21114
569.294	20043
569.353	18697
569.413	18866
569.472	18984
569.531	18803
569.590	18416
569.649	18608
569.708	19081
569.767	20035
569.827	18818
569.886	18862
569.945	19293
570.004	19664
570.063	19007
570.122	20218
570.181	20020
570.240	20766
570.299	20285
570.358	21226
570.417	20692
570.475	20632
570.534	21134
570.593	20974
570.652	21263
570.711	20188
570.770	19892
570.829	20086
570.887	21235
570.946	20844
571.005	20715
571.064	21505
571.122	20895
571.181	21149
571.240	21081
571.299	19780
571.357	19890
571.416	19429
571.475	20331
571.533	21821
571.592	22788
571.650	23448
571.709	24689
571.768	29955
571.826	29641
571.885	25910
571.943	21998
572.002	20746
572.060	20187
572.119	20655
572.177	19290
572.236	20958
572.294	20818
572.352	24394
572.411	22672
572.469	21460
572.528	20737
572.586	19795
572.644	18578
572.703	19698
572.761	18654
572.819	18179
572.877	17082
572.936	17883
572.994	17829
573.052	18929
573.110	19444
573.169	20461
573.227	20010
573.285	19615
573.343	19346
573.401	19519
573.459	20499
573.517	21899
573.576	24092
573.634	22356
573.692	23053
573.750	22486
573.808	21106
573.866	18733
573.924	19129
573.982	19531
574.040	20278
574.098	19813
574.155	19569
574.213	19579
574.271	22607
574.329	24727
574.387	20962
574.445	19160
574.503	18178
574.560	18487
574.618	19378
574.676	19547
574.734	19791
574.792	17599
574.849	15686
574.907	15201
574.965	14195
575.022	13778
575.080	15131
575.138	14968
575.195	14084
575.253	14391
575.311	14178
575.368	14176
575.426	13959
575.483	15697
575.541	15481
575.598	15042
575.656	16804
575.713	17827
575.771	19176
575.828	17073
575.886	15741
575.943	15331
576.001	13649
576.058	13011
576.115	13630
576.173	15688
576.230	15723
576.287	16324
576.345	16373
576.402	17741
576.459	17231
576.517	15114
576.574	14355
576.631	12662
576.688	13607
576.746	12621
576.803	13316
576.860	12533
576.917	12294
576.974	13656
577.031	13127
577.089	12675
577.146	12951
577.203	11613
577.260	11819
577.317	12172
577.374	12358
577.431	12793
577.488	11975
577.545	12480
577.602	13132
577.659	12016
577.716	12248
577.773	12835
577.830	11921
577.886	12261
577.943	12158
578.000	11610
578.057	10961
578.114	12468
578.171	12020
578.227	12606
578.284	12147
578.341	12665
578.398	12162
578.454	12924
578.511	12127
578.568	12469
578.625	11814
578.681	13220
578.738	12276
578.794	12668
578.851	12106
578.908	12749
578.964	12117
579.021	12919
579.077	12956
579.134	12907
579.190	12832
579.247	12105
579.303	12775
579.360	12774
579.416	13001
579.473	12587
579.529	12684
579.586	12397
579.642	13195
579.698	13437
579.755	12259
579.811	12735
579.867	13157
579.924	12767
579.980	12870
580.036	12768
580.093	13433
580.149	15173
580.205	14002
580.261	14715
580.317	13988
580.374	15282
580.430	15624
580.486	15787
580.542	14655
580.598	15040
580.619	14903
580.654	14678
580.692	14390
580.710	14273
580.765	14466
580.767	14482
580.823	15672
580.838	15622
580.879	15539
580.911	15543
580.935	15568
580.984	15576
580.991	15598
581.047	16036
581.057	15862
581.103	15063
581.130	14732
581.159	14416
581.203	13287
581.215	13000
581.270	13805
581.276	13758
581.326	13406
581.349	13543
581.382	13771
581.422	14249
581.438	14457
581.494	14147
581.494	14135
581.550	13695
581.567	13864
581.606	14257
581.640	14188
581.661	14172
581.713	14739
581.717	14784
581.773	14607
581.786	14604
581.829	14674
581.859	14203
581.885	13765
581.932	13982
581.940	14050
581.996	14870
582.004	14831
582.052	14561
582.077	14151
582.107	13648
582.150	14291
582.163	14511
582.219	13512
582.223	13541
582.274	13947
582.296	13676
582.330	13242
582.368	14149
582.386	14588
582.441	14487
582.441	14488
582.497	14409
582.514	14163
582.552	13784
582.587	14556
582.608	15007
582.659	14235
582.663	14179
582.719	14871
582.732	14737
582.774	14233
582.805	14750
582.830	15235
582.877	15597
582.885	15657
582.941	15092
582.950	15007
582.996	14370
583.023	14739
583.052	15205
583.095	15215
583.107	15268
583.162	15482
583.168	15397
583.218	14413
583.240	14378
583.273	14391
583.313	14401
583.328	14355
583.384	14598
583.385	14587
583.439	14541
583.458	14885
583.494	15424
583.531	15152
583.549	15128
583.603	15260
583.605	15247
583.660	15787
583.676	15795
583.715	16106
583.748	15662
583.770	15256
583.820	15285
583.825	15312
583.881	15275
583.893	15365
583.936	15542
583.965	15654
583.991	15866
584.038	16334
584.046	16342
584.101	15643
584.110	15628
584.156	15853
584.183	15915
584.211	16091
584.255	17085
584.266	17321
584.321	17495
584.328	17464
584.376	16996
584.400	17366
584.431	17888
584.472	18119
584.486	18231
584.541	18691
584.545	18707
584.596	19187
584.617	19624
584.651	20331
584.689	20734
584.706	20916
584.761	21756
584.762	21769
584.816	23171
584.834	23244
584.871	23680
584.906	25100
584.926	25922
584.978	27339
584.980	27418
585.035	30403
585.051	31461
585.090	34369
585.123	36821
585.145	38758
585.195	43852
585.200	44452
585.254	53239
585.267	55667
585.309	64692
585.340	72784
585.364	80050
585.412	97518
585.419	100434
585.473	133222
585.484	143586
585.528	194584
585.556	246815
585.583	323448
585.628	516960
585.637	582004
585.692	1115708
585.700	1160517
585.747	1369123
585.772	1288409
585.801	915861
585.845	497013
585.856	423701
585.910	187409
585.917	162468
585.965	110485
585.989	89088
586.019	76509
586.061	62178
586.074	59452
586.128	50401
586.133	49674
586.183	45291
586.205	43774
586.237	42089
586.277	40031
586.292	39589
586.346	38641
586.349	38559
586.401	37490
586.421	36941
586.455	36572
586.493	36546
586.509	36474
586.564	36813
586.565	36817
586.618	40037
586.637	42068
586.672	48231
586.709	55402
586.727	59751
586.781	67843
586.781	67878
586.835	56464
586.853	53513
586.889	45924
586.925	40035
586.944	38597
586.996	35547
586.998	35536
587.052	34302
587.068	33963
587.106	33948
587.140	33794
587.161	33772
587.212	33658
587.215	33686
587.269	34201
587.284	34220
587.323	34735
587.356	35310
587.377	35653
587.427	36195
587.431	36287
587.485	37076
587.499	37398
587.539	38189
587.571	38309
587.593	38777
587.643	40415
587.648	40605
587.702	41337
587.715	41643
587.755	41834
587.786	41719
587.810	41857
587.858	42049
587.864	42150
587.917	43227
587.930	43272
587.971	44076
588.001	44673
588.025	44652
588.073	44494
588.079	44592
588.133	44713
588.145	44865
588.187	45335
588.217	45602
588.241	46504
588.288	47617
588.295	47808
588.348	49780
588.360	50005
588.402	50765
588.431	51503
588.456	52449
588.503	54425
588.510	54919
588.564	58757
588.575	59634
588.617	64297
588.646	68075
588.671	71158
588.718	78213
588.725	79901
588.778	96720
588.789	101735
588.832	139400
588.861	171726
588.886	234592
588.932	370774
588.939	392596
588.993	505521
589.004	516409
589.047	324176
589.075	215633
589.100	167603
589.147	90186
589.154	88243
589.207	74472
589.218	72057
589.261	71373
589.290	71200
589.314	73310
589.361	79421
589.368	81370
589.421	101412
589.433	107252
589.475	164617
589.504	214280
589.528	290033
589.576	417226
589.582	410016
589.635	284150
589.647	263005
589.689	153930
589.718	82439
589.742	74628
589.790	59813
589.795	59367
589.849	55073
589.861	54010
589.902	52852
589.932	51902
589.955	51692
590.004	51102
590.009	51125
590.062	50390
590.075	50194
590.115	49667
590.146	49117
590.168	49131
590.218	48771
590.222	48884
590.275	49869
590.289	49920
590.328	51153
590.360	52199
590.381	52301
590.431	51865
590.435	51998
590.488	53006
590.503	53240
590.541	53320
590.574	53142
590.594	54037
590.645	56322
590.647	56444
590.700	56958
590.716	57074
590.753	58779
590.787	60038
590.806	60631
590.859	62051
590.859	62179
590.912	63575
590.930	63913
590.965	64215
591.001	64334
591.018	64689
591.071	65290
591.072	65173
591.124	64246
591.143	63835
591.177	63705
591.214	63306
591.230	63864
591.283	65358
591.285	65294
591.336	65300
591.356	65086
591.389	64930
591.427	64586
591.442	64550
591.495	63811
591.498	63655
591.547	64704
591.569	64997
591.600	65698
591.640	66250
591.653	66458
591.706	66816
591.711	66736
591.759	69826
591.782	71248
591.811	72911
591.853	74931
591.864	75191
591.917	75656
591.924	75578
591.969	75051
591.995	74500
592.022	75276
592.066	76245
592.075	76576
592.127	77641
592.137	77688
592.180	79093
592.208	79784
592.233	80480
592.279	81341
592.285	81863
592.338	84910
592.350	85445
592.390	84531
592.421	83511
592.443	84838
592.491	87291
592.495	87545
592.548	88662
592.562	88803
592.600	88589
592.633	88072
592.653	88481
592.704	88606
592.705	89142
592.775	90550
592.846	93142
592.916	95772
592.987	95254
593.058	96837
593.128	98004
593.199	98595
593.270	100020
593.341	101139
593.411	103821
593.482	107147
593.553	110814
593.623	112391
593.694	116345
593.764	119341
593.835	118448
593.906	117340
593.976	119717
594.047	124798
594.117	128807
594.188	134440
594.258	132373
594.329	131491
594.399	134418
594.470	139612
594.540	143933
594.611	149534
594.681	148825
594.751	146754
594.822	150332
594.892	158144
594.963	163837
595.033	166520
595.103	174292
595.174	174305
595.244	177049
595.314	182838
595.384	187242
595.455	191192
595.525	197871
595.595	206375
595.665	208520
595.736	202476
595.806	205106
595.876	210221
595.946	208859
596.016	219046
596.087	226831
596.157	227703
596.227	225568
596.297	235376
596.367	253825
596.437	268398
596.507	269420
596.577	265171
596.647	274527
596.717	287131
596.787	295596
596.857	295211
596.927	299762
596.997	297474
597.067	301284
597.137	305640
597.207	305737
597.277	310020
597.347	301202
597.417	289182
597.487	285636
597.557	292859
597.626	300693
597.696	305367
597.766	303369
597.836	289680
597.906	272415
597.975	265387
598.045	270035
598.115	279675
598.185	295708
598.254	330104
598.324	362690
598.394	373429
598.464	362546
598.533	356635
598.603	336844
598.672	321731
598.742	326360
598.812	327697
598.881	336165
598.951	337570
599.020	339225
599.090	349180
599.159	361340
599.229	346508
599.299	336425
599.368	344096
599.437	345755
599.507	319475
599.576	304694
599.646	298945
599.715	292844
599.785	291866
599.854	286314
599.924	279446
599.993	277797
600.062	281916
600.132	291380
600.201	298688
600.270	342758
600.340	374408
600.409	367039
600.478	363301
600.547	368579
600.617	352332
600.686	279561
600.755	247598
600.824	231504
600.894	222375
600.963	221900
601.032	222615
601.101	212875
601.170	203777
601.239	195206
601.308	192653
601.378	193068
601.447	193747
601.516	194672
601.585	194913
601.654	198357
601.723	201088
601.792	203593
601.861	212015
601.930	219110
601.999	222554
602.068	220236
602.137	223632
602.206	228141
602.275	233008
602.343	235439
602.412	236775
602.481	239685
602.550	240220
602.619	247187
602.688	252448
602.756	253904
602.825	256759
602.894	260534
602.963	266216
603.032	270186
603.100	273418
603.169	272207
603.238	273401
603.307	275909
603.375	279857
603.444	284089
603.513	291456
603.581	296272
603.650	301065
603.719	297696
603.787	299747
603.856	312806
603.924	320009
603.993	332536
604.061	343034
604.130	359825
604.198	367828
604.267	373279
604.335	379369
604.404	383529
604.472	393395
604.541	394214
604.609	398825
604.678	398864
604.746	399480
604.815	410146
604.883	419163
604.951	420959
605.020	422834
605.088	434988
605.156	442741
605.225	449611
605.293	451832
605.361	451632
605.429	455932
605.498	464696
605.566	474389
605.634	496819
605.702	510587
605.771	527350
605.839	533083
605.907	526784
605.975	508725
606.043	494414
606.111	495881
606.180	491768
606.248	487699
606.316	483622
606.384	482580
606.452	482620
606.520	492731
606.588	511952
606.656	518573
606.724	513526
606.792	488813
606.860	448614
606.928	408984
606.996	387417
607.064	378848
607.132	387240
607.200	404358
607.267	424434
607.335	430183
607.403	441506
607.471	434510
607.539	410950
607.607	424304
607.674	378178
607.742	371686
607.810	371282
607.878	367727
607.946	372830
608.013	390596
608.081	399891
608.149	401184
608.216	413696
608.284	430278
608.352	428048
608.419	429433
608.487	417963
608.555	409573
608.622	420695
608.690	438748
608.757	483629
608.825	503484
608.893	490219
608.960	467211
609.028	442282
609.095	442645
609.163	442767
609.230	414395
609.298	362937
609.365	377570
609.432	407139
609.500	436695
609.567	487779
609.635	554979
609.702	594573
609.769	582230
609.837	486279
609.904	403262
609.971	418412
610.039	451116
610.106	546103
610.173	857098
610.241	1651428
610.308	1634699
610.375	672938
610.442	478783
610.509	430859
610.577	417309
610.644	416395
610.711	429176
610.778	440909
610.845	452226
610.912	477401
610.980	498993
611.047	500262
611.114	492967
611.181	479267
611.248	474114
611.315	492379
611.382	508156
611.449	524515
611.516	534392
611.583	531552
611.650	532427
611.717	541562
611.784	552414
611.851	573091
611.918	609129
611.984	682422
612.051	861890
612.118	1281531
612.185	2157863
612.252	2280444
612.319	1175224
612.386	796408
612.452	687319
612.519	630171
612.586	604079
612.653	599609
612.719	614257
612.786	604677
612.853	564418
612.919	542618
612.986	547612
613.053	526427
613.120	497319
613.186	473881
613.253	471955
613.319	473547
613.386	476456
613.453	481265
613.519	484282
613.586	477459
613.652	481525
613.719	478788
613.785	481742
613.852	489501
613.918	488121
613.985	485068
614.051	505092
614.118	506579
614.184	492243
614.250	479531
614.317	497148
614.383	487622
614.449	497930
614.516	498690
614.582	495718
614.648	490524
614.715	480663
614.781	479187
614.847	469234
614.914	471515
614.980	461314
615.046	456358
615.112	469233
615.179	476591
615.245	480702
615.311	477527
615.377	481658
615.443	491095
615.509	492938
615.575	511977
615.642	518214
615.708	521382
615.774	545834
615.840	583684
615.906	623466
615.972	719399
616.038	947923
616.104	1498228
616.170	2320262
616.236	2607719
616.302	1605017
616.368	1120061
616.434	863708
616.500	696681
616.565	713015
616.631	906660
616.697	869189
616.763	776323
616.829	987068
616.895	1610563
616.961	1890651
617.026	1194246
617.092	691360
617.158	568577
617.224	528934
617.289	481895
617.355	450509
617.421	435204
617.487	434558
617.552	413582
617.618	403244
617.684	405228
617.749	405341
617.815	391474
617.880	379355
617.946	378311
618.012	380841
618.077	389825
618.143	377497
618.208	372119
618.274	396089
618.339	409874
618.405	350042
618.470	328287
618.536	333065
618.601	322804
618.667	310445
618.732	287056
618.798	282283
618.863	279791
618.928	277752
618.994	280090
619.059	279665
619.124	281855
619.190	281296
619.255	274527
619.320	273752
619.386	275609
619.451	278766
619.516	265615
619.581	266901
619.647	275111
619.712	283103
619.777	264846
619.842	263928
619.907	268087
619.972	274452
620.038	276559
620.103	265401
620.168	265810
620.233	268416
620.298	269693
620.363	273727
620.428	278168
620.493	288163
620.558	294492
620.623	295389
620.688	297153
620.753	290606
620.818	298186
620.883	301272
620.948	301606
621.013	293453
621.078	288708
621.143	290255
621.207	295798
621.272	292114
621.337	282025
621.402	274041
621.467	274812
621.532	269799
621.596	276485
621.661	267310
621.726	264529
621.791	266846
621.855	268385
621.920	261649
621.985	266640
622.049	271714
622.114	276429
622.179	278465
622.243	283652
622.308	294316
622.373	306351
622.437	302524
622.502	286241
622.566	282926
622.631	279262
622.695	284653
622.760	283859
622.824	281944
622.889	286135
622.953	282475
623.018	296299
623.082	307495
623.147	304183
623.211	297886
623.276	295514
623.340	289191
623.404	275887
623.469	276156
623.533	279185
623.597	274952
623.662	269835
623.726	258160
623.790	237263
623.854	227115
623.919	230822
623.983	235796
624.047	238935
624.111	239931
624.176	247264
624.240	248287
624.304	256521
624.368	252753
624.432	246462
624.496	251771
624.560	265527
624.625	273860
624.689	269884
624.753	281333
624.817	277138
624.881	263359
624.945	246935
625.009	226258
625.073	231560
625.137	238574
625.201	250234
625.265	257417
625.329	246075
625.393	245262
625.456	249545
625.520	257012
625.584	260905
625.648	268365
625.712	276315
625.776	277480
625.839	262920
625.903	229249
625.967	204851
626.031	211109
626.095	249172
626.158	260563
626.222	202483
626.286	177202
626.349	171399
626.413	161337
626.477	157234
626.540	160210
626.604	160499
626.668	156236
626.731	154168
626.795	155307
626.858	156301
626.922	155916
626.986	152836
627.049	152809
627.113	157486
627.176	158596
627.240	151020
627.303	150915
627.366	150490
627.430	151462
627.493	153516
627.557	148645
627.620	149637
627.684	157045
627.747	162815
627.810	154293
627.874	135097
627.937	129282
628.000	131495
628.064	130909
628.127	118541
628.190	113263
628.253	109648
628.317	106737
628.380	100420
628.443	98765
628.506	96563
628.569	95425
628.632	88888
628.696	88714
628.759	88587
628.822	83735
628.885	82474
628.948	81574
629.011	80256
629.074	78902
629.137	76359
629.200	73909
629.263	72781
629.326	72434
629.389	72947
629.452	72091
629.515	71036
629.578	69977
629.641	72544
629.704	71239
629.767	71794
629.830	70828
629.892	67257
629.955	66934
630.018	68996
630.081	68188
630.144	69417
630.207	68534
630.269	68201
630.332	67642
630.395	64604
630.458	65701
630.520	62502
630.583	63580
630.646	63512
630.708	65662
630.771	67955
630.834	70711
630.896	69619
630.959	69773
631.021	68652
631.084	68324
631.146	69910
631.209	70615
631.272	71211
631.334	73745
631.397	76203
631.459	76668
631.522	80386
631.584	84343
631.646	91376
631.709	97654
631.771	99155
631.834	95659
631.896	91051
631.958	82737
632.021	78872
632.083	74091
632.145	70910
632.208	68350
632.270	67474
632.332	67209
632.395	66608
632.457	66992
632.519	65712
632.581	64788
632.643	64146
632.706	64556
632.768	64041
632.830	63350
632.892	65438
632.954	67935
633.016	67203
633.078	67305
633.141	67701
633.203	66480
633.265	67180
633.327	66329
633.389	65960
633.451	67411
633.513	66794
633.575	69667
633.637	70980
633.698	70886
633.760	75151
633.822	79423
633.884	82598
633.946	85999
634.008	89911
634.070	95827
634.132	103202
634.193	114127
634.255	124239
634.317	130609
634.379	128428
634.441	117870
634.502	105397
634.564	91514
634.626	83286
634.687	78895
634.749	73713
634.811	71868
634.873	70332
634.934	69964
634.996	68996
635.057	70271
635.119	71113
635.181	73332
635.242	74621
635.304	72651
635.365	75669
635.427	74796
635.488	72460
635.550	73773
635.611	75817
635.673	76906
635.734	84494
635.796	90994
635.857	98263
635.918	109679
635.980	123207
636.041	132925
636.102	143688
636.164	147611
636.225	142122
636.286	125566
636.348	109717
636.409	94812
636.470	85204
636.531	80113
636.593	73643
636.654	69751
636.715	66012
636.776	64398
636.838	61198
636.899	59581
636.960	56660
637.021	56783
637.082	56112
637.143	53824
637.204	52796
637.265	52244
637.326	53584
637.387	54597
637.448	54064
637.509	53959
637.570	53848
637.631	52131
637.692	50159
637.753	48539
637.814	48439
637.875	48155
637.936	46836
637.997	47380
638.058	46246
638.119	47124
638.179	46520
638.240	46176
638.301	47265
638.362	45892
638.423	44760
638.483	43279
638.544	43034
638.605	43307
638.666	41279
638.726	43816
638.787	41759
638.848	41572
638.908	42084
638.969	39780
639.030	38525
639.090	39586
639.151	39921
639.211	40823
639.272	41638
639.332	42558
639.393	44168
639.453	48343
639.514	54809
639.574	46775
639.635	40198
639.695	37921
639.756	37195
639.816	38349
639.877	36657
639.937	38016
639.997	37659
640.058	36911
640.118	36999
640.178	37580
640.239	37455
640.299	38788
640.359	40158
640.420	43665
640.480	48802
640.540	59415
640.600	65989
640.661	58794
640.721	51234
640.781	54018
640.841	48524
640.901	41340
640.961	39980
641.021	42081
641.082	48551
641.142	44424
641.202	38855
641.262	33348
641.322	36147
641.382	35229
641.442	34332
641.502	34584
641.562	36285
641.622	37670
641.682	41939
641.742	50877
641.802	52399
641.861	40384
641.921	35351
641.981	34071
642.041	32018
642.101	31812
642.161	31165
642.221	31399
642.280	32653
642.340	33106
642.400	33508
642.460	34783
642.519	34171
642.579	33806
642.639	35482
642.698	34241
642.758	38451
642.818	36508
642.877	35797
642.937	35481
642.997	35980
643.056	36137
643.116	34804
643.175	37156
643.235	37871
643.294	40309
643.354	43177
643.414	46544
643.473	55101
643.532	70360
643.592	91138
643.651	135192
643.711	213962
643.770	379179
643.830	749628
643.889	1526707
643.948	998608
644.008	254731
644.067	117998
644.126	79521
644.186	62161
644.245	52211
644.304	46525
644.363	43561
644.423	41218
644.482	41403
644.541	43147
644.600	46542
644.659	57018
644.719	71702
644.778	104141
644.837	167208
644.896	304405
644.955	721732
645.014	525453
645.073	108858
645.132	64793
645.191	54388
645.250	49662
645.309	50008
645.368	54764
645.427	70746
645.486	112731
645.545	256756
645.604	132285
645.663	45331
645.722	42596
645.781	44511
645.840	50547
645.898	61625
645.957	83088
646.016	121306
646.075	200146
646.134	353297
646.192	739182
646.251	1366054
646.310	609184
646.369	160884
646.427	98078
646.486	78328
646.545	52233
646.603	43464
646.662	39737
646.721	37095
646.779	37966
646.838	39103
646.896	49076
646.955	65315
647.014	101083
647.072	179095
647.131	463631
647.189	485610
647.248	82476
647.306	39596
647.365	32898
647.423	28854
647.481	29693
647.540	24975
647.598	26742
647.657	26259
647.715	25075
647.773	23963
647.832	25016
647.890	21889
647.948	21992
648.007	22087
648.065	21001
648.123	20267
648.181	21188
648.240	20028
648.298	19631
648.356	20072
648.414	20475
648.472	19726
648.531	19748
648.589	20230
648.647	19855
648.705	20847
648.763	20844
648.821	21998
648.879	23009
648.937	26291
648.995	33297
649.053	42186
649.111	61112
649.169	96655
649.227	164710
649.285	303682
649.343	776067
649.401	806510
649.459	160930
649.516	60884
649.574	42155
649.632	40329
649.690	43994
649.748	53232
649.806	75961
649.863	130482
649.921	326034
649.979	455488
650.037	82951
650.094	29966
650.152	22807
650.210	21312
650.268	19922
650.325	18850
650.383	20740
650.440	16071
650.498	16141
650.556	15989
650.613	14927
650.671	15865
650.728	16301
650.786	18172
650.843	24864
650.901	27736
650.958	15437
651.016	13346
651.073	12657
651.131	13981
651.188	11837
651.246	12776
651.303	11654
651.360	12955
651.418	12182
651.475	12532
651.532	10673
651.590	12688
651.647	11291
651.704	11902
651.762	11320
651.819	11734
651.876	11443
651.933	10519
651.990	10347
652.048	10440
652.105	10686
652.162	11012
652.219	10188
652.276	10671
652.333	11340
652.390	10605
652.448	10178
652.505	10490
652.562	10194
652.619	10217
652.676	9079
652.733	10513
652.790	9951
652.847	7767
652.904	10074
652.961	8264
653.017	9203
653.074	10594
653.131	9890
653.188	9344
653.245	9180
653.302	9266
653.359	9688
653.415	9650
653.472	8843
653.529	9728
653.586	9133
653.642	8658
653.699	9638
653.756	9509
653.813	8944
653.869	11028
653.926	11024
653.983	11448
654.039	10561
654.096	9153
654.152	9900
654.209	8184
654.266	8659
654.322	7391
654.379	9255
654.435	9618
654.492	8647
654.548	8301
654.605	7541
654.661	10367
654.717	8982
654.774	9603
654.830	9163
654.887	8746
654.943	9665
655.000	9839
655.056	9937
655.112	8939
655.168	9146
655.225	10737
655.281	10524
655.337	9194
655.394	9463
655.450	8710
655.506	8697
655.562	7854
655.618	9536
655.675	8092
655.731	8023
655.787	8407
655.843	9036
655.899	8637
655.955	9788
656.011	9737
656.067	9250
656.123	9323
656.179	10045
656.235	10126
656.291	9136
656.347	10875
656.403	10074
656.459	9629
656.515	9260
656.571	7931
656.627	8863
656.683	8311
656.739	8548
656.795	8124
656.850	8013
656.906	8884
656.962	9526
657.018	9488
657.074	11779
657.129	16853
657.185	24686
657.241	53952
657.297	62334
657.352	14262
657.408	8389
657.464	8421
657.519	7838
657.575	6973
657.630	7085
657.686	7766
657.742	6630
657.797	7650
657.853	7145
657.908	8642
657.964	6884
658.019	7948
658.075	7043
658.130	7385
658.186	6355
658.241	7628
658.297	7022
658.352	6102
658.407	7309
658.463	6768
658.518	6902
658.573	7141
658.629	6022
658.684	6758
658.739	7425
658.795	6745
658.850	6433
658.905	5767
658.960	6542
659.016	5580
659.071	5646
659.126	6465
659.181	5517
659.236	6612
659.291	5966
659.346	4914
659.401	5976
659.457	6900
659.512	6092
659.567	6346
659.622	5866
659.677	6879
659.732	5257
659.787	6459
659.842	5611
659.897	5121
659.952	6571
660.007	6098
660.061	5604
660.116	5893
660.171	5636
660.226	6240
660.281	6676
660.336	5588
660.391	6264
660.445	5393
660.500	5792
660.555	5308
660.610	4891
660.664	5871
660.719	5271
660.774	5907
660.828	5809
660.883	5620
660.938	5956
660.992	4676
661.047	5503
661.101	5829
661.156	5275
661.211	4592
661.265	5020
661.320	4573
661.374	5729
661.429	5069
661.483	5978
661.538	5495
661.592	5323
661.647	5948
661.701	6831
661.755	6547
661.810	6943
661.864	5272
661.919	4190
661.973	5751
662.027	5413
662.081	4376
662.136	5258
662.190	5472
662.244	5962
662.299	4602
662.353	5406
662.407	5858
662.461	4704
662.515	5299
662.569	5166
662.624	4576
662.678	4560
662.732	5195
662.786	4685
662.840	5979
662.894	5027
662.948	5371
663.002	5612
663.056	6288
663.110	4966
663.164	5415
663.218	6042
663.272	5465
663.326	5992
663.380	5292
663.434	5581
663.488	5151
663.542	5745
663.595	5665
663.649	5541
663.703	6724
663.757	5939
663.811	4785
663.864	4836
663.918	6856
663.972	5356
664.026	5444
664.079	5091
664.133	6355
664.187	6192
664.240	6446
664.294	6588
664.348	6322
664.401	6763
664.455	5938
664.508	5334
664.562	5239
664.615	6139
664.669	5300
664.722	5446
664.776	4819
664.829	5597
664.883	5868
664.936	4747
664.990	5945
665.043	6511
665.097	4632
665.150	6102
665.203	6415
665.257	7602
665.310	6356
665.363	5959
665.417	6116
665.470	6646
665.523	6393
665.576	6388
665.630	6853
665.683	6193
665.736	7043
665.789	7770
665.842	6215
665.895	5692
665.949	6697
666.002	6318
666.055	6955
666.108	6527
666.161	7229
666.214	6680
666.267	7242
666.320	7122
666.373	7339
666.426	6863
666.479	6781
666.532	8045
666.585	7567
666.638	8919
666.691	6895
666.744	7585
666.796	6528
666.849	5851
666.902	8112
666.955	7232
667.008	6491
667.060	6618
667.113	5504
667.166	6936
667.219	6496
667.271	7011
667.324	7084
667.377	7006
667.430	6950
667.482	5960
667.535	7160
667.587	6418
667.640	6874
667.693	6413
667.745	6717
667.798	6493
667.850	5569
667.903	6753
667.955	6224
668.008	6905
668.060	7908
668.113	6409
668.165	6687
668.218	7215
668.270	6543
668.322	5954
668.375	6483
668.427	6622
668.479	6369
668.532	6343
668.584	7138
668.636	6441
668.689	5867
668.741	5251
668.793	6011
668.845	5590
668.898	6976
668.950	5930
669.002	6705
669.054	6339
669.106	5360
669.158	5709
669.211	5920
669.263	5830
669.315	6143
669.367	6526
669.419	5587
669.471	6202
669.523	5639
669.575	5884
669.627	5146
669.679	5379
669.731	6041
669.783	5761
669.835	6033
669.886	5332
669.938	5379
669.990	5796
670.042	5198
670.094	5194
670.146	5562
670.197	6314
670.249	5187
670.301	5441
670.353	7670
670.404	7111
670.456	7361
670.508	9235
670.560	11540
670.611	15596
670.663	23276
670.715	40350
670.766	89919
670.818	54353
670.869	13202
670.921	8612
670.972	9673
671.024	8736
671.075	8139
671.127	7272
671.178	8641
671.230	9268
671.281	11297
671.333	12225
671.384	16122
671.436	19926
671.487	30133
671.538	41093
671.590	61737
671.641	96834
671.692	157322
671.744	301780
671.795	361268
671.846	185337
671.897	83094
671.949	46576
672.000	31525
672.051	22930
672.102	17739
672.153	13403
672.204	11724
672.256	10396
672.307	9522
672.358	8984
672.409	7074
672.460	7673
672.511	7403
672.562	6650
672.613	5525
672.664	5316
672.715	6176
672.766	5168
672.817	5212
672.868	5028
672.919	4977
672.970	4788
673.021	4913
673.071	4263
673.122	4821
673.173	4313
673.224	4562
673.275	4797
673.326	4613
673.376	4712
673.427	3540
673.478	4811
673.528	4887
673.579	4988
673.630	4616
673.680	4305
673.731	4481
673.782	3806
673.832	5445
673.883	5048
673.934	4131
673.984	4665
674.035	4430
674.085	5237
674.136	4138
674.186	4699
674.237	5498
674.287	4879
674.338	5530
674.388	6165
674.438	6561
674.489	6209
674.539	6916
674.589	6677
674.640	7066
674.690	6405
674.740	5060
674.791	5573
674.841	5386
674.891	4653
674.942	4911
674.992	3800
675.042	3668
675.092	3917
675.142	2747
675.193	4079
675.243	3748
675.293	4016
675.343	4512
675.393	4622
675.443	5004
675.493	3538
675.543	3853
675.593	4314
675.643	4608
675.693	3993
675.743	4020
675.793	3906
675.843	3016
675.893	2896
675.943	3646
675.993	3838
676.043	2967
676.093	3911
676.142	2872
676.192	3397
676.242	2764
676.292	3382
676.341	3620
676.391	2900
676.441	2712
676.491	2957
676.540	2725
676.590	2771
676.640	2448
676.689	2441
676.739	2231
676.789	1737
676.838	3155
676.888	2301
676.937	1954
676.987	3185
677.037	2603
677.086	3405
677.136	2162
677.185	1684
677.235	3303
677.284	2445
677.333	2642
677.383	3035
677.432	2806
677.482	2325
677.531	2379
677.580	1762
677.630	2460
677.679	2538
677.728	2334
677.778	3273
677.827	1785
677.876	2760
677.925	2677
677.975	2519
678.024	3942
678.073	3487
678.122	2633
678.171	3268
678.220	4106
678.269	4856
678.319	5275
678.368	7156
678.417	5951
678.466	4473
678.515	4170
678.564	2660
678.613	2699
678.662	2203
678.711	2740
678.760	1792
678.809	2745
678.857	2598
678.906	3650
678.955	3151
679.004	2353
679.053	2559
679.102	2679
679.151	2897
679.199	2559
679.248	2131
679.297	1608
679.346	2502
679.394	2036
679.443	2157
679.492	2276
679.540	2827
679.589	2009
679.638	3170
679.686	2871
679.735	3142
679.784	4479
679.832	5650
679.881	4571
679.929	3621
679.978	2425
680.026	2709
680.075	3232
680.123	1706
680.172	2295
680.220	2349
680.268	2275
680.317	1877
680.365	1806
680.414	1912
680.462	1868
680.510	1938
680.559	1407
680.607	1860
680.655	1699
680.703	1747
680.752	2255
680.800	1834
680.848	1842
680.896	2054
680.945	2022
680.993	1585
681.041	1310
681.089	1235
681.137	2452
681.185	1636
681.233	1453
681.258	1646
681.281	1798
681.329	1747
681.377	1775
681.380	1820
681.425	2072
681.473	1846
681.502	2329
681.521	2609
681.569	2689
681.617	1992
681.624	2033
681.665	2053
681.713	3274
681.745	3030
681.761	2851
681.809	2388
681.857	3369
681.867	3340
681.904	3138
681.952	3363
681.989	3127
682.000	3014
682.048	2454
682.096	2863
682.111	2734
682.143	2345
682.191	2387
682.233	3160
682.239	3241
682.286	3164
682.334	3526
682.354	3459
682.382	3312
682.430	3894
682.476	3792
682.477	3760
682.525	2797
682.572	4068
682.598	3377
682.620	2730
682.667	2853
682.715	3915
682.720	3919
682.763	3693
682.810	3269
682.841	3816
682.857	4053
682.905	4101
682.952	3650
682.963	3700
683.000	3783
683.047	4333
683.085	4166
683.095	4088
683.142	4421
683.190	4543
683.206	4607
683.237	4592
683.284	4875
683.328	4063
683.332	3972
683.379	5016
683.426	4255
683.449	4157
683.473	4052
683.521	4607
683.568	5714
683.571	5638
683.615	4262
683.662	5182
683.693	4880
683.709	4656
683.757	4039
683.804	4470
683.814	4542
683.851	4719
683.898	5157
683.936	5227
683.945	5230
683.992	4800
684.039	5586
684.057	5524
684.086	5398
684.133	4796
684.179	5117
684.180	5104
684.227	5681
684.274	4993
684.300	5267
684.321	5467
684.368	4638
684.415	5183
684.422	5200
684.462	5247
684.509	5740
684.543	5878
684.556	5919
684.603	5873
684.649	5964
684.665	5986
684.696	5920
684.743	6058
684.786	5726
684.790	5680
684.837	6186
684.883	5864
684.908	6248
684.930	6580
684.977	6358
685.023	6467
685.029	6432
685.070	6121
685.117	6920
685.150	6532
685.164	6364
685.210	7135
685.257	7477
685.272	7359
685.303	7067
685.350	7153
685.393	7498
685.396	7492
685.443	6912
685.490	6420
685.514	6490
685.536	6641
685.583	7285
685.629	6918
685.636	6895
685.675	6620
685.722	6974
685.757	6749
685.768	6680
685.815	6374
685.861	6786
685.878	6981
685.908	7290
685.954	6590
686.000	7378
686.000	7386
686.047	6749
686.093	7832
686.121	8068
686.139	8156
686.185	7649
686.232	7933
686.242	7915
686.278	7808
686.324	8362
686.363	8104
686.370	8049
686.416	8320
686.463	8604
686.484	8465
686.509	8318
686.555	8316
686.601	8540
686.606	8509
686.647	8037
686.693	7947
686.727	8049
686.739	8118
686.785	8283
686.831	8130
686.848	8268
686.877	8533
686.923	8032
686.969	8235
686.969	8235
687.015	7968
687.061	9267
687.090	9157
687.107	9142
687.153	9659
687.199	9821
687.211	9762
687.245	9259
687.291	9495
687.332	8922
687.336	8893
687.382	9027
687.428	9438
687.453	9462
687.474	9440
687.520	9489
687.565	9297
687.574	9294
687.611	9582
687.657	9741
687.695	10937
687.702	11199
687.748	11231
687.794	12431
687.816	12803
687.839	12859
687.885	12044
687.931	12232
687.937	12245
687.976	11973
688.022	11694
688.058	10990
688.067	10855
688.113	10497
688.158	10449
688.179	10261
688.204	10245
688.249	10252
688.295	9990
688.300	10024
688.340	10429
688.386	10980
688.421	11131
688.431	11107
688.477	9732
688.522	10514
688.542	10517
688.567	10946
688.613	11309
688.658	12020
688.663	12135
688.703	12642
688.749	11822
688.784	11836
688.794	11801
688.839	11533
688.884	11788
688.905	11695
688.930	11824
688.975	12134
689.020	11340
689.026	11414
689.065	11526
689.110	11324
689.146	10695
689.155	10691
689.201	11379
689.246	11886
689.267	11978
689.291	11839
689.336	11742
689.381	11196
689.388	11196
689.426	11485
689.471	11305
689.509	11649
689.516	11732
689.561	12007
689.606	11989
689.630	12074
689.651	12099
689.696	11968
689.741	11730
689.750	11804
689.785	12292
689.830	12517
689.871	12446
689.875	12434
689.920	12333
689.965	12269
689.992	11992
690.010	11896
690.054	12210
690.099	12258
690.112	12219
690.144	11954
690.189	11936
690.233	11432
690.233	11448
690.278	11802
690.323	12158
690.354	12089
690.367	12155
690.412	12609
690.457	13096
690.474	13059
690.501	12433
690.546	12153
690.590	11626
690.595	11534
690.635	11542
690.680	11763
690.716	11671
690.724	11633
690.769	11656
690.813	11837
690.836	11727
690.857	11931
690.902	12129
690.946	12724
690.957	12814
690.991	13032
691.035	13415
691.077	13634
691.080	13686
691.124	14046
691.168	14713
691.198	15407
691.213	15393
691.257	14640
691.301	13697
691.318	13478
691.346	13480
691.390	13380
691.434	13258
691.439	13198
691.478	12854
691.522	13066
691.559	12409
691.567	12427
691.611	13230
691.655	13724
691.680	13851
691.699	13685
691.743	13587
691.787	13845
691.800	13649
691.831	13509
691.875	13721
691.919	14056
691.921	14031
691.964	13793
692.008	13643
692.041	13584
692.052	13679
692.096	14046
692.139	14240
692.162	14385
692.183	14400
692.227	14188
692.271	14162
692.282	13994
692.315	13663
692.359	13808
692.402	14050
692.403	14078
692.447	13883
692.490	13912
692.523	13489
692.534	13467
692.578	13398
692.622	13743
692.643	13832
692.666	13839
692.709	13854
692.753	13649
692.763	13613
692.797	13974
692.840	14169
692.884	14601
692.884	14629
692.928	14500
692.971	13902
693.004	13576
693.015	13622
693.059	13710
693.102	14063
693.124	14078
693.146	14024
693.189	13933
693.233	13529
693.245	13531
693.276	13848
693.320	14109
693.363	14099
693.365	14078
693.407	14299
693.450	14505
693.485	14544
693.493	14623
693.537	14690
693.580	14886
693.605	15016
693.624	14925
693.667	14773
693.710	14523
693.725	14346
693.753	14949
693.797	16005
693.840	16960
693.845	17057
693.883	17496
693.926	17733
693.966	18103
693.970	18080
694.013	17193
694.056	16620
694.086	16064
694.099	15912
694.142	15179
694.185	14734
694.206	14480
694.229	14652
694.272	14632
694.315	14800
694.326	14853
694.358	15077
694.401	14932
694.444	15021
694.446	14997
694.487	15502
694.530	15734
694.566	15964
694.573	15980
694.616	15946
694.659	15607
694.686	15680
694.702	15970
694.745	16389
694.787	16695
694.806	16881
694.830	16578
694.873	16014
694.916	15107
694.926	14946
694.959	15491
695.002	15760
695.044	16329
695.046	16318
695.087	17124
695.130	17737
695.166	18142
695.172	18183
695.215	18332
695.258	18402
695.286	18458
695.301	18578
695.343	18625
695.386	18901
695.406	18932
695.428	19444
695.471	20409
695.514	21149
695.526	21454
695.556	23643
695.599	26346
695.641	29111
695.646	29319
695.684	28441
695.726	27719
695.766	26914
695.769	26903
695.811	25677
695.854	24510
695.886	23659
695.896	23668
695.938	23355
695.981	23225
696.005	22973
696.023	23522
696.065	24817
696.108	26130
696.125	26589
696.150	27465
696.192	28850
696.235	30277
696.245	30550
696.277	30611
696.319	30742
696.361	30506
696.365	30437
696.404	30545
696.446	30526
696.485	30313
696.488	30341
696.530	29863
696.572	29301
696.604	28819
696.614	28947
696.656	29227
696.698	29464
696.724	29525
696.740	29545
696.783	29446
696.825	29423
696.844	29292
696.867	29714
696.909	30403
696.951	31026
696.964	31195
696.992	31017
697.034	30441
697.076	29898
697.083	29753
697.118	31210
697.160	32807
697.202	34386
697.203	34345
697.244	33855
697.286	33175
697.323	32501
697.327	32617
697.369	32962
697.411	33312
697.442	33466
697.453	33509
697.494	33311
697.536	33179
697.562	32994
697.578	33054
697.620	32963
697.661	32867
697.682	32770
697.703	33506
697.744	34833
697.786	36067
697.801	36437
697.828	36776
697.869	37139
697.911	37495
697.921	37509
697.952	37096
697.994	36304
698.035	35529
698.040	35355
698.077	35889
698.118	36308
698.160	36744
698.160	36652
698.201	37127
698.243	37487
698.279	37727
698.284	37978
698.325	39455
698.367	40862
698.399	41896
698.408	42037
698.449	42174
698.491	42322
698.518	42298
698.532	42464
698.573	42654
698.614	42828
698.638	42838
698.656	43022
698.697	43186
698.738	43328
698.757	43294
698.779	43354
698.820	43250
698.862	43137
698.877	42987
698.903	43069
698.944	43019
698.985	42976
698.996	42855
699.026	43095
699.067	43275
699.116	43381
699.235	42185
699.354	42782
699.474	40446
699.593	39369
699.713	38535
699.832	39632
699.951	41623
700.070	42013
700.190	38356
700.309	38245
700.428	35048
700.547	36009
700.667	35510
700.786	36229
700.905	35412
701.024	34302
701.143	35843
701.262	34005
701.381	38054
701.500	37086
701.619	37301
701.738	37512
701.857	34916
701.976	35647
702.095	33288
702.214	36743
702.333	35148
702.452	37383
702.571	34599
702.690	36851
702.809	35483
702.928	34829
703.047	32386
703.165	32044
703.284	34272
703.403	31766
703.522	33410
703.640	30737
703.759	30959
703.878	30130
703.997	31669
704.115	31462
704.234	32483
704.353	32999
704.471	30453
704.590	29439
704.708	28963
704.827	27668
704.946	27918
705.064	28752
705.183	27787
705.301	28030
705.420	28507
705.538	26607
705.656	25600
705.775	23794
705.893	26532
706.012	26935
706.130	25741
706.249	26930
706.367	24400
706.485	24261
706.604	24269
706.722	24478
706.840	25452
706.958	31479
707.077	30966
707.195	23019
707.313	24903
707.431	21518
707.549	22372
707.668	21046
707.786	23888
707.904	23491
708.022	22820
708.140	24939
708.258	20351
708.376	24090
708.494	21998
708.612	22630
708.730	24692
708.848	24041
708.966	23202
709.084	23083
709.202	23538
709.320	20659
709.438	20292
709.556	20547
709.674	18649
709.791	18734
709.909	19503
710.027	19233
710.145	19568
710.263	19040
710.380	18747
710.498	19276
710.616	18451
710.733	19368
710.851	17073
710.969	18631
711.086	18320
711.204	18652
711.322	17247
711.439	18708
711.557	17371
711.674	17882
711.792	16874
711.909	16832
712.027	17120
712.144	17460
712.262	16493
712.379	17643
712.497	17165
712.614	16723
712.732	17045
712.849	17134
712.966	16695
713.084	19861
713.201	16482
713.318	16514
713.436	20126
713.553	19563
713.670	19961
713.787	20870
713.905	19397
714.022	21175
714.139	22008
714.256	28246
714.373	39795
714.490	74696
714.608	168699
714.725	634945
714.842	1335150
714.959	265362
715.076	59360
715.193	34901
715.310	28785
715.427	21032
715.544	19361
715.661	20301
715.778	17435
715.895	17304
716.011	18210
716.128	17694
716.245	16762
716.362	16249
716.479	14003
716.596	14119
716.713	14283
716.829	15136
716.946	13233
717.063	13745
717.180	12470
717.296	13471
717.413	12499
717.530	13806
717.646	11916
717.763	12196
717.880	11826
717.996	13099
718.113	11713
718.229	12813
718.346	11640
718.462	11910
718.579	10950
718.695	12612
718.812	11285
718.928	12470
719.045	11928
719.161	12078
719.277	12681
719.394	14670
719.510	12529
719.626	15341
719.743	20853
719.859	32115
719.975	64037
720.092	218115
720.208	791502
720.324	310818
720.440	37625
720.557	21076
720.673	17212
720.789	15082
720.905	12712
721.021	12666
721.137	11272
721.253	10275
721.369	10040
721.486	11333
721.602	9925
721.718	10528
721.834	10044
721.950	10567
722.066	9418
722.181	10425
722.297	9676
722.413	10243
722.529	10083
722.645	10351
722.761	8644
722.877	11148
722.993	12293
723.108	17181
723.224	19997
723.340	12634
723.456	10285
723.571	8773
723.687	8143
723.803	9062
723.918	9737
724.034	9314
724.150	8349
724.265	9377
724.381	8098
724.497	8753
724.612	8753
724.728	8808
724.843	8256
724.959	7772
725.074	8163
725.190	9002
725.305	9124
725.421	8646
725.536	8395
725.651	9570
725.767	7886
725.882	9124
725.997	8277
726.113	9487
726.228	8400
726.343	9042
726.459	8539
726.574	8532
726.689	7358
726.804	8441
726.920	7817
727.035	8149
727.150	7949
727.265	7743
727.380	7482
727.495	8636
727.610	7978
727.725	8997
727.841	8617
727.956	9050
728.071	7920
728.186	8559
728.301	6861
728.416	8736
728.531	7854
728.645	8374
728.760	7533
728.875	8110
728.990	7491
729.105	8047
729.220	7611
729.335	7915
729.449	7902
729.564	7642
729.679	6743
729.794	8241
729.908	8132
730.023	8036
730.138	7834
730.253	8860
730.367	7446
730.482	8897
730.596	8666
730.711	9749
730.826	13634
730.940	16701
731.055	13114
731.169	12732
731.284	12710
731.398	13707
731.513	14718
731.627	15945
731.742	18840
731.856	27327
731.970	29222
732.085	35380
732.199	52603
732.313	91790
732.428	210983
732.542	622510
732.656	760572
732.771	170381
732.885	62523
732.999	43614
733.113	40059
733.227	37330
733.342	34080
733.456	33102
733.570	30012
733.684	29167
733.798	26648
733.912	27106
734.026	27823
734.140	26916
734.254	27020
734.368	24472
734.482	24592
734.596	26363
734.710	24141
734.824	24291
734.938	22898
735.052	25118
735.166	22979
735.280	23275
735.393	21912
735.507	22383
735.621	22581
735.735	21782
735.849	21845
735.962	21316
736.076	21449
736.190	21564
736.303	20339
736.417	21917
736.531	19427
736.644	21347
736.758	19369
736.872	21148
736.985	19047
737.099	20980
737.212	18694
737.326	20720
737.439	18306
737.553	19674
737.666	18719
737.780	18744
737.893	20057
738.007	18097
738.120	19897
738.233	17611
738.347	18893
738.460	16934
738.573	19106
738.687	18314
738.800	17358
738.913	18261
739.026	19192
739.140	16943
739.253	17127
739.366	17508
739.479	16933
739.592	19220
739.705	15485
739.818	17828
739.932	17051
740.045	15965
740.158	17346
740.271	15895
740.384	18348
740.497	14033
740.610	16976
740.723	15793
740.836	15689
740.949	16118
741.062	16838
741.174	16938
741.287	14047
741.400	16916
741.513	13415
741.626	16328
741.739	15461
741.851	15177
741.964	15407
742.077	16202
742.189	13278
742.302	15458
742.415	15392
742.527	13911
742.640	14303
742.753	13631
742.865	13258
742.978	15408
743.090	12712
743.203	13598
743.316	13397
743.428	13009
743.541	14588
743.653	12252
743.766	12514
743.878	14435
743.990	12486
744.103	13740
744.215	15172
744.327	11599
744.440	14154
744.552	14680
744.664	10410
744.777	13140
744.889	14159
745.001	12212
745.113	12340
745.226	14398
745.338	10858
745.450	12668
745.562	12922
745.674	11815
745.786	12130
745.898	13796
746.010	11641
746.122	11728
746.234	13068
746.347	12596
746.459	12463
746.570	10623
746.682	11600
746.794	16756
746.906	13267
747.018	11311
747.130	12982
747.242	10577
747.354	9808
747.466	11591
747.577	9959
747.689	10640
747.801	11693
747.913	11071
748.024	9927
748.136	10396
748.248	10357
748.359	9443
748.471	10639
748.583	10507
748.694	7375
748.806	10500
748.918	11164
749.029	9518
749.141	9459
749.252	11140
749.364	9083
749.475	8790
749.587	9057
749.698	8439
749.809	9096
749.921	9968
750.032	9831
750.144	8247
750.255	9027
750.366	8921
750.478	8148
750.589	9144
750.700	7671
750.811	9377
750.923	7824
751.034	7777
751.145	9481
751.256	8842
751.367	7600
751.479	9230
751.590	7376
751.701	8611
751.812	7830
751.923	7772
752.034	9140
752.145	10997
752.256	8403
752.367	8836
752.478	7965
752.589	8950
752.700	8974
752.811	7741
752.922	8208
753.032	8594
753.143	9063
753.254	8310
753.365	8977
753.476	10745
753.586	7907
753.697	8437
753.808	8324
753.919	7734
754.029	7799
754.140	7818
754.251	6363
754.361	7695
754.472	8318
754.582	8582
754.693	6834
754.804	9017
754.914	7689
755.025	6648
755.135	6637
755.246	8473
755.356	8653
755.466	7365
755.577	5517
755.687	7133
755.798	6900
755.908	7023
756.018	7144
756.129	7665
756.239	7078
756.349	8336
756.460	8761
756.570	10953
756.680	8482
756.790	8201
756.900	7767
757.011	7610
757.121	6154
757.231	6886
757.341	7262
757.451	6995
757.561	6521
757.671	6459
757.781	8304
757.891	7487
758.001	5385
758.111	7053
758.221	7730
758.331	8411
758.441	8262
758.551	9200
758.661	9764
758.771	10999
758.880	9931
758.990	8032
759.100	8395
759.210	8561
759.320	8663
759.429	10223
759.539	9766
759.649	12752
759.758	12849
759.868	15416
759.978	14284
760.087	16352
760.197	16804
760.307	15931
760.416	14023
760.526	12768
760.635	12142
760.745	13791
760.854	15748
760.964	19599
761.073	19922
761.182	18638
761.292	15748
761.401	13609
761.511	11225
761.620	8995
761.729	9144
761.839	8189
761.948	6768
762.057	7420
762.166	7553
762.276	8261
762.385	6999
762.494	7232
762.603	7769
762.712	6894
762.822	7108
762.931	7143
763.040	5012
763.149	6527
763.258	5535
763.367	6696
763.476	5310
763.585	5635
763.694	4936
763.803	6028
763.912	5310
764.021	5678
764.130	5002
764.238	5801
764.347	6164
764.456	7809
764.565	7427
764.674	7492
764.783	5176
764.891	6326
765.000	6107
765.109	6658
765.217	5323
765.326	6625
765.435	6725
765.543	7172
765.652	7477
765.761	9027
765.869	10488
765.978	13443
766.086	20851
766.195	39065
766.303	82272
766.412	226833
766.520	333203
766.629	145190
766.737	43531
766.846	23250
766.954	15399
767.062	13229
767.171	9750
767.279	8990
767.387	8146
767.496	8141
767.604	6750
767.712	5889
767.820	5720
767.928	6178
768.037	5649
768.145	5913
768.253	6049
768.361	5025
768.469	5865
768.577	5262
768.685	5766
768.793	6923
768.901	6391
769.009	6437
769.117	5405
769.225	6614
769.333	8238
769.441	12299
769.549	17545
769.657	32312
769.765	85738
769.873	240052
769.981	184459
770.088	43388
770.196	18116
770.304	12943
770.412	10469
770.519	9620
770.627	8756
770.735	9123
770.842	8205
770.950	9174
771.058	8326
771.165	10167
771.273	11834
771.380	11552
771.488	13415
771.595	19666
771.703	17710
771.810	15771
771.918	15250
772.025	17277
772.133	21132
772.240	20656
772.348	21788
772.455	23475
772.562	20301
772.670	20601
772.777	18836
772.884	20039
772.991	18538
773.099	19315
773.206	18210
773.313	19701
773.420	18942
773.528	18571
773.635	18115
773.742	19545
773.849	17627
773.956	18475
774.063	16985
774.170	18649
774.277	18007
774.384	18044
774.491	16946
774.598	17691
774.705	17038
774.812	16924
774.919	16814
775.026	18130
775.133	14706
775.239	18081
775.346	14942
775.453	16526
775.560	16326
775.667	15518
775.773	17160
775.880	14846
775.987	15497
776.093	14864
776.200	17261
776.307	14603
776.413	12541
776.520	15787
776.627	16591
776.733	13008
776.840	12776
776.946	17585
777.053	18345
777.159	17881
777.266	17102
777.372	16999
777.478	17779
777.585	18784
777.691	13437
777.798	13199
777.904	15358
778.010	11289
778.117	13689
778.223	13239
778.329	12870
778.435	12227
778.542	12540
778.648	13503
778.754	12368
778.860	12725
778.966	14143
779.072	11708
779.178	12292
779.284	11493
779.391	10396
779.497	13668
779.603	12444
779.708	12233
779.815	10933
779.920	12187
780.026	17845
780.132	14063
780.238	11899
780.344	10041
780.450	12801
780.556	12830
780.661	7732
780.767	13419
780.873	9796
780.979	8192
781.085	11788
781.190	11452
781.296	9483
781.402	9975
781.507	11034
781.613	8521
781.719	8083
781.824	11899
781.930	10674
782.035	8558
782.141	12056
782.246	9738
782.352	7929
782.457	10249
782.563	9919
782.668	10783
782.773	8985
782.879	8270
782.984	8078
783.090	11023
783.195	7971
783.300	10995
783.405	9008
783.511	8073
783.616	7248
783.721	8722
783.826	9555
783.932	7551
784.037	8837
784.142	8836
784.247	8274
784.352	9282
784.457	7136
784.562	7519
784.667	10850
784.772	7610
784.877	4822
784.982	8047
785.087	9589
785.192	7296
785.297	7360
785.402	7965
785.507	7942
785.611	9586
785.716	6482
785.821	7357
785.926	7526
786.031	8133
786.135	6637
786.240	8192
786.345	7246
786.450	6198
786.554	7114
786.659	6936
786.763	7425
786.868	7836
786.973	8481
787.077	7471
787.182	5930
787.286	7438
787.391	8652
787.495	7831
787.600	4242
787.704	6377
787.809	7809
787.913	6569
788.017	6964
788.122	7378
788.226	6741
788.330	4506
788.435	5521
788.539	8451
788.643	6904
788.747	5182
788.852	5901
788.956	7299
789.060	6218
789.164	6719
789.268	5926
789.372	7603
789.476	6243
789.580	5798
789.684	3982
789.788	7224
789.892	6629
789.996	4830
790.100	3639
790.204	4668
790.308	6608
790.412	6934
790.516	3469
790.620	4863
790.724	7126
790.828	7435
790.931	4115
791.035	5034
791.139	4189
791.242	5878
791.346	5671
791.450	5293
791.554	5668
791.657	4626
791.761	5677
791.864	6393
791.968	6192
792.072	7414
792.175	4854
792.279	3887
792.382	4384
792.486	4782
792.589	4093
792.693	6332
792.796	4060
792.899	5290
793.003	5355
793.106	4857
793.209	5131
793.313	4349
793.416	2559
793.519	4348
793.623	4444
793.726	6557
793.829	4863
793.932	3382
794.035	1803
794.138	5358
794.242	5915
794.345	5952
794.448	2750
794.551	4130
794.654	4665
794.757	8503
794.860	6235
794.963	4201
795.066	4061
795.169	5286
795.272	4576
795.375	6084
795.477	5040
795.580	3977
795.683	2931
795.786	4842
795.889	3822
795.991	4363
796.094	4124
796.197	4891
796.300	4893
796.402	6152
796.505	4080
796.608	3402
796.710	3677
796.813	5246
796.915	6128
797.018	5750
797.120	4376
797.223	4703
797.326	5127
797.428	4716
797.530	3348
797.633	3426
797.735	5299
797.838	4838
797.940	5208
798.042	5503
798.145	3790
798.247	4619
798.349	2787
798.452	4420
798.554	4389
798.656	5013
798.758	5882
798.860	5728
798.962	4796
799.065	3597
799.167	2831
799.269	4516
799.371	3919
799.473	7234
799.575	7846
799.677	6087
799.779	4128
799.881	4054
799.983	5064
800.085	4793
800.187	3545
800.289	3219
800.390	3187
800.492	4762
800.594	4415
800.696	3773
800.798	2679
800.899	2969
801.001	3097
801.103	4510
801.205	3820
801.306	4554
801.408	4742
801.509	4785
801.611	4311
801.713	3830
801.814	2441
801.916	2231
802.017	1895
802.119	2787
802.220	2532
802.322	2528
802.423	3934
802.525	2980
802.626	2477
802.727	3586
802.829	4119
802.930	2139
803.031	3204
803.133	3089
803.234	2687
803.335	4178
803.436	3100
803.538	3314
803.639	2639
803.740	3360
803.841	2724
803.942	4833
804.043	3353
804.144	2439
804.245	2890
804.346	3307
804.447	2862
804.548	3022
804.649	3116
804.750	2599
804.851	1882
804.952	2857
805.053	2130
805.154	2617
805.255	2987
805.355	3201
805.456	2731
805.557	2823
805.658	2702
805.758	3358
805.859	1970
805.960	3255
806.061	2907
806.161	2747
806.262	2244
806.362	1764
806.463	2042
806.564	3001
806.664	2968
806.765	3351
806.865	2108
806.966	2766
807.066	2279
807.166	3248
807.267	3406
807.367	2594
807.468	1497
807.568	2268
807.668	2487
807.769	2723
807.869	3120
807.969	3032
808.069	2060
808.170	1940
808.270	2000
808.370	2542
808.470	2438
808.570	2452
808.670	2968
808.770	2334
808.870	2265
808.970	2404
809.070	1570
809.170	2045
809.271	2117
809.370	3045
809.470	1565
809.570	2480
809.670	1066
809.770	2027
809.870	2560
809.970	3771
810.070	1885
810.169	2794
810.269	1432
810.369	3247
810.469	1959
810.568	2615
810.668	1769
810.768	3175
810.867	1471
810.967	2133
811.066	2320
811.166	2355
811.265	2519
811.365	1715
811.464	834
811.564	2688
811.663	1783
811.763	3024
811.862	2512
811.962	2447
812.061	1529
812.160	1938
812.260	2825
812.359	2247
812.458	1736
812.557	2673
812.657	1768
812.756	2870
812.855	1703
812.954	2331
813.053	2281
813.153	2531
813.252	1862
813.351	2833
813.450	3279
813.549	2730
813.648	2294
813.747	2348
813.846	2811
813.945	3681
814.044	3059
814.143	2623
814.242	2338
814.341	2341
814.439	3175
814.538	4053
814.637	3233
814.736	4263
814.835	3826
814.933	4301
815.032	4947
815.131	6406
815.229	9414
815.328	18361
815.427	15904
815.525	12615
815.624	11865
815.722	11823
815.821	11496
815.919	12412
816.018	12420
816.116	12754
816.215	11894
816.313	13389
816.412	13742
816.510	17199
816.609	16115
816.707	18066
816.805	18375
816.904	15659
817.002	17798
817.100	16525
817.198	16613
817.296	18439
817.395	16396
817.493	17885
817.591	13945
817.689	15426
817.787	14917
817.885	15986
817.983	13584
818.081	16892
818.179	16072
818.277	24505
818.375	28147
818.473	19184
818.571	13983
818.669	13764
818.767	16713
818.865	15215
818.963	11945
819.061	12615
819.158	14629
819.256	18683
819.354	19857
819.452	30294
819.549	34834
819.647	21797
819.745	14807
819.842	12167
819.940	12603
820.038	12596
820.135	11521
820.233	12428
820.330	12853
820.428	11608
820.525	12102
820.623	11901
820.720	10755
820.818	12670
820.915	12388
821.012	11649
821.110	9916
821.207	11705
821.304	10595
821.402	11411
821.499	12439
821.596	11142
821.693	10010
821.791	12303
821.888	9830
821.985	12756
822.082	10941
822.179	9804
822.276	12043
822.373	11604
822.470	8586
822.567	10676
822.664	9915
822.761	9683
822.858	10624
822.955	11357
823.052	8524
823.149	8877
823.246	11551
823.343	9050
823.440	8521
823.536	8916
823.633	10079
823.730	8436
823.827	9398
823.923	10493
824.020	7219
824.117	9261
824.213	10887
824.310	8941
824.407	7868
824.503	9180
824.600	9215
824.696	7836
824.793	9968
824.889	10352
824.986	10503
825.082	7197
825.179	6492
825.275	7730
825.371	10897
825.468	9233
825.564	4721
825.660	7156
825.757	11652
825.853	8870
825.949	7053
826.045	7195
826.142	6416
826.238	9338
826.334	8167
826.430	9105
826.526	7126
826.622	4602
826.718	6915
826.814	9617
826.910	9627
827.006	5180
827.102	4376
827.198	7370
827.294	8785
827.390	10352
827.486	8431
827.582	4972
827.678	4636
827.774	8550
827.869	7120
827.965	6346
828.061	4088
828.157	7364
828.252	9615
828.348	7914
828.444	5991
828.539	4988
828.635	7209
828.731	7960
828.826	6243
828.922	7774
829.017	7672
829.113	9632
829.208	6560
829.304	7452
829.399	8918
829.495	9693
829.590	6598
829.685	7206
829.781	7459
829.876	10084
829.971	5531
830.066	4085
830.162	4177
830.257	8417
830.352	9280
830.447	6263
830.543	4348
830.638	6022
830.733	9730
830.828	7234
830.923	7376
831.018	6894
831.113	7947
831.208	7248
831.303	3511
831.398	4491
831.493	5503
831.588	9292
831.683	7843
831.778	4781
831.873	4323
831.967	7185
832.062	7184
832.157	7647
832.252	5266
832.346	5947
832.441	6250
832.536	6287
832.631	5992
832.725	6115
832.820	4752
832.914	6413
833.009	5259
833.104	4717
833.198	3038
833.293	4441
833.387	7270
833.482	6037
833.576	5478
833.670	6538
833.765	5927
833.859	7207
833.954	7076
834.048	5847
834.142	5194
834.237	3741
834.331	4190
834.425	6074
834.519	5142
834.613	5118
834.708	3552
834.802	4002
834.896	4304
834.990	6280
835.084	4241
835.178	3418
835.272	3674
835.366	6591
835.460	6358
835.554	6156
835.648	3738
835.742	3347
835.836	2521
835.930	4070
836.024	4415
836.117	5751
836.211	4832
836.305	4026
836.399	3474
836.493	2861
836.586	4182
836.680	4547
836.774	4331
836.867	4291
836.961	2383
837.055	3849
837.148	2748
837.242	3641
837.335	3691
837.429	5559
837.522	2771
837.616	3553
837.709	2824
837.803	3512
837.896	4246
837.989	6745
838.083	3665
838.176	2741
838.269	1629
838.363	3872
838.456	2418
838.549	4670
838.642	4445
838.735	3830
838.829	3155
838.922	3832
839.015	3761
839.108	1977
839.201	2918
839.294	4453
839.387	4181
839.480	3224
839.573	2745
839.666	2649
839.759	2080
839.852	3408
839.945	3430
840.038	3274
840.131	2516
840.223	2392
840.316	3311
840.409	3232
840.502	4338
840.594	5364
840.687	2060
840.780	2063
840.873	1138
840.965	2150
841.058	2956
841.150	4571
841.243	3055
841.336	2809
841.428	2545
841.521	1899
841.613	2805
841.706	4259
841.798	2187
841.890	3598
841.983	1886
842.075	2335
842.167	2343
842.260	3759
842.352	3008
842.444	3409
842.537	2667
842.629	2104
842.721	1841
842.813	1700
842.905	2245
842.997	3909
843.090	3156
843.182	3846
843.274	1462
843.366	2788
843.458	1973
843.550	4759
843.642	2389
843.734	4021
843.826	2019
843.918	2470
844.009	2214
844.101	2561
844.193	2540
844.285	3082
844.377	3642
844.469	4311
844.560	2801
844.652	3529
844.744	2743
844.835	2372
844.927	2074
845.019	3697
845.110	3221
845.202	3236
845.293	2286
845.385	1813
845.476	2662
845.568	3564
845.659	2512
845.751	2687
845.842	1599
845.934	1930
846.025	2236
846.116	3143
846.208	1645
846.299	2571
846.390	1924
846.482	2130
846.573	1702
846.664	3128
846.755	1653
846.846	3448
846.937	1068
847.029	3135
847.120	1428
847.211	2027
847.302	3474
847.393	1987
847.484	3013
847.575	1465
847.666	796
847.757	2068
847.847	2228
847.938	2757
848.029	3002
848.120	3295
848.211	1430
848.302	2162
848.392	1220
848.483	3224
848.574	1726
848.664	2613
848.755	2456
848.846	2139
848.936	1889
849.027	2823
849.118	3715
849.208	3580
849.299	5528
849.389	10274
849.480	18493
849.570	37526
849.661	63806
849.751	128326
849.841	103220
849.932	23658
850.022	7391
850.112	5532
850.203	4098
850.293	3863
850.383	2320
850.474	2483
850.564	2373
850.654	2492
850.744	1777
850.834	2496
850.924	2319
851.014	4194
851.104	2947
851.194	2824
851.284	1532
851.374	2450
851.464	1932
851.554	2237
851.644	1949
851.734	3140
851.824	2509
851.914	2885
852.004	2984
852.094	3643
852.183	2385
852.273	2165
852.363	2611
852.452	2832
852.542	3593
852.632	2065
852.721	2429
852.811	3218
852.901	3870
852.990	4814
853.080	4072
853.169	5528
853.259	5509
853.348	6832
853.438	8203
853.527	11612
853.617	15634
853.706	24677
853.795	40171
853.885	73771
853.974	132307
854.063	211045
854.152	333945
854.242	267274
854.331	100375
854.420	40386
854.509	22623
854.598	16555
854.687	11712
854.777	10150
854.866	6320
854.955	6512
855.044	4035
855.133	4721
855.222	4388
855.311	3901
855.400	2682
855.488	3326
855.577	2227
855.666	3547
855.755	2588
855.844	3722
855.933	2295
856.021	3453
856.110	2369
856.199	2140
856.288	1557
856.376	2476
856.465	1636
856.554	2875
856.642	2271
856.731	4222
856.819	3112
856.908	2151
856.996	2078
857.085	1152
857.173	1203
857.262	877
857.350	1240
857.438	2475
857.527	1363
857.615	2266
857.703	2779
857.792	2870
857.880	1551
857.968	2172
858.056	2164
858.145	2180
858.233	1427
858.321	1968
858.409	2019
858.497	2453
858.585	1228
858.673	1865
858.761	942
858.849	2413
858.937	1893
859.025	1857
859.113	1819
859.201	2620
859.289	2515
859.377	2471
859.465	1919
859.552	2455
859.640	1713
859.728	1262
859.816	1348
859.903	3162
859.991	1529
860.079	2696
860.166	1728
860.254	2951
860.342	1870
860.429	2421
860.517	1629
860.604	2233
860.692	1568
860.779	2116
860.867	1115
860.954	2120
861.042	3079
861.129	3278
861.216	2353
861.304	3129
861.391	2436
861.478	1805
861.565	1711
861.653	3030
861.740	1144
861.827	1858
861.914	2094
862.001	1721
862.089	2347
862.176	1739
862.263	2139
862.350	2334
862.437	1997
862.524	2150
862.611	874
862.698	2984
862.785	2157
862.871	3491
862.958	3472
863.045	3746
863.132	2288
863.219	2971
863.306	1151
863.392	2277
863.479	1555
863.566	2201
863.652	2686
863.739	3184
863.826	2773
863.912	3392
863.999	2504
864.086	4026
864.172	2595
864.259	3814
864.345	3631
864.432	4324
864.518	4387
864.604	4032
864.691	4068
864.777	4492
864.863	5039
864.950	7680
865.036	9826
865.122	16398
865.209	22326
865.295	21488
865.381	19947
865.467	19527
865.553	20568
865.639	25614
865.726	33743
865.812	51245
865.898	82383
865.984	124336
866.070	177594
866.156	258251
866.242	161338
866.328	60246
866.414	29800
866.499	23372
866.585	19793
866.671	19168
866.757	16632
866.843	17055
866.928	16077
867.014	14534
867.100	15453
867.186	14513
867.271	13378
867.357	14318
867.442	12311
867.528	13032
867.614	13171
867.699	13924
867.785	13302
867.870	13878
867.956	12636
868.041	14735
868.127	12073
868.212	13591
868.297	12652
868.383	13789
868.468	12206
868.553	13679
868.639	12787
868.724	11767
868.809	12472
868.894	12659
868.979	10817
869.065	12259
869.150	10125
869.235	10624
869.320	11793
869.405	10673
869.490	9330
869.575	12630
869.660	9635
869.745	10452
869.830	13271
869.915	11860
870.000	10094
870.085	10918
870.169	11022
870.254	14713
870.339	10906
870.424	8460
870.509	10441
870.593	11304
870.678	12644
870.763	11039
870.847	9175
870.932	9818
871.016	12167
871.101	9774
871.186	8117
871.270	13131
871.355	10723
871.439	7996
871.523	11291
871.608	11023
871.692	7698
871.777	9900
871.861	11537
871.945	9874
872.030	9613
872.114	9864
872.198	8491
872.282	7971
872.367	8691
872.451	8793
872.535	8283
872.619	9527
872.703	8106
872.787	9539
872.871	9835
872.955	9652
873.039	6640
873.123	7689
873.207	11294
873.291	7662
873.375	5473
873.459	9841
873.543	8363
873.627	7948
873.711	6831
873.794	8445
873.878	9250
873.962	7476
874.045	6566
874.129	7859
874.137	7789
874.213	7086
874.245	7883
874.296	9182
874.352	7217
874.380	6258
874.460	7605
874.464	7661
874.547	6918
874.568	7094
874.631	7616
874.676	7839
874.714	8014
874.784	8731
874.798	8871
874.881	7824
874.892	7535
874.965	5629
874.999	6129
875.048	6798
875.107	7928
875.131	8358
875.215	6829
875.215	6828
875.298	5744
875.323	5687
875.381	5578
875.430	7470
875.465	8784
875.538	8445
875.548	8381
875.631	7583
875.646	7184
875.714	5264
875.753	5077
875.798	5058
875.861	6392
875.881	6735
875.964	8062
875.968	7902
876.047	4993
876.076	5481
876.130	6558
876.183	6778
876.213	6864
876.291	7981
876.296	8057
876.379	6680
876.398	6544
876.462	5962
876.506	5431
876.545	4999
876.613	5340
876.628	5451
876.711	6581
876.721	6614
876.794	6984
876.828	7402
876.877	7667
876.935	6746
876.960	6395
877.043	4406
877.043	4413
877.125	6545
877.150	6825
877.208	7173
877.258	7262
877.291	7204
877.365	4981
877.374	4739
877.456	5716
877.472	5483
877.539	4682
877.579	5243
877.622	5938
877.687	6965
877.704	7149
877.787	6660
877.794	6624
877.869	6462
877.901	6803
877.952	7179
878.008	5782
878.034	5042
878.115	4092
878.117	4087
878.199	4641
878.222	5065
878.282	6201
878.329	6389
878.364	6489
878.437	7361
878.447	7400
878.529	4982
878.544	4964
878.611	4935
878.651	4588
878.694	4746
878.758	6587
878.776	6961
878.858	6169
878.865	6220
878.941	6712
878.972	5995
879.023	4611
879.078	4263
879.105	4463
879.185	6331
879.187	6356
879.269	6124
879.292	6040
879.351	5897
879.399	6020
879.433	5959
879.506	4344
879.516	4185
879.598	5319
879.613	5219
879.680	4655
879.720	4577
879.762	4815
879.827	5545
879.844	5519
879.926	4874
879.933	4895
880.007	5708
880.040	5556
880.089	5208
880.147	4521
880.171	4459
880.253	7119
880.254	7119
880.335	6064
880.360	5936
880.417	6827
880.467	7590
880.499	7842
880.574	8436
880.580	8460
880.662	7707
880.680	7654
880.744	6800
880.787	5313
880.825	4159
880.893	4771
880.907	5049
880.989	4757
881.000	4822
881.070	5177
881.106	5516
881.152	5791
881.213	5197
881.233	4857
881.315	4238
881.319	4254
881.396	5884
881.426	5947
881.478	5355
881.532	5492
881.559	5893
881.639	6963
881.641	6958
881.722	5711
881.745	5272
881.803	4852
881.852	5530
881.885	5950
881.958	5344
881.966	5268
882.047	5124
882.064	5182
882.129	5517
882.171	5403
882.210	4669
882.277	3161
882.291	3100
882.372	3812
882.383	3995
882.454	6444
882.489	6854
882.535	6380
882.596	6564
882.616	6722
882.697	6948
882.702	6887
882.778	4801
882.808	4550
882.859	4480
882.914	3973
882.940	3975
883.020	4728
883.021	4738
883.102	4876
883.127	5399
883.183	6857
883.233	7108
883.264	6743
883.339	5770
883.345	5613
883.426	3380
883.445	3093
883.507	3433
883.551	3522
883.587	4069
883.657	5505
883.668	5708
883.749	6890
883.763	6979
883.830	6059
883.869	5413
883.910	4578
883.975	3900
883.991	4052
884.072	4554
884.081	4597
884.152	5411
884.187	5981
884.233	6643
884.292	7366
884.314	7076
884.394	4478
884.398	4406
884.475	3258
884.504	2710
884.555	3064
884.610	3784
884.636	3914
884.716	4014
884.716	4030
884.797	6596
884.821	7099
884.877	6948
884.927	6594
884.958	6113
885.033	4978
885.038	4905
885.118	3679
885.139	3411
885.199	3294
885.244	3453
885.279	3959
885.350	4822
885.359	5040
885.439	7139
885.456	7392
885.520	7018
885.561	6680
885.600	5366
885.667	3499
885.680	3623
885.760	4760
885.773	4821
885.840	4309
885.878	4193
885.920	3865
885.984	3515
886.000	3831
886.080	5214
886.089	5336
886.160	5177
886.195	5179
886.240	5623
886.300	5899
886.320	5613
886.400	5081
886.406	4999
886.480	4619
886.511	4576
886.560	4405
886.616	4149
886.640	4184
886.720	4435
886.722	4429
886.800	3934
886.827	3859
886.879	4363
886.932	4826
886.959	5164
887.038	6364
887.039	6374
887.119	6156
887.143	6207
887.198	5350
887.248	4400
887.278	4576
887.354	5133
887.358	5156
887.437	5415
887.459	5511
887.517	5758
887.564	5837
887.596	5795
887.669	5628
887.676	5457
887.755	3244
887.774	2758
887.835	3071
887.880	3252
887.914	3568
887.985	4260
887.994	4395
888.073	5450
888.090	5712
888.153	7598
888.195	8554
888.232	7266
888.300	5114
888.311	5040
888.391	4430
888.405	4328
888.470	4297
888.510	4184
888.549	4213
888.615	4442
888.628	4585
888.708	5359
888.720	5457
888.787	6124
888.825	6458
888.866	5512
888.930	4069
888.945	3862
889.024	2800
889.035	2662
889.103	5487
889.140	6903
889.182	5949
889.245	4623
889.261	4682
889.340	4905
889.349	4923
889.419	5161
889.454	5283
889.498	4779
889.559	4064
889.577	4187
889.656	4723
889.664	4776
889.735	5873
889.768	6376
889.814	5702
889.873	4784
889.978	5292
890.083	4883
890.187	4429
890.292	6418
890.397	4153
890.501	4838
890.606	3524
890.710	4388
890.815	5584
890.919	5994
891.024	4939
891.128	4884
891.233	3985
891.337	4794
891.442	6755
891.546	4980
891.650	4788
891.755	4554
891.859	5192
891.963	6053
892.068	5747
892.172	4704
892.276	3075
892.380	4222
892.484	5109
892.589	8457
892.693	6104
892.797	4058
892.901	3394
893.005	3884
893.109	5612
893.213	7051
893.317	5869
893.421	4035
893.525	2973
893.629	2938
893.733	5243
893.837	4822
893.941	4112
894.045	4120
894.148	2884
894.252	3268
894.356	5031
894.460	8609
894.564	4140
894.667	4702
894.771	3001
894.875	2251
894.978	3130
895.082	4384
895.186	5801
895.289	6015
895.393	3654
895.496	4946
895.600	5471
895.703	3454
895.807	3914
895.910	4474
896.014	4912
896.117	3988
896.221	4138
896.324	5090
896.427	3934
896.531	3119
896.634	3229
896.737	4488
896.840	3746
896.944	5386
897.047	5712
897.150	4768
897.253	4292
897.356	3578
897.460	3004
897.563	2878
897.666	4688
897.769	6288
897.872	3294
897.975	2969
898.078	4022
898.181	3626
898.284	2832
898.387	5053
898.490	6140
898.593	3759
898.695	2738
898.798	3952
898.901	3065
899.004	3361
899.107	3961
899.209	3606
899.312	5578
899.415	5357
899.518	2572
899.620	1603
899.723	3298
899.826	3387
899.928	2758
900.031	4109
900.133	5762
900.236	5598
900.338	3458
900.441	2837
900.543	2651
900.646	4006
900.748	4046
900.851	4562
900.953	5057
901.055	3631
901.158	3826
901.260	3526
901.362	2097
901.465	2814
901.567	3521
901.669	5109
901.771	3678
901.873	3364
901.976	3171
902.078	4154
902.180	3171
902.282	1956
902.384	2431
902.486	4909
902.588	5559
902.690	2786
902.792	1567
902.894	2987
902.996	4281
903.098	4286
903.200	3763
903.302	2518
903.404	2800
903.505	2676
903.607	2850
903.709	4001
903.811	5925
903.913	4835
904.014	3052
904.116	2924
904.218	2812
904.319	3363
904.421	5149
904.523	5366
904.624	3677
904.726	3089
904.827	2393
904.929	2384
905.030	2822
905.132	4003
905.233	6105
905.335	2884
905.436	3096
905.537	2804
905.639	3054
905.740	3036
905.841	4392
905.943	5232
906.044	3643
906.145	2932
906.247	2297
906.348	2726
906.449	2639
906.550	4432
906.651	3383
906.752	2493
906.854	3162
906.955	2589
907.056	3493
907.157	3794
907.258	5201
907.359	3087
907.460	2427
907.561	1279
907.662	2167
907.762	2350
907.863	3630
907.964	3891
908.065	3688
908.166	2799
908.267	3021
908.367	2419
908.468	2391
908.569	3296
908.670	3887
908.770	4128
908.871	3297
908.971	4239
909.072	3208
909.173	2501
909.273	2530
909.374	4003
909.474	4684
909.575	2369
909.675	2773
909.776	3057
909.876	3436
909.977	2888
910.077	3349
910.177	3591
910.278	5178
910.378	2754
910.478	2062
910.579	4176
910.679	3698
910.779	4174
910.879	3534
910.980	3744
911.080	4265
911.180	3803
911.280	2514
911.380	2203
911.480	2133
911.580	2512
911.680	4001
911.780	3720
911.880	3782
911.980	3284
912.080	2051
912.180	3858
912.280	3852
912.380	2780
912.480	2956
912.580	2774
912.679	2933
912.779	3811
912.879	3390
912.979	3067
913.078	3042
913.178	2261
913.278	2317
913.377	2336
913.477	1794
913.577	2791
913.676	3346
913.776	3587
913.875	4010
913.975	3162
914.074	2936
914.174	3880
914.273	3333
914.373	2277
914.472	2296
914.572	2502
914.671	2474
914.770	2659
914.870	2801
914.969	1654
915.068	3176
915.167	4179
915.267	3149
915.366	3090
915.465	3552
915.564	2905
915.663	3405
915.763	3739
915.862	4330
915.961	3976
916.060	4021
916.159	3233
916.258	3283
916.357	2399
916.456	3151
916.555	3276
916.654	3056
916.752	4100
916.851	4495
916.950	2466
917.049	3061
917.148	2061
917.247	3429
917.345	2749
917.444	2587
917.543	2771
917.642	2397
917.740	3615
917.839	4763
917.937	5316
918.036	4743
918.135	2946
918.233	2798
918.332	3226
918.430	3169
918.529	2867
918.627	3502
918.726	4242
918.824	3667
918.923	3622
919.021	2727
919.119	3719
919.218	2571
919.316	2669
919.414	3685
919.512	4435
919.611	5168
919.709	3777
919.807	4802
919.905	5771
920.003	5284
920.102	5066
920.200	5298
920.298	5106
920.396	5608
920.494	5506
920.592	4569
920.690	4650
920.788	4916
920.886	5314
920.984	5662
921.082	5443
921.180	7057
921.277	5683
921.375	6817
921.473	9383
921.571	11476
921.669	8649
921.766	8281
921.864	8629
921.962	10155
922.060	8924
922.157	9341
922.255	9941
922.352	9127
922.450	9969
922.548	9984
922.645	10097
922.743	13969
922.840	19307
922.938	27796
923.035	24782
923.133	22928
923.230	23822
923.327	30913
923.425	31786
923.522	27330
923.619	29023
923.717	25071
923.814	24253
923.911	23364
924.008	24414
924.106	24294
924.203	21844
924.300	23108
924.397	23389
924.494	23015
924.591	22185
924.688	22439
924.786	22123
924.883	22662
924.979	23102
925.077	23841
925.173	21184
925.270	22743
925.367	22613
925.464	23295
925.561	23983
925.658	25970
925.755	22763
925.852	22109
925.948	23232
926.045	21753
926.142	21290
926.239	23469
926.335	19963
926.432	19062
926.529	22746
926.625	23417
926.722	22988
926.818	17588
926.915	21813
927.011	22979
927.108	20668
927.204	21670
927.301	19453
927.397	18825
927.494	25309
927.590	21759
927.687	14805
927.783	21403
927.879	23537
927.976	22286
928.072	17443
928.168	19290
928.264	21012
928.361	18229
928.457	21357
928.553	20738
928.649	16840
928.745	21430
928.841	18065
928.937	18222
929.033	20693
929.129	17733
929.225	20711
929.321	21331
929.417	15429
929.513	18383
929.609	19398
929.705	16062
929.801	18937
929.897	18048
929.993	16689
930.089	18377
930.184	17055
930.280	15997
930.376	21159
930.471	20142
930.567	15194
930.663	15598
930.758	16852
930.854	15957
930.950	17244
931.045	16678
931.141	14158
931.236	18468
931.332	21022
931.427	14070
931.523	17103
931.618	20462
931.714	14454
931.809	12669
931.905	17795
932.000	16388
932.095	10720
932.191	16316
932.286	20206
932.381	19846
932.476	14273
932.572	14427
932.667	14968
932.762	13183
932.857	14871
932.952	17633
933.047	18705
933.142	13904
933.237	13560
933.332	15972
933.427	17131
933.522	16688
933.617	13300
933.712	13050
933.807	14981
933.902	19084
933.997	17982
934.092	16456
934.187	12506
934.282	16297
934.376	14251
934.471	17524
934.566	14658
934.661	12115
934.755	13797
934.850	17054
934.945	15621
935.039	11909
935.134	11307
935.228	10961
935.323	17818
935.417	16663
935.512	9422
935.606	10094
935.701	13395
935.795	15361
935.890	14792
935.984	11584
936.079	10683
936.173	11631
936.267	12941
936.362	11859
936.456	11576
936.550	15340
936.644	16900
936.738	12040
936.833	10908
936.927	9516
937.021	9311
937.115	12398
937.209	13820
937.303	14420
937.397	10002
937.491	10900
937.585	13642
937.679	15006
937.773	11759
937.867	9861
937.961	8571
938.055	12247
938.149	16865
938.243	10151
938.337	7816
938.430	8752
938.524	13078
938.618	14379
938.712	10204
938.805	9988
938.899	11325
938.993	16168
939.086	12384
939.180	7542
939.274	8047
939.367	10801
939.461	14871
939.554	11854
939.648	9499
939.741	9080
939.835	10176
939.928	13883
940.022	14380
940.115	11836
940.208	12113
940.302	14094
940.395	16038
940.488	13149
940.582	10630
940.675	9307
940.768	8393
940.861	11144
940.954	13929
941.048	10438
941.141	7407
941.234	7493
941.327	10982
941.420	10643
941.513	12030
941.606	12267
941.699	8317
941.792	10719
941.885	13239
941.978	10958
942.071	11649
942.164	10312
942.257	7315
942.349	9116
942.442	10785
942.535	10402
942.628	8283
942.721	8941
942.813	9795
942.906	10166
942.999	9969
943.091	8237
943.184	8754
943.277	10430
943.369	9005
943.462	5480
943.554	7950
943.647	9209
943.739	9807
943.832	12999
943.924	9299
944.017	5925
944.109	6779
944.201	8123
944.294	8642
944.386	7833
944.478	8880
944.571	8337
944.663	7860
944.755	8674
944.847	9736
944.940	9977
945.032	8335
945.124	6030
945.216	7455
945.308	7985
945.400	9481
945.492	8020
945.584	8633
945.676	11664
945.768	10732
945.860	9035
945.952	10229
946.044	10954
946.136	7233
946.228	7088
946.320	6956
946.412	8150
946.503	9562
946.595	11725
946.687	8314
946.779	6078
946.870	5742
946.962	7287
947.054	6552
947.145	7748
947.237	8951
947.329	6748
947.420	8540
947.512	8571
947.603	6237
947.695	5607
947.786	7097
947.878	6510
947.969	7128
948.061	8048
948.152	9735
948.243	6321
948.335	5101
948.426	4993
948.517	6545
948.609	8915
948.700	8773
948.791	7796
948.882	6028
948.973	5091
949.065	6715
949.156	8574
949.247	5725
949.338	6206
949.429	5679
949.520	4946
949.611	6022
949.702	8271
949.793	7065
949.884	6489
949.975	6998
950.066	4963
950.157	5142
950.247	5821
950.338	4884
950.429	4060
950.520	6075
950.611	5754
950.701	4869
950.792	7625
950.883	8618
950.973	6356
951.064	6250
951.155	8222
951.245	7545
951.336	8143
951.427	7800
951.517	9803
951.608	8111
951.698	6826
951.788	5976
951.879	3949
951.969	4054
952.060	5624
952.150	5512
952.240	7451
952.331	8454
952.421	7364
952.511	6301
952.602	4418
952.692	4014
952.782	5408
952.872	4495
952.962	6377
953.052	7268
953.143	5430
953.233	5678
953.323	4851
953.413	6561
953.503	8112
953.593	6453
953.683	6660
953.773	4564
953.863	4852
953.953	3835
954.042	5068
954.132	5454
954.222	7247
954.312	5739
954.402	4598
954.492	5899
954.581	4984
954.671	6347
954.761	4779
954.850	6352
954.940	4427
955.030	2935
955.119	4083
955.209	3636
955.298	4619
955.388	6422
955.477	7476
955.567	5225
955.656	4191
955.746	5061
955.835	4699
955.925	4118
956.014	4698
956.103	6449
956.193	7784
956.282	8296
956.371	5652
956.461	5569
956.550	6447
956.639	5198
956.728	5346
956.817	5163
956.906	5072
956.995	6009
957.085	5605
957.174	5544
957.263	4254
957.352	4438
957.441	4336
957.530	5155
957.619	4403
957.708	4428
957.796	4586
957.885	4788
957.974	4505
958.063	4735
958.152	4458
958.241	3417
958.329	3275
958.418	3300
958.507	4343
958.596	6157
958.684	5279
958.773	5107
958.861	4568
958.950	3342
959.039	3150
959.127	2869
959.216	4545
959.304	4330
959.393	4846
959.481	4692
959.570	4025
959.658	2481
959.746	3935
959.835	3004
959.923	3153
960.011	3280
960.100	4266
960.188	4551
960.276	6036
960.365	4851
960.453	3680
960.541	3015
960.629	3797
960.717	3517
960.805	2337
960.893	2702
960.981	4037
961.069	5746
961.158	6053
961.245	8159
961.333	6215
961.421	5102
961.509	3795
961.597	4234
961.685	4699
961.773	3988
961.861	4836
961.949	4996
962.036	5498
962.124	4143
962.212	2696
962.299	3034
962.387	3605
962.475	4096
962.562	3790
962.650	4806
962.738	3918
962.825	2878
962.913	2732
963.000	2472
963.088	4897
963.175	4701
963.263	3807
963.350	3606
963.438	3956
963.525	3130
963.612	3325
963.700	3206
963.787	4692
963.874	4810
963.962	4610
964.049	2220
964.136	3108
964.223	3185
964.310	2754
964.398	2995
964.485	3146
964.572	4180
964.659	3982
964.746	3009
964.833	3084
964.920	3021
965.007	2911
965.094	3322
965.181	3055
965.268	4394
965.355	4779
965.441	3152
965.528	3247
965.615	3633
965.702	3666
965.789	2856
965.875	3320
965.962	4675
966.049	4442
966.136	4260
966.222	5894
966.309	5450
966.395	5981
966.482	5039
966.569	5209
966.655	4036
966.742	4268
966.828	3852
966.915	2576
967.001	2963
967.087	2232
967.174	2086
967.260	2907
967.347	3260
967.433	3023
967.519	3311
967.605	4242
967.692	3984
967.778	4139
967.864	2976
967.950	2670
968.036	3275
968.123	3435
968.209	2859
968.295	2771
968.381	3818
968.467	3345
968.553	2112
968.639	3563
968.725	3296
968.811	5260
968.897	5438
968.983	4114
969.069	3555
969.154	2622
969.240	2999
969.326	2757
969.412	1521
969.497	2532
969.583	1792
969.669	2870
969.755	3925
969.840	3886
969.926	5169
970.012	8167
970.097	10484
970.183	10934
970.268	6518
970.354	5288
970.439	3548
970.525	3995
970.610	2434
970.696	3770
970.781	3350
970.866	2412
970.952	2586
971.037	2910
971.122	3180
971.208	4418
971.293	2976
971.378	2395
971.463	4024
971.549	3269
971.634	2100
971.719	3328
971.804	3114
971.889	3158
971.974	2597
972.059	3069
972.144	3396
972.229	2928
972.314	3011
972.399	3569
972.484	2085
972.569	2662
972.654	1928
972.739	2798
972.824	2419
972.908	3094
972.993	3031
973.078	2966
973.163	2329
973.247	3577
973.332	2539
973.417	4069
973.501	3248
973.586	3250
973.671	3764
973.755	3130
973.840	3100
973.924	3489
974.009	4441
974.093	5417
974.178	7187
974.262	5873
974.346	3956
974.431	3561
974.515	3198
974.600	3611
974.684	4456
974.768	3552
974.852	4050
974.937	2863
975.021	3742
975.105	2988
975.189	2786
975.273	3466
975.358	2814
975.442	2227
975.526	3040
975.610	2686
975.694	2991
975.778	3595
975.862	2614
975.946	2181
976.030	4219
976.114	3602
976.198	2396
976.281	2572
976.365	3664
976.449	3035
976.533	3728
976.617	2998
976.700	2622
976.784	2549
976.868	3861
976.951	2626
977.035	2682
977.119	2908
977.202	3151
977.286	3613
977.369	5163
977.453	6506
977.536	8107
977.620	6605
977.703	5547
977.787	4048
977.870	5105
977.953	5020
978.037	4350
978.120	4023
978.203	3757
978.287	3891
978.370	4087
978.453	3528
978.536	3154
978.620	3761
978.703	3278
978.786	4464
978.869	3142
978.952	3047
979.035	4280
979.118	4285
979.201	3524
979.284	3435
979.367	3317
979.450	3842
979.533	2846
979.616	3235
979.699	2431
979.782	4177
979.865	3319
979.948	3230
980.030	2142
980.113	3793
980.196	2659
980.279	4283
980.361	3002
980.444	3952
980.526	4239
980.609	5404
980.692	8062
980.774	9431
980.857	6295
980.939	6391
981.022	4646
981.104	5143
981.187	4169
981.269	5076
981.352	4192
981.434	3430
981.516	4672
981.599	5015
981.681	3493
981.763	3589
981.846	4320
981.928	4092
982.010	4440
982.092	4001
982.174	4984
982.256	4253
982.339	4371
982.421	4312
982.503	3335
982.585	3750
982.667	3734
982.749	4039
982.831	4120
982.913	4542
982.995	4637
983.077	3328
983.158	5434
983.240	5237
983.322	4709
983.404	7131
983.486	8926
983.568	9153
983.649	7570
983.731	7141
983.813	5432
983.894	6563
983.976	5605
984.058	7231
984.139	6085
984.221	4090
984.302	5155
984.384	5479
984.465	5497
984.547	6018
984.628	5401
984.710	5638
984.791	5615
984.872	5504
984.954	6271
985.035	6294
985.116	5728
985.198	5545
985.279	5994
985.360	4704
985.441	4386
985.522	5045
985.604	5758
985.685	4687
985.766	6323
985.847	6047
985.928	5587
986.009	5759
986.090	5395
986.171	5952
986.252	5184
986.333	5823
986.414	5167
986.495	5659
986.576	5648
986.656	6475
986.737	6328
986.818	6219
986.899	6155
986.980	6398
987.060	6539
987.141	6660
987.222	6594
987.302	7551
987.383	8125
987.464	8565
987.544	9161
987.625	7699
987.705	8139
987.786	8264
987.866	7979
987.947	8001
988.027	8382
988.108	8230
988.188	7258
988.268	7037
988.349	7156
988.429	7672
988.509	7386
988.589	6639
988.670	5645
988.750	7636
988.830	6411
988.910	6731
988.990	7317
989.070	6914
989.151	6636
989.231	6297
989.311	6279
989.391	6708
989.471	6207
989.551	6477
989.631	6329
989.711	5642
989.791	6883
989.870	6357
989.950	7230
990.030	6199
990.110	8037
990.190	5774
990.269	5768
990.349	5335
990.429	6564
990.509	6032
990.588	4379
990.668	5138
990.747	5922
990.827	5113
990.907	5282
990.986	5250
991.066	6102
991.145	4800
991.225	5043
991.304	5766
991.383	5750
991.463	5423
991.542	5233
991.622	5446
991.701	4287
991.780	5064
991.859	4563
991.939	4410
992.018	5572
992.097	6364
992.176	5253
992.256	4454
992.335	3929
992.414	5784
992.493	4823
992.572	3910
992.651	4553
992.730	4704
992.809	4610
992.888	3646
992.967	4354
993.046	5090
993.125	3451
993.203	3272
993.282	4558
993.361	4756
993.440	4629
993.519	3213
993.597	4172
993.676	4055
993.755	4635
993.834	3569
993.912	3470
993.991	3006
994.069	2828
994.148	3033
994.226	4092
994.305	3109
994.384	3458
994.462	4161
994.540	4883
994.619	3489
994.697	2541
994.776	3330
994.854	4484
994.932	3636
995.011	3167
995.089	3297
995.167	3338
995.245	2773
995.324	2137
995.402	3646
995.480	3799
995.558	2715
995.636	2434
995.714	2693
995.792	3308
995.870	4111
995.948	2167
996.026	2781
996.104	1622
996.182	3173
996.260	2081
996.338	2109
996.416	2155
996.494	2999
996.572	3952
996.649	2701
996.727	1990
996.805	3193
996.883	2731
996.960	3134
997.038	2415
997.116	2584
997.193	1781
997.271	3228
997.348	1777
997.426	1522
997.504	1516
997.581	3637
997.658	2797
997.736	747
997.813	988
997.891	2176
997.968	2833
998.046	1481
998.123	1889
998.200	2406
998.277	2412
998.355	3110
998.432	1206
998.509	1687
998.586	1795
998.663	2596
998.741	2009
998.818	899
998.895	1306
998.972	2001
999.049	1920
999.126	2309
999.203	1907
999.280	1594
999.357	984
999.434	1831
999.511	1894
999.587	1823
999.664	853
999.741	1201
999.818	2076
999.895	1649
999.971	1826
1000.048	1751
1000.125	1541
1000.202	1333
1000.278	1780
1000.355	2156
1000.431	1971
1000.508	1108
1000.584	1243
1000.661	900
1000.738	930
1000.814	1265
1000.890	1781
1000.967	1398
1001.043	1686
1001.120	1214
1001.196	1281
1001.272	645
1001.349	1635
1001.425	659
1001.501	754
1001.577	1168
1001.654	1172
1001.730	809
1001.806	1291
1001.882	267
1001.958	1070
1002.034	1729
1002.110	1027
1002.186	610
1002.262	92
1002.338	553
1002.414	975
1002.490	1488
1002.566	262
1002.642	442
1002.718	1764
1002.794	1471
1002.870	1416
1002.945	661
1003.021	550
1003.097	256
1003.173	1894
1003.248	33
1003.324	1392
1003.400	497
1003.475	378
1003.551	439
1003.626	534
1003.702	814
1003.777	819
1003.853	290
1003.928	234
1004.004	-48
1004.079	228
1004.155	4
1004.230	790
1004.305	1547
1004.381	617
1004.456	47
1004.531	289
1004.607	-191
1004.682	-366
1004.757	922
1004.832	212
1004.907	447
1004.982	679
1005.057	1145
1005.133	124
1005.208	871
1005.283	-144
1005.358	264
1005.433	-235
1005.508	-228
1005.583	451
1005.657	-45
1005.732	965
1005.807	672
1005.882	-269
1005.957	-563
1006.032	96
1006.106	101
1006.181	219
1006.256	558
1006.331	434
1006.405	-535
1006.480	-72
1006.554	-1127
1006.629	-404
1006.704	-301
1006.778	462
1006.853	364
1006.927	214
1007.002	-358
1007.076	247
1007.150	-530
1007.225	-44
1007.299	322
1007.373	-1254
1007.448	-191
1007.522	361
1007.596	-672
1007.671	-1153
1007.745	494
1007.819	-415
1007.893	16
1007.967	320
1008.041	220
1008.115	455
1008.190	-537
1008.264	-494
1008.338	-337
1008.412	-438
1008.486	56
1008.560	-636
1008.633	-426
1008.707	488
1008.781	1016
1008.855	533
1008.929	479
1009.003	-141
1009.076	-593
1009.150	-140
1009.224	-134
1009.298	-493
1009.371	-551
1009.445	340
1009.519	175
1009.592	-299
1009.666	375
1009.739	-526
1009.813	-71
1009.886	165
1009.960	-1024
1010.033	-218
1010.107	-126
1010.180	242
1010.253	-204
1010.327	-263
1010.400	-466
1010.473	112
1010.547	-231
1010.620	82
1010.693	-342
1010.766	-1004
1010.840	359
1010.913	119
1010.986	-685
1011.059	-185
1011.132	-812
1011.205	-165
1011.278	-245
1011.351	76
1011.424	-58
1011.497	297
1011.570	-94
1011.643	-632
1011.716	-641
1011.789	-123
1011.862	-194
1011.934	-186
1012.007	-1116
1012.080	-437
1012.153	-1110
1012.225	-635
1012.298	-168
1012.371	-172
1012.443	-277
1012.516	-494
1012.588	113
1012.661	-373
1012.733	-55
1012.806	87
1012.879	-392
1012.951	-911
1013.023	-775
1013.096	131
1013.168	-1708
1013.241	-369
1013.313	-1176
1013.385	-1082
1013.458	-470
1013.530	-1048
1013.602	-457
1013.674	-540
1013.746	-548
1013.819	-1330
1013.891	-423
1013.963	-953
1014.035	-1002
1014.107	-115
1014.179	-821
1014.251	-1551
1014.323	-1041
1014.395	-409
1014.467	135
1014.539	121
1014.611	-948
1014.683	-1030
1014.754	-751
1014.826	-1363
1014.898	-627
1014.970	-939
1015.042	379
1015.113	-621
1015.185	-193
1015.257	-851
1015.328	-1170
1015.400	-624
1015.471	-283
1015.543	-814
1015.615	-534
1015.686	-707
1015.757	-224
1015.829	220
1015.901	-1082
1015.972	-125
1016.043	-370
1016.115	-1187
1016.186	-415
1016.257	-1308
1016.328	56
1016.400	-172
1016.471	-849
1016.542	-1475
1016.613	-1236
1016.685	-939
1016.756	-130
1016.827	-871
1016.898	-1637
1016.969	-138
1017.040	-1220
1017.111	-1009
1017.182	-1020
1017.253	-761
1017.324	-1602
1017.395	-977
1017.466	-1031
1017.537	-1220
1017.608	-1242
1017.678	-1004
1017.749	-1218
1017.820	-751
1017.891	-1221
1017.961	-1082
1018.032	-1101
1018.103	-794
1018.173	-786
1018.244	-661
1018.315	-889
1018.385	-1006
1018.456	-1164
1018.526	-659
1018.597	-1631
1018.667	-867
1018.738	-958
1018.808	-688
1018.878	-1117
1018.949	-1330
1019.019	-1042
1019.089	-1117
1019.160	-545
1019.230	-1746
1019.300	-1314
1019.371	-1344
1019.441	-285
1019.511	-973
1019.581	-1246
1019.651	-1112
1019.721	-1414
1019.791	-985
1019.861	-1823
1019.931	-881
1020.001	-1151
1020.071	-985
1020.141	-1017
1020.211	-1304
1020.281	-1447
1020.351	-1848
1020.421	-916
1020.491	-919
1020.560	-1666
1020.630	-521
1020.700	-1117
1020.770	-857
1020.839	-1355
1020.909	-748
1020.979	-1475
1021.048	-860
1021.118	-830
1021.187	-1016
1021.257	-965
1021.326	-1252
1021.396	-597
1021.465	-396
1021.535	-652
1021.604	-1409
1021.674	-966
1021.743	-1250
1021.812	-1760
1021.882	-640
1021.951	-436
1022.020	-1053
1022.089	-554
1022.159	-756
1022.228	-416
1022.297	-334
1022.366	-812
1022.435	-1748
1022.504	-2080
1022.573	-1606
1022.642	-928
1022.711	-322
1022.781	-1003
1022.849	-1271
1022.918	-1409
1022.987	-1228
1023.056	-1678
1023.125	-2007
1023.194	-1424
1023.263	-843
1023.331	-639
1023.400	-1315
1023.469	-1558
1023.538	-1030
1023.606	-1332
1023.675	-1189
1023.744	-2083
1023.812	-1235
1023.881	-1568
1023.949	-663
1024.018	-840
1024.086	-1497
1024.155	-1192
1024.223	-1039
1024.292	-1037
1024.360	-1516
1024.429	-1213
1024.497	-1960
1024.565	-877
1024.634	-1585
1024.702	-1710
1024.770	-1936
1024.838	-1686
1024.907	-1088
1024.975	-1531
1025.043	-992
1025.111	-1329
1025.179	-2036
1025.247	-1609
1025.315	-2252
1025.383	-1833
1025.451	-2161
1025.519	-1421
1025.587	-1824
1025.655	-699
1025.723	-2088
1025.791	-1406
1025.859	-849
1025.927	-1292
1025.995	-2300
1026.062	-1447
1026.130	-1747
1026.198	-1180
1026.266	-1246
1026.333	-1373
1026.401	-1781
1026.469	-1363
1026.536	-1075
1026.604	-1899
1026.671	-1408
1026.739	-1545
1026.806	-1846
1026.874	-2523
1026.941	-1431
1027.009	-1043
1027.076	-2624
1027.144	-904
1027.211	-2776
1027.278	-1532
1027.345	-1393
1027.413	-1452
1027.480	-2055
1027.547	-1150
1027.614	-580
1027.682	-1266
1027.749	-1882
1027.816	-1938
1027.883	-2076
1027.950	-1255
1028.017	-1829
1028.084	-1458
1028.151	-2490
1028.218	-1408
1028.285	-2198
1028.352	-2145
1028.419	-1885
1028.486	-1655
1028.553	-2202
1028.619	-1835
1028.686	-1908
1028.753	-2046
1028.820	-1390
1028.886	-1786
1028.953	-1502
1029.020	-1691
1029.086	-2329
1029.153	-1879
1029.220	-2405
1029.286	-1368
1029.353	-1745
1029.419	-1679
1029.486	-1720
1029.552	-1400
1029.619	-1664
1029.685	-1555
1029.751	-1631
1029.818	-1797
1029.884	-2070
1029.951	-623
1030.017	-1616
1030.083	-766
1030.149	-2214
1030.216	-2226
1030.282	-1644
1030.348	-2848
1030.414	-2427
1030.480	-1865
1030.546	-1708
1030.612	-1571
1030.678	-2283
1030.744	-1519
1030.810	-1735
1030.876	-1708
1030.942	-2021
1031.008	-2025
1031.074	-2466
1031.140	-2621
1031.206	-1972
1031.272	-2283
1031.337	-1456
1031.403	-1362
1031.469	-2436
1031.534	-1850
1031.600	-1324
1031.666	-2046
1031.731	-1877
1031.797	-1646
1031.863	-2710
1031.928	-1831
1031.994	-2489
1032.059	-1374
1032.125	-2257
1032.190	-2369
1032.256	-3027
1032.321	-2243
1032.386	-1941
1032.452	-1594
1032.517	-1941
1032.582	-1426
1032.647	-1690
1032.713	-2131
1032.778	-1154
1032.843	-2386
1032.908	-1756
1032.974	-1582
1033.039	-1611
1033.104	-1814
1033.169	-2336
1033.234	-1752
1033.299	-1653
1033.364	-1948
1033.429	-1694
1033.494	-598
1033.559	-1561
1033.624	-2298
1033.688	-2624
1033.753	-1914
1033.818	-1415
1033.883	-933
1033.948	-411
1034.013	-609
1034.077	173
1034.142	998
1034.207	885
1034.271	1882
1034.336	3682
1034.400	4234
1034.465	2380
1034.530	-356
1034.594	-461
1034.658	-1475
1034.723	-1338
1034.787	-2168
1034.852	-1731
1034.916	-2065
1034.981	-1436
1035.045	-1730
1035.109	-2187
1035.173	-1333
1035.238	-1454
1035.302	-1635
1035.366	-1190
1035.430	-2038
1035.495	-2087
1035.559	-1527
1035.623	-1783
1035.687	-2089
1035.751	-933
1035.815	-2189
1035.879	-1525
1035.943	-2334
1036.007	-2366
1036.071	-2289
1036.135	-2133
1036.198	-2357
1036.262	-2319
1036.326	-1751
1036.390	-2789
1036.454	-1583
1036.517	-2107
1036.581	-2075
1036.645	-1919
1036.709	-888
1036.772	-2340
1036.836	-1564
1036.900	-1527
1036.963	-1905
1037.026	-1354
1037.090	-2058
1037.154	-1159
1037.217	-2352
1037.280	-2873
1037.344	-1167
1037.407	-1996
1037.471	-1774
1037.534	-1070
1037.597	-1563
1037.661	-1439
1037.724	-1100
1037.787	-1139
1037.850	-1316
1037.913	-2133
1037.977	-564
1038.040	-1985
1038.103	-2375
1038.166	-1798
1038.229	-1771
1038.292	-2586
1038.355	-2151
1038.418	-1441
1038.481	-1729
1038.544	-2107
1038.607	-1974
1038.670	-2340
1038.732	-2344
1038.795	-2139
1038.858	-2085
1038.921	-1480
1038.984	-1525
1039.046	-2362
1039.109	-2160
1039.172	-1909
1039.234	-547
1039.297	-1790
1039.360	-1663
1039.422	-1268
1039.485	-1902
1039.547	-3131
1039.610	-2106
1039.672	-1472
1039.734	-1591
1039.797	-1161
1039.859	-1889
1039.922	-1657
1039.984	-1779
1040.046	-2194
1040.109	-1991
1040.171	-2182
1040.233	-1649
1040.295	-2801
1040.358	-1814
1040.420	-1476
1040.482	-2368
1040.544	-2013
1040.606	-1751
1040.668	-2191
1040.730	-2110
1040.792	-1080
1040.854	-1642
1040.916	-1653
1040.978	-1946
1041.040	-1631
1041.102	-1788
1041.164	-962
1041.225	-2599
1041.287	-1513
1041.349	-1832
1041.411	-2022
1041.472	-1734
1041.534	-1750
1041.596	-2309
1041.657	-1139
1041.719	-1672
1041.781	-2526
1041.842	-1783
1041.904	-1446
1041.965	-2089
1042.027	-1800
1042.088	-1351
1042.150	-2466
1042.211	-2049
1042.272	-960
1042.334	-1872
1042.395	-2766
1042.456	-1815
1042.518	-1849
1042.579	-1344
1042.640	-1746
1042.701	-1918
1042.763	-1922
1042.824	-1397
1042.885	-1939
1042.946	-2079
1043.007	-1962
1043.068	-1470
1043.129	-1638
1043.190	-2310
1043.251	-1721
1043.312	-2251
1043.373	-1564
1043.434	-1431
1043.495	-1978
1043.556	-2399
1043.616	-1482
1043.677	-1808
1043.738	-1646
1043.799	-1343
1043.859	-1746
1043.920	-2050
1043.981	-1758
1044.041	-1775
1044.102	-1379
1044.162	-1879
1044.223	-2200
1044.284	-2365
1044.344	-1218
1044.405	-1285
1044.465	-1278
1044.525	-966
1044.586	-1972
1044.646	-1811
1044.707	-1597
1044.767	-1278
1044.827	-1794
1044.887	-1265
1044.948	-1924
1045.008	-1916
1045.068	-2016
1045.128	-1475
1045.188	-1207
1045.249	-1084
1045.309	-1804
1045.369	-2161
1045.429	-2044
1045.489	-1757
1045.549	-1474
1045.609	-1740
1045.669	-2896
1045.729	-1393
1045.789	-1986
1045.848	-1602
1045.908	-884
1045.968	-1269
1046.028	-1544
1046.088	-1518
1046.147	-1348
1046.207	-2140
1046.267	-689
1046.326	-940
1046.386	-1878
1046.446	-535
1046.505	-1200
1046.565	-760
1046.624	-1714
1046.684	-560
1046.743	-553
1046.803	181
1046.862	-196
1046.922	0
