'Start Wavelength	183.907
'End Wavelength	1046.922
'Gate Delay	5.000
'Gate Width (ms)	1.050
'Laser Output Level	0.000
'X Position	0.000
'Y Position	0.000
'Z Position	0.000
'Grid Point Number	1.000
'Shot Number	100.000
183.907	796.000
183.977	29.000
184.047	199
184.116	820
184.186	67
184.256	783
184.325	-416
184.395	73
184.465	473
184.534	844
184.604	300
184.674	589
184.743	-714
184.813	1139
184.883	678
184.952	286
185.022	1040
185.092	680
185.161	493
185.231	999
185.301	204
185.370	686
185.440	-375
185.509	1199
185.579	-47
185.649	365
185.718	583
185.788	289
185.857	449
185.927	353
185.996	-417
186.066	305
186.136	782
186.205	899
186.275	429
186.344	436
186.414	530
186.483	627
186.553	1536
186.622	1773
186.692	678
186.761	972
186.831	931
186.900	660
186.970	733
187.039	826
187.109	-30
187.178	877
187.248	909
187.317	745
187.387	1013
187.456	1031
187.526	467
187.595	1009
187.664	306
187.734	331
187.803	249
187.873	377
187.942	1330
188.012	1367
188.081	-445
188.150	552
188.220	1840
188.289	1863
188.358	655
188.428	605
188.497	-10
188.567	922
188.636	379
188.705	1007
188.775	-100
188.844	962
188.913	-25
188.983	399
189.052	515
189.121	1053
189.191	458
189.260	97
189.329	449
189.399	1258
189.468	480
189.537	655
189.606	459
189.676	437
189.745	-252
189.814	951
189.883	328
189.953	470
190.022	694
190.091	284
190.161	227
190.230	788
190.299	-105
190.368	586
190.437	559
190.507	922
190.576	250
190.645	979
190.714	424
190.783	967
190.853	749
190.922	1025
190.991	690
191.060	651
191.129	226
191.198	394
191.268	738
191.337	15
191.406	1380
191.475	1287
191.544	390
191.613	1733
191.682	426
191.752	1113
191.821	180
191.890	534
191.959	1186
192.028	894
192.097	5
192.166	603
192.235	-213
192.304	1374
192.373	-631
192.442	166
192.511	-10
192.580	-145
192.650	494
192.719	847
192.788	396
192.857	490
192.926	-507
192.995	680
193.064	1662
193.133	1170
193.202	520
193.271	906
193.340	-120
193.409	1199
193.478	1018
193.547	937
193.615	436
193.684	680
193.753	184
193.822	994
193.891	15
193.960	526
194.029	283
194.098	711
194.167	467
194.236	812
194.305	306
194.374	1073
194.443	505
194.512	1389
194.580	327
194.649	616
194.718	869
194.787	737
194.856	-25
194.925	1238
194.994	-201
195.062	1546
195.131	-18
195.200	1063
195.269	740
195.338	1451
195.407	214
195.475	1043
195.544	1470
195.613	-77
195.682	520
195.751	364
195.819	-360
195.888	1277
195.957	674
196.026	876
196.094	493
196.163	720
196.232	-437
196.301	599
196.369	196
196.438	482
196.507	1159
196.576	474
196.644	247
196.713	1105
196.782	161
196.850	510
196.919	936
196.988	688
197.056	14
197.125	778
197.194	670
197.262	683
197.331	614
197.400	362
197.468	283
197.537	783
197.606	397
197.674	503
197.743	84
197.812	21
197.880	371
197.949	-106
198.017	191
198.086	703
198.155	-192
198.223	1041
198.292	-452
198.360	372
198.429	-482
198.497	372
198.566	-471
198.635	665
198.703	331
198.772	944
198.840	215
198.909	475
198.977	-247
199.046	730
199.114	224
199.183	1147
199.251	204
199.320	729
199.388	209
199.457	699
199.525	-429
199.594	795
199.662	899
199.731	781
199.799	644
199.867	1103
199.936	540
200.004	1211
200.073	724
200.141	830
200.210	866
200.278	1316
200.346	1001
200.415	2133
200.483	1350
200.552	1228
200.620	348
200.688	1131
200.757	337
200.825	836
200.893	261
200.962	808
201.030	35
201.098	765
201.167	717
201.235	103
201.303	542
201.372	631
201.440	-60
201.508	788
201.577	1386
201.645	1233
201.713	512
201.781	863
201.850	608
201.918	1152
201.986	307
202.055	698
202.123	222
202.191	830
202.259	292
202.327	1159
202.396	685
202.464	902
202.532	242
202.600	2577
202.669	728
202.737	551
202.805	172
202.873	1123
202.941	532
203.009	1253
203.078	654
203.146	744
203.214	697
203.282	184
203.350	742
203.418	1849
203.487	943
203.555	721
203.623	575
203.691	664
203.759	-465
203.827	918
203.895	900
203.963	633
204.031	1644
204.099	1389
204.168	539
204.236	1314
204.304	1532
204.372	1272
204.440	306
204.508	270
204.576	-458
204.644	743
204.712	517
204.780	1401
204.848	1237
204.916	-79
204.984	188
205.052	604
205.120	-321
205.188	-306
205.256	147
205.324	1158
205.392	265
205.460	1379
205.528	307
205.596	346
205.664	311
205.732	677
205.799	126
205.867	1464
205.935	-179
206.003	1111
206.071	49
206.139	1146
206.207	976
206.275	800
206.343	167
206.411	879
206.478	456
206.546	920
206.614	741
206.682	1807
206.750	1380
206.818	2160
206.885	2100
206.953	1293
207.021	954
207.089	1108
207.157	125
207.225	1077
207.292	623
207.360	578
207.428	-211
207.496	1024
207.563	418
207.631	510
207.699	438
207.767	272
207.834	586
207.902	1058
207.970	263
208.038	1206
208.105	717
208.173	1222
208.241	25
208.309	1244
208.376	882
208.444	1558
208.512	1095
208.579	1581
208.647	2045
208.715	2150
208.782	1508
208.850	1014
208.918	265
208.985	912
209.053	-279
209.120	1152
209.188	425
209.256	617
209.323	-115
209.391	1123
209.459	732
209.526	1525
209.594	442
209.661	716
209.729	670
209.796	80
209.864	1287
209.932	444
209.999	1514
210.067	1508
210.134	148
210.202	974
210.269	1892
210.337	4102
210.404	1818
210.472	685
210.539	214
210.607	486
210.674	256
210.742	545
210.809	272
210.877	1167
210.944	228
211.012	519
211.079	1398
211.146	1413
211.214	2320
211.281	5565
211.349	2696
211.416	1649
211.484	951
211.551	974
211.618	943
211.686	1191
211.753	125
211.821	2187
211.888	1415
211.955	1648
212.023	943
212.090	1427
212.157	784
212.225	668
212.292	655
212.359	612
212.427	124
212.494	982
212.561	534
212.629	1276
212.696	214
212.763	1122
212.831	218
212.898	648
212.965	281
213.032	845
213.100	365
213.167	1009
213.234	996
213.301	815
213.369	707
213.436	1014
213.503	277
213.570	927
213.638	271
213.705	638
213.772	325
213.839	721
213.906	351
213.973	6
214.041	-1
214.108	499
214.175	519
214.242	809
214.309	505
214.376	743
214.444	678
214.511	1524
214.578	1286
214.645	1635
214.712	1296
214.779	2057
214.846	1071
214.913	1845
214.980	2821
215.048	4391
215.115	4410
215.182	2386
215.249	1801
215.316	1337
215.383	1250
215.450	2084
215.517	1157
215.584	1013
215.651	392
215.718	559
215.785	1009
215.852	837
215.919	958
215.986	820
216.053	228
216.120	780
216.187	483
216.254	1160
216.321	-25
216.388	968
216.455	213
216.522	467
216.589	796
216.656	1576
216.722	1151
216.789	550
216.856	257
216.923	330
216.990	887
217.057	386
217.124	1199
217.191	655
217.258	375
217.324	792
217.391	166
217.458	694
217.525	-254
217.592	475
217.659	150
217.725	637
217.792	1522
217.859	1038
217.926	518
217.993	779
218.059	1053
218.126	1366
218.193	1381
218.260	1111
218.327	752
218.393	1080
218.460	-276
218.527	604
218.594	1032
218.660	1091
218.727	706
218.794	196
218.860	282
218.927	826
218.994	399
219.061	594
219.127	919
219.194	1668
219.261	788
219.327	1227
219.394	1632
219.461	954
219.527	250
219.594	1377
219.661	1195
219.727	1651
219.794	1849
219.860	1886
219.927	3298
219.994	9139
220.060	12399
220.127	11914
220.193	6177
220.260	2801
220.326	1706
220.393	1369
220.460	1450
220.526	1331
220.593	920
220.659	1904
220.726	329
220.792	1217
220.859	1663
220.925	1193
220.992	246
221.058	684
221.125	358
221.191	864
221.258	379
221.324	816
221.391	1212
221.457	25
221.524	692
221.590	933
221.657	1003
221.723	643
221.789	465
221.856	641
221.922	488
221.989	1102
222.055	1212
222.121	985
222.188	1797
222.254	2256
222.321	1284
222.387	1067
222.453	1076
222.520	884
222.586	162
222.652	771
222.719	298
222.785	731
222.851	-77
222.918	533
222.984	1097
223.050	636
223.116	191
223.183	226
223.249	-75
223.315	599
223.382	252
223.448	1096
223.514	-884
223.580	500
223.647	52
223.713	549
223.779	46
223.845	357
223.911	761
223.978	331
224.044	680
224.110	382
224.176	425
224.242	176
224.309	-75
224.375	1240
224.441	17
224.507	212
224.573	745
224.639	716
224.705	-362
224.772	1231
224.838	615
224.904	1320
224.970	444
225.036	983
225.102	155
225.168	1506
225.234	1381
225.300	1492
225.366	681
225.432	1454
225.499	1412
225.565	966
225.631	1215
225.697	1351
225.763	1330
225.829	760
225.895	432
225.961	1572
226.027	1038
226.093	698
226.159	955
226.225	1841
226.291	1468
226.357	2161
226.423	1000
226.489	2095
226.554	1580
226.620	607
226.686	1173
226.752	1208
226.818	1012
226.884	1412
226.950	1175
227.016	1410
227.082	2122
227.148	1972
227.214	2385
227.279	3676
227.345	3782
227.411	7497
227.477	15745
227.543	24227
227.609	24032
227.674	13598
227.740	7321
227.806	4835
227.872	2810
227.938	3298
228.003	2072
228.069	1618
228.135	1699
228.201	977
228.267	820
228.332	1146
228.398	682
228.464	787
228.530	197
228.595	904
228.661	-322
228.727	1009
228.792	923
228.858	847
228.924	-530
228.990	1308
229.055	690
229.121	1546
229.187	797
229.252	288
229.318	195
229.384	502
229.449	1274
229.515	301
229.581	-558
229.646	1254
229.712	531
229.777	1374
229.843	1656
229.909	1674
229.974	336
230.040	373
230.105	302
230.171	17
230.236	54
230.302	640
230.368	274
230.433	1356
230.499	1168
230.564	1257
230.630	120
230.695	449
230.761	506
230.826	-128
230.892	947
230.957	127
231.023	31
231.088	431
231.154	13
231.219	1413
231.284	643
231.350	1268
231.415	905
231.481	818
231.546	519
231.612	384
231.677	296
231.742	235
231.808	1140
231.873	697
231.939	-401
232.004	1170
232.069	535
232.135	688
232.200	-422
232.265	1121
232.331	-145
232.396	596
232.461	254
232.527	453
232.592	-11
232.657	2801
232.723	1587
232.788	412
232.853	587
232.918	1406
232.984	1000
233.049	964
233.114	1025
233.179	2499
233.245	2207
233.310	1224
233.375	907
233.440	1277
233.506	2365
233.571	1614
233.636	381
233.701	847
233.766	922
233.832	1107
233.897	138
233.962	-57
234.027	534
234.092	316
234.157	1001
234.222	2050
234.288	1843
234.353	1752
234.418	735
234.483	1326
234.548	576
234.613	622
234.678	544
234.743	670
234.808	1689
234.873	455
234.938	466
235.004	550
235.069	441
235.134	141
235.199	533
235.264	1277
235.329	90
235.394	296
235.459	744
235.524	1395
235.589	1173
235.654	1135
235.719	-534
235.784	1326
235.849	496
235.913	1578
235.978	933
236.043	1150
236.108	-205
236.173	-219
236.238	692
236.303	562
236.368	897
236.433	1610
236.498	819
236.563	782
236.627	6
236.692	1097
236.757	780
236.822	672
236.887	184
236.952	618
237.017	-322
237.081	512
237.146	-294
237.211	530
237.276	302
237.341	1233
237.405	182
237.470	665
237.535	464
237.600	515
237.664	741
237.729	520
237.794	-163
237.859	901
237.923	94
237.988	1136
238.053	1315
238.118	609
238.182	2421
238.247	2281
238.312	444
238.376	1917
238.441	-397
238.506	1561
238.570	179
238.635	1849
238.700	993
238.764	746
238.829	1249
238.893	864
238.958	1296
239.023	2224
239.087	1319
239.152	2821
239.216	1601
239.281	1803
239.346	1669
239.410	1982
239.475	2307
239.539	5510
239.604	3240
239.668	5963
239.733	11048
239.797	29185
239.862	45641
239.926	31218
239.991	14057
240.055	6867
240.120	4213
240.184	4072
240.249	2757
240.313	1878
240.378	2005
240.442	3288
240.507	2452
240.571	1560
240.635	840
240.700	2037
240.764	987
240.829	1504
240.893	1637
240.957	1224
241.022	2841
241.086	2991
241.151	197
241.215	862
241.279	1327
241.344	773
241.408	757
241.472	1035
241.537	780
241.601	1374
241.665	29
241.730	488
241.794	1324
241.858	954
241.922	241
241.987	1256
242.051	597
242.115	206
242.179	564
242.244	449
242.308	1975
242.372	1436
242.436	136
242.501	1285
242.565	150
242.629	504
242.693	1285
242.757	1247
242.822	558
242.886	2207
242.950	434
243.014	56
243.078	1261
243.142	857
243.206	127
243.271	880
243.335	58
243.399	1077
243.463	524
243.527	1170
243.591	525
243.655	621
243.719	18
243.783	2097
243.847	472
243.911	1391
243.975	473
244.040	407
244.104	1331
244.168	1640
244.232	281
244.296	227
244.360	-274
244.424	1097
244.488	1099
244.552	1646
244.615	-216
244.679	1452
244.743	40
244.807	71
244.871	1557
244.935	981
244.999	-969
245.063	478
245.127	1255
245.191	707
245.255	346
245.319	1102
245.383	155
245.446	2544
245.510	-135
245.574	900
245.638	379
245.702	739
245.766	1053
245.829	847
245.893	643
245.957	719
246.021	2198
246.085	1764
246.149	1501
246.212	3690
246.276	4278
246.340	1086
246.404	1655
246.467	1520
246.531	25
246.595	2139
246.659	727
246.722	572
246.786	879
246.850	1709
246.913	1208
246.977	-64
247.041	1296
247.104	1259
247.168	684
247.232	3459
247.295	6627
247.359	2893
247.423	1110
247.486	1968
247.550	2587
247.614	1573
247.677	1051
247.741	1740
247.804	2198
247.868	5285
247.932	3552
247.995	6077
248.059	1870
248.122	814
248.186	1973
248.249	3135
248.313	14033
248.376	9650
248.440	5040
248.503	1422
248.567	2817
248.630	2034
248.694	2255
248.757	6356
248.821	12398
248.884	4592
248.948	5563
249.011	8034
249.075	15456
249.138	9696
249.202	2244
249.265	1359
249.328	1535
249.392	1240
249.455	1954
249.519	2653
249.582	2163
249.645	3778
249.709	1340
249.772	876
249.835	1304
249.899	1694
249.962	2152
250.025	1489
250.089	4938
250.152	4734
250.215	1305
250.279	1400
250.342	1474
250.405	1583
250.468	669
250.532	1138
250.595	1461
250.658	1690
250.721	1868
250.785	199
250.848	2428
250.911	419
250.974	1818
251.038	4185
251.101	5972
251.164	2330
251.227	1225
251.290	369
251.354	1555
251.417	566
251.480	1337
251.543	1623
251.606	2429
251.669	1605
251.732	1449
251.795	6475
251.859	2406
251.922	1343
251.985	1669
252.048	1982
252.111	615
252.174	1047
252.237	6881
252.300	11994
252.363	4146
252.426	5796
252.489	1396
252.552	1893
252.615	305
252.678	4398
252.741	11038
252.804	3780
252.867	4569
252.930	6441
252.993	2900
253.056	2707
253.119	667
253.182	1755
253.245	1174
253.308	1417
253.371	955
253.434	1739
253.497	2127
253.559	5285
253.622	2296
253.685	3028
253.748	1736
253.811	1356
253.874	2211
253.937	1348
254.000	1882
254.062	4593
254.125	4380
254.188	3944
254.251	3064
254.314	1764
254.376	2211
254.439	2753
254.502	2723
254.565	4746
254.628	6380
254.690	2709
254.753	1239
254.816	2094
254.878	1565
254.941	6097
255.004	3486
255.067	1802
255.129	1190
255.192	2131
255.255	1538
255.317	1587
255.380	1571
255.443	2719
255.505	2559
255.568	1733
255.631	2104
255.693	3641
255.756	2780
255.819	5712
255.881	4362
255.944	2852
256.006	1326
256.069	1747
256.132	1012
256.194	1941
256.257	2687
256.319	3339
256.382	6559
256.444	7878
256.507	4868
256.569	3118
256.632	1967
256.694	1804
256.757	2609
256.819	2510
256.882	911
256.944	2683
257.007	2564
257.069	2073
257.132	1474
257.194	2587
257.257	2062
257.319	2283
257.381	693
257.444	3388
257.506	2095
257.569	5700
257.631	8615
257.693	3732
257.756	2025
257.818	1668
257.880	1744
257.943	2504
258.005	1592
258.067	1711
258.130	1848
258.192	1866
258.254	1494
258.317	1815
258.379	2109
258.441	4359
258.503	2910
258.566	3562
258.628	3786
258.690	1672
258.753	2375
258.815	2569
258.877	1209
258.939	2290
259.001	2678
259.064	1880
259.126	800
259.188	1866
259.250	2231
259.312	3750
259.375	8031
259.437	3948
259.499	3067
259.561	2335
259.623	2058
259.685	2350
259.747	1860
259.809	3998
259.872	4146
259.934	9430
259.996	4862
260.058	2697
260.120	2098
260.182	2262
260.244	2486
260.306	2380
260.368	1852
260.430	2136
260.492	2521
260.554	6955
260.616	4390
260.678	4533
260.740	3046
260.802	2502
260.864	2384
260.926	1349
260.988	2657
261.050	1904
261.112	1474
261.174	6303
261.236	3171
261.298	2979
261.359	2985
261.421	3802
261.483	2823
261.545	3165
261.607	1624
261.669	3081
261.731	2749
261.793	4037
261.854	1598
261.916	3000
261.978	2237
262.040	2805
262.102	2398
262.164	2595
262.225	2698
262.287	3192
262.349	2182
262.411	2771
262.472	3182
262.534	3043
262.596	3168
262.658	2950
262.719	2189
262.781	3758
262.843	2937
262.904	3309
262.966	2949
263.028	2933
263.090	4875
263.151	4990
263.213	3834
263.275	2070
263.336	2439
263.398	3132
263.459	2405
263.521	3381
263.583	3260
263.644	2887
263.706	2514
263.767	2392
263.829	3967
263.891	2340
263.952	1656
264.014	2871
264.075	2807
264.137	3041
264.198	3300
264.260	2405
264.321	3246
264.383	2563
264.444	2987
264.506	2106
264.567	2106
264.629	2976
264.690	1442
264.752	3509
264.813	3050
264.875	2273
264.936	3337
264.998	3897
265.059	4102
265.120	4607
265.182	1715
265.243	2547
265.305	3069
265.366	3161
265.427	3046
265.489	4496
265.550	1654
265.611	4007
265.673	3542
265.734	3344
265.795	2923
265.857	2101
265.918	1562
265.979	2972
266.040	2087
266.102	2720
266.163	2865
266.224	3354
266.286	2521
266.347	2808
266.408	2620
266.469	2939
266.530	3461
266.592	3244
266.653	3381
266.714	3629
266.775	3860
266.836	3434
266.898	3212
266.959	3824
267.020	2225
267.081	3315
267.142	2601
267.203	1844
267.264	2673
267.326	3970
267.387	3035
267.448	2549
267.509	3222
267.570	2390
267.631	2568
267.692	2510
267.753	2945
267.814	2323
267.875	3118
267.936	4119
267.997	2441
268.058	3367
268.119	2661
268.180	2376
268.241	2454
268.302	3147
268.363	2334
268.424	2932
268.485	3060
268.546	3046
268.607	3157
268.668	2624
268.729	2504
268.790	2899
268.851	3539
268.912	4228
268.972	3274
269.033	2861
269.094	2762
269.155	3656
269.216	2443
269.277	3745
269.338	2579
269.398	3306
269.459	2955
269.520	4008
269.581	3334
269.642	3053
269.702	2371
269.763	2959
269.824	2886
269.885	2487
269.945	3022
270.006	3113
270.067	2621
270.128	3831
270.188	2604
270.249	3393
270.310	2654
270.370	3803
270.431	2983
270.492	2301
270.553	2977
270.613	3596
270.674	4460
270.734	2902
270.795	2913
270.856	3358
270.916	2719
270.977	3567
271.038	3958
271.098	3780
271.159	3168
271.219	3215
271.280	3614
271.340	2486
271.401	2773
271.462	4842
271.522	2924
271.583	3495
271.643	3438
271.704	3720
271.764	3503
271.825	5952
271.885	16619
271.946	14686
272.006	5888
272.066	12936
272.127	20102
272.187	23667
272.248	9786
272.308	7297
272.369	10817
272.429	6224
272.489	4084
272.550	4318
272.610	4583
272.671	3689
272.731	4831
272.791	5031
272.852	3877
272.912	4733
272.972	3755
273.033	3495
273.093	3737
273.153	4213
273.214	4554
273.274	4320
273.334	6647
273.394	8572
273.455	3947
273.515	6072
273.575	6031
273.635	4990
273.696	7791
273.756	9981
273.816	4802
273.876	4602
273.936	4682
273.997	5848
274.057	3502
274.117	4319
274.177	5435
274.237	13813
274.297	8169
274.358	6463
274.418	7995
274.478	6123
274.538	4194
274.598	4382
274.658	6303
274.718	5761
274.778	4424
274.838	5010
274.898	4620
274.958	8422
275.018	12594
275.078	7423
275.138	4019
275.198	4420
275.258	4448
275.318	4975
275.378	4039
275.438	4258
275.498	5694
275.558	5796
275.618	7643
275.678	7363
275.738	7369
275.798	5355
275.858	3954
275.918	4132
275.978	5069
276.038	6168
276.098	5025
276.157	6674
276.217	6640
276.277	5683
276.337	4951
276.397	5334
276.457	6370
276.517	5087
276.576	4692
276.636	4911
276.696	4528
276.756	6799
276.815	4990
276.875	6530
276.935	4196
276.995	5950
277.055	6518
277.114	7761
277.174	4958
277.234	6072
277.293	4507
277.353	4469
277.413	3128
277.472	4626
277.532	4353
277.592	5461
277.651	9710
277.711	11251
277.771	7722
277.830	14345
277.890	8491
277.950	16096
278.009	28336
278.069	11448
278.128	13450
278.188	11801
278.248	8352
278.307	16001
278.367	8407
278.426	6496
278.486	5619
278.545	5045
278.605	4945
278.664	4814
278.724	5439
278.783	8732
278.843	10207
278.902	5938
278.962	4511
279.021	5751
279.081	5710
279.140	5732
279.199	4517
279.259	6585
279.318	6386
279.378	7474
279.437	16335
279.496	50810
279.556	113177
279.615	48290
279.675	16313
279.734	12517
279.793	20111
279.853	33405
279.912	11436
279.971	8814
280.031	8439
280.090	23014
280.149	23612
280.208	18292
280.268	74478
280.327	42895
280.386	12781
280.445	10156
280.505	7189
280.564	6698
280.623	5381
280.682	6070
280.742	6033
280.801	5083
280.860	5844
280.919	5508
280.978	4034
281.037	4471
281.097	4714
281.156	5787
281.215	5130
281.274	7344
281.333	8929
281.392	5711
281.451	4495
281.510	5126
281.569	4199
281.628	4798
281.688	5008
281.747	5647
281.806	4397
281.865	5074
281.924	4304
281.983	4408
282.042	5080
282.101	4807
282.160	4817
282.219	4672
282.278	4408
282.337	6106
282.396	4427
282.454	5126
282.513	4382
282.572	6681
282.631	4773
282.690	5356
282.749	5220
282.808	5166
282.867	4745
282.926	5154
282.985	4713
283.043	5197
283.102	3968
283.161	4619
283.220	6848
283.279	7166
283.338	5003
283.396	4884
283.455	5062
283.514	5263
283.573	4154
283.631	5102
283.690	4434
283.749	5017
283.808	5337
283.866	5167
283.925	5254
283.984	6481
284.043	4852
284.101	4940
284.160	5114
284.219	6153
284.277	4904
284.336	5681
284.395	7465
284.453	6931
284.512	5598
284.570	6545
284.629	5811
284.688	6093
284.746	5853
284.805	6595
284.863	7513
284.922	8387
284.981	8764
285.039	12130
285.098	19198
285.156	60100
285.215	157120
285.273	105327
285.332	37586
285.390	21519
285.449	14156
285.507	11428
285.566	9361
285.624	7856
285.683	5999
285.741	7062
285.799	6330
285.858	6307
285.916	6029
285.975	5268
286.033	5445
286.091	6291
286.150	4701
286.208	6317
286.267	4764
286.325	6204
286.383	5030
286.442	6101
286.500	6257
286.558	6554
286.616	4935
286.675	6154
286.733	4338
286.791	5877
286.850	5087
286.908	5631
286.966	5088
287.024	5358
287.083	5055
287.141	5651
287.199	6054
287.257	6207
287.315	5023
287.374	5183
287.432	4880
287.490	5363
287.548	4662
287.606	5926
287.664	5878
287.723	5268
287.781	5722
287.839	5993
287.897	5595
287.955	5776
288.013	5365
288.071	5971
288.129	5982
288.187	7022
288.245	5796
288.303	4916
288.361	5271
288.419	6000
288.477	5797
288.535	5493
288.593	4987
288.651	4652
288.709	4886
288.767	5861
288.825	4518
288.883	5093
288.941	5770
288.999	4811
289.057	5051
289.115	5284
289.173	5734
289.231	5557
289.289	4847
289.346	5099
289.404	5953
289.462	6236
289.520	5982
289.578	4915
289.636	5148
289.694	5603
289.751	6080
289.809	6117
289.867	5098
289.925	6488
289.983	5540
290.040	5315
290.098	4989
290.156	5640
290.214	5656
290.271	6656
290.329	7571
290.387	6659
290.444	5208
290.502	5197
290.560	4740
290.617	5608
290.675	5009
290.733	5828
290.790	5304
290.848	6101
290.906	4771
290.963	5560
291.021	5466
291.078	6230
291.136	4310
291.194	6353
291.251	6130
291.309	6144
291.366	5242
291.424	5779
291.481	5308
291.539	5928
291.596	6304
291.654	6208
291.711	5977
291.769	5547
291.826	5474
291.884	6357
291.941	5733
291.999	5797
292.056	5611
292.114	6067
292.171	5528
292.228	7051
292.286	5754
292.343	6310
292.401	6105
292.458	6380
292.515	6117
292.573	7335
292.630	6184
292.687	6140
292.745	6065
292.802	5861
292.859	6384
292.917	7983
292.974	6440
293.031	5686
293.089	5067
293.146	5795
293.203	5497
293.260	5888
293.318	6391
293.375	6745
293.432	4996
293.489	6881
293.546	5730
293.604	5937
293.661	8903
293.718	12627
293.775	6762
293.832	8091
293.889	8077
293.947	8730
294.004	5961
294.061	5834
294.118	7027
294.175	8183
294.232	6660
294.289	6363
294.346	5949
294.403	6812
294.460	5824
294.517	6044
294.574	6557
294.631	6875
294.688	6883
294.745	8211
294.802	11902
294.859	8676
294.916	8361
294.973	6802
295.030	5626
295.087	5521
295.144	5971
295.201	6045
295.258	5667
295.315	5778
295.372	8926
295.429	10129
295.486	6047
295.542	5993
295.599	4903
295.656	5851
295.713	6882
295.770	8466
295.827	6214
295.883	5652
295.940	5006
295.997	5757
296.054	4978
296.111	5972
296.167	5725
296.224	6141
296.281	5459
296.338	6083
296.394	5610
296.451	5216
296.508	6409
296.564	7586
296.621	8228
296.678	17635
296.734	15632
296.791	8928
296.848	6431
296.904	6335
296.961	7536
297.018	9982
297.074	7502
297.131	6363
297.187	5777
297.244	7184
297.301	15849
297.357	16277
297.414	7577
297.470	7206
297.527	5928
297.583	7133
297.640	5660
297.696	6778
297.753	5861
297.809	6465
297.866	5149
297.922	5779
297.979	5535
298.035	6923
298.092	6037
298.148	7820
298.204	7623
298.261	6978
298.317	11246
298.374	15730
298.430	9720
298.486	6235
298.543	6505
298.599	5853
298.656	5852
298.712	7178
298.768	7040
298.824	6283
298.881	5673
298.937	6517
298.993	6343
299.050	6380
299.106	6750
299.162	7321
299.218	6953
299.275	7595
299.331	7613
299.387	12242
299.443	30021
299.500	56038
299.556	31971
299.612	17868
299.668	22525
299.724	57512
299.780	43486
299.837	19572
299.893	19916
299.949	46250
300.005	46132
300.061	49554
300.117	55842
300.173	23300
300.229	13431
300.285	11990
300.341	10328
300.397	9051
300.453	8954
300.510	10268
300.566	13363
300.622	30304
300.678	84695
300.734	67392
300.790	32568
300.845	27820
300.901	51118
300.957	50570
301.013	21787
301.069	12208
301.125	11331
301.181	9227
301.237	7733
301.293	6673
301.349	6565
301.405	7387
301.461	6566
301.516	6813
301.572	5735
301.628	7387
301.684	5781
301.740	7595
301.796	7613
301.851	8015
301.907	8354
301.963	9252
302.019	18959
302.074	39840
302.130	28781
302.186	13941
302.242	8966
302.297	8063
302.353	7062
302.409	8479
302.464	6932
302.520	8409
302.576	11843
302.631	10607
302.687	6668
302.743	6511
302.798	5071
302.854	6412
302.910	5917
302.965	6411
303.021	5781
303.076	6147
303.132	5860
303.187	6436
303.243	5381
303.299	6163
303.354	5524
303.410	5527
303.465	4985
303.521	5419
303.576	5764
303.632	6618
303.687	7552
303.743	12432
303.798	9657
303.853	6636
303.909	5550
303.964	6009
304.020	5551
304.075	6063
304.130	5963
304.186	6607
304.241	7502
304.297	6681
304.352	5428
304.358	5626
304.407	7234
304.449	6567
304.463	6342
304.518	5871
304.539	5807
304.573	5708
304.629	6133
304.630	6132
304.684	6242
304.720	10252
304.739	12240
304.794	12419
304.811	10995
304.850	7611
304.902	6228
304.905	6143
304.960	6171
304.992	5387
305.015	4834
305.071	5794
305.083	5646
305.126	5068
305.173	4696
305.181	4641
305.236	4500
305.264	5152
305.292	5821
305.347	5071
305.354	5192
305.402	5996
305.445	5680
305.457	5572
305.512	5720
305.535	5508
305.567	5197
305.622	4823
305.626	4870
305.678	6021
305.716	8347
305.733	9183
305.788	8507
305.807	8312
305.843	8374
305.897	12824
305.898	12873
305.953	10476
305.988	7454
306.008	5904
306.063	5414
306.078	5378
306.118	5378
306.168	5286
306.173	5276
306.228	4659
306.259	4598
306.283	4604
306.338	4514
306.349	4437
306.393	3954
306.440	4450
306.448	4589
306.503	5539
306.530	5251
306.558	4945
306.613	4716
306.620	4776
306.668	5413
306.711	7013
306.723	7294
306.778	6126
306.801	5777
306.833	5377
306.888	5185
306.892	5173
306.943	5112
306.982	4700
306.997	4671
307.052	5339
307.072	5246
307.107	4980
307.162	5720
307.163	5710
307.217	4675
307.253	4727
307.272	4854
307.327	4603
307.343	4709
307.381	4965
307.434	4344
307.436	4334
307.491	5465
307.524	5718
307.546	5669
307.600	5571
307.614	5346
307.655	4597
307.704	4363
307.710	4387
307.765	3993
307.795	4588
307.819	4924
307.874	4279
307.885	4347
307.929	4940
307.975	5673
307.984	5784
308.038	5305
308.065	4857
308.093	4415
308.148	4725
308.156	4778
308.202	5188
308.246	5499
308.257	5559
308.312	5119
308.336	5440
308.366	5595
308.421	4305
308.426	4269
308.475	4339
308.517	3959
308.530	3831
308.585	4000
308.607	3868
308.639	3784
308.694	4127
308.697	4131
308.748	4326
308.787	4605
308.803	4634
308.857	4144
308.877	4145
308.912	4114
308.967	3709
308.967	3706
309.021	4863
309.058	5446
309.076	5500
309.130	6193
309.148	6351
309.185	7163
309.238	8070
309.239	8088
309.293	8687
309.328	9016
309.348	8626
309.402	6416
309.418	5999
309.457	5771
309.508	5368
309.511	5405
309.566	6233
309.598	6715
309.620	7340
309.674	9295
309.688	9820
309.729	9720
309.778	8478
309.783	8390
309.837	7586
309.868	7260
309.892	7568
309.946	8319
309.959	8620
310.001	9239
310.049	9090
310.055	8900
310.109	7174
310.139	6226
310.163	5966
310.218	5662
310.229	5572
310.272	5942
310.319	6621
310.326	6562
310.381	5673
310.409	5308
310.435	5535
310.489	5737
310.499	5840
310.543	5930
310.589	5844
310.598	5922
310.652	6411
310.679	6528
310.706	6401
310.760	6466
310.769	6417
310.814	6339
310.859	6440
310.868	6447
310.923	6298
310.948	6217
310.977	6508
311.031	7025
311.038	7114
311.085	6992
311.128	6600
311.139	6663
311.193	7183
311.218	7331
311.247	7070
311.301	6662
311.308	6591
311.356	6711
311.398	6895
311.410	7000
311.464	7345
311.488	7517
311.518	7186
311.572	6556
311.578	6473
311.626	6717
311.668	6933
311.680	6979
311.734	7130
311.758	7193
311.788	7259
311.842	7383
311.847	7379
311.896	6974
311.937	6659
311.950	6705
312.004	6861
312.027	6927
312.058	7080
312.112	7330
312.117	7339
312.165	7119
312.207	6907
312.297	6902
312.386	7227
312.476	7728
312.566	7512
312.656	7792
312.745	8354
312.835	8588
312.925	8551
313.015	8747
313.104	10126
313.194	10678
313.284	10878
313.374	10432
313.463	11768
313.553	13099
313.643	12605
313.732	13127
313.822	13725
313.912	14791
314.001	15148
314.091	15677
314.180	15787
314.270	15940
314.360	15759
314.449	15454
314.539	15928
314.628	16576
314.718	16312
314.808	16803
314.897	17877
314.987	19088
315.076	19820
315.166	19406
315.255	18281
315.345	17575
315.434	17376
315.524	17574
315.613	19675
315.703	29086
315.792	96806
315.881	274683
315.971	75917
316.060	21913
316.150	17780
316.239	16265
316.328	17342
316.418	18640
316.507	19998
316.597	23604
316.686	23126
316.775	21524
316.865	19459
316.954	17147
317.043	16307
317.133	15412
317.222	13395
317.311	14090
317.400	12698
317.490	15230
317.579	16226
317.668	21009
317.757	39718
317.847	158397
317.936	378271
318.025	112642
318.114	118517
318.203	46141
318.293	20741
318.382	30393
318.471	32897
318.560	24983
318.649	19756
318.738	15785
318.828	12439
318.917	10640
319.006	10623
319.095	10248
319.184	11482
319.273	10514
319.362	11782
319.451	10230
319.540	11146
319.629	11064
319.718	11972
319.807	11370
319.896	10960
319.985	13225
320.074	12164
320.163	12411
320.252	12751
320.341	13709
320.430	14222
320.519	15763
320.608	16555
320.697	19223
320.786	22392
320.875	25237
320.964	27986
321.053	28752
321.142	30860
321.230	32820
321.319	36550
321.408	39623
321.497	39370
321.586	33101
321.675	29512
321.764	29425
321.852	29650
321.941	30772
322.030	31484
322.119	34772
322.207	39224
322.296	43692
322.385	47603
322.474	52897
322.562	52780
322.651	41458
322.740	35807
322.829	31693
322.917	26157
323.006	24091
323.095	22517
323.183	21087
323.272	19864
323.361	18692
323.449	18128
323.538	16174
323.626	16487
323.715	16194
323.804	14815
323.892	14551
323.981	13679
324.069	14137
324.158	13074
324.246	13227
324.335	12929
324.424	13066
324.512	12940
324.601	11988
324.689	12154
324.778	12712
324.866	12407
324.954	12285
325.043	11666
325.131	10741
325.220	12209
325.308	11700
325.397	10499
325.485	11091
325.574	9901
325.662	9849
325.750	10005
325.839	11099
325.927	10617
326.015	10631
326.104	9913
326.192	10849
326.280	9638
326.369	10315
326.457	10981
326.545	10038
326.634	10882
326.722	10853
326.810	11327
326.898	13804
326.987	13750
327.075	12847
327.163	12074
327.251	11723
327.340	12616
327.428	19269
327.516	22255
327.604	17001
327.692	13792
327.781	11613
327.869	10056
327.957	9863
328.045	8790
328.133	9285
328.221	8185
328.309	9131
328.397	9374
328.485	11845
328.574	19865
328.662	27405
328.750	17683
328.838	13787
328.926	11173
329.014	9873
329.102	9580
329.190	9544
329.278	8539
329.366	9022
329.454	8438
329.542	9304
329.630	8637
329.718	8575
329.806	8519
329.893	8690
329.981	7921
330.069	9208
330.157	9894
330.245	10550
330.333	9789
330.421	9429
330.509	9046
330.597	11008
330.684	10048
330.772	9335
330.860	8010
330.948	8729
331.036	8771
331.123	8270
331.211	8378
331.299	9215
331.387	8886
331.475	9284
331.562	9865
331.650	9744
331.738	9647
331.825	9846
331.913	8706
332.001	9882
332.089	9282
332.176	9482
332.264	9817
332.352	9588
332.439	9244
332.527	9644
332.614	9913
332.702	10496
332.790	10138
332.877	10686
332.965	12070
333.052	11751
333.140	11571
333.228	12879
333.315	12084
333.403	12839
333.490	12598
333.578	14457
333.665	17311
333.753	17682
333.840	17588
333.928	20150
334.015	23218
334.103	28633
334.190	36333
334.278	49665
334.365	64440
334.452	63082
334.540	47637
334.627	51141
334.715	62338
334.802	84424
334.889	119938
334.977	139868
335.064	93521
335.151	55708
335.239	42663
335.326	35339
335.413	34181
335.501	36154
335.588	39770
335.675	47019
335.762	56455
335.850	76008
335.937	104126
336.024	152166
336.111	199063
336.199	167788
336.286	91651
336.373	56942
336.460	41076
336.547	32332
336.635	28040
336.722	24186
336.809	21757
336.896	19925
336.983	18889
337.070	18303
337.157	18139
337.245	17997
337.332	18725
337.419	18308
337.506	17693
337.593	16815
337.680	15717
337.767	14697
337.854	14185
337.941	14548
338.028	15621
338.115	15645
338.202	14865
338.289	14416
338.376	13902
338.463	12410
338.550	11452
338.637	12165
338.724	11185
338.811	11610
338.898	12091
338.984	11281
339.071	10890
339.158	11257
339.245	11364
339.332	10544
339.419	10964
339.506	11269
339.593	10589
339.679	11045
339.766	10610
339.853	11106
339.940	10756
340.027	10843
340.113	9389
340.200	10172
340.287	10231
340.374	10492
340.460	10338
340.547	9050
340.634	10661
340.720	11349
340.807	10368
340.894	9533
340.980	10810
341.067	11037
341.154	11383
341.240	11133
341.327	11329
341.414	10928
341.500	10419
341.587	10458
341.674	9889
341.760	10208
341.847	10951
341.933	9828
342.020	9781
342.106	9669
342.193	9848
342.279	10182
342.366	10088
342.452	10016
342.539	9545
342.625	10650
342.712	11216
342.798	10385
342.885	9663
342.971	9042
343.058	10364
343.144	9666
343.230	10204
343.317	10092
343.403	9866
343.490	9646
343.576	9313
343.662	10220
343.749	9501
343.835	10044
343.921	12627
344.008	27567
344.094	40142
344.180	13644
344.267	10251
344.353	14069
344.439	11957
344.525	10585
344.612	9564
344.698	9863
344.784	8743
344.870	9809
344.957	8919
345.043	9846
345.129	9990
345.215	10243
345.301	10084
345.387	9669
345.474	9013
345.560	9411
345.646	8569
345.732	9650
345.818	9263
345.904	9853
345.990	9510
346.076	9884
346.162	9454
346.249	10062
346.335	10101
346.421	12703
346.507	13745
346.593	17509
346.679	10388
346.765	14920
346.851	23962
346.937	19252
347.023	13455
347.108	11139
347.194	10458
347.280	11184
347.366	17632
347.452	44196
347.538	57280
347.624	28232
347.710	16418
347.796	12411
347.882	11708
347.967	11288
348.053	10283
348.139	11137
348.225	10327
348.311	10818
348.397	11379
348.482	12067
348.568	14077
348.654	22742
348.740	62965
348.825	69617
348.911	30301
348.997	21868
349.083	21214
349.168	12492
349.254	10899
349.340	12037
349.425	10968
349.511	11311
349.597	11372
349.682	11572
349.768	14452
349.854	12237
349.939	10714
350.025	11592
350.110	12877
350.196	11158
350.282	10248
350.367	10931
350.453	10449
350.538	11086
350.624	9582
350.709	10901
350.795	9713
350.880	10420
350.966	10209
351.051	10570
351.137	10407
351.222	9930
351.308	11256
351.393	11883
351.479	9181
351.564	9461
351.649	10137
351.735	10426
351.820	9314
351.906	9783
351.991	9298
352.076	11313
352.162	11726
352.247	9953
352.332	9723
352.418	10249
352.503	10475
352.588	13491
352.673	12097
352.759	9795
352.844	9374
352.929	9266
353.014	10373
353.100	11352
353.185	13092
353.270	12069
353.355	10587
353.441	10424
353.526	9510
353.611	10272
353.696	10183
353.781	10975
353.866	9708
353.952	10416
354.037	10141
354.122	11588
354.207	10468
354.292	10444
354.377	10356
354.462	10159
354.547	9742
354.632	10247
354.717	11951
354.802	14078
354.887	10190
354.972	10437
355.057	9276
355.142	9861
355.227	10787
355.312	11287
355.397	10789
355.482	12734
355.567	10897
355.652	10428
355.737	11414
355.822	13900
355.907	12966
355.991	10671
356.076	10018
356.161	10754
356.246	10488
356.331	11338
356.416	13272
356.501	24012
356.585	21468
356.670	12307
356.755	13047
356.840	12671
356.924	25882
357.009	47444
357.094	20508
357.179	11988
357.263	11112
357.348	12490
357.433	10854
357.517	12186
357.602	12076
357.687	12132
357.771	13014
357.856	13016
357.941	13032
358.025	25179
358.110	61571
358.195	30391
358.279	12434
358.364	13871
358.448	15458
358.533	19490
358.617	16891
358.702	17106
358.787	11995
358.871	12964
358.956	12421
359.040	12627
359.125	11168
359.209	12013
359.294	14746
359.378	24851
359.462	21902
359.547	13957
359.631	11202
359.716	11231
359.800	11650
359.885	12194
359.969	11097
360.053	12208
360.138	11003
360.222	12219
360.306	12205
360.391	12571
360.475	13088
360.559	13297
360.644	14071
360.728	15022
360.812	21391
360.896	30751
360.981	18522
361.065	15011
361.149	14385
361.233	14572
361.318	13815
361.402	15136
361.486	16477
361.570	17778
361.654	17421
361.739	20329
361.823	32684
361.907	41275
361.991	28639
362.075	35765
362.159	49821
362.243	92493
362.327	188241
362.411	220495
362.495	102398
362.580	58531
362.664	56552
362.748	70359
362.832	108976
362.916	213605
363.000	426200
363.084	470191
363.168	218976
363.252	87480
363.336	54465
363.420	44596
363.503	37485
363.587	35219
363.671	35576
363.755	37449
363.839	41976
363.923	48012
364.007	60634
364.091	83985
364.175	132300
364.258	257147
364.342	505863
364.426	663739
364.510	382279
364.594	150792
364.677	81203
364.761	64862
364.845	48057
364.929	32500
365.013	27091
365.096	23935
365.180	21698
365.264	19867
365.347	19341
365.431	18377
365.515	17146
365.598	17071
365.682	17815
365.766	16573
365.849	16951
365.933	16946
366.017	16712
366.100	16864
366.184	17100
366.267	17654
366.351	16518
366.435	15908
366.518	15050
366.602	15348
366.685	15637
366.769	16120
366.852	16727
366.936	16299
367.019	16516
367.103	15869
367.186	16474
367.270	16036
367.353	16473
367.436	19125
367.520	18790
367.603	18844
367.687	17770
367.770	18222
367.853	18583
367.937	20110
368.020	20226
368.104	16337
368.187	14876
368.270	15331
368.353	14610
368.437	13687
368.520	13781
368.603	14385
368.687	15105
368.770	18215
368.853	12856
368.936	13867
369.020	12833
369.103	12015
369.186	12530
369.269	12254
369.352	12344
369.436	12940
369.519	11935
369.602	11601
369.685	12335
369.768	11347
369.851	12300
369.934	12359
370.018	12002
370.101	11634
370.184	13469
370.267	13096
370.350	14370
370.433	18652
370.516	59714
370.599	155075
370.682	78173
370.765	21511
370.848	18198
370.931	19806
371.014	14787
371.097	11552
371.180	12653
371.263	12199
371.346	10585
371.429	11926
371.511	11031
371.594	11237
371.677	12591
371.760	12589
371.843	13961
371.926	32499
372.009	52280
372.091	23203
372.174	16194
372.257	21150
372.340	15614
372.423	13896
372.505	14541
372.588	12518
372.671	14801
372.754	19366
372.836	15570
372.919	13257
373.002	13387
373.085	13791
373.167	15025
373.250	16940
373.332	23522
373.415	40783
373.498	68955
373.580	73887
373.663	219282
373.746	210165
373.828	43497
373.911	20815
373.993	17801
374.076	18981
374.159	17623
374.241	18617
374.324	20913
374.406	21783
374.489	29729
374.571	46182
374.654	27024
374.736	24379
374.819	34371
374.901	48432
374.983	49484
375.066	24732
375.148	21211
375.231	20815
375.313	22205
375.395	22614
375.478	22141
375.560	21329
375.643	21662
375.725	25714
375.807	41038
375.890	31319
375.972	18130
376.054	17845
376.136	17164
376.219	17383
376.301	21344
376.383	29560
376.465	19705
376.548	15671
376.630	17251
376.712	24357
376.794	17985
376.877	13070
376.959	12803
377.041	12620
377.123	12135
377.205	13180
377.287	12510
377.369	13903
377.452	14070
377.534	14436
377.616	13407
377.698	13428
377.780	13100
377.862	13048
377.944	13013
378.026	12598
378.108	12711
378.190	13013
378.272	13610
378.354	12718
378.436	11649
378.518	11895
378.600	12938
378.682	13872
378.764	15394
378.846	14530
378.928	12367
379.010	13048
379.091	12696
379.173	12507
379.255	12168
379.337	11943
379.419	13484
379.501	17289
379.583	13252
379.664	12178
379.746	13133
379.828	15905
379.910	16225
379.991	17101
380.073	12210
380.155	12702
380.237	12280
380.318	12200
380.400	11540
380.482	12734
380.564	12613
380.645	14487
380.727	14723
380.809	13459
380.890	12074
380.972	12687
381.053	12514
381.135	12598
381.217	13099
381.298	15548
381.380	14721
381.461	15759
381.543	23334
381.624	26196
381.706	14639
381.787	13365
381.869	14495
381.951	24374
382.032	46143
382.113	33767
382.195	14934
382.276	16443
382.358	18691
382.439	25134
382.521	30635
382.602	39963
382.684	25135
382.765	26743
382.846	32571
382.928	40589
383.009	30866
383.090	31119
383.172	65921
383.253	80961
383.334	37400
383.416	34288
383.497	25924
383.578	21542
383.659	30471
383.741	71940
383.822	127256
383.903	72325
383.984	32806
384.066	36355
384.147	30030
384.228	25975
384.309	29266
384.390	30141
384.471	29069
384.553	26147
384.634	23564
384.715	23083
384.796	20907
384.877	20753
384.958	24182
385.039	23710
385.120	20959
385.201	20756
385.282	21237
385.363	23597
385.444	25897
385.525	28749
385.606	34228
385.687	33485
385.768	27216
385.849	28564
385.930	42813
386.011	54912
386.092	32705
386.173	29286
386.254	26830
386.335	27282
386.416	25697
386.496	26949
386.577	28578
386.658	26286
386.739	26983
386.820	28190
386.901	29146
386.981	32683
387.062	36627
387.143	40101
387.224	42481
387.304	45589
387.385	44407
387.466	43409
387.547	46719
387.627	49139
387.708	51708
387.789	53675
387.869	51003
387.950	42796
388.031	38560
388.111	34532
388.192	37681
388.273	38244
388.353	34204
388.434	28458
388.514	28690
388.595	37463
388.676	35470
388.756	27233
388.837	25659
388.917	24424
388.998	22982
389.078	23485
389.159	24178
389.239	23087
389.320	23968
389.400	21457
389.480	22893
389.561	25101
389.641	23604
389.722	22531
389.802	21989
389.883	24602
389.963	26233
390.043	24449
390.124	21474
390.204	23854
390.284	24926
390.365	22564
390.445	23272
390.525	22524
390.605	22710
390.686	22281
390.766	24899
390.846	25501
390.927	25010
391.007	25306
391.087	26271
391.167	26664
391.247	26458
391.328	28906
391.408	30581
391.488	30661
391.568	30686
391.648	32723
391.728	35336
391.808	37431
391.888	37978
391.969	42570
392.049	44505
392.129	47587
392.209	51916
392.289	59997
392.369	61118
392.449	65986
392.529	72231
392.609	83610
392.689	97473
392.769	117142
392.849	143774
392.929	182065
393.009	250938
393.089	373412
393.169	629491
393.248	1049046
393.328	1349441
393.408	1312610
393.488	970943
393.568	563394
393.648	335183
393.728	219455
393.807	156694
393.887	122160
393.967	98610
394.047	82109
394.127	70629
394.206	61821
394.286	56256
394.366	52077
394.446	49171
394.525	45640
394.605	43324
394.685	41969
394.764	48680
394.844	77153
394.924	95594
395.003	56695
395.083	38770
395.163	36407
395.242	34425
395.322	36455
395.402	35122
395.481	39131
395.561	51302
395.640	114950
395.720	199625
395.799	122102
395.879	57263
395.958	49736
396.038	52821
396.117	58519
396.197	66544
396.276	75245
396.356	89481
396.435	116519
396.515	162486
396.594	255450
396.673	486739
396.753	926820
396.832	1254821
396.912	1069660
396.991	577606
397.070	289928
397.150	175275
397.229	144643
397.308	208539
397.388	308829
397.467	181804
397.546	77757
397.625	53993
397.705	48744
397.784	42157
397.863	37543
397.942	34490
398.022	32901
398.101	29398
398.180	29068
398.259	26549
398.338	26374
398.417	24536
398.497	23785
398.576	22053
398.655	22200
398.734	22122
398.813	20656
398.892	20113
398.971	19080
399.050	18221
399.129	17621
399.208	18517
399.287	18935
399.366	17620
399.445	16067
399.524	16714
399.603	14949
399.682	15898
399.761	16651
399.840	15461
399.919	15449
399.998	14404
400.077	13795
400.156	12836
400.235	15057
400.313	12883
400.392	12859
400.471	15527
400.550	14812
400.629	12849
400.708	13161
400.786	12173
400.865	11723
400.944	11123
401.023	13283
401.102	11519
401.180	11287
401.259	11725
401.338	12020
401.416	11759
401.495	10642
401.574	11002
401.652	10826
401.731	11757
401.810	11115
401.888	11565
401.967	11112
402.046	9688
402.124	11166
402.203	9298
402.281	10480
402.360	9894
402.438	11375
402.517	9883
402.596	11219
402.674	10730
402.753	11035
402.831	11180
402.910	13363
402.988	22288
403.066	44416
403.145	31930
403.223	24488
403.302	38330
403.380	34066
403.459	32197
403.537	20614
403.615	16605
403.694	13234
403.772	14017
403.850	13896
403.929	12548
404.007	11765
404.085	16286
404.164	15470
404.242	12597
404.320	14344
404.398	13439
404.477	16345
404.555	28037
404.633	25742
404.711	14107
404.789	12599
404.868	11647
404.946	11235
405.024	10554
405.102	9867
405.180	10055
405.258	8167
405.336	9977
405.415	8768
405.493	11151
405.571	11094
405.649	9776
405.727	11219
405.805	12964
405.883	13793
405.961	13770
406.039	10957
406.117	9505
406.195	11299
406.273	12079
406.351	19950
406.429	16140
406.507	9527
406.585	9425
406.663	10011
406.740	10111
406.818	9649
406.896	9162
406.974	11602
407.052	9738
407.130	16150
407.208	18690
407.285	12376
407.363	11094
407.441	12141
407.519	13258
407.596	21840
407.674	77627
407.752	218646
407.830	166222
407.907	33894
407.985	14266
408.063	11562
408.141	10503
408.218	11115
408.296	11367
408.373	13236
408.451	13614
408.529	13247
408.606	13509
408.684	15436
408.762	15439
408.839	16667
408.917	17278
408.994	19411
409.072	21116
409.149	27706
409.227	40918
409.304	58869
409.382	67632
409.459	76795
409.537	91678
409.614	89944
409.692	77424
409.769	76337
409.846	97403
409.924	110960
410.001	92891
410.079	71260
410.156	55677
410.233	43051
410.311	35687
410.388	31847
410.465	29116
410.543	25323
410.620	24396
410.697	22515
410.775	22705
410.852	22171
410.929	23463
411.006	22876
411.083	21742
411.161	21020
411.238	19921
411.315	17729
411.392	17265
411.469	17654
411.547	16205
411.624	14555
411.701	13526
411.778	13620
411.855	14033
411.932	12311
412.009	11705
412.086	12021
412.163	12481
412.240	11315
412.317	11533
412.394	10200
412.471	10936
412.548	10386
412.625	10188
412.702	10438
412.779	9941
412.856	10450
412.933	10059
413.010	10304
413.087	11555
413.164	10634
413.241	10800
413.318	8803
413.395	9246
413.471	8786
413.548	8972
413.625	9194
413.702	7965
413.779	8253
413.855	7598
413.932	8111
414.009	7180
414.086	8102
414.162	8143
414.239	8694
414.316	10238
414.393	12153
414.469	8137
414.546	7927
414.623	8067
414.699	7806
414.776	7555
414.853	7254
414.929	7898
415.006	8239
415.082	7550
415.159	7311
415.236	7195
415.312	8251
415.389	7383
415.465	7570
415.542	7242
415.618	7117
415.695	7403
415.771	6899
415.848	6514
415.924	8205
416.000	7630
416.077	8307
416.153	7299
416.230	7086
416.306	7144
416.383	7128
416.459	8290
416.535	6994
416.612	7142
416.688	7655
416.764	7260
416.841	7566
416.917	6844
416.993	6920
417.069	7260
417.146	6780
417.222	6947
417.298	7735
417.374	6387
417.451	7954
417.527	7511
417.603	7769
417.679	7655
417.755	8342
417.831	6982
417.908	8761
417.984	7875
418.060	8520
418.136	8250
418.212	7927
418.288	8054
418.364	8956
418.440	6648
418.516	9005
418.592	8271
418.668	9235
418.744	8504
418.820	10183
418.896	9041
418.972	9222
419.048	9213
419.124	10056
419.200	9186
419.276	10275
419.352	9423
419.428	11442
419.504	10943
419.579	10983
419.655	11773
419.731	12297
419.807	11769
419.883	12281
419.959	12834
420.034	13361
420.110	14653
420.186	15896
420.262	16167
420.337	15946
420.413	15799
420.489	17837
420.565	18770
420.640	19531
420.716	20720
420.792	20574
420.867	23510
420.943	23373
421.019	25083
421.094	26689
421.170	29930
421.245	30875
421.321	35569
421.397	43325
421.472	93014
421.548	182721
421.623	129253
421.699	63061
421.774	62950
421.850	71751
421.925	82844
422.001	97474
422.076	118681
422.152	145947
422.227	185600
422.302	246043
422.378	330705
422.453	467871
422.529	587263
422.604	530598
422.679	383447
422.755	519852
422.830	585453
422.905	462063
422.981	343298
423.056	257976
423.131	200819
423.207	159077
423.282	128532
423.357	108116
423.432	89277
423.508	78487
423.583	68871
423.658	60503
423.733	54782
423.808	50886
423.883	49984
423.959	52813
424.034	57836
424.109	55148
424.184	42110
424.259	35204
424.334	32022
424.409	26358
424.484	25223
424.559	23053
424.634	21656
424.709	20816
424.784	20514
424.859	19564
424.934	17706
425.009	18680
425.084	18296
425.159	15702
425.234	16307
425.309	14431
425.384	14757
425.459	14684
425.534	13615
425.609	13354
425.683	13248
425.758	12121
425.833	12419
425.908	12509
425.983	12230
426.058	13223
426.132	12033
426.207	10836
426.282	11602
426.357	10048
426.431	9985
426.506	10989
426.581	9308
426.655	10057
426.730	9314
426.805	8815
426.879	10175
426.954	8894
427.029	9065
427.103	12026
427.178	15916
427.253	12740
427.327	9442
427.402	9033
427.476	9351
427.551	8998
427.625	9175
427.700	9823
427.774	8744
427.849	10069
427.923	11271
427.998	12892
428.072	17153
428.147	37828
428.221	132612
428.296	297273
428.370	189147
428.444	42990
428.519	17694
428.593	14307
428.667	16190
428.742	22090
428.816	60354
428.890	198352
428.965	275722
429.039	91424
429.113	21549
429.188	13931
429.262	12338
429.336	11925
429.410	11348
429.485	12077
429.559	12612
429.633	14715
429.707	21140
429.781	57334
429.855	186814
429.930	249759
430.004	92103
430.078	61649
430.152	166841
430.226	398443
430.300	387540
430.374	128511
430.448	43779
430.522	27603
430.596	30072
430.670	85225
430.744	237227
430.818	250828
430.892	65660
430.966	18525
431.040	11591
431.114	9682
431.188	8831
431.262	8872
431.336	8199
431.410	9553
431.484	8919
431.557	11508
431.631	14043
431.705	29866
431.779	112024
431.853	283751
431.927	207609
432.000	45877
432.074	14190
432.148	9478
432.222	7221
432.295	6647
432.369	4984
432.443	5221
432.516	8575
432.590	13261
432.664	7777
432.737	4727
432.811	4360
432.885	3594
432.958	4611
433.032	3871
433.106	4573
433.179	5498
433.253	5358
433.326	3946
433.400	3984
433.473	4727
433.547	4787
433.620	4862
433.694	4583
433.767	5762
433.841	5348
433.914	6268
433.988	5694
434.061	7739
434.134	5992
434.208	5972
434.281	5284
434.355	5375
434.428	5805
434.501	5022
434.575	5778
434.648	5316
434.721	5375
434.795	5696
434.868	4979
434.941	6314
435.014	6600
435.088	7842
435.161	9019
435.234	11215
435.307	13688
435.381	17018
435.454	25142
435.527	39902
435.600	47162
435.673	41360
435.746	33420
435.819	26897
435.892	21913
435.966	17646
436.039	13727
436.112	12231
436.185	9847
436.258	9362
436.331	8077
436.404	7211
436.477	6901
436.550	6962
436.623	6374
436.696	5692
436.769	5433
436.842	5896
436.915	5742
436.987	4408
437.060	4399
437.133	4621
437.206	4420
437.279	4363
437.352	3598
437.425	3484
437.498	4119
437.570	4617
437.643	3704
437.716	3943
437.789	3695
437.861	3910
437.934	3150
438.007	3433
438.080	3157
438.152	4016
438.225	4067
438.298	9584
438.370	18253
438.443	9833
438.516	4372
438.588	3882
438.661	2929
438.734	4070
438.806	3674
438.879	3761
438.951	3801
439.024	4011
439.096	2956
439.169	3994
439.241	3986
439.314	3469
439.386	3932
439.459	3733
439.531	3739
439.604	3327
439.676	3659
439.749	4235
439.821	3264
439.893	4028
439.966	3629
440.038	2385
440.110	4104
440.183	3892
440.255	3496
440.327	5573
440.400	5938
440.472	10395
440.544	8225
440.617	4340
440.689	5723
440.761	4020
440.833	4875
440.905	3826
440.978	4074
441.050	4724
441.122	4744
441.194	4750
441.266	5052
441.338	4595
441.411	5265
441.483	6958
441.555	7220
441.627	6668
441.699	5684
441.771	6138
441.843	6495
441.915	7960
441.987	8962
442.059	9530
442.131	11620
442.203	13973
442.275	19288
442.347	34968
442.419	85347
442.491	271802
442.563	449584
442.635	224276
442.706	61746
442.778	27975
442.850	19956
442.922	19590
442.994	19007
443.066	21591
443.137	26561
443.209	37008
443.281	58976
443.353	123639
443.425	324961
443.496	643439
443.568	658792
443.640	336958
443.711	108592
443.783	48474
443.855	29848
443.926	22195
443.998	17974
444.070	14937
444.141	14842
444.213	13000
444.285	11836
444.356	11588
444.428	11824
444.499	10749
444.571	11320
444.642	13130
444.714	13795
444.785	14572
444.857	16387
444.928	18637
445.000	22295
445.071	28022
445.143	37535
445.214	58438
445.285	100785
445.357	223865
445.428	504244
445.500	713258
445.571	650664
445.642	461756
445.714	199875
445.785	74511
445.856	39583
445.928	28773
445.999	21152
446.070	16960
446.141	15124
446.213	12937
446.284	9724
446.355	8935
446.426	8161
446.497	7395
446.569	6519
446.640	5496
446.711	6582
446.782	5026
446.853	5359
446.924	4953
446.995	4496
447.066	3696
447.138	3795
447.209	3773
447.280	3015
447.351	3310
447.422	2747
447.493	3755
447.564	3061
447.635	2702
447.706	2351
447.777	3324
447.847	2316
447.918	2070
447.989	2978
448.060	3278
448.131	1938
448.202	2480
448.273	2047
448.344	2458
448.414	2045
448.485	2670
448.556	1652
448.627	2224
448.698	2712
448.768	2502
448.839	2179
448.910	1920
448.981	2756
449.051	2311
449.122	2199
449.193	2334
449.263	2656
449.334	1760
449.405	2168
449.475	3016
449.546	3436
449.616	3855
449.687	4772
449.758	3455
449.828	2387
449.899	2213
449.969	2165
450.040	2610
450.110	2388
450.181	2410
450.251	2532
450.322	2455
450.392	2333
450.463	2483
450.533	2290
450.604	2647
450.674	3407
450.744	4831
450.815	5007
450.885	6276
450.955	6184
451.026	6925
451.096	4600
451.166	5642
451.237	7456
451.307	9024
451.377	7314
451.447	4726
451.518	4408
451.588	3464
451.658	2811
451.728	3310
451.799	2558
451.869	3262
451.939	2581
452.009	2824
452.079	3759
452.149	3877
452.219	3650
452.289	5154
452.360	5418
452.430	7312
452.500	10289
452.570	17481
452.640	38390
452.710	83611
452.780	96921
452.850	59289
452.920	30308
452.990	18215
453.060	11558
453.129	7935
453.199	6649
453.269	6323
453.339	5544
453.409	4794
453.479	3619
453.549	3545
453.619	2723
453.688	2979
453.758	2530
453.828	2284
453.898	2367
453.968	1885
454.037	2513
454.087	2513
454.107	2493
454.168	2411
454.177	2374
454.247	1773
454.249	1810
454.316	2046
454.330	2047
454.386	1988
454.411	1798
454.456	1354
454.492	1701
454.525	1999
454.574	2458
454.595	2616
454.655	1828
454.665	1661
454.734	3253
454.736	3295
454.804	3644
454.817	3577
454.873	3230
454.898	2883
454.943	2212
454.979	2334
455.013	2373
455.060	3159
455.082	3674
455.141	3702
455.152	4002
455.221	9095
455.222	9349
455.291	14420
455.303	19686
455.360	39859
455.384	59038
455.430	90411
455.465	64391
455.499	42483
455.546	18488
455.569	7154
455.627	4684
455.638	4189
455.707	3139
455.708	3169
455.777	3891
455.789	3825
455.846	3401
455.869	3764
455.916	4337
455.950	4267
455.985	4259
456.031	4212
456.054	4057
456.112	3626
456.124	3538
456.193	3542
456.193	3511
456.262	4052
456.274	4246
456.332	5134
456.355	4728
456.401	3761
456.436	4192
456.470	4544
456.516	4635
456.540	4669
456.597	4473
456.609	4440
456.678	4621
456.678	4587
456.747	4966
456.759	5046
456.817	5458
456.840	5433
456.886	5167
456.920	5525
456.955	5969
457.001	6256
457.024	6316
457.082	6881
457.093	6950
457.162	6713
457.163	6750
457.232	7148
457.243	7389
457.301	8496
457.324	8654
457.370	8994
457.405	9590
457.439	10343
457.485	11631
457.508	12743
457.566	16246
457.577	18247
457.646	31224
457.647	31524
457.715	62333
457.727	69847
457.784	109038
457.808	139192
457.853	166112
457.889	186095
457.922	201453
457.969	160571
457.991	157493
458.050	170599
458.060	172333
458.129	264939
458.130	267833
458.198	261092
458.211	233441
458.267	153731
458.292	118658
458.336	87770
458.372	87896
458.405	107500
458.453	152682
458.474	176935
458.533	275842
458.543	276954
458.611	365616
458.614	365661
458.680	260177
458.694	215184
458.749	110665
458.775	82490
458.818	47967
458.855	36627
458.887	29085
458.936	23306
458.955	21410
459.016	17985
459.024	17608
459.093	15182
459.097	15091
459.162	12849
459.177	12609
459.230	12321
459.257	12290
459.299	12035
459.338	11668
459.368	11369
459.418	10487
459.437	10145
459.499	9942
459.505	9960
459.574	10083
459.579	10094
459.643	9444
459.659	9294
459.711	9127
459.740	9560
459.780	9852
459.820	9620
459.849	9715
459.900	10064
459.917	9989
459.981	9903
459.986	9917
460.054	9975
460.061	9989
460.123	9341
460.141	9219
460.191	9322
460.222	9329
460.260	9467
460.302	9697
460.328	10435
460.382	12258
460.397	13681
460.462	20260
460.465	21568
460.534	52259
460.543	56448
460.602	99507
460.623	117013
460.671	163885
460.703	210893
460.739	172353
460.783	101391
460.808	92513
460.864	33474
460.876	25522
460.944	13144
460.945	12986
461.013	10349
461.024	10042
461.081	9650
461.104	9365
461.150	9333
461.184	9752
461.218	9756
461.264	9542
461.286	9381
461.345	9076
461.355	9046
461.423	8762
461.425	8764
461.491	8457
461.505	8397
461.559	8618
461.585	8610
461.628	8722
461.665	9039
461.696	8948
461.745	8951
461.764	9058
461.825	8608
461.832	8589
461.901	8750
461.905	8805
461.969	8601
461.985	8461
462.037	9134
462.065	9599
462.105	9552
462.145	9301
462.173	9218
462.225	8971
462.241	8999
462.305	9258
462.310	9327
462.378	10174
462.385	10332
462.446	10247
462.465	10131
462.514	10093
462.545	10019
462.582	9508
462.625	9028
462.650	9105
462.705	8766
462.718	8753
462.785	9250
462.786	9255
462.854	9129
462.865	9136
462.922	9016
462.945	8804
462.990	9272
463.025	9825
463.058	9758
463.104	9560
463.126	9372
463.184	9169
463.194	9290
463.262	9578
463.264	9593
463.330	8936
463.344	8706
463.398	9317
463.424	9714
463.466	9271
463.504	8864
463.533	9126
463.583	9634
463.601	9551
463.663	9060
463.669	9105
463.737	9419
463.743	9444
463.805	9961
463.823	10122
463.873	9782
463.903	9563
463.940	9311
463.982	9002
464.008	9033
464.062	8987
464.076	9054
464.142	9373
464.144	9384
464.211	9388
464.221	9405
464.279	9789
464.301	9826
464.347	9854
464.381	9950
464.414	9501
464.461	8783
464.482	8900
464.540	9083
464.550	9096
464.617	9369
464.620	9359
464.685	9675
464.699	9752
464.753	9617
464.779	9510
464.820	9803
464.859	10096
464.888	9813
464.938	9129
464.956	9252
465.018	9913
465.023	9946
465.091	10020
465.098	10012
465.158	9733
465.177	9668
465.226	9923
465.257	9985
465.293	10204
465.336	10434
465.361	10421
465.416	10498
465.428	10455
465.495	9904
465.496	9917
465.563	9500
465.575	9427
465.631	9894
465.654	10066
465.698	10074
465.734	9968
465.765	10021
465.813	10199
465.833	10319
465.893	10547
465.900	10564
465.968	10487
465.972	10471
466.035	10123
466.052	9988
466.102	10541
466.131	10858
466.170	10681
466.210	10385
466.237	10447
466.290	10562
466.304	10628
466.369	10735
466.372	10747
466.439	10599
466.449	10543
466.506	10530
466.528	10537
466.573	10691
466.607	10698
466.641	11182
466.687	11893
466.708	11991
466.766	12118
466.775	12177
466.842	12471
466.845	12460
466.909	12461
466.925	12425
466.977	12138
467.004	11973
467.044	12228
467.083	12438
467.111	12759
467.163	13279
467.178	13290
467.242	13206
467.245	13258
467.312	13830
467.321	13880
467.379	13761
467.400	13674
467.446	13974
467.480	14143
467.559	15130
467.638	14242
467.717	15661
467.796	17086
467.875	17518
467.955	19373
468.034	21410
468.113	26870
468.192	33664
468.271	45384
468.350	61828
468.429	76032
468.508	68804
468.588	41109
468.667	28498
468.746	22222
468.825	18711
468.904	17504
468.983	16936
469.062	16685
469.141	17232
469.220	13933
469.299	14672
469.378	13736
469.456	13972
469.535	13793
469.614	14314
469.693	12607
469.772	13802
469.851	13355
469.930	13015
470.009	13507
470.088	14668
470.166	14515
470.245	14246
470.324	15260
470.403	14436
470.482	13713
470.560	14720
470.639	13273
470.718	14238
470.797	12241
470.875	12562
470.954	12790
471.033	13323
471.111	12731
471.190	12053
471.269	12342
471.347	11976
471.426	12568
471.505	13501
471.583	12416
471.662	11994
471.740	12944
471.819	12661
471.898	12237
471.976	13213
472.055	14333
472.133	20383
472.212	24612
472.290	13244
472.369	11620
472.447	13085
472.526	13100
472.604	14319
472.683	13401
472.761	12430
472.839	13090
472.918	13763
472.996	13022
473.075	13315
473.153	14220
473.231	14293
473.310	13291
473.388	14140
473.466	13502
473.545	14859
473.623	15990
473.701	14841
473.780	15331
473.858	14800
473.936	16020
474.014	18023
474.093	20848
474.171	26487
474.249	16087
474.327	14817
474.405	14881
474.484	15192
474.562	14748
474.640	13740
474.718	14239
474.796	14473
474.874	13776
474.952	13667
475.030	13131
475.108	14844
475.187	13078
475.265	15572
475.343	16221
475.421	16185
475.499	13943
475.577	13610
475.655	13232
475.733	12678
475.811	12333
475.889	12039
475.966	12565
476.044	13453
476.122	13279
476.200	15779
476.278	12660
476.356	13739
476.434	12778
476.512	13913
476.590	15519
476.667	13956
476.745	11955
476.823	12828
476.901	12868
476.979	12621
477.056	13022
477.134	11653
477.212	11954
477.290	12031
477.367	12550
477.445	12367
477.523	11614
477.601	12625
477.678	12990
477.756	12724
477.834	13301
477.911	12646
477.989	12032
478.066	13432
478.144	13924
478.222	16803
478.299	21423
478.377	24012
478.454	18107
478.532	12003
478.609	11871
478.687	12946
478.764	11681
478.842	13427
478.919	12794
478.997	12317
479.074	13164
479.152	12439
479.229	12412
479.307	12885
479.384	12788
479.461	13840
479.539	12887
479.616	13448
479.694	12247
479.771	12133
479.848	12515
479.926	12629
480.003	13766
480.080	13324
480.157	14283
480.235	14108
480.312	14120
480.389	14829
480.467	16371
480.544	16578
480.621	17763
480.698	18818
480.775	17200
480.853	16755
480.930	16974
481.007	24117
481.084	40412
481.161	60852
481.238	22109
481.315	15424
481.392	16950
481.470	17256
481.547	16358
481.624	16900
481.701	17348
481.778	18141
481.855	19219
481.932	20896
482.009	21501
482.086	25532
482.163	28490
482.240	32962
482.317	34887
482.393	28341
482.470	25565
482.547	24244
482.624	22533
482.701	22213
482.778	21346
482.855	23090
482.932	23709
483.009	29008
483.085	41037
483.162	57531
483.239	42697
483.316	33848
483.393	30989
483.469	28101
483.546	25414
483.623	22164
483.699	20671
483.776	19533
483.853	18903
483.930	18737
484.006	18434
484.083	19837
484.160	19924
484.236	19753
484.313	21393
484.389	24138
484.466	30343
484.543	36609
484.619	43511
484.696	40070
484.772	26524
484.849	21234
484.925	20338
485.002	19557
485.078	17561
485.155	16448
485.231	15371
485.308	17335
485.384	17435
485.461	19279
485.537	16758
485.614	15316
485.690	14322
485.766	15068
485.843	15150
485.919	15205
485.995	14587
486.072	14906
486.148	14825
486.224	15218
486.301	14630
486.377	15043
486.453	15286
486.530	15849
486.606	17743
486.682	17567
486.758	20570
486.835	24518
486.911	22127
486.987	25258
487.063	30784
487.139	44218
487.215	59218
487.292	45437
487.368	47314
487.444	64890
487.520	106675
487.596	208541
487.672	488216
487.748	1077362
487.824	1222501
487.900	417157
487.976	149171
488.052	82506
488.128	54535
488.204	40153
488.280	33607
488.356	29197
488.432	26146
488.508	22695
488.584	20925
488.660	20154
488.736	18565
488.812	17371
488.888	17943
488.964	17405
489.039	20445
489.115	24082
489.191	25585
489.267	18497
489.343	15003
489.418	15283
489.494	14541
489.570	15041
489.646	15736
489.722	15671
489.797	16747
489.873	17646
489.949	17474
490.024	16732
490.100	16522
490.176	16202
490.251	16225
490.327	16510
490.403	15279
490.478	15446
490.554	15776
490.629	14884
490.705	14739
490.781	14431
490.856	15043
490.932	14086
491.007	14986
491.083	13494
491.158	13479
491.234	12706
491.309	14292
491.385	12398
491.460	12983
491.536	14138
491.611	12016
491.686	13899
491.762	13521
491.837	13546
491.913	15060
491.988	15978
492.063	15304
492.139	11635
492.214	11289
492.289	12017
492.365	11428
492.440	11499
492.515	11960
492.590	12445
492.666	11780
492.741	13283
492.816	12796
492.891	13438
492.967	14879
493.042	15625
493.117	17956
493.192	27838
493.267	80857
493.342	202312
493.418	178388
493.493	19412
493.568	13100
493.643	12479
493.718	11013
493.793	12029
493.868	10952
493.943	11951
494.018	11936
494.093	10750
494.168	10916
494.243	10569
494.318	11694
494.393	10769
494.468	10372
494.543	11074
494.618	10285
494.693	10455
494.768	10587
494.842	10235
494.917	10559
494.992	11008
495.067	10731
495.142	10919
495.217	10875
495.292	10509
495.366	10058
495.441	9445
495.516	10922
495.591	12118
495.665	16270
495.740	21018
495.815	13166
495.890	11649
495.964	11541
496.039	18607
496.114	34278
496.188	59250
496.263	26081
496.338	11859
496.412	10294
496.487	11290
496.561	10135
496.636	11797
496.710	15371
496.785	17216
496.860	11270
496.934	10558
497.009	10674
497.083	9676
497.158	10068
497.232	9266
497.307	9586
497.381	10492
497.455	9747
497.530	9961
497.604	10036
497.679	9899
497.753	9744
497.827	9973
497.902	10335
497.976	10483
498.050	10447
498.125	11115
498.199	10195
498.273	10591
498.348	10006
498.422	10959
498.496	10666
498.570	11749
498.645	10765
498.719	9088
498.793	9823
498.867	9424
498.941	10163
499.016	10732
499.090	10764
499.164	11165
499.238	10647
499.312	11510
499.386	11892
499.460	11759
499.534	12281
499.609	11977
499.683	10531
499.757	11566
499.831	11083
499.905	11076
499.979	10350
500.053	11424
500.127	11932
500.201	11173
500.275	11665
500.349	11582
500.422	11471
500.496	12559
500.570	13066
500.644	12539
500.718	12639
500.792	12762
500.866	13002
500.940	12656
501.013	13174
501.087	13778
501.161	12920
501.235	12633
501.309	14185
501.382	13525
501.456	13231
501.530	13123
501.603	11381
501.677	12561
501.751	11219
501.825	13709
501.898	13090
501.972	13104
502.046	12149
502.119	12030
502.193	12085
502.266	11432
502.340	11877
502.413	11674
502.487	11978
502.561	12755
502.634	12789
502.708	14454
502.781	13343
502.855	13269
502.928	12632
503.002	13317
503.075	13747
503.149	14238
503.222	15599
503.295	15254
503.369	17197
503.442	18588
503.516	21296
503.589	24849
503.662	29329
503.736	36934
503.809	50250
503.882	73785
503.956	132310
504.029	309195
504.102	673491
504.175	693938
504.249	282726
504.322	124366
504.395	70579
504.468	47542
504.542	35197
504.615	27454
504.688	23129
504.761	18552
504.834	18835
504.907	16401
504.980	15882
505.053	13549
505.127	11557
505.200	13298
505.273	12118
505.346	11310
505.419	11750
505.492	12452
505.565	11577
505.638	11123
505.711	10087
505.784	9680
505.857	9350
505.930	10345
506.003	8618
506.076	10452
506.149	8452
506.221	7425
506.294	9830
506.367	8099
506.440	8006
506.513	8784
506.586	9047
506.659	8370
506.731	8559
506.804	8302
506.877	7672
506.950	8137
507.022	8111
507.095	7468
507.168	8898
507.241	8493
507.313	7966
507.386	7821
507.459	8680
507.531	7750
507.604	7429
507.677	8802
507.749	7100
507.822	8895
507.894	8041
507.967	8693
508.040	7342
508.112	8638
508.185	7851
508.257	8276
508.330	8314
508.402	8031
508.475	7469
508.547	7866
508.620	7672
508.692	7926
508.765	7822
508.837	7546
508.909	8145
508.982	7573
509.054	7598
509.127	8082
509.199	7911
509.271	7484
509.344	6735
509.416	7944
509.488	7586
509.560	7807
509.633	8140
509.705	7443
509.777	7285
509.849	8156
509.922	6975
509.994	7748
510.066	7614
510.138	6820
510.210	8662
510.283	7487
510.355	7145
510.427	7488
510.499	7514
510.571	7075
510.643	6599
510.715	7759
510.787	5667
510.859	8308
510.931	7334
511.003	7559
511.076	7727
511.148	7722
511.219	6293
511.291	8875
511.363	6809
511.435	7790
511.507	6325
511.579	8043
511.651	7703
511.723	7185
511.795	8397
511.867	6885
511.939	7698
512.010	7238
512.082	7920
512.154	6834
512.226	8216
512.298	7633
512.369	8069
512.441	8661
512.513	8064
512.585	6878
512.656	7330
512.728	7866
512.800	7773
512.871	7524
512.943	7802
513.015	7539
513.086	7219
513.158	9136
513.230	7544
513.301	8106
513.373	9091
513.444	7842
513.516	8340
513.588	7957
513.659	7256
513.731	8536
513.802	6703
513.874	9957
513.945	8670
514.016	7731
514.088	7954
514.159	7427
514.231	7556
514.302	7866
514.374	8106
514.445	7236
514.516	8889
514.588	7614
514.659	7250
514.730	7224
514.802	8496
514.873	7295
514.944	8976
515.016	8166
515.087	7471
515.158	8394
515.229	8341
515.301	7728
515.372	8325
515.443	8993
515.514	9871
515.585	11762
515.656	11758
515.728	9413
515.799	7814
515.870	9148
515.941	8654
516.012	8706
516.083	9458
516.154	9198
516.225	9557
516.296	10911
516.367	9805
516.438	10209
516.509	10449
516.580	13990
516.651	28723
516.722	47420
516.793	18914
516.864	11097
516.935	12234
517.006	13194
517.077	16342
517.148	32633
517.219	92434
517.289	80006
517.360	15339
517.431	13294
517.502	12392
517.573	13768
517.643	13947
517.714	13560
517.785	15570
517.856	16413
517.926	18290
517.997	20674
518.068	22969
518.138	30579
518.209	44783
518.280	108869
518.350	200729
518.421	82818
518.492	71141
518.562	99338
518.633	153540
518.703	285463
518.774	630295
518.845	1124972
518.915	717475
518.986	250444
519.056	118645
519.127	76037
519.197	54976
519.268	39318
519.338	30955
519.408	26166
519.479	23243
519.549	20132
519.620	18457
519.690	15901
519.760	15746
519.831	14668
519.901	13759
519.971	12501
520.042	13115
520.112	12411
520.182	11737
520.253	11666
520.323	10088
520.393	9908
520.463	11597
520.534	8441
520.604	11274
520.674	10468
520.744	10387
520.814	10337
520.885	10365
520.955	9620
521.025	9550
521.095	9993
521.165	9922
521.235	10140
521.305	9075
521.375	10773
521.445	9755
521.515	10767
521.585	10682
521.655	9636
521.725	10559
521.795	10399
521.865	7772
521.935	11393
522.005	9966
522.075	11469
522.145	13035
522.215	14445
522.285	10655
522.355	11059
522.424	12858
522.494	15437
522.564	13022
522.634	12884
522.704	14489
522.774	11234
522.843	12837
522.913	14941
522.983	12118
523.053	11382
523.122	11596
523.192	12139
523.262	13249
523.331	12003
523.401	11959
523.471	11592
523.540	12450
523.610	12745
523.680	13185
523.749	16573
523.819	22659
523.888	19170
523.958	14486
524.027	13354
524.097	13428
524.166	13922
524.236	12601
524.305	14302
524.375	13848
524.444	12830
524.514	14763
524.583	14221
524.653	12920
524.722	14515
524.791	13846
524.861	17157
524.930	16279
524.999	16537
525.069	18450
525.138	17380
525.207	19158
525.277	22811
525.346	22235
525.415	27235
525.484	30930
525.554	36611
525.623	51105
525.692	63712
525.761	62846
525.830	76662
525.900	112895
525.969	214781
526.038	420996
526.107	1000121
526.176	1764125
526.245	978234
526.314	504194
526.383	1144559
526.452	1170891
526.522	1677217
526.591	907372
526.660	219535
526.729	154960
526.797	189331
526.867	363216
526.935	1050371
527.004	1991487
527.073	866434
527.142	198749
527.211	95746
527.280	63292
527.349	47515
527.418	35458
527.487	31655
527.555	25867
527.624	24574
527.693	20419
527.762	21426
527.831	19548
527.899	19018
527.968	17482
528.037	15703
528.106	16218
528.174	16320
528.243	16558
528.312	15293
528.380	14320
528.449	14563
528.518	14980
528.586	13822
528.655	14853
528.723	14796
528.792	13411
528.861	13382
528.929	11491
528.998	13685
529.066	11933
529.135	12606
529.203	12335
529.272	10495
529.340	12525
529.409	13151
529.477	12109
529.545	11189
529.614	12719
529.682	11274
529.751	11344
529.819	14303
529.887	12317
529.956	12005
530.024	13140
530.092	11924
530.161	13007
530.229	13496
530.297	12292
530.365	13611
530.434	12096
530.502	11844
530.570	13178
530.638	11859
530.707	13013
530.775	14508
530.843	12598
530.911	13116
530.979	13625
531.047	12832
531.115	13689
531.183	12895
531.252	13554
531.320	13378
531.388	12822
531.456	13609
531.524	12882
531.592	14525
531.660	14805
531.728	13454
531.796	12777
531.864	13512
531.932	13717
532.000	13084
532.067	13978
532.135	14761
532.203	16466
532.271	17570
532.339	18114
532.407	18729
532.475	17654
532.542	17922
532.610	16824
532.678	16662
532.746	24483
532.814	25943
532.881	18962
532.949	18529
533.017	17701
533.084	16879
533.152	16067
533.220	16492
533.287	15681
533.355	14907
533.423	16834
533.490	17045
533.558	18053
533.625	17920
533.693	17581
533.761	18972
533.828	18832
533.896	18303
533.963	21645
534.031	23490
534.098	31606
534.166	32464
534.233	31880
534.300	36715
534.368	35669
534.435	34692
534.503	38193
534.570	43061
534.637	50433
534.705	63101
534.772	106759
534.840	303004
534.907	993277
534.974	597680
535.041	88661
535.109	47068
535.176	37367
535.243	34495
535.310	32787
535.378	29958
535.445	31944
535.512	32368
535.579	30632
535.646	30867
535.714	33081
535.781	34659
535.848	34930
535.915	32490
535.982	30387
536.049	31170
536.116	32014
536.183	30072
536.250	29987
536.317	32191
536.384	33845
536.451	34551
536.518	34330
536.585	31801
536.652	35072
536.719	34356
536.786	31452
536.853	32845
536.920	35064
536.987	34289
537.053	33247
537.120	39883
537.187	38772
537.254	38409
537.321	36738
537.388	37967
537.454	35901
537.521	36178
537.588	36829
537.654	38657
537.721	41064
537.788	38057
537.855	36816
537.921	37110
537.988	33822
538.055	34074
538.121	32270
538.188	30496
538.254	30832
538.321	33229
538.388	36117
538.454	40885
538.521	39855
538.587	39259
538.654	38110
538.720	37444
538.787	36892
538.853	37455
538.920	34747
538.986	31844
539.053	32013
539.119	34550
539.185	34383
539.252	36812
539.318	38914
539.385	42550
539.451	38678
539.517	37938
539.583	38395
539.650	37682
539.716	37767
539.782	35379
539.849	34964
539.915	35979
539.981	34913
540.047	34532
540.114	36208
540.180	38003
540.246	41036
540.312	41409
540.378	38370
540.444	40340
540.510	41903
540.576	42191
540.643	36540
540.709	35225
540.775	37617
540.841	35415
540.907	34461
540.973	37404
541.039	37000
541.105	37974
541.171	41562
541.237	40548
541.303	39443
541.369	40186
541.435	39901
541.500	36172
541.566	35344
541.632	35548
541.698	37875
541.764	39241
541.830	38242
541.896	36412
541.961	36597
542.027	39857
542.093	42243
542.159	40448
542.224	37919
542.290	38511
542.356	38249
542.421	38781
542.487	35338
542.553	35305
542.618	36153
542.684	37554
542.750	37408
542.815	38476
542.881	39046
542.947	42107
543.012	38869
543.078	35011
543.143	35816
543.209	37043
543.274	35227
543.340	37893
543.405	38449
543.471	39847
543.536	38920
543.602	38621
543.667	38421
543.732	40206
543.798	39242
543.863	39506
543.928	39096
543.994	39010
544.059	40997
544.124	41244
544.190	41838
544.255	43383
544.320	43375
544.386	42567
544.451	44302
544.516	42607
544.581	43674
544.646	46566
544.712	46295
544.777	45011
544.842	44263
544.907	45098
544.972	45668
545.037	51392
545.102	51849
545.168	48608
545.233	49570
545.298	50207
545.363	51899
545.428	52278
545.493	54200
545.558	54288
545.623	52999
545.688	53600
545.753	55810
545.818	58263
545.883	61778
545.947	62404
546.012	64416
546.077	67016
546.142	71679
546.207	72477
546.272	76964
546.337	76399
546.401	82280
546.466	84859
546.531	89008
546.596	95678
546.661	99179
546.725	105968
546.790	111828
546.855	123300
546.919	136548
546.984	147995
547.049	162782
547.113	185060
547.178	205369
547.243	235144
547.307	271723
547.372	285724
547.436	289866
547.501	313420
547.565	313468
547.630	286957
547.695	284611
547.759	287698
547.823	290378
547.888	296917
547.952	306864
548.017	332724
548.081	347837
548.146	321240
548.210	335143
548.274	356621
548.339	326951
548.403	305899
548.468	293175
548.532	295124
548.596	301301
548.660	308402
548.725	337860
548.789	350807
548.853	330127
548.917	324053
548.982	300021
549.046	273179
549.110	256918
549.174	283806
549.238	327288
549.303	346768
549.367	342039
549.431	319330
549.495	306145
549.559	324254
549.623	378784
549.687	380190
549.751	402430
549.815	463072
549.879	443781
549.943	442777
550.007	461191
550.071	432069
550.135	392421
550.199	388976
550.263	371530
550.327	363933
550.391	396977
550.455	427818
550.519	439086
550.582	474559
550.646	521294
550.710	515732
550.774	513160
550.838	525900
550.901	552166
550.965	586641
551.029	624599
551.093	681549
551.156	760671
551.220	854168
551.284	812410
551.347	633809
551.411	554990
551.475	540350
551.538	540495
551.602	494291
551.666	473560
551.729	441218
551.793	438886
551.856	427346
551.920	424652
551.983	419760
552.047	418015
552.110	422666
552.174	436402
552.237	421758
552.301	389961
552.364	376395
552.428	371154
552.491	388679
552.554	384829
552.618	386429
552.681	388888
552.745	375296
552.808	397741
552.871	405320
552.934	394351
552.998	385027
553.061	372341
553.124	360267
553.187	367978
553.251	376238
553.314	376187
553.377	394958
553.440	448770
553.503	583382
553.567	521771
553.630	406723
553.693	391840
553.756	388897
553.819	374383
553.882	363826
553.945	371785
554.008	370051
554.071	375518
554.134	365441
554.197	341459
554.260	338006
554.323	347598
554.386	358942
554.449	370026
554.512	362120
554.575	349520
554.638	347115
554.701	345191
554.764	338002
554.827	328233
554.889	311495
554.952	295244
555.015	296771
555.078	304491
555.141	302356
555.203	295085
555.266	298458
555.329	289801
555.391	279374
555.454	278687
555.517	271368
555.580	262505
555.642	254792
555.705	249078
555.768	247129
555.830	236889
555.893	225778
555.955	223299
556.018	220545
556.080	226466
556.143	231942
556.206	223877
556.268	216940
556.330	213725
556.393	207696
556.455	204965
556.518	199042
556.580	190789
556.643	185667
556.705	184474
556.767	180485
556.830	177322
556.892	174051
556.955	172274
557.017	167509
557.079	167831
557.142	163984
557.204	166606
557.266	167058
557.328	149145
557.391	142988
557.453	139169
557.515	141417
557.577	143483
557.639	144966
557.701	144342
557.764	142747
557.826	146486
557.888	154845
557.950	164836
558.012	195038
558.074	310115
558.136	780870
558.198	992022
558.260	282621
558.322	170158
558.384	164059
558.446	171979
558.508	186850
558.570	214932
558.632	263531
558.694	385230
558.756	760810
558.818	1805656
558.880	1995966
558.942	1143002
559.003	1146613
559.065	403428
559.127	229904
559.189	225769
559.251	274063
559.312	469488
559.374	1158636
559.436	1778510
559.498	671314
559.559	267343
559.621	230860
559.683	299131
559.744	584753
559.806	1462265
559.868	1114872
559.929	326040
559.991	302774
560.052	634705
560.114	1136418
560.176	570672
560.237	906170
560.299	753189
560.360	163273
560.422	94641
560.483	80502
560.545	74645
560.606	71711
560.667	67469
560.729	65175
560.790	61029
560.852	60150
560.913	56460
560.974	55251
561.036	56172
561.097	54434
561.158	53896
561.220	52731
561.281	50258
561.342	49033
561.403	50462
561.465	48180
561.526	49081
561.587	48513
561.648	46488
561.709	46693
561.771	45432
561.832	43881
561.893	43079
561.954	43328
562.015	43228
562.076	42182
562.137	41633
562.198	41745
562.259	43424
562.320	42336
562.381	41761
562.442	41594
562.503	40452
562.564	38931
562.625	38041
562.686	38139
562.747	37462
562.808	37380
562.869	36145
562.930	37081
562.991	36587
563.051	35466
563.112	34214
563.173	34789
563.234	35351
563.294	34796
563.355	33592
563.416	34039
563.477	34104
563.537	33167
563.598	33423
563.659	33253
563.720	32423
563.780	33716
563.841	33031
563.901	33494
563.962	33140
564.023	31267
564.083	31980
564.144	31401
564.204	31113
564.265	31703
564.325	30916
564.386	31597
564.446	30642
564.507	30182
564.567	30098
564.628	29736
564.688	29844
564.749	29328
564.809	30241
564.869	29795
564.930	28971
564.990	29569
565.050	28175
565.111	29361
565.171	29203
565.231	29073
565.292	29097
565.352	28398
565.412	29765
565.472	28759
565.532	28763
565.593	27857
565.653	27842
565.713	29616
565.773	29712
565.833	31710
565.893	30078
565.953	26578
566.013	26901
566.074	27494
566.134	26174
566.194	26341
566.254	27872
566.314	26208
566.374	25963
566.434	26922
566.494	25951
566.554	27774
566.614	27859
566.673	28607
566.733	28673
566.793	28072
566.853	28558
566.913	28486
566.973	27358
567.033	28647
567.092	27844
567.152	28320
567.212	27829
567.272	29092
567.331	29054
567.391	29874
567.451	31473
567.511	31276
567.570	29235
567.630	29668
567.690	27913
567.749	28690
567.809	27236
567.868	28465
567.928	28286
567.988	28076
568.047	29160
568.107	28311
568.166	28174
568.226	29425
568.285	29787
568.345	29701
568.404	28955
568.464	28436
568.523	28551
568.582	29728
568.642	28619
568.701	27173
568.761	26490
568.820	27608
568.879	28404
568.939	29479
568.998	28738
569.057	28595
569.116	28079
569.176	28510
569.235	27895
569.294	28150
569.353	26238
569.413	26887
569.472	25965
569.531	26629
569.590	25513
569.649	26573
569.708	25615
569.767	26747
569.827	26685
569.886	24763
569.945	25972
570.004	26642
570.063	26937
570.122	27383
570.181	28606
570.240	28879
570.299	27701
570.358	28829
570.417	29067
570.475	29908
570.534	28901
570.593	29673
570.652	29769
570.711	29176
570.770	29034
570.829	28611
570.887	28945
570.946	29842
571.005	28937
571.064	30296
571.122	29897
571.181	29104
571.240	27908
571.299	27815
571.357	26833
571.416	26943
571.475	27909
571.533	30960
571.592	31477
571.650	32529
571.709	35785
571.768	40883
571.826	39541
571.885	35446
571.943	30726
572.002	29421
572.060	28718
572.119	28388
572.177	28300
572.236	27560
572.294	29499
572.352	31973
572.411	32212
572.469	28829
572.528	28335
572.586	27124
572.644	26100
572.703	27245
572.761	25111
572.819	25353
572.877	24357
572.936	24620
572.994	24636
573.052	25648
573.110	27609
573.169	29201
573.227	29310
573.285	27670
573.343	26633
573.401	26638
573.459	27854
573.517	29936
573.576	30538
573.634	30317
573.692	29897
573.750	29364
573.808	27777
573.866	26158
573.924	25580
573.982	27094
574.040	27370
574.098	27045
574.155	26049
574.213	25829
574.271	29338
574.329	31141
574.387	27722
574.445	25619
574.503	23579
574.560	25111
574.618	25289
574.676	25688
574.734	25561
574.792	22925
574.849	20995
574.907	21097
574.965	20858
575.022	20196
575.080	19887
575.138	19811
575.195	18709
575.253	19213
575.311	18861
575.368	19521
575.426	19264
575.483	20543
575.541	21278
575.598	21160
575.656	21292
575.713	23895
575.771	23565
575.828	22027
575.886	20765
575.943	19729
576.001	18361
576.058	18622
576.115	18380
576.173	20390
576.230	21248
576.287	21145
576.345	20269
576.402	22831
576.459	22888
576.517	19414
576.574	19289
576.631	17736
576.688	17670
576.746	17900
576.803	17178
576.860	18472
576.917	18690
576.974	18927
577.031	18890
577.089	18121
577.146	17067
577.203	16684
577.260	17077
577.317	17223
577.374	16954
577.431	16663
577.488	17437
577.545	17235
577.602	18614
577.659	18877
577.716	22094
577.773	22643
577.830	19327
577.886	17962
577.943	17059
578.000	17337
578.057	15927
578.114	16132
578.171	16195
578.227	16051
578.284	15055
578.341	16871
578.398	17407
578.454	16216
578.511	16939
578.568	17126
578.625	16769
578.681	16408
578.738	17019
578.794	17249
578.851	16526
578.908	17688
578.964	17016
579.021	17857
579.077	16801
579.134	16780
579.190	17577
579.247	17280
579.303	17256
579.360	16455
579.416	17413
579.473	17288
579.529	16904
579.586	17272
579.642	17557
579.698	17493
579.755	17699
579.811	17727
579.867	17170
579.924	17427
579.980	18050
580.036	19244
580.093	17737
580.149	18217
580.205	18404
580.261	19023
580.317	20408
580.374	20260
580.430	19971
580.486	19487
580.542	19377
580.598	19762
580.619	19587
580.654	19306
580.692	19324
580.710	19363
580.765	20194
580.767	20240
580.823	21083
580.838	21263
580.879	21794
580.911	21357
580.935	21082
580.984	20000
580.991	19870
581.047	20298
581.057	20162
581.103	19655
581.130	19311
581.159	18967
581.203	19394
581.215	19532
581.270	18318
581.276	18371
581.326	19009
581.349	18698
581.382	18274
581.422	18704
581.438	18902
581.494	18870
581.494	18855
581.550	18311
581.567	18356
581.606	18486
581.640	18591
581.661	18685
581.713	18783
581.717	18798
581.773	18353
581.786	18591
581.829	19503
581.859	19096
581.885	18710
581.932	18633
581.940	18628
581.996	18820
582.004	18809
582.052	18918
582.077	18944
582.107	18846
582.150	18494
582.163	18432
582.219	18298
582.223	18291
582.274	18255
582.296	17986
582.330	17604
582.368	18233
582.386	18507
582.441	18924
582.441	18928
582.497	18957
582.514	19476
582.552	20802
582.587	21503
582.608	21753
582.659	19732
582.663	19595
582.719	19155
582.732	19066
582.774	18744
582.805	18882
582.830	19050
582.877	19409
582.885	19432
582.941	18405
582.950	18349
582.996	18207
583.023	18340
583.052	18582
583.095	18127
583.107	17994
583.162	18598
583.168	18617
583.218	18632
583.240	18304
583.273	17871
583.313	17874
583.328	17897
583.384	17891
583.385	17908
583.439	18177
583.458	18406
583.494	19042
583.531	18739
583.549	18567
583.603	18350
583.605	18335
583.660	18570
583.676	18589
583.715	18908
583.748	18839
583.770	18757
583.820	19130
583.825	19165
583.881	19424
583.893	19421
583.936	19318
583.965	19468
583.991	19497
584.038	19674
584.046	19767
584.101	19842
584.110	19878
584.156	19774
584.183	19634
584.211	19609
584.255	20276
584.266	20489
584.321	20727
584.328	20814
584.376	21315
584.400	21566
584.431	21729
584.472	21985
584.486	22224
584.541	22684
584.545	22768
584.596	23691
584.617	23923
584.651	24582
584.689	25421
584.706	25698
584.761	26472
584.762	26480
584.816	27280
584.834	28031
584.871	29788
584.906	31120
584.926	31669
584.978	33036
584.980	33108
585.035	37085
585.051	37864
585.090	40319
585.123	43680
585.145	46077
585.195	51594
585.200	52240
585.254	62391
585.267	65783
585.309	78067
585.340	86917
585.364	94201
585.412	109613
585.419	111865
585.473	143999
585.484	154875
585.528	208391
585.556	268543
585.583	347505
585.628	557898
585.637	620946
585.692	1180118
585.700	1217830
585.747	1376893
585.772	1224132
585.801	821930
585.845	422919
585.856	356554
585.910	171773
585.917	153389
585.965	108218
585.989	90959
586.019	79047
586.061	66583
586.074	64069
586.128	55644
586.133	55110
586.183	51479
586.205	49868
586.237	48213
586.277	46772
586.292	46405
586.346	45158
586.349	45132
586.401	44734
586.421	44145
586.455	43451
586.493	43278
586.509	43406
586.564	44683
586.565	44714
586.618	47343
586.637	49384
586.672	55924
586.709	64577
586.727	69384
586.781	75550
586.781	75550
586.835	61605
586.853	58409
586.889	51933
586.925	46783
586.944	45429
586.996	43483
586.998	43485
587.052	42325
587.068	42173
587.106	42350
587.140	42165
587.161	41984
587.212	42349
587.215	42387
587.269	42179
587.284	42323
587.323	43694
587.356	44651
587.377	45112
587.427	45737
587.431	45792
587.485	47013
587.499	47085
587.539	47814
587.571	48788
587.593	49784
587.643	52342
587.648	52576
587.702	53273
587.715	53683
587.755	53825
587.786	53443
587.810	53707
587.858	54219
587.864	54252
587.917	54433
587.930	54286
587.971	54100
588.001	54335
588.025	54513
588.073	54806
588.079	54822
588.133	53733
588.145	53512
588.187	53457
588.217	53735
588.241	54257
588.288	55410
588.295	55748
588.348	57917
588.360	58241
588.402	58303
588.431	58269
588.456	58160
588.503	58871
588.510	59322
588.564	62275
588.575	62985
588.617	66461
588.646	69054
588.671	70874
588.718	74502
588.725	75205
588.778	83400
588.789	86393
588.832	110769
588.861	133175
588.886	179427
588.932	295861
588.939	315579
588.993	403875
589.004	409336
589.047	229254
589.075	138507
589.100	112701
589.147	72015
589.154	71566
589.207	67574
589.218	66897
589.261	68034
589.290	68979
589.314	70253
589.361	73976
589.368	75163
589.421	88501
589.433	92621
589.475	134800
589.504	174708
589.528	235944
589.576	336608
589.582	329704
589.635	207671
589.647	189438
589.689	117469
589.718	69959
589.742	67476
589.790	62813
589.795	62811
589.849	61930
589.861	61726
589.902	60285
589.932	58963
589.955	59112
590.004	59345
590.009	59418
590.062	59788
590.075	59742
590.115	59721
590.146	59701
590.168	59731
590.218	59651
590.222	59781
590.275	60857
590.289	60966
590.328	61941
590.360	62653
590.381	63333
590.431	64782
590.435	64896
590.488	65503
590.503	65631
590.541	66378
590.574	66831
590.594	67672
590.645	69754
590.647	69912
590.700	71758
590.716	72311
590.753	74480
590.787	76142
590.806	76771
590.859	78458
590.859	78580
590.912	79930
590.930	80319
590.965	80721
591.001	80773
591.018	80606
591.071	79472
591.072	79354
591.124	79890
591.143	79975
591.177	79683
591.214	79126
591.230	80048
591.283	82517
591.285	82499
591.336	80885
591.356	80129
591.389	80738
591.427	81122
591.442	80805
591.495	79387
591.498	79163
591.547	80191
591.569	80676
591.600	82073
591.640	83436
591.653	83775
591.706	84707
591.711	84700
591.759	86947
591.782	88000
591.811	89711
591.853	91680
591.864	92111
591.917	93558
591.924	93641
591.969	94018
591.995	93988
592.022	93865
592.066	93304
592.075	93885
592.127	96750
592.137	97118
592.180	98487
592.208	99193
592.233	100254
592.279	101882
592.285	102355
592.338	105105
592.350	105563
592.390	105794
592.421	105727
592.443	106668
592.491	108255
592.495	108560
592.548	110549
592.562	110926
592.600	111229
592.633	111199
592.653	111079
592.704	109717
592.705	110391
592.775	112716
592.846	116183
592.916	120028
592.987	117610
593.058	121044
593.128	123182
593.199	122107
593.270	123904
593.341	126036
593.411	130052
593.482	135541
593.553	139222
593.623	140157
593.694	145086
593.764	148020
593.835	146104
593.906	147566
593.976	150492
594.047	154288
594.117	160800
594.188	165636
594.258	165050
594.329	164183
594.399	169405
594.470	174737
594.540	180901
594.611	183412
594.681	184381
594.751	185414
594.822	191291
594.892	198119
594.963	203830
595.033	208218
595.103	216767
595.174	215236
595.244	221996
595.314	227625
595.384	234876
595.455	240641
595.525	249655
595.595	257407
595.665	260961
595.736	251227
595.806	255473
595.876	260460
595.946	260332
596.016	271898
596.087	281403
596.157	282430
596.227	281551
596.297	293510
596.367	314032
596.437	334257
596.507	334521
596.577	328272
596.647	339021
596.717	355711
596.787	365647
596.857	365113
596.927	366635
596.997	366742
597.067	373543
597.137	381252
597.207	380277
597.277	382605
597.347	370237
597.417	356092
597.487	353240
597.557	360378
597.626	373256
597.696	375835
597.766	376108
597.836	356302
597.906	336215
597.975	327781
598.045	333974
598.115	345835
598.185	367387
598.254	405491
598.324	444136
598.394	458483
598.464	442469
598.533	435480
598.603	412321
598.672	392154
598.742	400556
598.812	400097
598.881	413076
598.951	411040
599.020	416774
599.090	427808
599.159	437355
599.229	424864
599.299	408979
599.368	418919
599.437	418981
599.507	388958
599.576	370613
599.646	369021
599.715	364409
599.785	358400
599.854	347394
599.924	339251
599.993	335113
600.062	342415
600.132	353439
600.201	366478
600.270	419723
600.340	454547
600.409	445377
600.478	441413
600.547	445094
600.617	424985
600.686	333896
600.755	296619
600.824	278436
600.894	269389
600.963	269426
601.032	265404
601.101	256795
601.170	241631
601.239	233568
601.308	231618
601.378	231072
601.447	230567
601.516	234186
601.585	235120
601.654	237843
601.723	239248
601.792	243207
601.861	256265
601.930	265214
601.999	266375
602.068	262014
602.137	265107
602.206	268716
602.275	274704
602.343	275680
602.412	278894
602.481	282396
602.550	284723
602.619	291601
602.688	296600
602.756	299459
602.825	302412
602.894	310384
602.963	318764
603.032	321717
603.100	322459
603.169	322201
603.238	325147
603.307	327892
603.375	331729
603.444	335753
603.513	343451
603.581	350120
603.650	353512
603.719	352628
603.787	361897
603.856	371604
603.924	379901
603.993	395219
604.061	409738
604.130	428092
604.198	438467
604.267	444011
604.335	451242
604.404	458913
604.472	464710
604.541	469454
604.609	473110
604.678	473956
604.746	473797
604.815	485450
604.883	495859
604.951	495981
605.020	503656
605.088	517542
605.156	530070
605.225	538206
605.293	538800
605.361	537519
605.429	547152
605.498	555415
605.566	566783
605.634	589742
605.702	611509
605.771	628522
605.839	633681
605.907	624911
605.975	602958
606.043	590349
606.111	591064
606.180	587491
606.248	591104
606.316	590273
606.384	580408
606.452	580471
606.520	596821
606.588	618112
606.656	621228
606.724	615843
606.792	584303
606.860	543698
606.928	493537
606.996	472018
607.064	461147
607.132	469315
607.200	492873
607.267	517788
607.335	519390
607.403	535971
607.471	524287
607.539	500313
607.607	510864
607.674	453706
607.742	448052
607.810	446762
607.878	444280
607.946	452654
608.013	470793
608.081	483105
608.149	482888
608.216	499769
608.284	518084
608.352	517291
608.419	519125
608.487	503380
608.555	493540
608.622	511603
608.690	532326
608.757	578342
608.825	600936
608.893	587231
608.960	561750
609.028	533804
609.095	531000
609.163	533710
609.230	495036
609.298	441303
609.365	458163
609.432	493819
609.500	527314
609.567	594242
609.635	662609
609.702	707065
609.769	688040
609.837	572446
609.904	482409
609.971	489923
610.039	525228
610.106	601379
610.173	862525
610.241	1547333
610.308	1412490
610.375	673472
610.442	541993
610.509	502773
610.577	495204
610.644	499193
610.711	510141
610.778	523456
610.845	541598
610.912	571530
610.980	597740
611.047	608558
611.114	596097
611.181	569342
611.248	568289
611.315	587200
611.382	607159
611.449	623924
611.516	637465
611.583	629357
611.650	635223
611.717	643600
611.784	652772
611.851	671932
611.918	699687
611.984	767146
612.051	916807
612.118	1271169
612.185	2027142
612.252	2023028
612.319	1105478
612.386	859614
612.452	775825
612.519	723563
612.586	704384
612.653	706771
612.719	729362
612.786	715722
612.853	667416
612.919	641374
612.986	657650
613.053	629757
613.120	593794
613.186	567514
613.253	568644
613.319	569156
613.386	576716
613.453	579363
613.519	584274
613.586	576587
613.652	580456
613.719	575183
613.785	578666
613.852	590224
613.918	590435
613.985	590994
614.051	624033
614.118	649331
614.184	650276
614.250	586487
614.317	597424
614.383	587555
614.449	596491
614.516	595844
614.582	596907
614.648	590637
614.715	582294
614.781	577265
614.847	569293
614.914	571704
614.980	557115
615.046	554544
615.112	566756
615.179	575698
615.245	581322
615.311	575167
615.377	577535
615.443	585971
615.509	590518
615.575	609633
615.642	609555
615.708	619497
615.774	639804
615.840	675240
615.906	705929
615.972	786061
616.038	975139
616.104	1450771
616.170	2152664
616.236	2281567
616.302	1428828
616.368	1092473
616.434	874547
616.500	753958
616.565	773269
616.631	943644
616.697	887345
616.763	822162
616.829	1012614
616.895	1575484
616.961	1750405
617.026	1078349
617.092	718635
617.158	638070
617.224	615612
617.289	567500
617.355	538467
617.421	525374
617.487	525384
617.552	499611
617.618	493213
617.684	494339
617.749	493279
617.815	477731
617.880	464987
617.946	464780
618.012	470281
618.077	482016
618.143	464306
618.208	457930
618.274	488205
618.339	502534
618.405	430253
618.470	409190
618.536	418126
618.601	406631
618.667	387294
618.732	360968
618.798	355590
618.863	356085
618.928	351273
618.994	354011
619.059	351404
619.124	357228
619.190	353891
619.255	348865
619.320	349953
619.386	352518
619.451	348719
619.516	339400
619.581	340611
619.647	351462
619.712	355074
619.777	335505
619.842	336790
619.907	342930
619.972	349575
620.038	349781
620.103	338941
620.168	338859
620.233	343368
620.298	345454
620.363	349356
620.428	360076
620.493	364796
620.558	372210
620.623	374427
620.688	376448
620.753	372306
620.818	381302
620.883	380511
620.948	381200
621.013	375202
621.078	368764
621.143	369747
621.207	376595
621.272	369633
621.337	361639
621.402	351955
621.467	350282
621.532	347838
621.596	352403
621.661	344580
621.726	339680
621.791	342508
621.855	344685
621.920	340443
621.985	345129
622.049	351234
622.114	353977
622.179	357181
622.243	362692
622.308	374166
622.373	387467
622.437	386911
622.502	366598
622.566	360146
622.631	360004
622.695	366688
622.760	364043
622.824	361333
622.889	363790
622.953	365712
623.018	381089
623.082	392995
623.147	387363
623.211	378434
623.276	377738
623.340	370338
623.404	354826
623.469	353564
623.533	356461
623.597	353833
623.662	349245
623.726	332618
623.790	307391
623.854	297706
623.919	300953
623.983	306416
624.047	312062
624.111	314881
624.176	321280
624.240	322024
624.304	332125
624.368	322804
624.432	320457
624.496	327270
624.560	342446
624.625	353558
624.689	345778
624.753	358210
624.817	353889
624.881	341007
624.945	315950
625.009	296396
625.073	301256
625.137	310798
625.201	323931
625.265	329586
625.329	316144
625.393	318770
625.456	323335
625.520	330981
625.584	336485
625.648	343177
625.712	351279
625.776	351073
625.839	336072
625.903	297838
625.967	265989
626.031	274126
626.095	317503
626.158	326359
626.222	259582
626.286	232824
626.349	225053
626.413	210338
626.477	206410
626.540	210853
626.604	209264
626.668	205609
626.731	205435
626.795	200756
626.858	206134
626.922	203540
626.986	198756
627.049	199129
627.113	207617
627.176	204779
627.240	196540
627.303	196662
627.366	196105
627.430	198827
627.493	196900
627.557	190999
627.620	194977
627.684	201364
627.747	208573
627.810	194893
627.874	172719
627.937	163979
628.000	167435
628.064	165980
628.127	153025
628.190	146683
628.253	143066
628.317	139450
628.380	130851
628.443	126392
628.506	124870
628.569	122668
628.632	115494
628.696	115250
628.759	114917
628.822	110610
628.885	108011
628.948	105981
629.011	105027
629.074	102751
629.137	98679
629.200	96309
629.263	95428
629.326	92693
629.389	94087
629.452	92638
629.515	92719
629.578	90915
629.641	91761
629.704	92688
629.767	91733
629.830	88107
629.892	86431
629.955	85094
630.018	88771
630.081	87035
630.144	87438
630.207	85829
630.269	85878
630.332	84119
630.395	83492
630.458	81905
630.520	79289
630.583	80013
630.646	79848
630.708	81511
630.771	84399
630.834	87193
630.896	87571
630.959	86171
631.021	83604
631.084	83680
631.146	83821
631.209	86033
631.272	84386
631.334	86960
631.397	89107
631.459	90051
631.522	92011
631.584	95631
631.646	102200
631.709	105078
631.771	107350
631.834	100976
631.896	99399
631.958	92488
632.021	89866
632.083	86069
632.145	84145
632.208	81952
632.270	83481
632.332	80583
632.395	80296
632.457	80566
632.519	78711
632.581	78600
632.643	77615
632.706	78456
632.768	75715
632.830	77530
632.892	80430
632.954	82055
633.016	83362
633.078	81806
633.141	82234
633.203	80653
633.265	79396
633.327	78227
633.389	80977
633.451	82521
633.513	80126
633.575	82727
633.637	83287
633.698	83583
633.760	88935
633.822	93002
633.884	94067
633.946	96273
634.008	101718
634.070	103616
634.132	111412
634.193	120250
634.255	127907
634.317	130893
634.379	128931
634.441	118761
634.502	109694
634.564	98954
634.626	90191
634.687	86366
634.749	81755
634.811	81056
634.873	78200
634.934	80437
634.996	79633
635.057	80198
635.119	81069
635.181	82858
635.242	83125
635.304	82095
635.365	84237
635.427	82126
635.488	83038
635.550	82689
635.611	83588
635.673	83604
635.734	89504
635.796	93737
635.857	103472
635.918	111200
635.980	122593
636.041	128715
636.102	136276
636.164	141398
636.225	135793
636.286	120581
636.348	107714
636.409	96477
636.470	91121
636.531	84914
636.593	80980
636.654	77937
636.715	75048
636.776	72900
636.838	72236
636.899	70281
636.960	68139
637.021	67325
637.082	66584
637.143	64564
637.204	63485
637.265	64077
637.326	64965
637.387	65776
637.448	65711
637.509	64886
637.570	65085
637.631	63504
637.692	61847
637.753	59187
637.814	60561
637.875	59417
637.936	59588
637.997	59849
638.058	59495
638.119	59221
638.179	58470
638.240	59152
638.301	58504
638.362	57556
638.423	56440
638.483	55712
638.544	54035
638.605	56096
638.666	56774
638.726	56300
638.787	55063
638.848	55234
638.908	54886
638.969	52132
639.030	50304
639.090	50291
639.151	51836
639.211	52009
639.272	52860
639.332	53263
639.393	55001
639.453	57818
639.514	61994
639.574	55756
639.635	50484
639.695	48005
639.756	48175
639.816	48459
639.877	47542
639.937	49173
639.997	48093
640.058	47956
640.118	48306
640.178	48711
640.239	47981
640.299	48656
640.359	48993
640.420	52448
640.480	58931
640.540	66460
640.600	71948
640.661	66064
640.721	61629
640.781	69531
640.841	79668
640.901	57146
640.961	51275
641.021	51828
641.082	57586
641.142	51978
641.202	49138
641.262	44111
641.322	46809
641.382	45087
641.442	46234
641.502	44773
641.562	45298
641.622	47781
641.682	51223
641.742	58058
641.802	58160
641.861	48816
641.921	44525
641.981	44602
642.041	42394
642.101	41380
642.161	40881
642.221	42552
642.280	43111
642.340	42675
642.400	43095
642.460	44706
642.519	44269
642.579	43556
642.639	44932
642.698	43858
642.758	47488
642.818	46587
642.877	45670
642.937	45818
642.997	45411
643.056	44531
643.116	44922
643.175	46722
643.235	47180
643.294	49951
643.354	52769
643.414	55434
643.473	63606
643.532	74311
643.592	94590
643.651	129425
643.711	196440
643.770	330024
643.830	632707
643.889	1240170
643.948	754521
644.008	207914
644.067	107755
644.126	78826
644.186	64463
644.245	57919
644.304	51663
644.363	50782
644.423	47869
644.482	49364
644.541	51132
644.600	53440
644.659	62960
644.719	76709
644.778	101918
644.837	154865
644.896	271411
644.955	606408
645.014	406894
645.073	103647
645.132	67453
645.191	58759
645.250	55108
645.309	56666
645.368	61332
645.427	74892
645.486	111692
645.545	228005
645.604	116064
645.663	51970
645.722	49899
645.781	52836
645.840	55561
645.898	67030
645.957	85235
646.016	117916
646.075	183919
646.134	308604
646.192	624037
646.251	1094593
646.310	460876
646.369	139857
646.427	95096
646.486	76696
646.545	56432
646.603	50036
646.662	46662
646.721	45069
646.779	45101
646.838	46046
646.896	54055
646.955	68515
647.014	98007
647.072	162659
647.131	399608
647.189	379346
647.248	75196
647.306	45946
647.365	40574
647.423	34368
647.481	35368
647.540	33809
647.598	34265
647.657	34111
647.715	33354
647.773	31935
647.832	31804
647.890	28535
647.948	28787
648.007	29704
648.065	28052
648.123	27529
648.181	29917
648.240	29757
648.298	32446
648.356	27031
648.414	27712
648.472	27050
648.531	27618
648.589	25653
648.647	25607
648.705	26441
648.763	26107
648.821	27820
648.879	29650
648.937	32212
648.995	37790
649.053	45451
649.111	62252
649.169	92130
649.227	147669
649.285	264641
649.343	653116
649.401	618117
649.459	133310
649.516	62226
649.574	52026
649.632	61771
649.690	84554
649.748	65709
649.806	82334
649.863	138868
649.921	293520
649.979	357370
650.037	72499
650.094	32438
650.152	27730
650.210	25554
650.268	27153
650.325	27718
650.383	36935
650.440	26597
650.498	21367
650.556	19806
650.613	20521
650.671	20693
650.728	21470
650.786	21777
650.843	27876
650.901	29422
650.958	18843
651.016	18532
651.073	16586
651.131	15967
651.188	16670
651.246	17065
651.303	15038
651.360	16513
651.418	15061
651.475	16456
651.532	15162
651.590	16003
651.647	15808
651.704	14795
651.762	15736
651.819	15542
651.876	14417
651.933	14611
651.990	14963
652.048	13921
652.105	13410
652.162	15115
652.219	13759
652.276	15201
652.333	14457
652.390	13263
652.448	14077
652.505	14030
652.562	15098
652.619	15114
652.676	19673
652.733	24183
652.790	15330
652.847	12229
652.904	12661
652.961	11770
653.017	13384
653.074	13033
653.131	12749
653.188	10966
653.245	13516
653.302	13489
653.359	12830
653.415	12579
653.472	13091
653.529	13008
653.586	12517
653.642	12353
653.699	13469
653.756	12530
653.813	12456
653.869	13268
653.926	13684
653.983	12590
654.039	13773
654.096	12537
654.152	13257
654.209	11589
654.266	12540
654.322	11437
654.379	12392
654.435	12335
654.492	12550
654.548	11607
654.605	11345
654.661	13650
654.717	13207
654.774	12067
654.830	12292
654.887	12557
654.943	13234
655.000	18146
655.056	16498
655.112	12492
655.168	12003
655.225	12443
655.281	12958
655.337	12348
655.394	12908
655.450	11779
655.506	11926
655.562	11355
655.618	12626
655.675	10860
655.731	12264
655.787	11510
655.843	11207
655.899	11981
655.955	13289
656.011	12177
656.067	12000
656.123	12731
656.179	13512
656.235	12952
656.291	12198
656.347	13857
656.403	12144
656.459	12552
656.515	12645
656.571	11588
656.627	12298
656.683	11298
656.739	11611
656.795	12012
656.850	11582
656.906	12311
656.962	13878
657.018	12335
657.074	15374
657.129	19978
657.185	28108
657.241	60111
657.297	65220
657.352	17189
657.408	12446
657.464	12123
657.519	10650
657.575	9612
657.630	10279
657.686	10295
657.742	10489
657.797	9545
657.853	9775
657.908	11162
657.964	10078
658.019	10065
658.075	10489
658.130	10689
658.186	9509
658.241	10540
658.297	9738
658.352	9345
658.407	10074
658.463	8860
658.518	10249
658.573	9918
658.629	8838
658.684	10314
658.739	9990
658.795	9029
658.850	9569
658.905	9240
658.960	9866
659.016	8729
659.071	8581
659.126	9562
659.181	8338
659.236	9667
659.291	9974
659.346	9038
659.401	10715
659.457	11906
659.512	15384
659.567	12637
659.622	9439
659.677	8759
659.732	7705
659.787	8381
659.842	8475
659.897	9426
659.952	9651
660.007	8926
660.061	8646
660.116	8399
660.171	8942
660.226	9021
660.281	9248
660.336	8075
660.391	8980
660.445	8485
660.500	7949
660.555	8803
660.610	8155
660.664	8845
660.719	7941
660.774	8789
660.828	8184
660.883	8538
660.938	8445
660.992	7471
661.047	9023
661.101	8008
661.156	7657
661.211	7716
661.265	7351
661.320	8551
661.374	8243
661.429	8360
661.483	8562
661.538	8476
661.592	9076
661.647	10470
661.701	15191
661.755	13034
661.810	9195
661.864	7601
661.919	7253
661.973	8111
662.027	7612
662.081	8006
662.136	7385
662.190	8058
662.244	8758
662.299	7692
662.353	8853
662.407	7772
662.461	6734
662.515	8407
662.569	7694
662.624	8294
662.678	7266
662.732	7622
662.786	8011
662.840	7881
662.894	8318
662.948	7307
663.002	8180
663.056	8081
663.110	7454
663.164	7873
663.218	8192
663.272	8058
663.326	8499
663.380	8019
663.434	8663
663.488	7340
663.542	8140
663.595	8195
663.649	7711
663.703	9279
663.757	7691
663.811	7581
663.864	8422
663.918	8871
663.972	8338
664.026	7920
664.079	7443
664.133	9015
664.187	9676
664.240	8576
664.294	9088
664.348	9472
664.401	9420
664.455	9367
664.508	7833
664.562	8344
664.615	8298
664.669	7226
664.722	8160
664.776	6495
664.829	7140
664.883	7304
664.936	7533
664.990	8163
665.043	8236
665.097	8123
665.150	9536
665.203	7481
665.257	9173
665.310	8842
665.363	9043
665.417	8810
665.470	9252
665.523	8385
665.576	8911
665.630	9296
665.683	8552
665.736	9643
665.789	9724
665.842	9130
665.895	8753
665.949	9018
666.002	8773
666.055	8957
666.108	9147
666.161	9596
666.214	10329
666.267	9805
666.320	9764
666.373	10242
666.426	10809
666.479	10151
666.532	10423
666.585	10132
666.638	11111
666.691	10133
666.744	10768
666.796	9215
666.849	9930
666.902	10561
666.955	10047
667.008	10101
667.060	9359
667.113	9253
667.166	10118
667.219	10177
667.271	11702
667.324	10706
667.377	11391
667.430	10385
667.482	11113
667.535	11288
667.587	10473
667.640	9354
667.693	9442
667.745	9454
667.798	10673
667.850	9177
667.903	10177
667.955	11135
668.008	9798
668.060	10844
668.113	9265
668.165	8934
668.218	10077
668.270	9121
668.322	9030
668.375	9203
668.427	9890
668.479	7941
668.532	9673
668.584	9526
668.636	9008
668.689	8494
668.741	9367
668.793	9034
668.845	9417
668.898	9462
668.950	8542
669.002	9288
669.054	8096
669.106	9553
669.158	9244
669.211	9104
669.263	9383
669.315	10083
669.367	11934
669.419	9603
669.471	8797
669.523	8577
669.575	8900
669.627	9026
669.679	8139
669.731	9403
669.783	8686
669.835	8454
669.886	8092
669.938	8493
669.990	8228
670.042	7840
670.094	7967
670.146	7966
670.197	9099
670.249	8330
670.301	7497
670.353	8499
670.404	8851
670.456	6716
670.508	8889
670.560	9487
670.611	10175
670.663	11140
670.715	13970
670.766	21844
670.818	15721
670.869	9804
670.921	10401
670.972	10464
671.024	9626
671.075	9620
671.127	9077
671.178	10809
671.230	11737
671.281	13209
671.333	14124
671.384	17146
671.436	21736
671.487	29449
671.538	41484
671.590	59792
671.641	93183
671.692	148667
671.744	282682
671.795	315304
671.846	151372
671.897	69884
671.949	41386
672.000	27883
672.051	21608
672.102	17164
672.153	13899
672.204	12990
672.256	11890
672.307	10080
672.358	10546
672.409	9429
672.460	9154
672.511	8336
672.562	7938
672.613	7632
672.664	8043
672.715	7213
672.766	7373
672.817	6990
672.868	6467
672.919	6874
672.970	5662
673.021	6373
673.071	6261
673.122	6890
673.173	6037
673.224	6223
673.275	6995
673.326	6287
673.376	6455
673.427	5374
673.478	6081
673.528	7204
673.579	6295
673.630	6001
673.680	6234
673.731	6851
673.782	6884
673.832	6160
673.883	6494
673.934	5786
673.984	6481
674.035	5966
674.085	6543
674.136	5691
674.186	6096
674.237	6773
674.287	6975
674.338	7139
674.388	6226
674.438	7571
674.489	8159
674.539	7270
674.589	8669
674.640	8066
674.690	8032
674.740	7665
674.791	7123
674.841	7307
674.891	6018
674.942	5569
674.992	5264
675.042	5197
675.092	5630
675.142	5419
675.193	5156
675.243	5167
675.293	5211
675.343	5485
675.393	5757
675.443	5598
675.493	6044
675.543	5677
675.593	5299
675.643	6045
675.693	5729
675.743	4978
675.793	5335
675.843	4189
675.893	4154
675.943	5242
675.993	5110
676.043	3977
676.093	4112
676.142	4392
676.192	4878
676.242	4268
676.292	4894
676.341	4504
676.391	5209
676.441	5032
676.491	4687
676.540	3912
676.590	5234
676.640	4559
676.689	4234
676.739	3346
676.789	4303
676.838	3848
676.888	4511
676.937	2903
676.987	4747
677.037	4616
677.086	4054
677.136	4176
677.185	4743
677.235	4387
677.284	4078
677.333	4113
677.383	4703
677.432	3903
677.482	3846
677.531	3231
677.580	3252
677.630	3100
677.679	4493
677.728	3203
677.778	4171
677.827	3863
677.876	4069
677.925	4055
677.975	4052
678.024	5719
678.073	5536
678.122	4478
678.171	5026
678.220	5554
678.269	6304
678.319	7158
678.368	8533
678.417	6365
678.466	6119
678.515	4686
678.564	3794
678.613	3649
678.662	3634
678.711	4059
678.760	4623
678.809	4120
678.857	4276
678.906	4835
678.955	5035
679.004	4551
679.053	5804
679.102	6017
679.151	5426
679.199	3607
679.248	3152
679.297	3401
679.346	3871
679.394	2715
679.443	2842
679.492	2822
679.540	3490
679.589	3590
679.638	4682
679.686	4361
679.735	4785
679.784	4762
679.832	6215
679.881	6009
679.929	5404
679.978	3829
680.026	4420
680.075	3744
680.123	3358
680.172	3109
680.220	3618
680.268	3762
680.317	3074
680.365	2906
680.414	3065
680.462	2988
680.510	3488
680.559	2664
680.607	3312
680.655	3131
680.703	3137
680.752	3970
680.800	3382
680.848	2921
680.896	3025
680.945	2975
680.993	3397
681.041	3415
681.089	2482
681.137	2795
681.185	2888
681.233	2954
681.258	3260
681.281	3527
681.329	3163
681.377	2683
681.380	2712
681.425	2846
681.473	3904
681.502	3684
681.521	3496
681.569	3875
681.617	4085
681.624	4059
681.665	3713
681.713	3439
681.745	3570
681.761	3589
681.809	3764
681.857	3494
681.867	3511
681.904	3514
681.952	4160
681.989	3970
682.000	3870
682.048	3861
682.096	3039
682.111	3440
682.143	4247
682.191	4066
682.233	4640
682.239	4706
682.286	3844
682.334	3659
682.354	3837
682.382	4031
682.430	4030
682.476	4268
682.477	4252
682.525	4199
682.572	4080
682.598	4036
682.620	3968
682.667	4807
682.715	4444
682.720	4475
682.763	4588
682.810	4675
682.841	4367
682.857	4169
682.905	4678
682.952	4574
682.963	4514
683.000	4215
683.047	3657
683.085	4823
683.095	5122
683.142	4478
683.190	4942
683.206	4674
683.237	4104
683.284	4718
683.328	4490
683.332	4458
683.379	5359
683.426	4383
683.449	4608
683.473	4830
683.521	4761
683.568	5712
683.571	5687
683.615	5064
683.662	5516
683.693	4839
683.709	4434
683.757	5338
683.804	5228
683.814	5095
683.851	4567
683.898	4188
683.936	4285
683.945	4327
683.992	4627
684.039	5386
684.057	5444
684.086	5377
684.133	5203
684.179	4658
684.180	4629
684.227	4697
684.274	5073
684.300	4746
684.321	4489
684.368	4181
684.415	5088
684.422	5107
684.462	5113
684.509	5395
684.543	5097
684.556	4986
684.603	5659
684.649	5150
684.665	5198
684.696	5275
684.743	5431
684.786	5802
684.790	5814
684.837	4727
684.883	5085
684.908	5153
684.930	5232
684.977	5868
685.023	5390
685.029	5465
685.070	5969
685.117	6090
685.150	6187
685.164	6199
685.210	5316
685.257	5965
685.272	6110
685.303	6462
685.350	6740
685.393	6924
685.396	6907
685.443	5924
685.490	5593
685.514	5688
685.536	5834
685.583	5608
685.629	5784
685.636	5696
685.675	5153
685.722	5541
685.757	5787
685.768	5874
685.815	6371
685.861	6385
685.878	6080
685.908	5492
685.954	5778
686.000	6303
686.000	6309
686.047	6334
686.093	6577
686.121	6603
686.139	6578
686.185	7375
686.232	6622
686.242	6658
686.278	6802
686.324	6971
686.363	7029
686.370	7023
686.416	6612
686.463	7353
686.484	7421
686.509	7524
686.555	7372
686.601	7292
686.606	7296
686.647	6989
686.693	6605
686.727	6443
686.739	6472
686.785	6734
686.831	6800
686.848	6748
686.877	6625
686.923	6346
686.969	6541
686.969	6542
687.015	7064
687.061	7559
687.090	7969
687.107	8168
687.153	7824
687.199	8014
687.211	8012
687.245	7774
687.291	7673
687.332	7396
687.336	7400
687.382	7915
687.428	7851
687.453	8112
687.474	8297
687.520	7745
687.565	8813
687.574	8733
687.611	8911
687.657	10284
687.695	11232
687.702	11662
687.748	14678
687.794	20357
687.816	21214
687.839	20457
687.885	16667
687.931	15133
687.937	14992
687.976	13038
688.022	10721
688.058	8560
688.067	8471
688.113	8422
688.158	8484
688.179	8415
688.204	8307
688.249	8147
688.295	8363
688.300	8308
688.340	8127
688.386	9029
688.421	8414
688.431	8210
688.477	8210
688.522	8195
688.542	8390
688.567	8911
688.613	8964
688.658	9939
688.663	9900
688.703	9342
688.749	9705
688.784	9389
688.794	9277
688.839	9227
688.884	9526
688.905	9299
688.930	9151
688.975	9739
689.020	9509
689.026	9498
689.065	9279
689.110	9244
689.146	8774
689.155	8826
689.201	10478
689.246	11306
689.267	11408
689.291	10957
689.336	9963
689.381	9736
689.388	9631
689.426	9286
689.471	9236
689.509	9309
689.516	9409
689.561	9125
689.606	9172
689.630	9239
689.651	9148
689.696	8955
689.741	9475
689.750	9328
689.785	9206
689.830	9542
689.871	10143
689.875	10173
689.920	9878
689.965	9680
689.992	9573
690.010	9536
690.054	9214
690.099	9389
690.112	9204
690.144	8902
690.189	9085
690.233	9222
690.233	9234
690.278	8886
690.323	8984
690.354	9420
690.367	9659
690.412	9949
690.457	9718
690.474	9785
690.501	9706
690.546	9482
690.590	9219
690.595	9186
690.635	9070
690.680	8809
690.716	8663
690.724	8668
690.769	8749
690.813	9184
690.836	8952
690.857	8942
690.902	9454
690.946	9595
690.957	9665
690.991	9825
691.035	9969
691.077	10223
691.080	10249
691.124	10671
691.168	10744
691.198	10788
691.213	10734
691.257	10215
691.301	10137
691.318	10062
691.346	10085
691.390	9822
691.434	9714
691.439	9704
691.478	9861
691.522	9854
691.559	9779
691.567	9796
691.611	10157
691.655	10259
691.680	10454
691.699	10559
691.743	10589
691.787	10446
691.800	10391
691.831	10352
691.875	10371
691.919	10248
691.921	10230
691.964	10258
692.008	10472
692.041	10364
692.052	10347
692.096	10289
692.139	10319
692.162	10303
692.183	10423
692.227	10872
692.271	10618
692.282	10657
692.315	10461
692.359	10418
692.402	9569
692.403	9585
692.447	10103
692.490	10162
692.523	10276
692.534	10325
692.578	10117
692.622	10073
692.643	10218
692.666	10396
692.709	10243
692.753	10372
692.763	10357
692.797	10594
692.840	10823
692.884	11219
692.884	11240
692.928	11098
692.971	10945
693.004	10671
693.015	10656
693.059	10689
693.102	10906
693.124	10862
693.146	10804
693.189	10724
693.233	10475
693.245	10429
693.276	10512
693.320	10747
693.363	10718
693.365	10698
693.407	10780
693.450	11156
693.485	11108
693.493	11139
693.537	11561
693.580	11368
693.605	11501
693.624	11373
693.667	10820
693.710	10484
693.725	10297
693.753	10464
693.797	10753
693.840	10904
693.845	10926
693.883	11020
693.926	10952
693.966	10999
693.970	11040
694.013	10674
694.056	10865
694.086	11038
694.099	11105
694.142	11021
694.185	10921
694.206	10988
694.229	11195
694.272	11150
694.315	11372
694.326	11325
694.358	11409
694.401	11615
694.444	11964
694.446	11950
694.487	11887
694.530	11708
694.566	11749
694.573	11797
694.616	11619
694.659	11703
694.686	11660
694.702	11808
694.745	12343
694.787	12637
694.806	12694
694.830	12465
694.873	12121
694.916	11852
694.926	11770
694.959	12145
695.002	12433
695.044	13046
695.046	13033
695.087	13376
695.130	13660
695.166	13868
695.172	13887
695.215	13954
695.258	13931
695.286	13917
695.301	14108
695.343	14494
695.386	14933
695.406	15082
695.428	15389
695.471	15861
695.514	16611
695.526	16782
695.556	18938
695.599	22061
695.641	24723
695.646	24980
695.684	23592
695.726	21848
695.766	20483
695.769	20481
695.811	19503
695.854	18551
695.886	18009
695.896	18091
695.938	17985
695.981	17932
696.005	17926
696.023	18613
696.065	20175
696.108	21771
696.125	22350
696.150	22967
696.192	23921
696.235	24883
696.245	25055
696.277	25164
696.319	25315
696.361	25462
696.365	25404
696.404	24989
696.446	24527
696.485	24218
696.488	24274
696.530	24125
696.572	24081
696.604	23957
696.614	24013
696.656	23859
696.698	23892
696.724	23817
696.740	23877
696.783	23911
696.825	23870
696.844	23852
696.867	24178
696.909	24648
696.951	25158
696.964	25213
696.992	25104
697.034	24896
697.076	24732
697.083	24665
697.118	25897
697.160	27302
697.202	28505
697.203	28476
697.244	28127
697.286	27569
697.323	27049
697.327	27163
697.369	27664
697.411	28106
697.442	28357
697.453	28349
697.494	28085
697.536	27845
697.562	27577
697.578	27697
697.620	27874
697.661	28005
697.682	28059
697.703	28618
697.744	29580
697.786	30597
697.801	30840
697.828	30908
697.869	30975
697.911	30937
697.921	30881
697.952	30798
697.994	30568
698.035	30293
698.040	30191
698.077	30331
698.118	30455
698.160	30459
698.160	30385
698.201	31185
698.243	31877
698.279	32425
698.284	32636
698.325	33837
698.367	35141
698.399	36011
698.408	36175
698.449	36537
698.491	36935
698.518	37089
698.532	37077
698.573	36794
698.614	36499
698.638	36250
698.656	36397
698.697	36531
698.738	36661
698.757	36627
698.779	36707
698.820	36709
698.862	36711
698.877	36621
698.903	36564
698.944	36336
698.985	36111
698.996	35962
699.026	35952
699.067	35818
699.116	35573
699.235	37330
699.354	36626
699.474	34434
699.593	32347
699.713	34420
699.832	33190
699.951	35351
700.070	35477
700.190	32201
700.309	31607
700.428	31095
700.547	29974
700.667	30159
700.786	30637
700.905	29093
701.024	29799
701.143	29615
701.262	29984
701.381	31504
701.500	31841
701.619	30840
701.738	31115
701.857	29918
701.976	29570
702.095	28399
702.214	31627
702.333	29238
702.452	31356
702.571	30476
702.690	31331
702.809	31799
702.928	27500
703.047	28624
703.165	26219
703.284	28652
703.403	26152
703.522	28795
703.640	24946
703.759	27056
703.878	25471
703.997	26471
704.115	27236
704.234	26926
704.353	28479
704.471	24239
704.590	23974
704.708	24412
704.827	23149
704.946	24330
705.064	24321
705.183	23697
705.301	23929
705.420	23899
705.538	22682
705.656	23093
705.775	23314
705.893	35150
706.012	56970
706.130	24818
706.249	22382
706.367	21946
706.485	21060
706.604	20843
706.722	21818
706.840	26875
706.958	45744
707.077	47367
707.195	22856
707.313	20753
707.431	17798
707.549	20100
707.668	16887
707.786	21334
707.904	18823
708.022	20388
708.140	19657
708.258	17654
708.376	20189
708.494	18170
708.612	19647
708.730	20868
708.848	18890
708.966	19406
709.084	18014
709.202	19149
709.320	16936
709.438	17391
709.556	18415
709.674	16323
709.791	15641
709.909	16007
710.027	15675
710.145	17326
710.263	16010
710.380	16146
710.498	15525
710.616	15377
710.733	14475
710.851	14043
710.969	15601
711.086	15157
711.204	15357
711.322	14769
711.439	15004
711.557	14375
711.674	14542
711.792	14885
711.909	15410
712.027	18115
712.144	14420
712.262	13703
712.379	14740
712.497	14174
712.614	13870
712.732	15687
712.849	13061
712.966	13529
713.084	16091
713.201	13195
713.318	13411
713.436	16186
713.553	15162
713.670	16656
713.787	17598
713.905	15986
714.022	17045
714.139	18518
714.256	22743
714.373	32563
714.490	61635
714.608	143923
714.725	549655
714.842	1028949
714.959	168107
715.076	40512
715.193	26877
715.310	23345
715.427	16061
715.544	15513
715.661	16620
715.778	14886
715.895	13088
716.011	13891
716.128	14335
716.245	13313
716.362	13344
716.479	11460
716.596	11403
716.713	13028
716.829	12391
716.946	10826
717.063	10925
717.180	9852
717.296	10086
717.413	11210
717.530	11166
717.646	8943
717.763	9590
717.880	9990
717.996	9025
718.113	8786
718.229	10307
718.346	8205
718.462	9337
718.579	9041
718.695	10021
718.812	9509
718.928	9361
719.045	9719
719.161	9714
719.277	9884
719.394	11999
719.510	10939
719.626	12515
719.743	15295
719.859	27060
719.975	56287
720.092	193780
720.208	646809
720.324	197262
720.440	25960
720.557	15262
720.673	13582
720.789	11307
720.905	9916
721.021	9765
721.137	9700
721.253	8220
721.369	8490
721.486	8696
721.602	7982
721.718	8051
721.834	8363
721.950	8220
722.066	7971
722.181	7757
722.297	7230
722.413	7059
722.529	7804
722.645	7583
722.761	8009
722.877	7565
722.993	10030
723.108	14111
723.224	14098
723.340	9183
723.456	8296
723.571	6329
723.687	6411
723.803	6958
723.918	8251
724.034	7118
724.150	7614
724.265	6933
724.381	5485
724.497	6496
724.612	5786
724.728	6948
724.843	6130
724.959	6842
725.074	6905
725.190	6755
725.305	7306
725.421	6613
725.536	6581
725.651	7532
725.767	6335
725.882	7491
725.997	6063
726.113	6785
726.228	6338
726.343	6394
726.459	6862
726.574	6549
726.689	6546
726.804	6166
726.920	6675
727.035	6516
727.150	6925
727.265	6291
727.380	6272
727.495	7070
727.610	6011
727.725	5963
727.841	7916
727.956	17174
728.071	21250
728.186	7694
728.301	5952
728.416	6336
728.531	7307
728.645	5336
728.760	5825
728.875	6177
728.990	6045
729.105	6041
729.220	5698
729.335	6804
729.449	6378
729.564	6382
729.679	5645
729.794	6172
729.908	6994
730.023	6513
730.138	7260
730.253	6807
730.367	6066
730.482	6391
730.596	6329
730.711	9112
730.826	15272
730.940	22600
731.055	13337
731.169	10030
731.284	10499
731.398	11282
731.513	11837
731.627	13410
731.742	17639
731.856	23733
731.970	25243
732.085	29692
732.199	42999
732.313	77220
732.428	177094
732.542	526898
732.656	560030
732.771	115617
732.885	48271
732.999	37369
733.113	37328
733.227	34414
733.342	33007
733.456	30717
733.570	30187
733.684	28014
733.798	26927
733.912	26135
734.026	27685
734.140	26637
734.254	26131
734.368	24370
734.482	24339
734.596	25169
734.710	24368
734.824	23567
734.938	22422
735.052	24599
735.166	23874
735.280	23069
735.393	22009
735.507	22787
735.621	23195
735.735	21677
735.849	21738
735.962	21569
736.076	21957
736.190	22073
736.303	21246
736.417	21956
736.531	19443
736.644	21648
736.758	19548
736.872	20853
736.985	18322
737.099	19908
737.212	18448
737.326	20042
737.439	19609
737.553	18819
737.666	19335
737.780	18505
737.893	19812
738.007	17419
738.120	20686
738.233	16382
738.347	18881
738.460	16626
738.573	19604
738.687	16683
738.800	18649
738.913	19009
739.026	18554
739.140	17270
739.253	19136
739.366	16368
739.479	16748
739.592	17614
739.705	14955
739.818	17132
739.932	16425
740.045	15869
740.158	17087
740.271	15542
740.384	18029
740.497	13128
740.610	16871
740.723	14768
740.836	15404
740.949	14278
741.062	17570
741.174	15618
741.287	13661
741.400	16419
741.513	12897
741.626	14949
741.739	15759
741.851	13040
741.964	14868
742.077	15494
742.189	13291
742.302	15736
742.415	16555
742.527	13422
742.640	14755
742.753	11873
742.865	13302
742.978	12523
743.090	12329
743.203	12685
743.316	13006
743.428	12563
743.541	14330
743.653	12102
743.766	11639
743.878	13651
743.990	11167
744.103	13680
744.215	16992
744.327	11839
744.440	14483
744.552	13439
744.664	10429
744.777	12128
744.889	13435
745.001	11823
745.113	12585
745.226	12254
745.338	10122
745.450	11974
745.562	11808
745.674	9831
745.786	12563
745.898	12566
746.010	10661
746.122	12188
746.234	12528
746.347	11143
746.459	12165
746.570	8897
746.682	12985
746.794	20568
746.906	14289
747.018	10587
747.130	11116
747.242	9417
747.354	8422
747.466	11302
747.577	9113
747.689	10273
747.801	10653
747.913	9073
748.024	8924
748.136	10185
748.248	9563
748.359	9066
748.471	9972
748.583	10247
748.694	8996
748.806	11582
748.918	9277
749.029	9181
749.141	9542
749.252	10803
749.364	7624
749.475	8036
749.587	7676
749.698	7648
749.809	7909
749.921	7788
750.032	8470
750.144	7057
750.255	8115
750.366	8772
750.478	7075
750.589	8696
750.700	6660
750.811	8832
750.923	7649
751.034	6478
751.145	8882
751.256	8576
751.367	7024
751.479	8175
751.590	7014
751.701	7360
751.812	6147
751.923	6396
752.034	8311
752.145	8174
752.256	7991
752.367	7388
752.478	7470
752.589	7520
752.700	7915
752.811	6580
752.922	7486
753.032	7513
753.143	8062
753.254	7497
753.365	8807
753.476	9092
753.586	7764
753.697	6217
753.808	7256
753.919	6773
754.029	7086
754.140	6584
754.251	7050
754.361	6972
754.472	7895
754.582	6413
754.693	6883
754.804	7789
754.914	8084
755.025	5571
755.135	6367
755.246	7932
755.356	7576
755.466	6226
755.577	6426
755.687	6109
755.798	5850
755.908	5548
756.018	5451
756.129	6300
756.239	7036
756.349	7283
756.460	6977
756.570	8552
756.680	7139
756.790	7432
756.900	7769
757.011	6457
757.121	4643
757.231	4896
757.341	6247
757.451	5170
757.561	5420
757.671	5710
757.781	6871
757.891	6511
758.001	4644
758.111	5139
758.221	7160
758.331	7522
758.441	7096
758.551	6506
758.661	8416
758.771	8504
758.880	7543
758.990	7434
759.100	6868
759.210	6487
759.320	7185
759.429	7854
759.539	8353
759.649	9289
759.758	10996
759.868	11551
759.978	11956
760.087	12267
760.197	13017
760.307	12963
760.416	11580
760.526	10678
760.635	10315
760.745	11572
760.854	12725
760.964	14854
761.073	16514
761.182	14838
761.292	12085
761.401	10110
761.511	8346
761.620	6804
761.729	6819
761.839	6218
761.948	5350
762.057	6326
762.166	7564
762.276	6648
762.385	6417
762.494	5689
762.603	6184
762.712	5075
762.822	5237
762.931	4057
763.040	4098
763.149	5024
763.258	4405
763.367	4055
763.476	5380
763.585	4311
763.694	4551
763.803	4180
763.912	4518
764.021	5037
764.130	4011
764.238	4986
764.347	5398
764.456	6317
764.565	5848
764.674	4434
764.783	4393
764.891	4761
765.000	4322
765.109	4008
765.217	3864
765.326	3807
765.435	4075
765.543	4443
765.652	4038
765.761	3433
765.869	3830
765.978	3558
766.086	4072
766.195	6040
766.303	7669
766.412	25360
766.520	42587
766.629	7418
766.737	4195
766.846	4364
766.954	3628
767.062	4824
767.171	7450
767.279	8089
767.387	3798
767.496	3869
767.604	2939
767.712	3953
767.820	3857
767.928	4019
768.037	2685
768.145	3940
768.253	3707
768.361	3160
768.469	4185
768.577	2466
768.685	3455
768.793	4548
768.901	3387
769.009	4445
769.117	3751
769.225	3389
769.333	4290
769.441	4833
769.549	5778
769.657	6247
769.765	9746
769.873	27125
769.981	15066
770.088	6085
770.196	5628
770.304	5950
770.412	5616
770.519	4891
770.627	7630
770.735	6419
770.842	6125
770.950	6187
771.058	7757
771.165	8913
771.273	11627
771.380	10588
771.488	13585
771.595	20932
771.703	17331
771.810	15442
771.918	15919
772.025	19055
772.133	23863
772.240	21319
772.348	24815
772.455	24553
772.562	21473
772.670	22012
772.777	21421
772.884	22219
772.991	19626
773.099	22245
773.206	19072
773.313	21085
773.420	20166
773.528	20064
773.635	19238
773.742	21619
773.849	18590
773.956	20459
774.063	18355
774.170	20111
774.277	19209
774.384	18424
774.491	17837
774.598	18572
774.705	17916
774.812	17888
774.919	17446
775.026	18879
775.133	16756
775.239	18784
775.346	16614
775.453	16882
775.560	18053
775.667	16673
775.773	17993
775.880	15926
775.987	16471
776.093	15683
776.200	18748
776.307	15209
776.413	13814
776.520	17367
776.627	16866
776.733	14281
776.840	13634
776.946	20045
777.053	20364
777.159	26835
777.266	22526
777.372	22499
777.478	24642
777.585	21464
777.691	13141
777.798	14876
777.904	16225
778.010	13399
778.117	16993
778.223	13419
778.329	14440
778.435	11904
778.542	14858
778.648	14302
778.754	12107
778.860	13429
778.966	13977
779.072	11471
779.178	12681
779.284	11869
779.391	10719
779.497	14503
779.603	12859
779.708	11559
779.815	10249
779.920	12184
780.026	11098
780.132	12204
780.238	13017
780.344	9508
780.450	13799
780.556	11706
780.661	8433
780.767	14159
780.873	9307
780.979	8908
781.085	13287
781.190	10529
781.296	10397
781.402	10590
781.507	11452
781.613	8862
781.719	8488
781.824	13288
781.930	10398
782.035	9020
782.141	13034
782.246	8687
782.352	8015
782.457	10307
782.563	10661
782.668	10416
782.773	9629
782.879	7521
782.984	8937
783.090	11082
783.195	9611
783.300	11787
783.405	9640
783.511	7722
783.616	7733
783.721	9715
783.826	9815
783.932	7785
784.037	9656
784.142	8434
784.247	8438
784.352	8608
784.457	7338
784.562	7611
784.667	9857
784.772	7843
784.877	5146
784.982	8857
785.087	9836
785.192	6206
785.297	7041
785.402	8775
785.507	8740
785.611	8336
785.716	6124
785.821	7609
785.926	8742
786.031	8137
786.135	7933
786.240	7522
786.345	7347
786.450	5621
786.554	7357
786.659	6574
786.763	7158
786.868	7627
786.973	8561
787.077	6525
787.182	6131
787.286	6298
787.391	10159
787.495	6516
787.600	3754
787.704	6551
787.809	7150
787.913	6959
788.017	6745
788.122	8407
788.226	6434
788.330	4947
788.435	5982
788.539	7536
788.643	6938
788.747	4802
788.852	5275
788.956	5903
789.060	6789
789.164	6738
789.268	5833
789.372	7679
789.476	6296
789.580	4375
789.684	3456
789.788	7125
789.892	6752
789.996	5454
790.100	3040
790.204	5761
790.308	6576
790.412	5807
790.516	3843
790.620	5818
790.724	8007
790.828	6700
790.931	3571
791.035	5488
791.139	5175
791.242	5601
791.346	5413
791.450	5879
791.554	5504
791.657	3188
791.761	4544
791.864	6246
791.968	5389
792.072	6453
792.175	4627
792.279	4930
792.382	4169
792.486	3321
792.589	4628
792.693	5337
792.796	4050
792.899	4710
793.003	5726
793.106	4139
793.209	5733
793.313	4279
793.416	2359
793.519	3940
793.623	5465
793.726	6144
793.829	4127
793.932	2433
794.035	2699
794.138	4532
794.242	5845
794.345	3859
794.448	2623
794.551	3281
794.654	4638
794.757	5336
794.860	3898
794.963	4264
795.066	4111
795.169	4628
795.272	4173
795.375	5139
795.477	3691
795.580	3555
795.683	2972
795.786	4623
795.889	3416
795.991	3105
796.094	4019
796.197	3524
796.300	4415
796.402	4999
796.505	3874
796.608	2984
796.710	2911
796.813	4732
796.915	5315
797.018	4989
797.120	4529
797.223	3082
797.326	4875
797.428	3022
797.530	2683
797.633	1896
797.735	5313
797.838	3802
797.940	5011
798.042	4414
798.145	3567
798.247	2767
798.349	2512
798.452	3626
798.554	3880
798.656	4312
798.758	5484
798.860	3749
798.962	4230
799.065	2656
799.167	1675
799.269	3588
799.371	4135
799.473	6465
799.575	6234
799.677	4053
799.779	3953
799.881	2741
799.983	4747
800.085	3183
800.187	3763
800.289	2093
800.390	2921
800.492	3786
800.594	3640
800.696	2287
800.798	2135
800.899	2610
801.001	3722
801.103	3651
801.205	3006
801.306	3048
801.408	3158
801.509	3098
801.611	3733
801.713	2700
801.814	2804
801.916	2394
802.017	1630
802.119	1905
802.220	1864
802.322	2326
802.423	3200
802.525	2514
802.626	2082
802.727	3147
802.829	3923
802.930	610
803.031	2249
803.133	2320
803.234	3117
803.335	2842
803.436	2082
803.538	2906
803.639	2243
803.740	2622
803.841	2633
803.942	2976
804.043	2766
804.144	2141
804.245	1960
804.346	2205
804.447	1990
804.548	1896
804.649	2187
804.750	1900
804.851	1534
804.952	2447
805.053	2413
805.154	1200
805.255	2544
805.355	2261
805.456	1669
805.557	2033
805.658	2536
805.758	2219
805.859	1893
805.960	2822
806.061	1975
806.161	1781
806.262	1508
806.362	1620
806.463	1574
806.564	3155
806.664	2393
806.765	1748
806.865	1990
806.966	1470
807.066	910
807.166	1940
807.267	2741
807.367	1230
807.468	2567
807.568	776
807.668	1869
807.769	1485
807.869	2619
807.969	2528
808.069	2404
808.170	1094
808.270	1678
808.370	2396
808.470	2698
808.570	1943
808.670	1861
808.770	1557
808.870	1603
808.970	2068
809.070	1957
809.170	1237
809.271	2214
809.370	1684
809.470	1099
809.570	1294
809.670	1447
809.770	2043
809.870	2593
809.970	1462
810.070	1725
810.169	2753
810.269	1481
810.369	1937
810.469	1804
810.568	1686
810.668	1786
810.768	1125
810.867	2487
810.967	1551
811.066	1368
811.166	2177
811.265	2492
811.365	1674
811.464	2084
811.564	1651
811.663	1762
811.763	2156
811.862	1849
811.962	2204
812.061	2371
812.160	1877
812.260	1974
812.359	968
812.458	2069
812.557	2230
812.657	1391
812.756	1573
812.855	1869
812.954	1919
813.053	1863
813.153	1263
813.252	1949
813.351	1914
813.450	2743
813.549	1440
813.648	1785
813.747	2201
813.846	2008
813.945	2004
814.044	3222
814.143	2542
814.242	2195
814.341	2192
814.439	2740
814.538	3239
814.637	2650
814.736	3428
814.835	3103
814.933	3022
815.032	4139
815.131	6628
815.229	11026
815.328	19560
815.427	15986
815.525	12877
815.624	11876
815.722	12329
815.821	12067
815.919	12594
816.018	12772
816.116	12163
816.215	12751
816.313	13690
816.412	15957
816.510	17858
816.609	17938
816.707	18562
816.805	18460
816.904	16266
817.002	17650
817.100	16806
817.198	17893
817.296	17179
817.395	15424
817.493	16931
817.591	14422
817.689	15759
817.787	16144
817.885	15605
817.983	13524
818.081	14376
818.179	14009
818.277	18954
818.375	17067
818.473	16750
818.571	14528
818.669	14029
818.767	17356
818.865	15579
818.963	12778
819.061	13288
819.158	13152
819.256	15974
819.354	14381
819.452	17027
819.549	16262
819.647	15490
819.745	13275
819.842	11079
819.940	13987
820.038	13017
820.135	12269
820.233	13090
820.330	12702
820.428	10654
820.525	13951
820.623	11921
820.720	11080
820.818	12108
820.915	13162
821.012	12797
821.110	11609
821.207	12358
821.304	11429
821.402	12322
821.499	14309
821.596	13327
821.693	12922
821.791	13023
821.888	11440
821.985	11855
822.082	10597
822.179	10308
822.276	13938
822.373	11251
822.470	9441
822.567	11165
822.664	9897
822.761	9095
822.858	10430
822.955	9781
823.052	8853
823.149	9747
823.246	11305
823.343	7624
823.440	8316
823.536	9503
823.633	11953
823.730	8698
823.827	9122
823.923	9976
824.020	8411
824.117	11229
824.213	12718
824.310	10776
824.407	6675
824.503	8906
824.600	9087
824.696	7365
824.793	10630
824.889	10048
824.986	9979
825.082	6368
825.179	7516
825.275	8325
825.371	11578
825.468	8925
825.564	4329
825.660	7370
825.757	12951
825.853	9022
825.949	6977
826.045	6437
826.142	6687
826.238	9231
826.334	8482
826.430	9171
826.526	6402
826.622	4024
826.718	8347
826.814	9558
826.910	9866
827.006	4539
827.102	5214
827.198	6522
827.294	8882
827.390	8868
827.486	7762
827.582	4837
827.678	5354
827.774	8794
827.869	7036
827.965	5847
828.061	4961
828.157	8286
828.252	9149
828.348	7634
828.444	5959
828.539	5048
828.635	7425
828.731	6472
828.826	5038
828.922	7000
829.017	7676
829.113	9394
829.208	7168
829.304	6040
829.399	9157
829.495	8564
829.590	5598
829.685	6107
829.781	7484
829.876	8464
829.971	5261
830.066	3129
830.162	4551
830.257	9758
830.352	8522
830.447	4609
830.543	4323
830.638	5711
830.733	8675
830.828	6069
830.923	6908
831.018	7189
831.113	8142
831.208	6408
831.303	3890
831.398	3754
831.493	5293
831.588	9602
831.683	7130
831.778	4456
831.873	3872
831.967	6318
832.062	7004
832.157	6509
832.252	5703
832.346	4447
832.441	6337
832.536	5952
832.631	6479
832.725	4801
832.820	4620
832.914	6198
833.009	4205
833.104	3610
833.198	3225
833.293	4512
833.387	6247
833.482	5798
833.576	4677
833.670	6002
833.765	4232
833.859	7221
833.954	6878
834.048	5800
834.142	5408
834.237	3555
834.331	4805
834.425	5567
834.519	4390
834.613	4405
834.708	3348
834.802	3946
834.896	4054
834.990	5441
835.084	4580
835.178	2814
835.272	3177
835.366	5577
835.460	6975
835.554	5243
835.648	3245
835.742	2373
835.836	3324
835.930	4264
836.024	6094
836.117	4080
836.211	4637
836.305	2939
836.399	3003
836.493	2655
836.586	5361
836.680	3858
836.774	4101
836.867	2958
836.961	3363
837.055	3005
837.148	2980
837.242	3990
837.335	4090
837.429	4177
837.522	3365
837.616	3358
837.709	2858
837.803	3368
837.896	4507
837.989	4935
838.083	3207
838.176	1496
838.269	1589
838.363	2415
838.456	2633
838.549	3784
838.642	4012
838.735	2935
838.829	2902
838.922	3255
839.015	2997
839.108	3134
839.201	2764
839.294	4193
839.387	3579
839.480	1669
839.573	2809
839.666	2894
839.759	1983
839.852	3039
839.945	3279
840.038	3631
840.131	2339
840.223	2245
840.316	2490
840.409	2276
840.502	4053
840.594	5087
840.687	1805
840.780	1360
840.873	588
840.965	941
841.058	2888
841.150	4570
841.243	1873
841.336	1662
841.428	2259
841.521	1857
841.613	3358
841.706	3235
841.798	2200
841.890	2690
841.983	2327
842.075	1674
842.167	2380
842.260	3140
842.352	3681
842.444	3589
842.537	2626
842.629	2025
842.721	1113
842.813	1937
842.905	1995
842.997	2050
843.090	2798
843.182	2468
843.274	162
843.366	1940
843.458	1613
843.550	3038
843.642	2714
843.734	1798
843.826	2291
843.918	962
844.009	1688
844.101	2064
844.193	1926
844.285	2427
844.377	4273
844.469	3413
844.560	3044
844.652	3698
844.744	3050
844.835	2509
844.927	2250
845.019	3223
845.110	1899
845.202	2429
845.293	2668
845.385	774
845.476	1957
845.568	2662
845.659	1336
845.751	1313
845.842	573
845.934	1866
846.025	1848
846.116	1999
846.208	2086
846.299	1731
846.390	1295
846.482	1293
846.573	2187
846.664	2433
846.755	2111
846.846	2367
846.937	1362
847.029	899
847.120	1230
847.211	1335
847.302	2657
847.393	1939
847.484	3058
847.575	1512
847.666	1058
847.757	1624
847.847	1765
847.938	2472
848.029	2555
848.120	2910
848.211	954
848.302	45
848.392	316
848.483	1911
848.574	1408
848.664	2140
848.755	2680
848.846	2076
848.936	1729
849.027	2488
849.118	2797
849.208	3407
849.299	5708
849.389	9009
849.480	16571
849.570	32813
849.661	55289
849.751	109866
849.841	79503
849.932	16464
850.022	4799
850.112	3583
850.203	3572
850.293	3164
850.383	1606
850.474	1817
850.564	1821
850.654	1104
850.744	1803
850.834	1982
850.924	1703
851.014	3292
851.104	2753
851.194	1516
851.284	1278
851.374	2128
851.464	1678
851.554	1383
851.644	1698
851.734	2071
851.824	2868
851.914	2451
852.004	2727
852.094	1950
852.183	1546
852.273	1645
852.363	1859
852.452	2339
852.542	2661
852.632	2610
852.721	1776
852.811	2153
852.901	2953
852.990	4011
853.080	3339
853.169	3069
853.259	4154
853.348	4525
853.438	6154
853.527	8061
853.617	12310
853.706	19523
853.795	34705
853.885	64703
853.974	115354
854.063	184246
854.152	286797
854.242	208556
854.331	71601
854.420	28089
854.509	16294
854.598	12023
854.687	8705
854.777	6846
854.866	5585
854.955	5191
855.044	3696
855.133	3180
855.222	3685
855.311	2780
855.400	2625
855.488	2143
855.577	2427
855.666	2921
855.755	2950
855.844	3367
855.933	3823
856.021	4165
856.110	1666
856.199	1334
856.288	825
856.376	1218
856.465	1164
856.554	1376
856.642	2376
856.731	2970
856.819	2288
856.908	1430
856.996	2086
857.085	1881
857.173	854
857.262	106
857.350	847
857.438	1174
857.527	1465
857.615	1338
857.703	1691
857.792	1950
857.880	1116
857.968	1329
858.056	1235
858.145	1533
858.233	1516
858.321	1022
858.409	2390
858.497	685
858.585	1242
858.673	1080
858.761	960
858.849	692
858.937	1088
859.025	2051
859.113	1478
859.201	1946
859.289	3274
859.377	1372
859.465	1813
859.552	1151
859.640	1101
859.728	1083
859.816	972
859.903	1442
859.991	391
860.079	1893
860.166	817
860.254	1151
860.342	1537
860.429	1445
860.517	1150
860.604	1212
860.692	1217
860.779	620
860.867	1120
860.954	2277
861.042	1796
861.129	2060
861.216	2331
861.304	1982
861.391	2197
861.478	1511
861.565	1851
861.653	1736
861.740	799
861.827	1609
861.914	2084
862.001	1801
862.089	2203
862.176	1366
862.263	1836
862.350	1820
862.437	1059
862.524	1701
862.611	1830
862.698	2072
862.785	2478
862.871	3810
862.958	3504
863.045	2820
863.132	2572
863.219	2510
863.306	819
863.392	2030
863.479	1255
863.566	1199
863.652	1878
863.739	1586
863.826	2200
863.912	2448
863.999	2184
864.086	3474
864.172	2803
864.259	3885
864.345	4137
864.432	3315
864.518	3140
864.604	3177
864.691	3165
864.777	5160
864.863	5578
864.950	8502
865.036	10400
865.122	17384
865.209	22367
865.295	20408
865.381	19811
865.467	18174
865.553	20520
865.639	23055
865.726	31025
865.812	47182
865.898	75454
865.984	107458
866.070	160639
866.156	219277
866.242	125325
866.328	45978
866.414	26935
866.499	21024
866.585	19052
866.671	17034
866.757	16579
866.843	16845
866.928	15312
867.014	15290
867.100	14295
867.186	13888
867.271	13955
867.357	14635
867.442	13538
867.528	14440
867.614	13705
867.699	14070
867.785	14499
867.870	13999
867.956	16387
868.041	15991
868.127	12943
868.212	13829
868.297	13274
868.383	13509
868.468	13204
868.553	14579
868.639	12983
868.724	11395
868.809	13214
868.894	12049
868.979	11122
869.065	12288
869.150	11151
869.235	10462
869.320	12264
869.405	11395
869.490	10136
869.575	12552
869.660	9763
869.745	10578
869.830	13487
869.915	10942
870.000	10634
870.085	10336
870.169	11857
870.254	15264
870.339	10425
870.424	8221
870.509	9926
870.593	11905
870.678	12311
870.763	10222
870.847	8903
870.932	10342
871.016	13884
871.101	9792
871.186	8972
871.270	13866
871.355	9522
871.439	8152
871.523	11618
871.608	9700
871.692	7893
871.777	10935
871.861	12270
871.945	9883
872.030	10397
872.114	9144
872.198	9319
872.282	7944
872.367	8618
872.451	8564
872.535	9054
872.619	10018
872.703	8452
872.787	9635
872.871	9656
872.955	9533
873.039	5962
873.123	8198
873.207	11238
873.291	6976
873.375	7056
873.459	9444
873.543	9291
873.627	8139
873.711	7644
873.794	8484
873.878	9282
873.962	6926
874.045	6900
874.129	7815
874.137	7814
874.213	7807
874.245	8625
874.296	9952
874.352	7911
874.380	6921
874.460	6937
874.464	6938
874.547	7927
874.568	7887
874.631	7771
874.676	8235
874.714	8622
874.784	9222
874.798	9338
874.881	8554
874.892	8173
874.965	5655
874.999	6262
875.048	7017
875.107	8204
875.131	8678
875.215	6232
875.215	6231
875.298	5246
875.323	5469
875.381	6071
875.430	8334
875.465	9826
875.538	9449
875.548	9389
875.631	6335
875.646	6093
875.714	5011
875.753	5033
875.798	5217
875.861	7476
875.881	8082
875.964	8401
875.968	8234
876.047	5492
876.076	5852
876.130	6591
876.183	6668
876.213	6732
876.291	8436
876.296	8534
876.379	7160
876.398	7060
876.462	6572
876.506	6095
876.545	5755
876.613	5420
876.628	5421
876.711	6776
876.721	6836
876.794	7211
876.828	7725
876.877	8191
876.935	6774
876.960	6199
877.043	4950
877.043	4952
877.125	6068
877.150	6478
877.208	7296
877.258	7838
877.291	8008
877.365	5107
877.374	4796
877.456	5778
877.472	5684
877.539	5496
877.579	5942
877.622	6450
877.687	7777
877.704	8086
877.787	6982
877.794	6985
877.869	7069
877.901	7270
877.952	7426
878.008	6222
878.034	5617
878.115	4840
878.117	4836
878.199	5700
878.222	5752
878.282	6165
878.329	6866
878.364	7309
878.437	8364
878.447	8345
878.529	5309
878.544	5152
878.611	5178
878.651	5282
878.694	5841
878.758	6628
878.776	6740
878.858	7614
878.865	7634
878.941	7097
878.972	6030
879.023	4602
879.078	4953
879.105	5416
879.185	6953
879.187	6971
879.269	6493
879.292	6648
879.351	7237
879.399	6726
879.433	6049
879.506	5481
879.516	5511
879.598	6449
879.613	6284
879.680	4987
879.720	5273
879.762	6232
879.827	6720
879.844	6547
879.926	5145
879.933	5158
880.007	6327
880.040	6260
880.089	5694
880.147	5467
880.171	5673
880.253	7479
880.254	7474
880.335	6148
880.360	6054
880.417	6554
880.467	7174
880.499	7437
880.574	6999
880.580	6970
880.662	6872
880.680	6865
880.744	5961
880.787	4907
880.825	4436
880.893	5153
880.907	5344
880.989	5365
881.000	5426
881.070	6114
881.106	6571
881.152	6901
881.213	6305
881.233	5747
881.315	4559
881.319	4502
881.396	6178
881.426	6415
881.478	5977
881.532	6759
881.559	7474
881.639	8328
881.641	8295
881.722	5888
881.745	5345
881.803	5940
881.852	6927
881.885	7089
881.958	6057
881.966	5947
882.047	5815
882.064	5780
882.129	6027
882.171	5612
882.210	4447
882.277	3539
882.291	3771
882.372	5018
882.383	5236
882.454	7865
882.489	8689
882.535	8000
882.596	7284
882.616	7454
882.697	8622
882.702	8566
882.778	5832
882.808	5317
882.859	5074
882.914	4888
882.940	4974
883.020	5302
883.021	5314
883.102	6131
883.127	6424
883.183	8159
883.233	9254
883.264	8363
883.339	5655
883.345	5503
883.426	3945
883.445	3630
883.507	4055
883.551	4829
883.587	5769
883.657	6873
883.668	7042
883.749	8347
883.763	8439
883.830	7043
883.869	6136
883.910	5218
883.975	4580
883.991	4835
884.072	6013
884.081	6090
884.152	6760
884.187	7241
884.233	8482
884.292	9592
884.314	8986
884.394	5899
884.398	5773
884.475	3875
884.504	3215
884.555	3491
884.610	3893
884.636	4049
884.716	4244
884.716	4272
884.797	8426
884.821	9282
884.877	8721
884.927	8272
884.958	7668
885.033	6116
885.038	6035
885.118	4481
885.139	4193
885.199	4321
885.244	4532
885.279	5163
885.350	6121
885.359	6458
885.439	10078
885.456	10531
885.520	9141
885.561	8222
885.600	6674
885.667	4379
885.680	4576
885.760	5968
885.773	6090
885.840	5165
885.878	4759
885.920	4559
885.984	4319
886.000	4665
886.080	6312
886.089	6507
886.160	7264
886.195	7387
886.240	7302
886.300	7227
886.320	7143
886.400	6851
886.406	6800
886.480	6326
886.511	6156
886.560	5316
886.616	4606
886.640	4944
886.720	5713
886.722	5723
886.800	5688
886.827	5639
886.879	5781
886.932	6025
886.959	6629
887.038	8208
887.039	8218
887.119	7490
887.143	7337
887.198	6950
887.248	6499
887.278	6433
887.354	6368
887.358	6394
887.437	6463
887.459	6507
887.517	6723
887.564	6832
887.596	6589
887.669	5916
887.676	5768
887.755	3789
887.774	3356
887.835	3875
887.880	4269
887.914	4854
887.985	5864
887.994	5999
888.073	7305
888.090	7557
888.153	10447
888.195	12129
888.232	10401
888.300	7371
888.311	7122
888.391	5263
888.405	4913
888.470	4631
888.510	4440
888.549	4621
888.615	4911
888.628	5187
888.708	6913
888.720	7137
888.787	8094
888.825	8631
888.866	7011
888.930	4481
888.945	4498
889.024	4609
889.035	4616
889.103	6607
889.140	7600
889.182	6718
889.245	5428
889.261	5677
889.340	6869
889.349	6985
889.419	6911
889.454	6866
889.498	5872
889.559	4460
889.577	4891
889.656	6769
889.664	6944
889.735	7711
889.768	8052
889.814	7265
889.873	6173
889.978	6643
890.083	6058
890.187	5538
890.292	8394
890.397	5658
890.501	6663
890.606	3743
890.710	5582
890.815	7471
890.919	7647
891.024	7778
891.128	5865
891.233	4034
891.337	6203
891.442	8938
891.546	6779
891.650	5256
891.755	4301
891.859	5627
891.963	8403
892.068	6487
892.172	6210
892.276	3400
892.380	4432
892.484	7323
892.589	9806
892.693	8298
892.797	5758
892.901	3659
893.005	4377
893.109	7756
893.213	9517
893.317	6572
893.421	4149
893.525	2521
893.629	3426
893.733	7161
893.837	6476
893.941	5361
894.045	4448
894.148	3428
894.252	3826
894.356	6258
894.460	10318
894.564	5575
894.667	6134
894.771	3487
894.875	3311
894.978	5164
895.082	6090
895.186	7267
895.289	5590
895.393	3402
895.496	6557
895.600	5123
895.703	3594
895.807	3952
895.910	5671
896.014	5370
896.117	5796
896.221	4779
896.324	6706
896.427	4580
896.531	3798
896.634	4596
896.737	5023
896.840	4849
896.944	6335
897.047	7377
897.150	6895
897.253	3714
897.356	2164
897.460	3680
897.563	4537
897.666	5264
897.769	7097
897.872	4277
897.975	2915
898.078	4859
898.181	4341
898.284	3550
898.387	6495
898.490	7278
898.593	5379
898.695	3728
898.798	3250
898.901	4338
899.004	4638
899.107	4001
899.209	5024
899.312	7820
899.415	5299
899.518	2937
899.620	2668
899.723	2603
899.826	5614
899.928	3850
900.031	4456
900.133	7086
900.236	6214
900.338	2760
900.441	3397
900.543	4079
900.646	4299
900.748	5007
900.851	5896
900.953	4679
901.055	3993
901.158	3395
901.260	5279
901.362	2531
901.465	3513
901.567	3344
901.669	6861
901.771	3705
901.873	4985
901.976	2802
902.078	5200
902.180	2814
902.282	3620
902.384	3666
902.486	6669
902.588	6014
902.690	3740
902.792	2607
902.894	4256
902.996	6102
903.098	5938
903.200	4292
903.302	3011
903.404	2861
903.505	2769
903.607	2974
903.709	5899
903.811	8441
903.913	5141
904.014	3504
904.116	2632
904.218	3285
904.319	4144
904.421	6019
904.523	7681
904.624	4328
904.726	3624
904.827	2606
904.929	3101
905.030	2814
905.132	4595
905.233	6362
905.335	3890
905.436	2392
905.537	2884
905.639	3111
905.740	3712
905.841	5937
905.943	4859
906.044	4460
906.145	4398
906.247	2777
906.348	3828
906.449	4142
906.550	5557
906.651	3653
906.752	3683
906.854	3424
906.955	2928
907.056	3551
907.157	5024
907.258	6688
907.359	3270
907.460	2425
907.561	2479
907.662	2709
907.762	3171
907.863	3645
907.964	5979
908.065	4139
908.166	3163
908.267	2964
908.367	2340
908.468	1920
908.569	3527
908.670	5580
908.770	4721
908.871	3977
908.971	4088
909.072	3855
909.173	2970
909.273	3798
909.374	4807
909.474	5322
909.575	3232
909.675	4171
909.776	4410
909.876	3995
909.977	3979
910.077	4482
910.177	5335
910.278	4400
910.378	3431
910.478	3815
910.579	5168
910.679	5139
910.779	5176
910.879	5234
910.980	4336
911.080	4934
911.180	3741
911.280	2884
911.380	2786
911.480	2632
911.580	3251
911.680	4342
911.780	3881
911.880	5346
911.980	3779
912.080	3465
912.180	4231
912.280	3454
912.380	3609
912.480	2351
912.580	2410
912.679	3300
912.779	4927
912.879	5294
912.979	3246
913.078	3840
913.178	3270
913.278	3254
913.377	3262
913.477	2532
913.577	3831
913.676	5219
913.776	5912
913.875	4048
913.975	3898
914.074	3601
914.174	4554
914.273	2880
914.373	3930
914.472	3167
914.572	3301
914.671	3420
914.770	3449
914.870	3413
914.969	2609
915.068	5288
915.167	5447
915.267	3795
915.366	4571
915.465	4110
915.564	4537
915.663	3618
915.763	4280
915.862	5891
915.961	5629
916.060	3551
916.159	3942
916.258	3459
916.357	3187
916.456	5028
916.555	5002
916.654	4311
916.752	4322
916.851	5950
916.950	3395
917.049	2898
917.148	3606
917.247	3577
917.345	3129
917.444	2660
917.543	4134
917.642	4107
917.740	4399
917.839	6581
917.937	7195
918.036	6954
918.135	4466
918.233	2879
918.332	4090
918.430	3460
918.529	3779
918.627	4480
918.726	6032
918.824	4696
918.923	4095
919.021	3592
919.119	3445
919.218	3710
919.316	5377
919.414	4546
919.512	5246
919.611	5664
919.709	4994
919.807	5348
919.905	6976
920.003	6251
920.102	7095
920.200	6855
920.298	6704
920.396	7010
920.494	6693
920.592	5624
920.690	6437
920.788	6384
920.886	5993
920.984	7461
921.082	7262
921.180	9134
921.277	7708
921.375	8725
921.473	12862
921.571	13995
921.669	13091
921.766	10947
921.864	11549
921.962	11390
922.060	11557
922.157	11019
922.255	12814
922.352	12631
922.450	12478
922.548	13611
922.645	13535
922.743	18050
922.840	26974
922.938	37135
923.035	32204
923.133	29892
923.230	33091
923.327	40537
923.425	39086
923.522	36719
923.619	35837
923.717	32875
923.814	31409
923.911	31435
924.008	30661
924.106	30057
924.203	29451
924.300	30952
924.397	31623
924.494	29732
924.591	30470
924.688	28017
924.786	29051
924.883	28912
924.979	29484
925.077	29952
925.173	27859
925.270	28738
925.367	28357
925.464	30175
925.561	30977
925.658	33142
925.755	28299
925.852	31339
925.948	30997
926.045	29064
926.142	28551
926.239	31104
926.335	25671
926.432	25445
926.529	29803
926.625	32559
926.722	27947
926.818	23142
926.915	28478
927.011	28112
927.108	26434
927.204	26003
927.301	24290
927.397	25442
927.494	32504
927.590	24826
927.687	20880
927.783	28741
927.879	29821
927.976	26378
928.072	22576
928.168	24773
928.264	27947
928.361	24199
928.457	28958
928.553	24490
928.649	22844
928.745	26710
928.841	22735
928.937	23251
929.033	26108
929.129	23385
929.225	26957
929.321	25103
929.417	20075
929.513	24910
929.609	24716
929.705	20124
929.801	24889
929.897	22321
929.993	20422
930.089	23508
930.184	21072
930.280	21084
930.376	28334
930.471	23429
930.567	19098
930.663	20489
930.758	20436
930.854	19940
930.950	20358
931.045	20467
931.141	19525
931.236	24404
931.332	24167
931.427	17185
931.523	22721
931.618	24331
931.714	17044
931.809	16777
931.905	23452
932.000	18389
932.095	13571
932.191	20925
932.286	26202
932.381	23432
932.476	16429
932.572	18455
932.667	18199
932.762	16857
932.857	18654
932.952	22282
933.047	21840
933.142	14893
933.237	18382
933.332	22124
933.427	20869
933.522	20182
933.617	16518
933.712	16382
933.807	20298
933.902	23868
933.997	23378
934.092	18713
934.187	16769
934.282	19875
934.376	19176
934.471	21853
934.566	17863
934.661	15635
934.755	18886
934.850	20974
934.945	18194
935.039	15499
935.134	13812
935.228	14149
935.323	24143
935.417	18582
935.512	11911
935.606	12116
935.701	17279
935.795	19103
935.890	18951
935.984	14268
936.079	12071
936.173	14927
936.267	15562
936.362	13869
936.456	15102
936.550	20692
936.644	19563
936.738	13979
936.833	13472
936.927	12039
937.021	13886
937.115	16641
937.209	18063
937.303	17331
937.397	12693
937.491	13246
937.585	16653
937.679	17061
937.773	13934
937.867	11862
937.961	10450
938.055	16977
938.149	19175
938.243	11766
938.337	10859
938.430	11974
938.524	18226
938.618	17774
938.712	13441
938.805	13055
938.899	15013
938.993	20112
939.086	15958
939.180	10049
939.274	11463
939.367	14707
939.461	18203
939.554	13551
939.648	12233
939.741	11914
939.835	14235
939.928	18105
940.022	17940
940.115	14185
940.208	15286
940.302	17164
940.395	18853
940.488	14287
940.582	12291
940.675	11853
940.768	9904
940.861	14641
940.954	18472
941.048	12113
941.141	8492
941.234	10374
941.327	13008
941.420	13097
941.513	15373
941.606	12152
941.699	11299
941.792	14107
941.885	15539
941.978	13276
942.071	13915
942.164	10684
942.257	9166
942.349	11262
942.442	12697
942.535	11219
942.628	9994
942.721	10604
942.813	12114
942.906	11648
942.999	11068
943.091	9573
943.184	10160
943.277	11552
943.369	9978
943.462	6589
943.554	10142
943.647	10974
943.739	12943
943.832	14852
943.924	9900
944.017	6789
944.109	8193
944.201	9775
944.294	9539
944.386	10231
944.478	11350
944.571	8175
944.663	9693
944.755	9685
944.847	11900
944.940	11096
945.032	8897
945.124	6355
945.216	8947
945.308	10230
945.400	11680
945.492	8979
945.584	11619
945.676	13130
945.768	11579
945.860	11490
945.952	13689
946.044	12414
946.136	10222
946.228	9945
946.320	8351
946.412	9502
946.503	11774
946.595	12376
946.687	10089
946.779	5911
946.870	6358
946.962	8091
947.054	8619
947.145	10341
947.237	10856
947.329	8419
947.420	10992
947.512	9700
947.603	7240
947.695	6740
947.786	7245
947.878	7669
947.969	8860
948.061	9621
948.152	11431
948.243	6694
948.335	5746
948.426	6012
948.517	8714
948.609	10459
948.700	9278
948.791	9113
948.882	6415
948.973	4660
949.065	8131
949.156	8847
949.247	6410
949.338	7584
949.429	5246
949.520	5590
949.611	8056
949.702	9568
949.793	8846
949.884	7467
949.975	8505
950.066	5266
950.157	5497
950.247	6412
950.338	7940
950.429	5807
950.520	7195
950.611	5895
950.701	7509
950.792	9533
950.883	10869
950.973	6790
951.064	8127
951.155	9200
951.245	9245
951.336	7899
951.427	9604
951.517	10554
951.608	9857
951.698	7680
951.788	6529
951.879	5223
951.969	6150
952.060	6076
952.150	7023
952.240	8681
952.331	8981
952.421	8796
952.511	6104
952.602	4379
952.692	4725
952.782	5174
952.872	5767
952.962	7721
953.052	7465
953.143	5461
953.233	6284
953.323	7244
953.413	7607
953.503	8733
953.593	7917
953.683	6628
953.773	6044
953.863	6322
953.953	5707
954.042	6397
954.132	8019
954.222	8271
954.312	5738
954.402	5463
954.492	6404
954.581	6252
954.671	7676
954.761	7280
954.850	6547
954.940	3916
955.030	3992
955.119	4234
955.209	4748
955.298	4887
955.388	7619
955.477	7781
955.567	5608
955.656	4813
955.746	4066
955.835	4363
955.925	5104
956.014	7023
956.103	8162
956.193	9716
956.282	8556
956.371	5876
956.461	6008
956.550	6622
956.639	6700
956.728	4586
956.817	6168
956.906	6102
956.995	7543
957.085	6713
957.174	5335
957.263	5315
957.352	5380
957.441	6023
957.530	6056
957.619	4920
957.708	5752
957.796	5845
957.885	5496
957.974	5773
958.063	5476
958.152	4888
958.241	3720
958.329	2406
958.418	5259
958.507	5106
958.596	6927
958.684	5700
958.773	4793
958.861	4348
958.950	3006
959.039	2361
959.127	4396
959.216	5294
959.304	5212
959.393	4528
959.481	5832
959.570	4474
959.658	2978
959.746	3361
959.835	4303
959.923	3725
960.011	4406
960.100	4710
960.188	6330
960.276	5016
960.365	4376
960.453	3550
960.541	2828
960.629	4301
960.717	4350
960.805	2783
960.893	4255
960.981	4410
961.069	6917
961.158	7322
961.245	9054
961.333	6696
961.421	6169
961.509	4976
961.597	6249
961.685	4883
961.773	4592
961.861	5459
961.949	5748
962.036	4887
962.124	2648
962.212	2022
962.299	3589
962.387	4422
962.475	4151
962.562	3677
962.650	5041
962.738	4809
962.825	2955
962.913	2778
963.000	3399
963.088	3489
963.175	5195
963.263	3219
963.350	3728
963.438	4480
963.525	4518
963.612	4072
963.700	3499
963.787	4162
963.874	4658
963.962	3711
964.049	3512
964.136	2918
964.223	3025
964.310	2130
964.398	3538
964.485	3374
964.572	3930
964.659	4468
964.746	3665
964.833	2809
964.920	3691
965.007	4098
965.094	2934
965.181	3368
965.268	5346
965.355	4723
965.441	4142
965.528	3250
965.615	5374
965.702	4308
965.789	4399
965.875	4804
965.962	5627
966.049	5272
966.136	5689
966.222	7208
966.309	7239
966.395	6693
966.482	6811
966.569	5784
966.655	5296
966.742	4255
966.828	4554
966.915	2555
967.001	3600
967.087	2375
967.174	3053
967.260	3125
967.347	3915
967.433	4180
967.519	3970
967.605	4162
967.692	4740
967.778	4202
967.864	4206
967.950	3791
968.036	3612
968.123	4431
968.209	4496
968.295	2304
968.381	4024
968.467	3623
968.553	2988
968.639	3188
968.725	5103
968.811	6817
968.897	7104
968.983	4671
969.069	3247
969.154	2317
969.240	2789
969.326	2193
969.412	3344
969.497	2923
969.583	3167
969.669	4290
969.755	4045
969.840	4079
969.926	7467
970.012	10587
970.097	12982
970.183	12648
970.268	8680
970.354	5737
970.439	4339
970.525	3822
970.610	3885
970.696	4241
970.781	3597
970.866	2432
970.952	3677
971.037	3407
971.122	3347
971.208	3704
971.293	3590
971.378	3322
971.463	4021
971.549	3766
971.634	2883
971.719	4048
971.804	3488
971.889	3450
971.974	4046
972.059	3849
972.144	3858
972.229	2961
972.314	3792
972.399	3706
972.484	3019
972.569	2746
972.654	2570
972.739	3149
972.824	2723
972.908	3974
972.993	3482
973.078	2595
973.163	3524
973.247	3117
973.332	2714
973.417	3980
973.501	4026
973.586	3885
973.671	4723
973.755	3261
973.840	3679
973.924	4739
974.009	6041
974.093	6403
974.178	7006
974.262	4622
974.346	4851
974.431	3830
974.515	4775
974.600	4022
974.684	5588
974.768	3372
974.852	3952
974.937	4004
975.021	4747
975.105	3575
975.189	3544
975.273	3348
975.358	3434
975.442	3311
975.526	3808
975.610	3995
975.694	3355
975.778	3560
975.862	3787
975.946	2454
976.030	4924
976.114	2843
976.198	3887
976.281	3456
976.365	4824
976.449	3185
976.533	3567
976.617	2897
976.700	3015
976.784	2248
976.868	3316
976.951	3217
977.035	4067
977.119	2389
977.202	3082
977.286	4293
977.369	5241
977.453	7129
977.536	9081
977.620	7710
977.703	6959
977.787	5325
977.870	6227
977.953	5140
978.037	4166
978.120	4566
978.203	4462
978.287	4588
978.370	4886
978.453	3031
978.536	4209
978.620	4213
978.703	4412
978.786	4614
978.869	3816
978.952	3255
979.035	5788
979.118	3866
979.201	4191
979.284	3685
979.367	4375
979.450	4415
979.533	3725
979.616	3562
979.699	3776
979.782	3977
979.865	4102
979.948	3667
980.030	3001
980.113	3050
980.196	3627
980.279	3909
980.361	3758
980.444	3391
980.526	5024
980.609	7325
980.692	9152
980.774	9497
980.857	7231
980.939	6904
981.022	6577
981.104	5183
981.187	4784
981.269	5312
981.352	4257
981.434	4623
981.516	5846
981.599	5782
981.681	4035
981.763	4665
981.846	5081
981.928	5040
982.010	5247
982.092	4480
982.174	5679
982.256	4336
982.339	5316
982.421	4645
982.503	4700
982.585	5003
982.667	4781
982.749	4444
982.831	5153
982.913	4128
982.995	4795
983.077	4519
983.158	5973
983.240	5547
983.322	5955
983.404	9477
983.486	11393
983.568	9173
983.649	7994
983.731	7997
983.813	6947
983.894	6521
983.976	6180
984.058	6545
984.139	6187
984.221	5540
984.302	7469
984.384	6015
984.465	5935
984.547	6234
984.628	6107
984.710	6767
984.791	6628
984.872	5660
984.954	6078
985.035	6692
985.116	6623
985.198	5676
985.279	6413
985.360	6148
985.441	6550
985.522	6588
985.604	6727
985.685	5283
985.766	6484
985.847	6860
985.928	6681
986.009	6170
986.090	6283
986.171	6558
986.252	6448
986.333	6311
986.414	6729
986.495	5744
986.576	6839
986.656	7781
986.737	8404
986.818	7186
986.899	7226
986.980	6960
987.060	7060
987.141	7189
987.222	8553
987.302	9581
987.383	10476
987.464	10021
987.544	9901
987.625	9301
987.705	9467
987.786	9086
987.866	10462
987.947	9831
988.027	9977
988.108	9734
988.188	9584
988.268	7814
988.349	8981
988.429	8726
988.509	8301
988.589	8461
988.670	7270
988.750	9298
988.830	8059
988.910	8391
988.990	8520
989.070	7755
989.151	8312
989.231	7310
989.311	7717
989.391	6879
989.471	6371
989.551	7703
989.631	7352
989.711	6886
989.791	8444
989.870	7088
989.950	6784
990.030	6549
990.110	7226
990.190	6316
990.269	6156
990.349	5954
990.429	8137
990.509	6919
990.588	4413
990.668	5847
990.747	6919
990.827	6196
990.907	5650
990.986	6940
991.066	7797
991.145	5405
991.225	5976
991.304	6672
991.383	6840
991.463	5527
991.542	6550
991.622	4850
991.701	5609
991.780	4759
991.859	4299
991.939	4998
992.018	6044
992.097	6448
992.176	6032
992.256	4431
992.335	5332
992.414	7174
992.493	5399
992.572	4015
992.651	5330
992.730	4893
992.809	4634
992.888	4521
992.967	4813
993.046	5027
993.125	3554
993.203	4435
993.282	5357
993.361	5010
993.440	4311
993.519	4629
993.597	4436
993.676	5391
993.755	5320
993.834	4243
993.912	3871
993.991	4397
994.069	4135
994.148	4218
994.226	3771
994.305	3363
994.384	4049
994.462	4786
994.540	4824
994.619	3141
994.697	4491
994.776	3937
994.854	5910
994.932	4076
995.011	3935
995.089	2862
995.167	3923
995.245	3428
995.324	3955
995.402	4144
995.480	3880
995.558	3511
995.636	3419
995.714	3017
995.792	4873
995.870	3617
995.948	3197
996.026	2594
996.104	2570
996.182	3533
996.260	3098
996.338	1790
996.416	2730
996.494	3805
996.572	4414
996.649	2579
996.727	2085
996.805	3238
996.883	3272
996.960	2771
997.038	2924
997.116	3479
997.193	2603
997.271	3184
997.348	1220
997.426	2181
997.504	2659
997.581	3698
997.658	2941
997.736	1495
997.813	1728
997.891	3170
997.968	3057
998.046	2016
998.123	1904
998.200	2763
998.277	2143
998.355	2955
998.432	1743
998.509	1074
998.586	1956
998.663	3212
998.741	2665
998.818	2127
998.895	1777
998.972	1860
999.049	3228
999.126	2784
999.203	2184
999.280	1196
999.357	1643
999.434	2684
999.511	2723
999.587	1615
999.664	2355
999.741	892
999.818	2841
999.895	1600
999.971	2486
1000.048	1687
1000.125	2057
1000.202	1241
1000.278	940
1000.355	2125
1000.431	2924
1000.508	599
1000.584	832
1000.661	1695
1000.738	2036
1000.814	2449
1000.890	2485
1000.967	1012
1001.043	1792
1001.120	1576
1001.196	2252
1001.272	792
1001.349	2044
1001.425	973
1001.501	1707
1001.577	725
1001.654	1393
1001.730	936
1001.806	1304
1001.882	575
1001.958	2244
1002.034	2402
1002.110	1466
1002.186	433
1002.262	702
1002.338	263
1002.414	1212
1002.490	1669
1002.566	1203
1002.642	196
1002.718	990
1002.794	1401
1002.870	-347
1002.945	1202
1003.021	1363
1003.097	277
1003.173	1040
1003.248	151
1003.324	959
1003.400	913
1003.475	674
1003.551	1224
1003.626	205
1003.702	1262
1003.777	658
1003.853	-321
1003.928	525
1004.004	781
1004.079	844
1004.155	827
1004.230	515
1004.305	2058
1004.381	806
1004.456	-196
1004.531	-366
1004.607	304
1004.682	873
1004.757	108
1004.832	1041
1004.907	112
1004.982	659
1005.057	-95
1005.133	506
1005.208	353
1005.283	-305
1005.358	184
1005.433	-543
1005.508	180
1005.583	114
1005.657	353
1005.732	2832
1005.807	-272
1005.882	347
1005.957	512
1006.032	-98
1006.106	-189
1006.181	499
1006.256	956
1006.331	84
1006.405	326
1006.480	324
1006.554	-345
1006.629	332
1006.704	186
1006.778	235
1006.853	412
1006.927	-9
1007.002	-186
1007.076	269
1007.150	-355
1007.225	-379
1007.299	86
1007.373	545
1007.448	272
1007.522	-353
1007.596	-502
1007.671	-179
1007.745	804
1007.819	16
1007.893	222
1007.967	464
1008.041	-775
1008.115	307
1008.190	63
1008.264	3
1008.338	-808
1008.412	-139
1008.486	-448
1008.560	-12
1008.633	-343
1008.707	224
1008.781	194
1008.855	22
1008.929	-33
1009.003	-307
1009.076	-863
1009.150	-418
1009.224	-1001
1009.298	492
1009.371	-1373
1009.445	127
1009.519	-1201
1009.592	-1213
1009.666	383
1009.739	-298
1009.813	-863
1009.886	809
1009.960	-1461
1010.033	-137
1010.107	433
1010.180	-169
1010.253	-1022
1010.327	-1037
1010.400	-1170
1010.473	-828
1010.547	425
1010.620	434
1010.693	-923
1010.766	2
1010.840	110
1010.913	-950
1010.986	-867
1011.059	-7
1011.132	-449
1011.205	221
1011.278	-126
1011.351	-60
1011.424	-922
1011.497	-639
1011.570	-991
1011.643	113
1011.716	-910
1011.789	-845
1011.862	37
1011.934	-1169
1012.007	-1261
1012.080	249
1012.153	-1388
1012.225	-929
1012.298	-1461
1012.371	-598
1012.443	-216
1012.516	-1396
1012.588	-293
1012.661	32
1012.733	-963
1012.806	-521
1012.879	-343
1012.951	-570
1013.023	-781
1013.096	104
1013.168	-1423
1013.241	-74
1013.313	-981
1013.385	-577
1013.458	-676
1013.530	124
1013.602	-1158
1013.674	-1045
1013.746	-1799
1013.819	-977
1013.891	-1794
1013.963	-1177
1014.035	-1287
1014.107	512
1014.179	-1121
1014.251	-1209
1014.323	-1231
1014.395	-1169
1014.467	-455
1014.539	-1368
1014.611	-1036
1014.683	-804
1014.754	-629
1014.826	-610
1014.898	-511
1014.970	-1003
1015.042	-218
1015.113	-350
1015.185	-733
1015.257	-1806
1015.328	-117
1015.400	-560
1015.471	-1105
1015.543	-1133
1015.615	-1302
1015.686	-741
1015.757	-836
1015.829	-645
1015.901	-1321
1015.972	-845
1016.043	-1490
1016.115	-412
1016.186	-1559
1016.257	-1026
1016.328	-521
1016.400	-183
1016.471	-749
1016.542	-1761
1016.613	-1030
1016.685	-328
1016.756	-928
1016.827	-791
1016.898	-1563
1016.969	120
1017.040	-1829
1017.111	-2017
1017.182	-1674
1017.253	-657
1017.324	-1387
1017.395	-880
1017.466	-842
1017.537	-1242
1017.608	-1291
1017.678	-1076
1017.749	-1286
1017.820	-1397
1017.891	-2189
1017.961	-2179
1018.032	-1619
1018.103	-1083
1018.173	-1269
1018.244	-1738
1018.315	-2085
1018.385	-364
1018.456	-1381
1018.526	-891
1018.597	-2154
1018.667	-779
1018.738	-2146
1018.808	-633
1018.878	-1722
1018.949	-951
1019.019	-1631
1019.089	-2030
1019.160	-1015
1019.230	-1457
1019.300	-1240
1019.371	-1451
1019.441	-1237
1019.511	-1970
1019.581	-1954
1019.651	-1375
1019.721	-2162
1019.791	-1328
1019.861	-938
1019.931	-1158
1020.001	-1693
1020.071	-1497
1020.141	-1088
1020.211	-1287
1020.281	-1807
1020.351	-1582
1020.421	-1223
1020.491	-966
1020.560	-1904
1020.630	-1217
1020.700	-1316
1020.770	-1329
1020.839	-1228
1020.909	-2463
1020.979	-1762
1021.048	-625
1021.118	-1329
1021.187	-1299
1021.257	-1456
1021.326	-1543
1021.396	-1965
1021.465	-1483
1021.535	-1731
1021.604	-2108
1021.674	-1476
1021.743	-1229
1021.812	-1782
1021.882	-1597
1021.951	-1518
1022.020	-1316
1022.089	-756
1022.159	-1073
1022.228	-1480
1022.297	-1610
1022.366	-2729
1022.435	-970
1022.504	-1633
1022.573	-1020
1022.642	-1744
1022.711	-1498
1022.781	-1577
1022.849	-801
1022.918	-1594
1022.987	-1430
1023.056	-1998
1023.125	-1312
1023.194	-1659
1023.263	-1937
1023.331	-1192
1023.400	-726
1023.469	-1971
1023.538	-1243
1023.606	-1919
1023.675	-1894
1023.744	-1810
1023.812	-1655
1023.881	-1556
1023.949	-1307
1024.018	-2037
1024.086	-1762
1024.155	-1460
1024.223	-1168
1024.292	-1921
1024.360	-1198
1024.429	-1192
1024.497	-1000
1024.565	-2307
1024.634	-829
1024.702	-2095
1024.770	-1722
1024.838	-1698
1024.907	-1166
1024.975	-2160
1025.043	-646
1025.111	-2413
1025.179	-1560
1025.247	-1835
1025.315	-1677
1025.383	-1894
1025.451	-1400
1025.519	-2674
1025.587	-2393
1025.655	-1479
1025.723	-2040
1025.791	-1393
1025.859	-1495
1025.927	-2036
1025.995	-1296
1026.062	-1683
1026.130	-1862
1026.198	-2621
1026.266	-1326
1026.333	-2359
1026.401	-864
1026.469	-1950
1026.536	-1759
1026.604	-2123
1026.671	-1215
1026.739	-1629
1026.806	-1589
1026.874	-2058
1026.941	-1316
1027.009	-1159
1027.076	-2418
1027.144	-1735
1027.211	-2237
1027.278	-2488
1027.345	-1753
1027.413	-1752
1027.480	-1628
1027.547	-2182
1027.614	-2137
1027.682	-1463
1027.749	-1572
1027.816	-1923
1027.883	-1280
1027.950	-1774
1028.017	-2579
1028.084	-1549
1028.151	-1966
1028.218	-1384
1028.285	-1131
1028.352	-2477
1028.419	-2532
1028.486	-1574
1028.553	-1123
1028.619	-2129
1028.686	-567
1028.753	-2322
1028.820	-1413
1028.886	-1683
1028.953	-1053
1029.020	-1431
1029.086	-1498
1029.153	-1703
1029.220	-1519
1029.286	-2278
1029.353	-1356
1029.419	-2084
1029.486	-1953
1029.552	-2251
1029.619	-1297
1029.685	-1737
1029.751	-1915
1029.818	-803
1029.884	-1587
1029.951	-1149
1030.017	-1617
1030.083	-1903
1030.149	-1716
1030.216	-1725
1030.282	-1641
1030.348	-1856
1030.414	-1608
1030.480	-1662
1030.546	-1102
1030.612	-1834
1030.678	-1855
1030.744	-2172
1030.810	-2410
1030.876	-1565
1030.942	-938
1031.008	-2291
1031.074	-1314
1031.140	-2412
1031.206	-1497
1031.272	-2266
1031.337	-901
1031.403	-1860
1031.469	-2017
1031.534	-1784
1031.600	-1102
1031.666	-2854
1031.731	-1273
1031.797	-1544
1031.863	-886
1031.928	-1743
1031.994	-1551
1032.059	-1860
1032.125	-1550
1032.190	-1630
1032.256	-2703
1032.321	-2200
1032.386	-1923
1032.452	-1687
1032.517	-1618
1032.582	-1308
1032.647	-1733
1032.713	-1480
1032.778	-1296
1032.843	-2003
1032.908	-1244
1032.974	-1749
1033.039	-2633
1033.104	-2253
1033.169	-2318
1033.234	-2302
1033.299	-1611
1033.364	-2198
1033.429	-2150
1033.494	-1584
1033.559	-1538
1033.624	-1215
1033.688	-934
1033.753	-2086
1033.818	-1160
1033.883	-1290
1033.948	221
1034.013	-679
1034.077	1605
1034.142	1578
1034.207	2485
1034.271	4214
1034.336	6615
1034.400	6867
1034.465	3221
1034.530	793
1034.594	78
1034.658	-1535
1034.723	-1331
1034.787	-804
1034.852	-1285
1034.916	-1029
1034.981	-1627
1035.045	-1835
1035.109	-1647
1035.173	-1492
1035.238	-1568
1035.302	-1962
1035.366	-1610
1035.430	-1209
1035.495	-2236
1035.559	-1573
1035.623	-1035
1035.687	-1301
1035.751	-2346
1035.815	-1244
1035.879	-1340
1035.943	-1768
1036.007	-2376
1036.071	-2486
1036.135	-1765
1036.198	-1858
1036.262	-1733
1036.326	-2132
1036.390	-2000
1036.454	-1748
1036.517	-1579
1036.581	-1635
1036.645	-1116
1036.709	-1259
1036.772	-1577
1036.836	-2155
1036.900	-2119
1036.963	-1967
1037.026	-1163
1037.090	-2043
1037.154	-1276
1037.217	-1823
1037.280	-1642
1037.344	-2388
1037.407	-1173
1037.471	-1914
1037.534	-1666
1037.597	-1196
1037.661	-1248
1037.724	-867
1037.787	-505
1037.850	-1507
1037.913	-1462
1037.977	-609
1038.040	-2521
1038.103	-1022
1038.166	-2013
1038.229	-1821
1038.292	-1513
1038.355	-1508
1038.418	-995
1038.481	-2054
1038.544	-1820
1038.607	-2316
1038.670	-1700
1038.732	-1770
1038.795	-1107
1038.858	-1722
1038.921	-1639
1038.984	-1547
1039.046	-1833
1039.109	-2247
1039.172	-1688
1039.234	-1733
1039.297	-1512
1039.360	-1326
1039.422	-1449
1039.485	-1298
1039.547	-1947
1039.610	-1584
1039.672	-1474
1039.734	-1289
1039.797	-2009
1039.859	-1537
1039.922	-1231
1039.984	-1997
1040.046	-1335
1040.109	-1436
1040.171	-2368
1040.233	-1654
1040.295	-1440
1040.358	-2154
1040.420	-1884
1040.482	-1400
1040.544	-2292
1040.606	-1862
1040.668	-1538
1040.730	-1994
1040.792	-1313
1040.854	-1970
1040.916	-1730
1040.978	-2235
1041.040	-1073
1041.102	-1830
1041.164	-1796
1041.225	-1649
1041.287	-1617
1041.349	-1844
1041.411	-1491
1041.472	-1481
1041.534	-2328
1041.596	-1003
1041.657	-1639
1041.719	-1358
1041.781	-2455
1041.842	-1714
1041.904	-1871
1041.965	-2080
1042.027	-1761
1042.088	-1656
1042.150	-1762
1042.211	-2180
1042.272	-1035
1042.334	-1558
1042.395	-1522
1042.456	-2234
1042.518	-1530
1042.579	-1678
1042.640	-1382
1042.701	-1622
1042.763	-2231
1042.824	-1638
1042.885	-1991
1042.946	-1886
1043.007	-1765
1043.068	-2268
1043.129	-1699
1043.190	-2209
1043.251	-1654
1043.312	-1693
1043.373	-1510
1043.434	-2311
1043.495	-1849
1043.556	-1797
1043.616	-1742
1043.677	-2560
1043.738	-1835
1043.799	-2765
1043.859	-1345
1043.920	-1326
1043.981	-1621
1044.041	-1870
1044.102	-1704
1044.162	-1154
1044.223	-2312
1044.284	-1989
1044.344	-1932
1044.405	-1629
1044.465	-1280
1044.525	-1464
1044.586	-1439
1044.646	-1472
1044.707	-1404
1044.767	-2011
1044.827	-2191
1044.887	-1953
1044.948	-804
1045.008	-2105
1045.068	-1043
1045.128	-1317
1045.188	-1602
1045.249	-1821
1045.309	-2103
1045.369	-2415
1045.429	-1339
1045.489	-2115
1045.549	-1511
1045.609	-2545
1045.669	-1555
1045.729	-1369
1045.789	-1066
1045.848	-1346
1045.908	-825
1045.968	-1876
1046.028	-1619
1046.088	-1914
1046.147	-558
1046.207	-1819
1046.267	-1572
1046.326	-1982
1046.386	101
1046.446	-1749
1046.505	-892
1046.565	-1468
1046.624	-283
1046.684	-1493
1046.743	-475
1046.803	-414
1046.862	231
1046.922	0
